"rt","stimulus","response","trial_type","trial_index","plugin_version","time_elapsed","response_mapping","subject_id","list_index","lextale_score","lextale_word_score","lextale_nonword_score","success","timeout","failed_images","failed_audio","failed_video","task","isWord","isDummy","target","prime","prime_type","stimulus_type","correct_response","correct","section","question_order"
"2463","
    <div style=""max-width: 800px; margin: auto; text-align: left;"">
      <h2>STANFORD UNIVERSITY</h2>
      <h3>Research Information Sheet</h3>
      <p><strong>Protocol Director:</strong> Robert Hawkins<br>
      <strong>Protocol Title:</strong> Communication and social cognition in natural audiovisual contexts<br>
      <strong>IRB#:</strong> 77226</p>

      <p><strong>DESCRIPTION:</strong> You are invited to participate in a research study about language and communication. The purpose of the research is to understand how you interact and communicate with other people in naturalistic settings as a fluent English speaker. This research will be conducted through the Prolific platform, including participants from the US, UK, and Canada. If you decide to participate in this research, you will play a communication game in a group with one or more partners.</p>

      <p><strong>TIME INVOLVEMENT:</strong> The task will last the amount of time advertised on Prolific. You are free to withdraw from the study at any time.</p>

      <p><strong>RISKS AND BENEFITS:</strong> You may become frustrated if your partner gets distracted, or experience discomfort if other participants in your group send text that is inappropriate for the task. We ask you to please be respectful of other participants you might be interacting with to mitigate these risks. You may also experience discomfort when being asked to discuss or challenge emotionally salient political beliefs. Study data will be stored securely, in compliance with Stanford University standards, minimizing the risk of confidentiality breach. This study advances our scientific understanding of how people communicate and collaborate in naturalistic settings. This study may lead to further insights about what can go wrong in teamwork, suggest potential interventions to overcome these barriers, and help to develop assistive technologies that collaborate with human partners. We cannot and do not guarantee or promise that you will receive any benefits from this study.</p>

      <p><strong>PAYMENTS:</strong> You will receive payment in the amount advertised on Prolific. If you do not complete this study, you will receive prorated payment based on the time that you have spent. Additionally, you may be eligible for bonus payments as described in the instructions.</p>

      <p><strong>PARTICIPANT’S RIGHTS:</strong> If you have read this form and have decided to participate in this project, please understand your participation is voluntary and you have the right to withdraw your consent or discontinue participation at any time without penalty or loss of benefits to which you are otherwise entitled. The alternative is not to participate. You have the right to refuse to answer particular questions. The results of this research study may be presented at scientific or professional meetings or published in scientific journals. Your individual privacy will be maintained in all published and written data resulting from the study. In accordance with scientific norms, the data from this study may be used or shared with other researchers for future research (after removing personally identifying information) without additional consent from you.</p>

      <p><strong>CONTACT INFORMATION:</strong><br>
      Questions: If you have any questions, concerns or complaints about this research, its procedures, risks and benefits, contact the Protocol Director, Robert Hawkins (<a href=""mailto:rdhawkins@stanford.edu"">rdhawkins@stanford.edu</a>, 217-549-6923).<br>
      Independent Contact: If you are not satisfied with how this study is being conducted, or if you have any concerns, complaints, or general questions about the research or your rights as a participant, please contact the Stanford Institutional Review Board (IRB) to speak to someone independent of the research team at 650-723-2480 or toll free at 1-866-680-2906, or email at <a href=""mailto:irbnon-med@stanford.edu"">irbnon-med@stanford.edu</a>. You can also write to the Stanford IRB, Stanford University, 1705 El Camino Real, Palo Alto, CA 94306.</p>

      <p><strong>Please save or print a copy of this page for your records.</strong></p>
      <p>If you agree to participate in this research, click ""Continue"" below.</p>
    </div>
  ","0","html-button-response","0","2.1.0","2466","F=YES, J=NO","0hfazm5o5s","0","69","83","55","","","","","","","","","","","","","","","",""
"3757","
    <div style=""max-width: 800px; margin: auto; text-align: left;"">
      <h2>Welcome!</h2>
      <p>Thank you for participating in this study. The experiment consists of three parts:</p>
      <ol>
        <li>An English vocabulary test</li>
        <li>A main task in which you will hear and see words, and decide whether the written word is a real English word</li>
        <li>A brief survey about your background</li>
      </ol>
      <p>Each part will be introduced before it begins.</p>
      <p>Please make sure you are in a quiet environment and can hear audio clearly for the final task.</p>
      <p style=""margin-top: 2em;"">Press any key to begin.</p>
    </div>
  "," ","html-keyboard-response","1","2.1.0","6224","F=YES, J=NO","0hfazm5o5s","0","69","83","55","","","","","","","","","","","","","","","",""
"","","","preload","2","2.1.0","6857","F=YES, J=NO","0hfazm5o5s","0","69","83","55","true","false","[]","[]","[]","","","","","","","","","","",""
"4865","
    <div style=""max-width: 800px; margin: auto; text-align: left;"">
      <h2>Part 1: Vocabulary Test</h2>
      <p>You will now complete the first part of the study: a short English vocabulary test.</p>
      <p>This test is called <strong>LexTALE</strong> and helps us get a general sense of your English proficiency.</p>
      <p style=""margin-top: 2em;"">Press any key to continue.</p>
    </div>
  "," ","html-keyboard-response","3","2.1.0","11722","F=YES, J=NO","0hfazm5o5s","0","69","83","55","","","","","","","","","","","","","","","",""
"9143","
    <div style=""max-width: 800px; margin: auto; text-align: left;"">
      <h2>LexTALE Vocabulary Test</h2>
      <p>In this test, you will see a series of letter strings—one at a time.</p>
      <p>Your task is to decide whether each string is a real English word.</p>
      <p><strong>Key responses:</strong></p>
      <ul>
        <li><strong>F</strong> = YES (real English word)</li>
        <li><strong>J</strong> = NO (not a real English word)</li>
      </ul>
      <p>There is no time limit, but please try to be accurate.</p>
      <p style=""margin-top: 2em;"">Press any key to begin.</p>
    </div>
  ","f","html-keyboard-response","4","2.1.0","20866","F=YES, J=NO","0hfazm5o5s","0","69","83","55","","","","","","","","","","","","","","","",""
"1864","
  <p style=""font-size: 40px;"">platery</p>
  <p style=""font-size: 16px;"">F = YES &nbsp;&nbsp;&nbsp; J = NO</p>
","f","html-keyboard-response","5","2.1.0","22732","F=YES, J=NO","0hfazm5o5s","0","69","83","55","","","","","","lextale","false","true","","","","","","","",""
"733","
  <p style=""font-size: 40px;"">denial</p>
  <p style=""font-size: 16px;"">F = YES &nbsp;&nbsp;&nbsp; J = NO</p>
","f","html-keyboard-response","6","2.1.0","23466","F=YES, J=NO","0hfazm5o5s","0","69","83","55","","","","","","lextale","true","true","","","","","","","",""
"1383","
  <p style=""font-size: 40px;"">marrit</p>
  <p style=""font-size: 16px;"">F = YES &nbsp;&nbsp;&nbsp; J = NO</p>
","j","html-keyboard-response","7","2.1.0","24849","F=YES, J=NO","0hfazm5o5s","0","69","83","55","","","","","","lextale","false","true","","","","","","","",""
"2452","
  <p style=""font-size: 40px;"">bottle</p>
  <p style=""font-size: 16px;"">F = YES &nbsp;&nbsp;&nbsp; J = NO</p>
","f","html-keyboard-response","8","2.1.0","27303","F=YES, J=NO","0hfazm5o5s","0","69","83","55","","","","","","lextale","true","false","","","","","","","",""
"1095","
  <p style=""font-size: 40px;"">birst</p>
  <p style=""font-size: 16px;"">F = YES &nbsp;&nbsp;&nbsp; J = NO</p>
","j","html-keyboard-response","9","2.1.0","28399","F=YES, J=NO","0hfazm5o5s","0","69","83","55","","","","","","lextale","false","false","","","","","","","",""
"755","
  <p style=""font-size: 40px;"">envy</p>
  <p style=""font-size: 16px;"">F = YES &nbsp;&nbsp;&nbsp; J = NO</p>
","f","html-keyboard-response","10","2.1.0","29154","F=YES, J=NO","0hfazm5o5s","0","69","83","55","","","","","","lextale","true","false","","","","","","","",""
"808","
  <p style=""font-size: 40px;"">brang</p>
  <p style=""font-size: 16px;"">F = YES &nbsp;&nbsp;&nbsp; J = NO</p>
","j","html-keyboard-response","11","2.1.0","29962","F=YES, J=NO","0hfazm5o5s","0","69","83","55","","","","","","lextale","false","false","","","","","","","",""
"543","
  <p style=""font-size: 40px;"">huge</p>
  <p style=""font-size: 16px;"">F = YES &nbsp;&nbsp;&nbsp; J = NO</p>
","f","html-keyboard-response","12","2.1.0","30506","F=YES, J=NO","0hfazm5o5s","0","69","83","55","","","","","","lextale","true","false","","","","","","","",""
"750","
  <p style=""font-size: 40px;"">plove</p>
  <p style=""font-size: 16px;"">F = YES &nbsp;&nbsp;&nbsp; J = NO</p>
","j","html-keyboard-response","13","2.1.0","31257","F=YES, J=NO","0hfazm5o5s","0","69","83","55","","","","","","lextale","false","false","","","","","","","",""
"556","
  <p style=""font-size: 40px;"">border</p>
  <p style=""font-size: 16px;"">F = YES &nbsp;&nbsp;&nbsp; J = NO</p>
","f","html-keyboard-response","14","2.1.0","31813","F=YES, J=NO","0hfazm5o5s","0","69","83","55","","","","","","lextale","true","false","","","","","","","",""
"1069","
  <p style=""font-size: 40px;"">flimsy</p>
  <p style=""font-size: 16px;"">F = YES &nbsp;&nbsp;&nbsp; J = NO</p>
","f","html-keyboard-response","15","2.1.0","32883","F=YES, J=NO","0hfazm5o5s","0","69","83","55","","","","","","lextale","true","false","","","","","","","",""
"625","
  <p style=""font-size: 40px;"">drain</p>
  <p style=""font-size: 16px;"">F = YES &nbsp;&nbsp;&nbsp; J = NO</p>
","f","html-keyboard-response","16","2.1.0","33509","F=YES, J=NO","0hfazm5o5s","0","69","83","55","","","","","","lextale","true","false","","","","","","","",""
"872","
  <p style=""font-size: 40px;"">twindle</p>
  <p style=""font-size: 16px;"">F = YES &nbsp;&nbsp;&nbsp; J = NO</p>
","f","html-keyboard-response","17","2.1.0","34382","F=YES, J=NO","0hfazm5o5s","0","69","83","55","","","","","","lextale","false","false","","","","","","","",""
"701","
  <p style=""font-size: 40px;"">propose</p>
  <p style=""font-size: 16px;"">F = YES &nbsp;&nbsp;&nbsp; J = NO</p>
","f","html-keyboard-response","18","2.1.0","35084","F=YES, J=NO","0hfazm5o5s","0","69","83","55","","","","","","lextale","true","false","","","","","","","",""
"772","
  <p style=""font-size: 40px;"">forlay</p>
  <p style=""font-size: 16px;"">F = YES &nbsp;&nbsp;&nbsp; J = NO</p>
","j","html-keyboard-response","19","2.1.0","35856","F=YES, J=NO","0hfazm5o5s","0","69","83","55","","","","","","lextale","false","false","","","","","","","",""
"1402","
  <p style=""font-size: 40px;"">tenant</p>
  <p style=""font-size: 16px;"">F = YES &nbsp;&nbsp;&nbsp; J = NO</p>
","f","html-keyboard-response","20","2.1.0","37259","F=YES, J=NO","0hfazm5o5s","0","69","83","55","","","","","","lextale","true","false","","","","","","","",""
"699","
  <p style=""font-size: 40px;"">strain</p>
  <p style=""font-size: 16px;"">F = YES &nbsp;&nbsp;&nbsp; J = NO</p>
","f","html-keyboard-response","21","2.1.0","37959","F=YES, J=NO","0hfazm5o5s","0","69","83","55","","","","","","lextale","true","false","","","","","","","",""
"652","
  <p style=""font-size: 40px;"">holster</p>
  <p style=""font-size: 16px;"">F = YES &nbsp;&nbsp;&nbsp; J = NO</p>
","f","html-keyboard-response","22","2.1.0","38612","F=YES, J=NO","0hfazm5o5s","0","69","83","55","","","","","","lextale","true","false","","","","","","","",""
"943","
  <p style=""font-size: 40px;"">hinder</p>
  <p style=""font-size: 16px;"">F = YES &nbsp;&nbsp;&nbsp; J = NO</p>
","f","html-keyboard-response","23","2.1.0","39556","F=YES, J=NO","0hfazm5o5s","0","69","83","55","","","","","","lextale","true","false","","","","","","","",""
"683","
  <p style=""font-size: 40px;"">swindle</p>
  <p style=""font-size: 16px;"">F = YES &nbsp;&nbsp;&nbsp; J = NO</p>
","f","html-keyboard-response","24","2.1.0","40239","F=YES, J=NO","0hfazm5o5s","0","69","83","55","","","","","","lextale","true","false","","","","","","","",""
"1629","
  <p style=""font-size: 40px;"">nuder</p>
  <p style=""font-size: 16px;"">F = YES &nbsp;&nbsp;&nbsp; J = NO</p>
","j","html-keyboard-response","25","2.1.0","41868","F=YES, J=NO","0hfazm5o5s","0","69","83","55","","","","","","lextale","false","false","","","","","","","",""
"566","
  <p style=""font-size: 40px;"">pillow</p>
  <p style=""font-size: 16px;"">F = YES &nbsp;&nbsp;&nbsp; J = NO</p>
","f","html-keyboard-response","26","2.1.0","42435","F=YES, J=NO","0hfazm5o5s","0","69","83","55","","","","","","lextale","true","false","","","","","","","",""
"1241","
  <p style=""font-size: 40px;"">shumble</p>
  <p style=""font-size: 16px;"">F = YES &nbsp;&nbsp;&nbsp; J = NO</p>
","f","html-keyboard-response","27","2.1.0","43676","F=YES, J=NO","0hfazm5o5s","0","69","83","55","","","","","","lextale","false","false","","","","","","","",""
"751","
  <p style=""font-size: 40px;"">thirst</p>
  <p style=""font-size: 16px;"">F = YES &nbsp;&nbsp;&nbsp; J = NO</p>
","f","html-keyboard-response","28","2.1.0","44428","F=YES, J=NO","0hfazm5o5s","0","69","83","55","","","","","","lextale","true","false","","","","","","","",""
"1098","
  <p style=""font-size: 40px;"">unsail</p>
  <p style=""font-size: 16px;"">F = YES &nbsp;&nbsp;&nbsp; J = NO</p>
","f","html-keyboard-response","29","2.1.0","45527","F=YES, J=NO","0hfazm5o5s","0","69","83","55","","","","","","lextale","false","false","","","","","","","",""
"549","
  <p style=""font-size: 40px;"">rifle</p>
  <p style=""font-size: 16px;"">F = YES &nbsp;&nbsp;&nbsp; J = NO</p>
","f","html-keyboard-response","30","2.1.0","46076","F=YES, J=NO","0hfazm5o5s","0","69","83","55","","","","","","lextale","true","false","","","","","","","",""
"810","
  <p style=""font-size: 40px;"">mush</p>
  <p style=""font-size: 16px;"">F = YES &nbsp;&nbsp;&nbsp; J = NO</p>
","f","html-keyboard-response","31","2.1.0","46886","F=YES, J=NO","0hfazm5o5s","0","69","83","55","","","","","","lextale","false","false","","","","","","","",""
"1007","
  <p style=""font-size: 40px;"">drench</p>
  <p style=""font-size: 16px;"">F = YES &nbsp;&nbsp;&nbsp; J = NO</p>
","f","html-keyboard-response","32","2.1.0","47894","F=YES, J=NO","0hfazm5o5s","0","69","83","55","","","","","","lextale","true","false","","","","","","","",""
"759","
  <p style=""font-size: 40px;"">snirt</p>
  <p style=""font-size: 16px;"">F = YES &nbsp;&nbsp;&nbsp; J = NO</p>
","f","html-keyboard-response","33","2.1.0","48653","F=YES, J=NO","0hfazm5o5s","0","69","83","55","","","","","","lextale","false","false","","","","","","","",""
"871","
  <p style=""font-size: 40px;"">bitter</p>
  <p style=""font-size: 16px;"">F = YES &nbsp;&nbsp;&nbsp; J = NO</p>
","f","html-keyboard-response","34","2.1.0","49524","F=YES, J=NO","0hfazm5o5s","0","69","83","55","","","","","","lextale","true","false","","","","","","","",""
"1169","
  <p style=""font-size: 40px;"">pliff</p>
  <p style=""font-size: 16px;"">F = YES &nbsp;&nbsp;&nbsp; J = NO</p>
","j","html-keyboard-response","35","2.1.0","50693","F=YES, J=NO","0hfazm5o5s","0","69","83","55","","","","","","lextale","false","false","","","","","","","",""
"652","
  <p style=""font-size: 40px;"">tablet</p>
  <p style=""font-size: 16px;"">F = YES &nbsp;&nbsp;&nbsp; J = NO</p>
","f","html-keyboard-response","36","2.1.0","51345","F=YES, J=NO","0hfazm5o5s","0","69","83","55","","","","","","lextale","true","false","","","","","","","",""
"670","
  <p style=""font-size: 40px;"">glimmer</p>
  <p style=""font-size: 16px;"">F = YES &nbsp;&nbsp;&nbsp; J = NO</p>
","f","html-keyboard-response","37","2.1.0","52015","F=YES, J=NO","0hfazm5o5s","0","69","83","55","","","","","","lextale","true","false","","","","","","","",""
"734","
  <p style=""font-size: 40px;"">slink</p>
  <p style=""font-size: 16px;"">F = YES &nbsp;&nbsp;&nbsp; J = NO</p>
","f","html-keyboard-response","38","2.1.0","52749","F=YES, J=NO","0hfazm5o5s","0","69","83","55","","","","","","lextale","true","false","","","","","","","",""
"939","
  <p style=""font-size: 40px;"">clever</p>
  <p style=""font-size: 16px;"">F = YES &nbsp;&nbsp;&nbsp; J = NO</p>
","f","html-keyboard-response","39","2.1.0","53688","F=YES, J=NO","0hfazm5o5s","0","69","83","55","","","","","","lextale","true","false","","","","","","","",""
"1154","
  <p style=""font-size: 40px;"">grum</p>
  <p style=""font-size: 16px;"">F = YES &nbsp;&nbsp;&nbsp; J = NO</p>
","j","html-keyboard-response","40","2.1.0","54843","F=YES, J=NO","0hfazm5o5s","0","69","83","55","","","","","","lextale","false","false","","","","","","","",""
"618","
  <p style=""font-size: 40px;"">string</p>
  <p style=""font-size: 16px;"">F = YES &nbsp;&nbsp;&nbsp; J = NO</p>
","f","html-keyboard-response","41","2.1.0","55461","F=YES, J=NO","0hfazm5o5s","0","69","83","55","","","","","","lextale","true","false","","","","","","","",""
"1598","
  <p style=""font-size: 40px;"">plim</p>
  <p style=""font-size: 16px;"">F = YES &nbsp;&nbsp;&nbsp; J = NO</p>
","j","html-keyboard-response","42","2.1.0","57059","F=YES, J=NO","0hfazm5o5s","0","69","83","55","","","","","","lextale","false","false","","","","","","","",""
"530","
  <p style=""font-size: 40px;"">cable</p>
  <p style=""font-size: 16px;"">F = YES &nbsp;&nbsp;&nbsp; J = NO</p>
","f","html-keyboard-response","43","2.1.0","57590","F=YES, J=NO","0hfazm5o5s","0","69","83","55","","","","","","lextale","true","false","","","","","","","",""
"897","
  <p style=""font-size: 40px;"">shrivel</p>
  <p style=""font-size: 16px;"">F = YES &nbsp;&nbsp;&nbsp; J = NO</p>
","j","html-keyboard-response","44","2.1.0","58487","F=YES, J=NO","0hfazm5o5s","0","69","83","55","","","","","","lextale","true","false","","","","","","","",""
"639","
  <p style=""font-size: 40px;"">tarnish</p>
  <p style=""font-size: 16px;"">F = YES &nbsp;&nbsp;&nbsp; J = NO</p>
","f","html-keyboard-response","45","2.1.0","59127","F=YES, J=NO","0hfazm5o5s","0","69","83","55","","","","","","lextale","true","false","","","","","","","",""
"534","
  <p style=""font-size: 40px;"">blim</p>
  <p style=""font-size: 16px;"">F = YES &nbsp;&nbsp;&nbsp; J = NO</p>
","f","html-keyboard-response","46","2.1.0","59661","F=YES, J=NO","0hfazm5o5s","0","69","83","55","","","","","","lextale","false","false","","","","","","","",""
"705","
  <p style=""font-size: 40px;"">stifle</p>
  <p style=""font-size: 16px;"">F = YES &nbsp;&nbsp;&nbsp; J = NO</p>
","f","html-keyboard-response","47","2.1.0","60367","F=YES, J=NO","0hfazm5o5s","0","69","83","55","","","","","","lextale","true","false","","","","","","","",""
"1046","
  <p style=""font-size: 40px;"">bint</p>
  <p style=""font-size: 16px;"">F = YES &nbsp;&nbsp;&nbsp; J = NO</p>
","j","html-keyboard-response","48","2.1.0","61414","F=YES, J=NO","0hfazm5o5s","0","69","83","55","","","","","","lextale","false","false","","","","","","","",""
"506","
  <p style=""font-size: 40px;"">purple</p>
  <p style=""font-size: 16px;"">F = YES &nbsp;&nbsp;&nbsp; J = NO</p>
","f","html-keyboard-response","49","2.1.0","61921","F=YES, J=NO","0hfazm5o5s","0","69","83","55","","","","","","lextale","true","false","","","","","","","",""
"1088","
  <p style=""font-size: 40px;"">wriggle</p>
  <p style=""font-size: 16px;"">F = YES &nbsp;&nbsp;&nbsp; J = NO</p>
","f","html-keyboard-response","50","2.1.0","63009","F=YES, J=NO","0hfazm5o5s","0","69","83","55","","","","","","lextale","true","false","","","","","","","",""
"1064","
  <p style=""font-size: 40px;"">mangle</p>
  <p style=""font-size: 16px;"">F = YES &nbsp;&nbsp;&nbsp; J = NO</p>
","f","html-keyboard-response","51","2.1.0","64074","F=YES, J=NO","0hfazm5o5s","0","69","83","55","","","","","","lextale","true","false","","","","","","","",""
"740","
  <p style=""font-size: 40px;"">shramp</p>
  <p style=""font-size: 16px;"">F = YES &nbsp;&nbsp;&nbsp; J = NO</p>
","f","html-keyboard-response","52","2.1.0","64815","F=YES, J=NO","0hfazm5o5s","0","69","83","55","","","","","","lextale","false","false","","","","","","","",""
"737","
  <p style=""font-size: 40px;"">flirt</p>
  <p style=""font-size: 16px;"">F = YES &nbsp;&nbsp;&nbsp; J = NO</p>
","f","html-keyboard-response","53","2.1.0","65552","F=YES, J=NO","0hfazm5o5s","0","69","83","55","","","","","","lextale","true","false","","","","","","","",""
"896","
  <p style=""font-size: 40px;"">frip</p>
  <p style=""font-size: 16px;"">F = YES &nbsp;&nbsp;&nbsp; J = NO</p>
","j","html-keyboard-response","54","2.1.0","66448","F=YES, J=NO","0hfazm5o5s","0","69","83","55","","","","","","lextale","false","false","","","","","","","",""
"2043","
  <p style=""font-size: 40px;"">tangle</p>
  <p style=""font-size: 16px;"">F = YES &nbsp;&nbsp;&nbsp; J = NO</p>
","f","html-keyboard-response","55","2.1.0","68491","F=YES, J=NO","0hfazm5o5s","0","69","83","55","","","","","","lextale","true","false","","","","","","","",""
"580","
  <p style=""font-size: 40px;"">crumble</p>
  <p style=""font-size: 16px;"">F = YES &nbsp;&nbsp;&nbsp; J = NO</p>
","f","html-keyboard-response","56","2.1.0","69072","F=YES, J=NO","0hfazm5o5s","0","69","83","55","","","","","","lextale","true","false","","","","","","","",""
"615","
  <p style=""font-size: 40px;"">wrinkle</p>
  <p style=""font-size: 16px;"">F = YES &nbsp;&nbsp;&nbsp; J = NO</p>
","f","html-keyboard-response","57","2.1.0","69687","F=YES, J=NO","0hfazm5o5s","0","69","83","55","","","","","","lextale","true","false","","","","","","","",""
"618","
  <p style=""font-size: 40px;"">slumb</p>
  <p style=""font-size: 16px;"">F = YES &nbsp;&nbsp;&nbsp; J = NO</p>
","f","html-keyboard-response","58","2.1.0","70306","F=YES, J=NO","0hfazm5o5s","0","69","83","55","","","","","","lextale","false","false","","","","","","","",""
"562","
  <p style=""font-size: 40px;"">jungle</p>
  <p style=""font-size: 16px;"">F = YES &nbsp;&nbsp;&nbsp; J = NO</p>
","f","html-keyboard-response","59","2.1.0","70868","F=YES, J=NO","0hfazm5o5s","0","69","83","55","","","","","","lextale","true","false","","","","","","","",""
"784","
  <p style=""font-size: 40px;"">frolick</p>
  <p style=""font-size: 16px;"">F = YES &nbsp;&nbsp;&nbsp; J = NO</p>
","j","html-keyboard-response","60","2.1.0","71652","F=YES, J=NO","0hfazm5o5s","0","69","83","55","","","","","","lextale","false","false","","","","","","","",""
"2142","
      <h2>LexTALE Test Completed</h2>
      <p>Your LexTALE vocabulary score is: <strong>69%</strong></p>
      <p>Press any key to continue.</p>
    ","f","html-keyboard-response","61","2.1.0","73795","F=YES, J=NO","0hfazm5o5s","0","69","83","55","","","","","","","","","","","","","","","",""
"12346","
    <div style=""max-width: 800px; margin: auto; text-align: left;"">
      <h2>Break Time</h2>
      <p>You have completed the first part of the study.</p>
      <p>You may take a short <strong>30-second break</strong> before continuing.</p>
      <p>When you’re ready, press any key to continue to the final task.</p>
    </div>
  ","f","html-keyboard-response","62","2.1.0","86142","F=YES, J=NO","0hfazm5o5s","0","69","83","55","","","","","","","","","","","","","","","",""
"15216","
    <div style=""max-width: 800px; margin: auto; text-align: left;"">
      <h2>Part 2: Lexical Decision Task</h2>
      <p>You will now begin the second part of the study.</p>
      <p>Each trial will follow this sequence:</p>
      <ul>
        <li>A fixation cross (+) appears at the center of the screen.</li>
        <li>You will hear a short beep followed by a spoken word.</li>
        <li>A written word will appear briefly on the screen.</li>
      </ul>
      <p>Your task is to judge whether the <strong>written word</strong> is a real English word.</p>
      <p style=""margin-top: 1em;""><strong>Key responses:</strong></p>
      <ul>
        <li><strong>F</strong> = YES (real English word)</li>
        <li><strong>J</strong> = NO (not a real English word)</li>
      </ul>
      <p>Please respond as quickly and accurately as you can.</p>
      <p style=""margin-top: 2em;"">Press any key to continue.</p>
    </div>
  ","f","html-keyboard-response","63","2.1.0","101358","F=YES, J=NO","0hfazm5o5s","0","69","83","55","","","","","","","","","","","","","","","",""
"5806","
    <div style=""max-width: 800px; margin: auto; text-align: left;"">
      <h2>Before You Begin</h2>
      <p>Make sure your sound is turned on.</p>
      <p>You will hear audio during each trial, but your decision should be based only on the <strong>written word</strong> you see on the screen.</p>
      <p><strong>Reminder:</strong></p>
      <ul>
        <li><strong>F</strong> = YES (real English word)</li>
        <li><strong>J</strong> = NO (not a real English word)</li>
      </ul>
      <p style=""margin-top: 2em;"">Press any key when you are ready to begin.</p>
    </div>
  ","f","html-keyboard-response","64","2.1.0","107165","F=YES, J=NO","0hfazm5o5s","0","69","83","55","","","","","","","","","","","","","","","",""
"1625","
    <div style=""max-width: 800px; margin: auto; text-align: left;"">
      <h2>Part 2: Practice Trials</h2>
      <p>You will now complete a few <strong>practice trials</strong> to get familiar with the task.</p>
      <p>These trials are <strong>not scored</strong> and are only to help you get used to the format.</p>
      <p style=""margin-top: 2em;"">Press any key to begin.</p>
    </div>
  ","f","html-keyboard-response","65","2.1.0","108790","F=YES, J=NO","0hfazm5o5s","0","69","83","55","","","","","","","","","","","","","","","",""
"1602","<p>Starting practice block 1 of 2. Press any key to continue.</p>","f","html-keyboard-response","66","2.1.0","110393","F=YES, J=NO","0hfazm5o5s","0","69","83","55","","","","","","","","","","","","","","","",""
"null","<p style=""font-size: 50px;"">+</p>","null","html-keyboard-response","67","2.1.0","110693","F=YES, J=NO","0hfazm5o5s","0","69","83","55","","","","","","","","","","","","","","","",""
"null","audio/beep-329314.mp3","null","audio-keyboard-response","68","2.1.0","112222","F=YES, J=NO","0hfazm5o5s","0","69","83","55","","","","","","","","","","","","","","","",""
"null","audio/birth1.wav","null","audio-keyboard-response","69","2.1.0","112752","F=YES, J=NO","0hfazm5o5s","0","69","83","55","","","","","","","","","","","","","","","",""
"null","
          <p id=""word"" style=""font-size: 40px;"">peel</p>
          <p style=""font-size: 16px;"">F = YES &nbsp;&nbsp;&nbsp; J = NO</p>
        ","null","html-keyboard-response","70","2.1.0","114258","F=YES, J=NO","0hfazm5o5s","0","69","83","55","","","","","","","","","peel","birth1","filler","filler","f","false","",""
"null","<p style=""font-size: 50px;"">+</p>","null","html-keyboard-response","71","2.1.0","114559","F=YES, J=NO","0hfazm5o5s","0","69","83","55","","","","","","","","","","","","","","","",""
"null","audio/beep-329314.mp3","null","audio-keyboard-response","72","2.1.0","116082","F=YES, J=NO","0hfazm5o5s","0","69","83","55","","","","","","","","","","","","","","","",""
"null","audio/foe1.wav","null","audio-keyboard-response","73","2.1.0","116612","F=YES, J=NO","0hfazm5o5s","0","69","83","55","","","","","","","","","","","","","","","",""
"610","
          <p id=""word"" style=""font-size: 40px;"">creth</p>
          <p style=""font-size: 16px;"">F = YES &nbsp;&nbsp;&nbsp; J = NO</p>
        ","j","html-keyboard-response","74","2.1.0","117223","F=YES, J=NO","0hfazm5o5s","0","69","83","55","","","","","","","","","creth","foe1","pseudoword","pseudoword","j","true","",""
"null","<p style=""font-size: 50px;"">+</p>","null","html-keyboard-response","75","2.1.0","117529","F=YES, J=NO","0hfazm5o5s","0","69","83","55","","","","","","","","","","","","","","","",""
"null","audio/beep-329314.mp3","null","audio-keyboard-response","76","2.1.0","119062","F=YES, J=NO","0hfazm5o5s","0","69","83","55","","","","","","","","","","","","","","","",""
"null","audio/cancer1.wav","null","audio-keyboard-response","77","2.1.0","119632","F=YES, J=NO","0hfazm5o5s","0","69","83","55","","","","","","","","","","","","","","","",""
"466","
          <p id=""word"" style=""font-size: 40px;"">draw</p>
          <p style=""font-size: 16px;"">F = YES &nbsp;&nbsp;&nbsp; J = NO</p>
        ","f","html-keyboard-response","78","2.1.0","120098","F=YES, J=NO","0hfazm5o5s","0","69","83","55","","","","","","","","","draw","cancer1","filler","filler","f","true","",""
"null","<p style=""font-size: 50px;"">+</p>","null","html-keyboard-response","79","2.1.0","120406","F=YES, J=NO","0hfazm5o5s","0","69","83","55","","","","","","","","","","","","","","","",""
"null","audio/beep-329314.mp3","null","audio-keyboard-response","80","2.1.0","121942","F=YES, J=NO","0hfazm5o5s","0","69","83","55","","","","","","","","","","","","","","","",""
"null","audio/window1.wav","null","audio-keyboard-response","81","2.1.0","122552","F=YES, J=NO","0hfazm5o5s","0","69","83","55","","","","","","","","","","","","","","","",""
"727","
          <p id=""word"" style=""font-size: 40px;"">toss</p>
          <p style=""font-size: 16px;"">F = YES &nbsp;&nbsp;&nbsp; J = NO</p>
        ","f","html-keyboard-response","82","2.1.0","123280","F=YES, J=NO","0hfazm5o5s","0","69","83","55","","","","","","","","","toss","window1","filler","filler","f","true","",""
"null","<p style=""font-size: 50px;"">+</p>","null","html-keyboard-response","83","2.1.0","123584","F=YES, J=NO","0hfazm5o5s","0","69","83","55","","","","","","","","","","","","","","","",""
"null","audio/beep-329314.mp3","null","audio-keyboard-response","84","2.1.0","125122","F=YES, J=NO","0hfazm5o5s","0","69","83","55","","","","","","","","","","","","","","","",""
"null","audio/test1.wav","null","audio-keyboard-response","85","2.1.0","125712","F=YES, J=NO","0hfazm5o5s","0","69","83","55","","","","","","","","","","","","","","","",""
"549","
          <p id=""word"" style=""font-size: 40px;"">twopch</p>
          <p style=""font-size: 16px;"">F = YES &nbsp;&nbsp;&nbsp; J = NO</p>
        ","j","html-keyboard-response","86","2.1.0","126262","F=YES, J=NO","0hfazm5o5s","0","69","83","55","","","","","","","","","twopch","test1","pseudoword","pseudoword","j","true","",""
"null","<p style=""font-size: 50px;"">+</p>","null","html-keyboard-response","87","2.1.0","126576","F=YES, J=NO","0hfazm5o5s","0","69","83","55","","","","","","","","","","","","","","","",""
"null","audio/beep-329314.mp3","null","audio-keyboard-response","88","2.1.0","128102","F=YES, J=NO","0hfazm5o5s","0","69","83","55","","","","","","","","","","","","","","","",""
"null","audio/handle.wav","null","audio-keyboard-response","89","2.1.0","128732","F=YES, J=NO","0hfazm5o5s","0","69","83","55","","","","","","","","","","","","","","","",""
"826","
          <p id=""word"" style=""font-size: 40px;"">moutes</p>
          <p style=""font-size: 16px;"">F = YES &nbsp;&nbsp;&nbsp; J = NO</p>
        ","j","html-keyboard-response","90","2.1.0","129559","F=YES, J=NO","0hfazm5o5s","0","69","83","55","","","","","","","","","moutes","handle","pseudoword","pseudoword","j","true","",""
"null","<p style=""font-size: 50px;"">+</p>","null","html-keyboard-response","91","2.1.0","129863","F=YES, J=NO","0hfazm5o5s","0","69","83","55","","","","","","","","","","","","","","","",""
"null","audio/beep-329314.mp3","null","audio-keyboard-response","92","2.1.0","131402","F=YES, J=NO","0hfazm5o5s","0","69","83","55","","","","","","","","","","","","","","","",""
"null","audio/bomb1.wav","null","audio-keyboard-response","93","2.1.0","131812","F=YES, J=NO","0hfazm5o5s","0","69","83","55","","","","","","","","","","","","","","","",""
"481","
          <p id=""word"" style=""font-size: 40px;"">clean</p>
          <p style=""font-size: 16px;"">F = YES &nbsp;&nbsp;&nbsp; J = NO</p>
        ","f","html-keyboard-response","94","2.1.0","132294","F=YES, J=NO","0hfazm5o5s","0","69","83","55","","","","","","","","","clean","bomb1","filler","filler","f","true","",""
"null","<p style=""font-size: 50px;"">+</p>","null","html-keyboard-response","95","2.1.0","132603","F=YES, J=NO","0hfazm5o5s","0","69","83","55","","","","","","","","","","","","","","","",""
"null","audio/beep-329314.mp3","null","audio-keyboard-response","96","2.1.0","134142","F=YES, J=NO","0hfazm5o5s","0","69","83","55","","","","","","","","","","","","","","","",""
"null","audio/kettle1.wav","null","audio-keyboard-response","97","2.1.0","134632","F=YES, J=NO","0hfazm5o5s","0","69","83","55","","","","","","","","","","","","","","","",""
"520","
          <p id=""word"" style=""font-size: 40px;"">wrap</p>
          <p style=""font-size: 16px;"">F = YES &nbsp;&nbsp;&nbsp; J = NO</p>
        ","f","html-keyboard-response","98","2.1.0","135153","F=YES, J=NO","0hfazm5o5s","0","69","83","55","","","","","","","","","wrap","kettle1","filler","filler","f","true","",""
"null","<p style=""font-size: 50px;"">+</p>","null","html-keyboard-response","99","2.1.0","135463","F=YES, J=NO","0hfazm5o5s","0","69","83","55","","","","","","","","","","","","","","","",""
"null","audio/beep-329314.mp3","null","audio-keyboard-response","100","2.1.0","137003","F=YES, J=NO","0hfazm5o5s","0","69","83","55","","","","","","","","","","","","","","","",""
"null","audio/bush1.wav","null","audio-keyboard-response","101","2.1.0","137472","F=YES, J=NO","0hfazm5o5s","0","69","83","55","","","","","","","","","","","","","","","",""
"527","
          <p id=""word"" style=""font-size: 40px;"">platined</p>
          <p style=""font-size: 16px;"">F = YES &nbsp;&nbsp;&nbsp; J = NO</p>
        ","f","html-keyboard-response","102","2.1.0","138000","F=YES, J=NO","0hfazm5o5s","0","69","83","55","","","","","","","","","platined","bush1","pseudoword","pseudoword","j","false","",""
"null","<p style=""font-size: 50px;"">+</p>","null","html-keyboard-response","103","2.1.0","138303","F=YES, J=NO","0hfazm5o5s","0","69","83","55","","","","","","","","","","","","","","","",""
"null","audio/beep-329314.mp3","null","audio-keyboard-response","104","2.1.0","139843","F=YES, J=NO","0hfazm5o5s","0","69","83","55","","","","","","","","","","","","","","","",""
"null","audio/plot1.wav","null","audio-keyboard-response","105","2.1.0","140413","F=YES, J=NO","0hfazm5o5s","0","69","83","55","","","","","","","","","","","","","","","",""
"552","
          <p id=""word"" style=""font-size: 40px;"">glenter</p>
          <p style=""font-size: 16px;"">F = YES &nbsp;&nbsp;&nbsp; J = NO</p>
        ","j","html-keyboard-response","106","2.1.0","140965","F=YES, J=NO","0hfazm5o5s","0","69","83","55","","","","","","","","","glenter","plot1","pseudoword","pseudoword","j","true","",""
"null","<p style=""font-size: 50px;"">+</p>","null","html-keyboard-response","107","2.1.0","141282","F=YES, J=NO","0hfazm5o5s","0","69","83","55","","","","","","","","","","","","","","","",""
"null","audio/beep-329314.mp3","null","audio-keyboard-response","108","2.1.0","142803","F=YES, J=NO","0hfazm5o5s","0","69","83","55","","","","","","","","","","","","","","","",""
"null","audio/alarm1.wav","null","audio-keyboard-response","109","2.1.0","143393","F=YES, J=NO","0hfazm5o5s","0","69","83","55","","","","","","","","","","","","","","","",""
"569","
          <p id=""word"" style=""font-size: 40px;"">lock</p>
          <p style=""font-size: 16px;"">F = YES &nbsp;&nbsp;&nbsp; J = NO</p>
        ","f","html-keyboard-response","110","2.1.0","143962","F=YES, J=NO","0hfazm5o5s","0","69","83","55","","","","","","","","","lock","alarm1","filler","filler","f","true","",""
"null","<p style=""font-size: 50px;"">+</p>","null","html-keyboard-response","111","2.1.0","144267","F=YES, J=NO","0hfazm5o5s","0","69","83","55","","","","","","","","","","","","","","","",""
"null","audio/beep-329314.mp3","null","audio-keyboard-response","112","2.1.0","145803","F=YES, J=NO","0hfazm5o5s","0","69","83","55","","","","","","","","","","","","","","","",""
"null","audio/cave1.wav","null","audio-keyboard-response","113","2.1.0","146373","F=YES, J=NO","0hfazm5o5s","0","69","83","55","","","","","","","","","","","","","","","",""
"561","
          <p id=""word"" style=""font-size: 40px;"">blacket</p>
          <p style=""font-size: 16px;"">F = YES &nbsp;&nbsp;&nbsp; J = NO</p>
        ","f","html-keyboard-response","114","2.1.0","146934","F=YES, J=NO","0hfazm5o5s","0","69","83","55","","","","","","","","","blacket","cave1","pseudoword","pseudoword","j","false","",""
"5379","<p>Starting practice block 2 of 2. Press any key to continue.</p>","MediaPlayPause","html-keyboard-response","115","2.1.0","152313","F=YES, J=NO","0hfazm5o5s","0","69","83","55","","","","","","","","","","","","","","","",""
"null","<p style=""font-size: 50px;"">+</p>","null","html-keyboard-response","116","2.1.0","152623","F=YES, J=NO","0hfazm5o5s","0","69","83","55","","","","","","","","","","","","","","","",""
"null","audio/beep-329314.mp3","null","audio-keyboard-response","117","2.1.0","154163","F=YES, J=NO","0hfazm5o5s","0","69","83","55","","","","","","","","","","","","","","","",""
"null","audio/novel.wav","null","audio-keyboard-response","118","2.1.0","154773","F=YES, J=NO","0hfazm5o5s","0","69","83","55","","","","","","","","","","","","","","","",""
"443","
          <p id=""word"" style=""font-size: 40px;"">type</p>
          <p style=""font-size: 16px;"">F = YES &nbsp;&nbsp;&nbsp; J = NO</p>
        ","f","html-keyboard-response","119","2.1.0","155216","F=YES, J=NO","0hfazm5o5s","0","69","83","55","","","","","","","","","type","novel","filler","filler","f","true","",""
"null","<p style=""font-size: 50px;"">+</p>","null","html-keyboard-response","120","2.1.0","155532","F=YES, J=NO","0hfazm5o5s","0","69","83","55","","","","","","","","","","","","","","","",""
"null","audio/beep-329314.mp3","null","audio-keyboard-response","121","2.1.0","157063","F=YES, J=NO","0hfazm5o5s","0","69","83","55","","","","","","","","","","","","","","","",""
"null","audio/floor.wav","null","audio-keyboard-response","122","2.1.0","157633","F=YES, J=NO","0hfazm5o5s","0","69","83","55","","","","","","","","","","","","","","","",""
"542","
          <p id=""word"" style=""font-size: 40px;"">mop</p>
          <p style=""font-size: 16px;"">F = YES &nbsp;&nbsp;&nbsp; J = NO</p>
        ","j","html-keyboard-response","123","2.1.0","158175","F=YES, J=NO","0hfazm5o5s","0","69","83","55","","","","","","","","","mop","floor","filler","filler","f","false","",""
"null","<p style=""font-size: 50px;"">+</p>","null","html-keyboard-response","124","2.1.0","158489","F=YES, J=NO","0hfazm5o5s","0","69","83","55","","","","","","","","","","","","","","","",""
"null","audio/beep-329314.mp3","null","audio-keyboard-response","125","2.1.0","160023","F=YES, J=NO","0hfazm5o5s","0","69","83","55","","","","","","","","","","","","","","","",""
"null","audio/baby.wav","null","audio-keyboard-response","126","2.1.0","160493","F=YES, J=NO","0hfazm5o5s","0","69","83","55","","","","","","","","","","","","","","","",""
"666","
          <p id=""word"" style=""font-size: 40px;"">lift</p>
          <p style=""font-size: 16px;"">F = YES &nbsp;&nbsp;&nbsp; J = NO</p>
        ","f","html-keyboard-response","127","2.1.0","161159","F=YES, J=NO","0hfazm5o5s","0","69","83","55","","","","","","","","","lift","baby","filler","filler","f","true","",""
"null","<p style=""font-size: 50px;"">+</p>","null","html-keyboard-response","128","2.1.0","161472","F=YES, J=NO","0hfazm5o5s","0","69","83","55","","","","","","","","","","","","","","","",""
"null","audio/beep-329314.mp3","null","audio-keyboard-response","129","2.1.0","163003","F=YES, J=NO","0hfazm5o5s","0","69","83","55","","","","","","","","","","","","","","","",""
"null","audio/ego.wav","null","audio-keyboard-response","130","2.1.0","163673","F=YES, J=NO","0hfazm5o5s","0","69","83","55","","","","","","","","","","","","","","","",""
"672","
          <p id=""word"" style=""font-size: 40px;"">bruite</p>
          <p style=""font-size: 16px;"">F = YES &nbsp;&nbsp;&nbsp; J = NO</p>
        ","j","html-keyboard-response","131","2.1.0","164346","F=YES, J=NO","0hfazm5o5s","0","69","83","55","","","","","","","","","bruite","ego","pseudoword","pseudoword","j","true","",""
"null","<p style=""font-size: 50px;"">+</p>","null","html-keyboard-response","132","2.1.0","164658","F=YES, J=NO","0hfazm5o5s","0","69","83","55","","","","","","","","","","","","","","","",""
"null","audio/beep-329314.mp3","null","audio-keyboard-response","133","2.1.0","166183","F=YES, J=NO","0hfazm5o5s","0","69","83","55","","","","","","","","","","","","","","","",""
"null","audio/truth1.wav","null","audio-keyboard-response","134","2.1.0","166853","F=YES, J=NO","0hfazm5o5s","0","69","83","55","","","","","","","","","","","","","","","",""
"559","
          <p id=""word"" style=""font-size: 40px;"">calitom</p>
          <p style=""font-size: 16px;"">F = YES &nbsp;&nbsp;&nbsp; J = NO</p>
        ","j","html-keyboard-response","135","2.1.0","167413","F=YES, J=NO","0hfazm5o5s","0","69","83","55","","","","","","","","","calitom","truth1","pseudoword","pseudoword","j","true","",""
"null","<p style=""font-size: 50px;"">+</p>","null","html-keyboard-response","136","2.1.0","167728","F=YES, J=NO","0hfazm5o5s","0","69","83","55","","","","","","","","","","","","","","","",""
"null","audio/beep-329314.mp3","null","audio-keyboard-response","137","2.1.0","169263","F=YES, J=NO","0hfazm5o5s","0","69","83","55","","","","","","","","","","","","","","","",""
"null","audio/butter1.wav","null","audio-keyboard-response","138","2.1.0","169733","F=YES, J=NO","0hfazm5o5s","0","69","83","55","","","","","","","","","","","","","","","",""
"583","
          <p id=""word"" style=""font-size: 40px;"">chew</p>
          <p style=""font-size: 16px;"">F = YES &nbsp;&nbsp;&nbsp; J = NO</p>
        ","f","html-keyboard-response","139","2.1.0","170317","F=YES, J=NO","0hfazm5o5s","0","69","83","55","","","","","","","","","chew","butter1","filler","filler","f","true","",""
"null","<p style=""font-size: 50px;"">+</p>","null","html-keyboard-response","140","2.1.0","170619","F=YES, J=NO","0hfazm5o5s","0","69","83","55","","","","","","","","","","","","","","","",""
"null","audio/beep-329314.mp3","null","audio-keyboard-response","141","2.1.0","172143","F=YES, J=NO","0hfazm5o5s","0","69","83","55","","","","","","","","","","","","","","","",""
"null","audio/corpse1.wav","null","audio-keyboard-response","142","2.1.0","172753","F=YES, J=NO","0hfazm5o5s","0","69","83","55","","","","","","","","","","","","","","","",""
"600","
          <p id=""word"" style=""font-size: 40px;"">glonet</p>
          <p style=""font-size: 16px;"">F = YES &nbsp;&nbsp;&nbsp; J = NO</p>
        ","j","html-keyboard-response","143","2.1.0","173354","F=YES, J=NO","0hfazm5o5s","0","69","83","55","","","","","","","","","glonet","corpse1","pseudoword","pseudoword","j","true","",""
"null","<p style=""font-size: 50px;"">+</p>","null","html-keyboard-response","144","2.1.0","173657","F=YES, J=NO","0hfazm5o5s","0","69","83","55","","","","","","","","","","","","","","","",""
"null","audio/beep-329314.mp3","null","audio-keyboard-response","145","2.1.0","175183","F=YES, J=NO","0hfazm5o5s","0","69","83","55","","","","","","","","","","","","","","","",""
"null","audio/effort.wav","null","audio-keyboard-response","146","2.1.0","175753","F=YES, J=NO","0hfazm5o5s","0","69","83","55","","","","","","","","","","","","","","","",""
"603","
          <p id=""word"" style=""font-size: 40px;"">whonk</p>
          <p style=""font-size: 16px;"">F = YES &nbsp;&nbsp;&nbsp; J = NO</p>
        ","j","html-keyboard-response","147","2.1.0","176357","F=YES, J=NO","0hfazm5o5s","0","69","83","55","","","","","","","","","whonk","effort","pseudoword","pseudoword","j","true","",""
"null","<p style=""font-size: 50px;"">+</p>","null","html-keyboard-response","148","2.1.0","176662","F=YES, J=NO","0hfazm5o5s","0","69","83","55","","","","","","","","","","","","","","","",""
"null","audio/beep-329314.mp3","null","audio-keyboard-response","149","2.1.0","178183","F=YES, J=NO","0hfazm5o5s","0","69","83","55","","","","","","","","","","","","","","","",""
"null","audio/winter.wav","null","audio-keyboard-response","150","2.1.0","178773","F=YES, J=NO","0hfazm5o5s","0","69","83","55","","","","","","","","","","","","","","","",""
"497","
          <p id=""word"" style=""font-size: 40px;"">straven</p>
          <p style=""font-size: 16px;"">F = YES &nbsp;&nbsp;&nbsp; J = NO</p>
        ","f","html-keyboard-response","151","2.1.0","179271","F=YES, J=NO","0hfazm5o5s","0","69","83","55","","","","","","","","","straven","winter","pseudoword","pseudoword","j","false","",""
"null","<p style=""font-size: 50px;"">+</p>","null","html-keyboard-response","152","2.1.0","179578","F=YES, J=NO","0hfazm5o5s","0","69","83","55","","","","","","","","","","","","","","","",""
"null","audio/beep-329314.mp3","null","audio-keyboard-response","153","2.1.0","181103","F=YES, J=NO","0hfazm5o5s","0","69","83","55","","","","","","","","","","","","","","","",""
"null","audio/arm.wav","null","audio-keyboard-response","154","2.1.0","181653","F=YES, J=NO","0hfazm5o5s","0","69","83","55","","","","","","","","","","","","","","","",""
"515","
          <p id=""word"" style=""font-size: 40px;"">fold</p>
          <p style=""font-size: 16px;"">F = YES &nbsp;&nbsp;&nbsp; J = NO</p>
        ","f","html-keyboard-response","155","2.1.0","182169","F=YES, J=NO","0hfazm5o5s","0","69","83","55","","","","","","","","","fold","arm","filler","filler","f","true","",""
"null","<p style=""font-size: 50px;"">+</p>","null","html-keyboard-response","156","2.1.0","182483","F=YES, J=NO","0hfazm5o5s","0","69","83","55","","","","","","","","","","","","","","","",""
"null","audio/beep-329314.mp3","null","audio-keyboard-response","157","2.1.0","184004","F=YES, J=NO","0hfazm5o5s","0","69","83","55","","","","","","","","","","","","","","","",""
"null","audio/fence.wav","null","audio-keyboard-response","158","2.1.0","184673","F=YES, J=NO","0hfazm5o5s","0","69","83","55","","","","","","","","","","","","","","","",""
"613","
          <p id=""word"" style=""font-size: 40px;"">trim</p>
          <p style=""font-size: 16px;"">F = YES &nbsp;&nbsp;&nbsp; J = NO</p>
        ","f","html-keyboard-response","159","2.1.0","185287","F=YES, J=NO","0hfazm5o5s","0","69","83","55","","","","","","","","","trim","fence","filler","filler","f","true","",""
"null","<p style=""font-size: 50px;"">+</p>","null","html-keyboard-response","160","2.1.0","185602","F=YES, J=NO","0hfazm5o5s","0","69","83","55","","","","","","","","","","","","","","","",""
"null","audio/beep-329314.mp3","null","audio-keyboard-response","161","2.1.0","187124","F=YES, J=NO","0hfazm5o5s","0","69","83","55","","","","","","","","","","","","","","","",""
"null","audio/neck.wav","null","audio-keyboard-response","162","2.1.0","187694","F=YES, J=NO","0hfazm5o5s","0","69","83","55","","","","","","","","","","","","","","","",""
"598","
          <p id=""word"" style=""font-size: 40px;"">werling</p>
          <p style=""font-size: 16px;"">F = YES &nbsp;&nbsp;&nbsp; J = NO</p>
        ","j","html-keyboard-response","163","2.1.0","188292","F=YES, J=NO","0hfazm5o5s","0","69","83","55","","","","","","","","","werling","neck","pseudoword","pseudoword","j","true","",""
"3609","
    <div style=""max-width: 800px; margin: auto; text-align: left;"">
      <h2>Part 2: Main Trials</h2>
      <p>Great job on the practice trials!</p>
      <p>You will now begin the <strong>main set of trials</strong>.</p>
      <p>Remember your key assignments:</p>
      <ul>
        <li><strong>F</strong> = YES (real English word)</li>
        <li><strong>J</strong> = NO (not a real English word)</li>
      </ul>
      <p>Try to respond as <strong>quickly and accurately</strong> as possible.</p>
      <p style=""margin-top: 2em;"">Press any key to begin the main trials.</p>
    </div>
  ","f","html-keyboard-response","164","2.1.0","191901","F=YES, J=NO","0hfazm5o5s","0","69","83","55","","","","","","","","","","","","","","","",""
"983","<p>Starting main block 1 of 8. Press any key to continue.</p>","f","html-keyboard-response","165","2.1.0","192885","F=YES, J=NO","0hfazm5o5s","0","69","83","55","","","","","","","","","","","","","","","",""
"null","<p style=""font-size: 50px;"">+</p>","null","html-keyboard-response","166","2.1.0","193186","F=YES, J=NO","0hfazm5o5s","0","69","83","55","","","","","","","","","","","","","","","",""
"null","audio/beep-329314.mp3","null","audio-keyboard-response","167","2.1.0","194724","F=YES, J=NO","0hfazm5o5s","0","69","83","55","","","","","","","","","","","","","","","",""
"null","audio/hawk1.wav","null","audio-keyboard-response","168","2.1.0","195434","F=YES, J=NO","0hfazm5o5s","0","69","83","55","","","","","","","","","","","","","","","",""
"584","
          <p id=""word"" style=""font-size: 40px;"">ostach</p>
          <p style=""font-size: 16px;"">F = YES &nbsp;&nbsp;&nbsp; J = NO</p>
        ","j","html-keyboard-response","169","2.1.0","196018","F=YES, J=NO","0hfazm5o5s","0","69","83","55","","","","","","","","","ostach","hawk1","pseudoword","pseudoword","j","true","",""
"null","<p style=""font-size: 50px;"">+</p>","null","html-keyboard-response","170","2.1.0","196328","F=YES, J=NO","0hfazm5o5s","0","69","83","55","","","","","","","","","","","","","","","",""
"null","audio/beep-329314.mp3","null","audio-keyboard-response","171","2.1.0","197864","F=YES, J=NO","0hfazm5o5s","0","69","83","55","","","","","","","","","","","","","","","",""
"null","audio/pain1.wav","null","audio-keyboard-response","172","2.1.0","198294","F=YES, J=NO","0hfazm5o5s","0","69","83","55","","","","","","","","","","","","","","","",""
"419","
          <p id=""word"" style=""font-size: 40px;"">tritted</p>
          <p style=""font-size: 16px;"">F = YES &nbsp;&nbsp;&nbsp; J = NO</p>
        ","f","html-keyboard-response","173","2.1.0","198713","F=YES, J=NO","0hfazm5o5s","0","69","83","55","","","","","","","","","tritted","pain1","pseudoword","pseudoword","j","false","",""
"null","<p style=""font-size: 50px;"">+</p>","null","html-keyboard-response","174","2.1.0","199017","F=YES, J=NO","0hfazm5o5s","0","69","83","55","","","","","","","","","","","","","","","",""
"null","audio/beep-329314.mp3","null","audio-keyboard-response","175","2.1.0","200544","F=YES, J=NO","0hfazm5o5s","0","69","83","55","","","","","","","","","","","","","","","",""
"null","audio/meal.wav","null","audio-keyboard-response","176","2.1.0","200994","F=YES, J=NO","0hfazm5o5s","0","69","83","55","","","","","","","","","","","","","","","",""
"718","
          <p id=""word"" style=""font-size: 40px;"">gallite</p>
          <p style=""font-size: 16px;"">F = YES &nbsp;&nbsp;&nbsp; J = NO</p>
        ","j","html-keyboard-response","177","2.1.0","201712","F=YES, J=NO","0hfazm5o5s","0","69","83","55","","","","","","","","","gallite","meal","pseudoword","pseudoword","j","true","",""
"null","<p style=""font-size: 50px;"">+</p>","null","html-keyboard-response","178","2.1.0","202019","F=YES, J=NO","0hfazm5o5s","0","69","83","55","","","","","","","","","","","","","","","",""
"null","audio/beep-329314.mp3","null","audio-keyboard-response","179","2.1.0","203544","F=YES, J=NO","0hfazm5o5s","0","69","83","55","","","","","","","","","","","","","","","",""
"null","audio/vehicle1.wav","null","audio-keyboard-response","180","2.1.0","204194","F=YES, J=NO","0hfazm5o5s","0","69","83","55","","","","","","","","","","","","","","","",""
"694","
          <p id=""word"" style=""font-size: 40px;"">dropt</p>
          <p style=""font-size: 16px;"">F = YES &nbsp;&nbsp;&nbsp; J = NO</p>
        ","j","html-keyboard-response","181","2.1.0","204888","F=YES, J=NO","0hfazm5o5s","0","69","83","55","","","","","","","","","dropt","vehicle1","pseudoword","pseudoword","j","true","",""
"null","<p style=""font-size: 50px;"">+</p>","null","html-keyboard-response","182","2.1.0","205198","F=YES, J=NO","0hfazm5o5s","0","69","83","55","","","","","","","","","","","","","","","",""
"null","audio/beep-329314.mp3","null","audio-keyboard-response","183","2.1.0","206724","F=YES, J=NO","0hfazm5o5s","0","69","83","55","","","","","","","","","","","","","","","",""
"null","audio/cash1.wav","null","audio-keyboard-response","184","2.1.0","207294","F=YES, J=NO","0hfazm5o5s","0","69","83","55","","","","","","","","","","","","","","","",""
"711","
          <p id=""word"" style=""font-size: 40px;"">splear</p>
          <p style=""font-size: 16px;"">F = YES &nbsp;&nbsp;&nbsp; J = NO</p>
        ","j","html-keyboard-response","185","2.1.0","208006","F=YES, J=NO","0hfazm5o5s","0","69","83","55","","","","","","","","","splear","cash1","pseudoword","pseudoword","j","true","",""
"null","<p style=""font-size: 50px;"">+</p>","null","html-keyboard-response","186","2.1.0","208307","F=YES, J=NO","0hfazm5o5s","0","69","83","55","","","","","","","","","","","","","","","",""
"null","audio/beep-329314.mp3","null","audio-keyboard-response","187","2.1.0","209844","F=YES, J=NO","0hfazm5o5s","0","69","83","55","","","","","","","","","","","","","","","",""
"null","audio/dome.wav","null","audio-keyboard-response","188","2.1.0","210254","F=YES, J=NO","0hfazm5o5s","0","69","83","55","","","","","","","","","","","","","","","",""
"453","
          <p id=""word"" style=""font-size: 40px;"">feed</p>
          <p style=""font-size: 16px;"">F = YES &nbsp;&nbsp;&nbsp; J = NO</p>
        ","f","html-keyboard-response","189","2.1.0","210708","F=YES, J=NO","0hfazm5o5s","0","69","83","55","","","","","","","","","feed","dome","unrelated","experimental","f","true","",""
"null","<p style=""font-size: 50px;"">+</p>","null","html-keyboard-response","190","2.1.0","211018","F=YES, J=NO","0hfazm5o5s","0","69","83","55","","","","","","","","","","","","","","","",""
"null","audio/beep-329314.mp3","null","audio-keyboard-response","191","2.1.0","212544","F=YES, J=NO","0hfazm5o5s","0","69","83","55","","","","","","","","","","","","","","","",""
"null","audio/cinema1.wav","null","audio-keyboard-response","192","2.1.0","213154","F=YES, J=NO","0hfazm5o5s","0","69","83","55","","","","","","","","","","","","","","","",""
"737","
          <p id=""word"" style=""font-size: 40px;"">murple</p>
          <p style=""font-size: 16px;"">F = YES &nbsp;&nbsp;&nbsp; J = NO</p>
        ","f","html-keyboard-response","193","2.1.0","213892","F=YES, J=NO","0hfazm5o5s","0","69","83","55","","","","","","","","","murple","cinema1","pseudoword","pseudoword","j","false","",""
"null","<p style=""font-size: 50px;"">+</p>","null","html-keyboard-response","194","2.1.0","214203","F=YES, J=NO","0hfazm5o5s","0","69","83","55","","","","","","","","","","","","","","","",""
"null","audio/beep-329314.mp3","null","audio-keyboard-response","195","2.1.0","215724","F=YES, J=NO","0hfazm5o5s","0","69","83","55","","","","","","","","","","","","","","","",""
"null","audio/birth1.wav","null","audio-keyboard-response","196","2.1.0","216254","F=YES, J=NO","0hfazm5o5s","0","69","83","55","","","","","","","","","","","","","","","",""
"492","
          <p id=""word"" style=""font-size: 40px;"">drop</p>
          <p style=""font-size: 16px;"">F = YES &nbsp;&nbsp;&nbsp; J = NO</p>
        ","f","html-keyboard-response","197","2.1.0","216747","F=YES, J=NO","0hfazm5o5s","0","69","83","55","","","","","","","","","drop","birth1","unrelated","experimental","f","true","",""
"null","<p style=""font-size: 50px;"">+</p>","null","html-keyboard-response","198","2.1.0","217048","F=YES, J=NO","0hfazm5o5s","0","69","83","55","","","","","","","","","","","","","","","",""
"null","audio/beep-329314.mp3","null","audio-keyboard-response","199","2.1.0","218584","F=YES, J=NO","0hfazm5o5s","0","69","83","55","","","","","","","","","","","","","","","",""
"null","audio/battle1.wav","null","audio-keyboard-response","200","2.1.0","219054","F=YES, J=NO","0hfazm5o5s","0","69","83","55","","","","","","","","","","","","","","","",""
"449","
          <p id=""word"" style=""font-size: 40px;"">fight</p>
          <p style=""font-size: 16px;"">F = YES &nbsp;&nbsp;&nbsp; J = NO</p>
        ","f","html-keyboard-response","201","2.1.0","219504","F=YES, J=NO","0hfazm5o5s","0","69","83","55","","","","","","","","","fight","battle1","literal","experimental","f","true","",""
"null","<p style=""font-size: 50px;"">+</p>","null","html-keyboard-response","202","2.1.0","219804","F=YES, J=NO","0hfazm5o5s","0","69","83","55","","","","","","","","","","","","","","","",""
"null","audio/beep-329314.mp3","null","audio-keyboard-response","203","2.1.0","221344","F=YES, J=NO","0hfazm5o5s","0","69","83","55","","","","","","","","","","","","","","","",""
"null","audio/voice.wav","null","audio-keyboard-response","204","2.1.0","221954","F=YES, J=NO","0hfazm5o5s","0","69","83","55","","","","","","","","","","","","","","","",""
"650","
          <p id=""word"" style=""font-size: 40px;"">grintle</p>
          <p style=""font-size: 16px;"">F = YES &nbsp;&nbsp;&nbsp; J = NO</p>
        ","f","html-keyboard-response","205","2.1.0","222605","F=YES, J=NO","0hfazm5o5s","0","69","83","55","","","","","","","","","grintle","voice","pseudoword","pseudoword","j","false","",""
"null","<p style=""font-size: 50px;"">+</p>","null","html-keyboard-response","206","2.1.0","222915","F=YES, J=NO","0hfazm5o5s","0","69","83","55","","","","","","","","","","","","","","","",""
"null","audio/beep-329314.mp3","null","audio-keyboard-response","207","2.1.0","224444","F=YES, J=NO","0hfazm5o5s","0","69","83","55","","","","","","","","","","","","","","","",""
"null","audio/ship.wav","null","audio-keyboard-response","208","2.1.0","224974","F=YES, J=NO","0hfazm5o5s","0","69","83","55","","","","","","","","","","","","","","","",""
"417","
          <p id=""word"" style=""font-size: 40px;"">scrap</p>
          <p style=""font-size: 16px;"">F = YES &nbsp;&nbsp;&nbsp; J = NO</p>
        ","f","html-keyboard-response","209","2.1.0","225392","F=YES, J=NO","0hfazm5o5s","0","69","83","55","","","","","","","","","scrap","ship","literal","experimental","f","true","",""
"null","<p style=""font-size: 50px;"">+</p>","null","html-keyboard-response","210","2.1.0","225707","F=YES, J=NO","0hfazm5o5s","0","69","83","55","","","","","","","","","","","","","","","",""
"null","audio/beep-329314.mp3","null","audio-keyboard-response","211","2.1.0","227245","F=YES, J=NO","0hfazm5o5s","0","69","83","55","","","","","","","","","","","","","","","",""
"null","audio/survey1.wav","null","audio-keyboard-response","212","2.1.0","227975","F=YES, J=NO","0hfazm5o5s","0","69","83","55","","","","","","","","","","","","","","","",""
"456","
          <p id=""word"" style=""font-size: 40px;"">release</p>
          <p style=""font-size: 16px;"">F = YES &nbsp;&nbsp;&nbsp; J = NO</p>
        ","f","html-keyboard-response","213","2.1.0","228431","F=YES, J=NO","0hfazm5o5s","0","69","83","55","","","","","","","","","release","survey1","metaphor","experimental","f","true","",""
"null","<p style=""font-size: 50px;"">+</p>","null","html-keyboard-response","214","2.1.0","228733","F=YES, J=NO","0hfazm5o5s","0","69","83","55","","","","","","","","","","","","","","","",""
"null","audio/beep-329314.mp3","null","audio-keyboard-response","215","2.1.0","230265","F=YES, J=NO","0hfazm5o5s","0","69","83","55","","","","","","","","","","","","","","","",""
"null","audio/radio1.wav","null","audio-keyboard-response","216","2.1.0","230835","F=YES, J=NO","0hfazm5o5s","0","69","83","55","","","","","","","","","","","","","","","",""
"683","
          <p id=""word"" style=""font-size: 40px;"">blanter</p>
          <p style=""font-size: 16px;"">F = YES &nbsp;&nbsp;&nbsp; J = NO</p>
        ","f","html-keyboard-response","217","2.1.0","231518","F=YES, J=NO","0hfazm5o5s","0","69","83","55","","","","","","","","","blanter","radio1","pseudoword","pseudoword","j","false","",""
"null","<p style=""font-size: 50px;"">+</p>","null","html-keyboard-response","218","2.1.0","231824","F=YES, J=NO","0hfazm5o5s","0","69","83","55","","","","","","","","","","","","","","","",""
"null","audio/beep-329314.mp3","null","audio-keyboard-response","219","2.1.0","233365","F=YES, J=NO","0hfazm5o5s","0","69","83","55","","","","","","","","","","","","","","","",""
"null","audio/table1.wav","null","audio-keyboard-response","220","2.1.0","233895","F=YES, J=NO","0hfazm5o5s","0","69","83","55","","","","","","","","","","","","","","","",""
"417","
          <p id=""word"" style=""font-size: 40px;"">clear</p>
          <p style=""font-size: 16px;"">F = YES &nbsp;&nbsp;&nbsp; J = NO</p>
        ","f","html-keyboard-response","221","2.1.0","234312","F=YES, J=NO","0hfazm5o5s","0","69","83","55","","","","","","","","","clear","table1","literal","experimental","f","true","",""
"null","<p style=""font-size: 50px;"">+</p>","null","html-keyboard-response","222","2.1.0","234621","F=YES, J=NO","0hfazm5o5s","0","69","83","55","","","","","","","","","","","","","","","",""
"null","audio/beep-329314.mp3","null","audio-keyboard-response","223","2.1.0","236145","F=YES, J=NO","0hfazm5o5s","0","69","83","55","","","","","","","","","","","","","","","",""
"null","audio/window1.wav","null","audio-keyboard-response","224","2.1.0","236735","F=YES, J=NO","0hfazm5o5s","0","69","83","55","","","","","","","","","","","","","","","",""
"410","
          <p id=""word"" style=""font-size: 40px;"">break</p>
          <p style=""font-size: 16px;"">F = YES &nbsp;&nbsp;&nbsp; J = NO</p>
        ","f","html-keyboard-response","225","2.1.0","237145","F=YES, J=NO","0hfazm5o5s","0","69","83","55","","","","","","","","","break","window1","literal","experimental","f","true","",""
"null","<p style=""font-size: 50px;"">+</p>","null","html-keyboard-response","226","2.1.0","237454","F=YES, J=NO","0hfazm5o5s","0","69","83","55","","","","","","","","","","","","","","","",""
"null","audio/beep-329314.mp3","null","audio-keyboard-response","227","2.1.0","238985","F=YES, J=NO","0hfazm5o5s","0","69","83","55","","","","","","","","","","","","","","","",""
"null","audio/train.wav","null","audio-keyboard-response","228","2.1.0","239495","F=YES, J=NO","0hfazm5o5s","0","69","83","55","","","","","","","","","","","","","","","",""
"597","
          <p id=""word"" style=""font-size: 40px;"">catch</p>
          <p style=""font-size: 16px;"">F = YES &nbsp;&nbsp;&nbsp; J = NO</p>
        ","j","html-keyboard-response","229","2.1.0","240092","F=YES, J=NO","0hfazm5o5s","0","69","83","55","","","","","","","","","catch","train","metaphor","experimental","f","false","",""
"19840","<p>Excellent! You have finished block 1 of 8.</p>
                     <p>Feel free to take a 30 second break.</p>
                     <p>Press any key when you're ready to continue.</p>","f","html-keyboard-response","230","2.1.0","259933","F=YES, J=NO","0hfazm5o5s","0","69","83","55","","","","","","","","","","","","","","","",""
"720","<p>Starting main block 2 of 8. Press any key to continue.</p>","f","html-keyboard-response","231","2.1.0","260654","F=YES, J=NO","0hfazm5o5s","0","69","83","55","","","","","","","","","","","","","","","",""
"null","<p style=""font-size: 50px;"">+</p>","null","html-keyboard-response","232","2.1.0","260957","F=YES, J=NO","0hfazm5o5s","0","69","83","55","","","","","","","","","","","","","","","",""
"null","audio/beep-329314.mp3","null","audio-keyboard-response","233","2.1.0","262475","F=YES, J=NO","0hfazm5o5s","0","69","83","55","","","","","","","","","","","","","","","",""
"null","audio/weight1.wav","null","audio-keyboard-response","234","2.1.0","262975","F=YES, J=NO","0hfazm5o5s","0","69","83","55","","","","","","","","","","","","","","","",""
"654","
          <p id=""word"" style=""font-size: 40px;"">crimsh</p>
          <p style=""font-size: 16px;"">F = YES &nbsp;&nbsp;&nbsp; J = NO</p>
        ","f","html-keyboard-response","235","2.1.0","263630","F=YES, J=NO","0hfazm5o5s","0","69","83","55","","","","","","","","","crimsh","weight1","pseudoword","pseudoword","j","false","",""
"null","<p style=""font-size: 50px;"">+</p>","null","html-keyboard-response","236","2.1.0","263937","F=YES, J=NO","0hfazm5o5s","0","69","83","55","","","","","","","","","","","","","","","",""
"null","audio/beep-329314.mp3","null","audio-keyboard-response","237","2.1.0","265475","F=YES, J=NO","0hfazm5o5s","0","69","83","55","","","","","","","","","","","","","","","",""
"null","audio/breath.wav","null","audio-keyboard-response","238","2.1.0","266035","F=YES, J=NO","0hfazm5o5s","0","69","83","55","","","","","","","","","","","","","","","",""
"641","
          <p id=""word"" style=""font-size: 40px;"">twets</p>
          <p style=""font-size: 16px;"">F = YES &nbsp;&nbsp;&nbsp; J = NO</p>
        ","j","html-keyboard-response","239","2.1.0","266677","F=YES, J=NO","0hfazm5o5s","0","69","83","55","","","","","","","","","twets","breath","pseudoword","pseudoword","j","true","",""
"null","<p style=""font-size: 50px;"">+</p>","null","html-keyboard-response","240","2.1.0","266979","F=YES, J=NO","0hfazm5o5s","0","69","83","55","","","","","","","","","","","","","","","",""
"null","audio/beep-329314.mp3","null","audio-keyboard-response","241","2.1.0","268515","F=YES, J=NO","0hfazm5o5s","0","69","83","55","","","","","","","","","","","","","","","",""
"null","audio/terrain.wav","null","audio-keyboard-response","242","2.1.0","269095","F=YES, J=NO","0hfazm5o5s","0","69","83","55","","","","","","","","","","","","","","","",""
"437","
          <p id=""word"" style=""font-size: 40px;"">twist</p>
          <p style=""font-size: 16px;"">F = YES &nbsp;&nbsp;&nbsp; J = NO</p>
        ","f","html-keyboard-response","243","2.1.0","269533","F=YES, J=NO","0hfazm5o5s","0","69","83","55","","","","","","","","","twist","terrain","filler","filler","f","true","",""
"null","<p style=""font-size: 50px;"">+</p>","null","html-keyboard-response","244","2.1.0","269849","F=YES, J=NO","0hfazm5o5s","0","69","83","55","","","","","","","","","","","","","","","",""
"null","audio/beep-329314.mp3","null","audio-keyboard-response","245","2.1.0","271375","F=YES, J=NO","0hfazm5o5s","0","69","83","55","","","","","","","","","","","","","","","",""
"null","audio/pattern.wav","null","audio-keyboard-response","246","2.1.0","271875","F=YES, J=NO","0hfazm5o5s","0","69","83","55","","","","","","","","","","","","","","","",""
"641","
          <p id=""word"" style=""font-size: 40px;"">tug</p>
          <p style=""font-size: 16px;"">F = YES &nbsp;&nbsp;&nbsp; J = NO</p>
        ","f","html-keyboard-response","247","2.1.0","272517","F=YES, J=NO","0hfazm5o5s","0","69","83","55","","","","","","","","","tug","pattern","filler","filler","f","true","",""
"null","<p style=""font-size: 50px;"">+</p>","null","html-keyboard-response","248","2.1.0","272832","F=YES, J=NO","0hfazm5o5s","0","69","83","55","","","","","","","","","","","","","","","",""
"null","audio/beep-329314.mp3","null","audio-keyboard-response","249","2.1.0","274356","F=YES, J=NO","0hfazm5o5s","0","69","83","55","","","","","","","","","","","","","","","",""
"null","audio/noise1.wav","null","audio-keyboard-response","250","2.1.0","274956","F=YES, J=NO","0hfazm5o5s","0","69","83","55","","","","","","","","","","","","","","","",""
"719","
          <p id=""word"" style=""font-size: 40px;"">slintered</p>
          <p style=""font-size: 16px;"">F = YES &nbsp;&nbsp;&nbsp; J = NO</p>
        ","f","html-keyboard-response","251","2.1.0","275675","F=YES, J=NO","0hfazm5o5s","0","69","83","55","","","","","","","","","slintered","noise1","pseudoword","pseudoword","j","false","",""
"null","<p style=""font-size: 50px;"">+</p>","null","html-keyboard-response","252","2.1.0","275981","F=YES, J=NO","0hfazm5o5s","0","69","83","55","","","","","","","","","","","","","","","",""
"null","audio/beep-329314.mp3","null","audio-keyboard-response","253","2.1.0","277516","F=YES, J=NO","0hfazm5o5s","0","69","83","55","","","","","","","","","","","","","","","",""
"null","audio/prisoner.wav","null","audio-keyboard-response","254","2.1.0","278016","F=YES, J=NO","0hfazm5o5s","0","69","83","55","","","","","","","","","","","","","","","",""
"700","
          <p id=""word"" style=""font-size: 40px;"">egotian</p>
          <p style=""font-size: 16px;"">F = YES &nbsp;&nbsp;&nbsp; J = NO</p>
        ","j","html-keyboard-response","255","2.1.0","278716","F=YES, J=NO","0hfazm5o5s","0","69","83","55","","","","","","","","","egotian","prisoner","pseudoword","pseudoword","j","true","",""
"null","<p style=""font-size: 50px;"">+</p>","null","html-keyboard-response","256","2.1.0","279027","F=YES, J=NO","0hfazm5o5s","0","69","83","55","","","","","","","","","","","","","","","",""
"null","audio/beep-329314.mp3","null","audio-keyboard-response","257","2.1.0","280556","F=YES, J=NO","0hfazm5o5s","0","69","83","55","","","","","","","","","","","","","","","",""
"null","audio/novel.wav","null","audio-keyboard-response","258","2.1.0","281036","F=YES, J=NO","0hfazm5o5s","0","69","83","55","","","","","","","","","","","","","","","",""
"633","
          <p id=""word"" style=""font-size: 40px;"">devour</p>
          <p style=""font-size: 16px;"">F = YES &nbsp;&nbsp;&nbsp; J = NO</p>
        ","f","html-keyboard-response","259","2.1.0","281669","F=YES, J=NO","0hfazm5o5s","0","69","83","55","","","","","","","","","devour","novel","metaphor","experimental","f","true","",""
"null","<p style=""font-size: 50px;"">+</p>","null","html-keyboard-response","260","2.1.0","281970","F=YES, J=NO","0hfazm5o5s","0","69","83","55","","","","","","","","","","","","","","","",""
"null","audio/beep-329314.mp3","null","audio-keyboard-response","261","2.1.0","283496","F=YES, J=NO","0hfazm5o5s","0","69","83","55","","","","","","","","","","","","","","","",""
"null","audio/empire.wav","null","audio-keyboard-response","262","2.1.0","284116","F=YES, J=NO","0hfazm5o5s","0","69","83","55","","","","","","","","","","","","","","","",""
"714","
          <p id=""word"" style=""font-size: 40px;"">slorby</p>
          <p style=""font-size: 16px;"">F = YES &nbsp;&nbsp;&nbsp; J = NO</p>
        ","f","html-keyboard-response","263","2.1.0","284830","F=YES, J=NO","0hfazm5o5s","0","69","83","55","","","","","","","","","slorby","empire","pseudoword","pseudoword","j","false","",""
"null","<p style=""font-size: 50px;"">+</p>","null","html-keyboard-response","264","2.1.0","285145","F=YES, J=NO","0hfazm5o5s","0","69","83","55","","","","","","","","","","","","","","","",""
"null","audio/beep-329314.mp3","null","audio-keyboard-response","265","2.1.0","286676","F=YES, J=NO","0hfazm5o5s","0","69","83","55","","","","","","","","","","","","","","","",""
"null","audio/sand.wav","null","audio-keyboard-response","266","2.1.0","287316","F=YES, J=NO","0hfazm5o5s","0","69","83","55","","","","","","","","","","","","","","","",""
"485","
          <p id=""word"" style=""font-size: 40px;"">proted</p>
          <p style=""font-size: 16px;"">F = YES &nbsp;&nbsp;&nbsp; J = NO</p>
        ","f","html-keyboard-response","267","2.1.0","287802","F=YES, J=NO","0hfazm5o5s","0","69","83","55","","","","","","","","","proted","sand","pseudoword","pseudoword","j","false","",""
"null","<p style=""font-size: 50px;"">+</p>","null","html-keyboard-response","268","2.1.0","288110","F=YES, J=NO","0hfazm5o5s","0","69","83","55","","","","","","","","","","","","","","","",""
"null","audio/beep-329314.mp3","null","audio-keyboard-response","269","2.1.0","289636","F=YES, J=NO","0hfazm5o5s","0","69","83","55","","","","","","","","","","","","","","","",""
"null","audio/mile1.wav","null","audio-keyboard-response","270","2.1.0","290116","F=YES, J=NO","0hfazm5o5s","0","69","83","55","","","","","","","","","","","","","","","",""
"412","
          <p id=""word"" style=""font-size: 40px;"">writch</p>
          <p style=""font-size: 16px;"">F = YES &nbsp;&nbsp;&nbsp; J = NO</p>
        ","f","html-keyboard-response","271","2.1.0","290528","F=YES, J=NO","0hfazm5o5s","0","69","83","55","","","","","","","","","writch","mile1","pseudoword","pseudoword","j","false","",""
"null","<p style=""font-size: 50px;"">+</p>","null","html-keyboard-response","272","2.1.0","290835","F=YES, J=NO","0hfazm5o5s","0","69","83","55","","","","","","","","","","","","","","","",""
"null","audio/beep-329314.mp3","null","audio-keyboard-response","273","2.1.0","292356","F=YES, J=NO","0hfazm5o5s","0","69","83","55","","","","","","","","","","","","","","","",""
"null","audio/bottle.wav","null","audio-keyboard-response","274","2.1.0","292816","F=YES, J=NO","0hfazm5o5s","0","69","83","55","","","","","","","","","","","","","","","",""
"457","
          <p id=""word"" style=""font-size: 40px;"">watch</p>
          <p style=""font-size: 16px;"">F = YES &nbsp;&nbsp;&nbsp; J = NO</p>
        ","f","html-keyboard-response","275","2.1.0","293273","F=YES, J=NO","0hfazm5o5s","0","69","83","55","","","","","","","","","watch","bottle","filler","filler","f","true","",""
"null","<p style=""font-size: 50px;"">+</p>","null","html-keyboard-response","276","2.1.0","293580","F=YES, J=NO","0hfazm5o5s","0","69","83","55","","","","","","","","","","","","","","","",""
"null","audio/beep-329314.mp3","null","audio-keyboard-response","277","2.1.0","295116","F=YES, J=NO","0hfazm5o5s","0","69","83","55","","","","","","","","","","","","","","","",""
"null","audio/pine.wav","null","audio-keyboard-response","278","2.1.0","295596","F=YES, J=NO","0hfazm5o5s","0","69","83","55","","","","","","","","","","","","","","","",""
"446","
          <p id=""word"" style=""font-size: 40px;"">crebble</p>
          <p style=""font-size: 16px;"">F = YES &nbsp;&nbsp;&nbsp; J = NO</p>
        ","f","html-keyboard-response","279","2.1.0","296042","F=YES, J=NO","0hfazm5o5s","0","69","83","55","","","","","","","","","crebble","pine","pseudoword","pseudoword","j","false","",""
"null","<p style=""font-size: 50px;"">+</p>","null","html-keyboard-response","280","2.1.0","296344","F=YES, J=NO","0hfazm5o5s","0","69","83","55","","","","","","","","","","","","","","","",""
"null","audio/beep-329314.mp3","null","audio-keyboard-response","281","2.1.0","297876","F=YES, J=NO","0hfazm5o5s","0","69","83","55","","","","","","","","","","","","","","","",""
"null","audio/beach1.wav","null","audio-keyboard-response","282","2.1.0","298456","F=YES, J=NO","0hfazm5o5s","0","69","83","55","","","","","","","","","","","","","","","",""
"390","
          <p id=""word"" style=""font-size: 40px;"">drive</p>
          <p style=""font-size: 16px;"">F = YES &nbsp;&nbsp;&nbsp; J = NO</p>
        ","f","html-keyboard-response","283","2.1.0","298847","F=YES, J=NO","0hfazm5o5s","0","69","83","55","","","","","","","","","drive","beach1","filler","filler","f","true","",""
"null","<p style=""font-size: 50px;"">+</p>","null","html-keyboard-response","284","2.1.0","299157","F=YES, J=NO","0hfazm5o5s","0","69","83","55","","","","","","","","","","","","","","","",""
"null","audio/beep-329314.mp3","null","audio-keyboard-response","285","2.1.0","300696","F=YES, J=NO","0hfazm5o5s","0","69","83","55","","","","","","","","","","","","","","","",""
"null","audio/emotion.wav","null","audio-keyboard-response","286","2.1.0","301336","F=YES, J=NO","0hfazm5o5s","0","69","83","55","","","","","","","","","","","","","","","",""
"374","
          <p id=""word"" style=""font-size: 40px;"">devering</p>
          <p style=""font-size: 16px;"">F = YES &nbsp;&nbsp;&nbsp; J = NO</p>
        ","f","html-keyboard-response","287","2.1.0","301711","F=YES, J=NO","0hfazm5o5s","0","69","83","55","","","","","","","","","devering","emotion","pseudoword","pseudoword","j","false","",""
"null","<p style=""font-size: 50px;"">+</p>","null","html-keyboard-response","288","2.1.0","302017","F=YES, J=NO","0hfazm5o5s","0","69","83","55","","","","","","","","","","","","","","","",""
"null","audio/beep-329314.mp3","null","audio-keyboard-response","289","2.1.0","303556","F=YES, J=NO","0hfazm5o5s","0","69","83","55","","","","","","","","","","","","","","","",""
"null","audio/breath.wav","null","audio-keyboard-response","290","2.1.0","304116","F=YES, J=NO","0hfazm5o5s","0","69","83","55","","","","","","","","","","","","","","","",""
"513","
          <p id=""word"" style=""font-size: 40px;"">construct</p>
          <p style=""font-size: 16px;"">F = YES &nbsp;&nbsp;&nbsp; J = NO</p>
        ","f","html-keyboard-response","291","2.1.0","304630","F=YES, J=NO","0hfazm5o5s","0","69","83","55","","","","","","","","","construct","breath","unrelated","experimental","f","true","",""
"null","<p style=""font-size: 50px;"">+</p>","null","html-keyboard-response","292","2.1.0","304942","F=YES, J=NO","0hfazm5o5s","0","69","83","55","","","","","","","","","","","","","","","",""
"null","audio/beep-329314.mp3","null","audio-keyboard-response","293","2.1.0","306476","F=YES, J=NO","0hfazm5o5s","0","69","83","55","","","","","","","","","","","","","","","",""
"null","audio/age1.wav","null","audio-keyboard-response","294","2.1.0","307036","F=YES, J=NO","0hfazm5o5s","0","69","83","55","","","","","","","","","","","","","","","",""
"496","
          <p id=""word"" style=""font-size: 40px;"">seize</p>
          <p style=""font-size: 16px;"">F = YES &nbsp;&nbsp;&nbsp; J = NO</p>
        ","j","html-keyboard-response","295","2.1.0","307533","F=YES, J=NO","0hfazm5o5s","0","69","83","55","","","","","","","","","seize","age1","unrelated","experimental","f","false","",""
"8492","<p>Excellent! You have finished block 2 of 8.</p>
                     <p>Feel free to take a 30 second break.</p>
                     <p>Press any key when you're ready to continue.</p>","f","html-keyboard-response","296","2.1.0","316025","F=YES, J=NO","0hfazm5o5s","0","69","83","55","","","","","","","","","","","","","","","",""
"511","<p>Starting main block 3 of 8. Press any key to continue.</p>","f","html-keyboard-response","297","2.1.0","316536","F=YES, J=NO","0hfazm5o5s","0","69","83","55","","","","","","","","","","","","","","","",""
"null","<p style=""font-size: 50px;"">+</p>","null","html-keyboard-response","298","2.1.0","316843","F=YES, J=NO","0hfazm5o5s","0","69","83","55","","","","","","","","","","","","","","","",""
"null","audio/beep-329314.mp3","null","audio-keyboard-response","299","2.1.0","318347","F=YES, J=NO","0hfazm5o5s","0","69","83","55","","","","","","","","","","","","","","","",""
"null","audio/stain.wav","null","audio-keyboard-response","300","2.1.0","318967","F=YES, J=NO","0hfazm5o5s","0","69","83","55","","","","","","","","","","","","","","","",""
"670","
          <p id=""word"" style=""font-size: 40px;"">rumpsied</p>
          <p style=""font-size: 16px;"">F = YES &nbsp;&nbsp;&nbsp; J = NO</p>
        ","j","html-keyboard-response","301","2.1.0","319637","F=YES, J=NO","0hfazm5o5s","0","69","83","55","","","","","","","","","rumpsied","stain","pseudoword","pseudoword","j","true","",""
"null","<p style=""font-size: 50px;"">+</p>","null","html-keyboard-response","302","2.1.0","319946","F=YES, J=NO","0hfazm5o5s","0","69","83","55","","","","","","","","","","","","","","","",""
"null","audio/beep-329314.mp3","null","audio-keyboard-response","303","2.1.0","321487","F=YES, J=NO","0hfazm5o5s","0","69","83","55","","","","","","","","","","","","","","","",""
"null","audio/flaw.wav","null","audio-keyboard-response","304","2.1.0","322107","F=YES, J=NO","0hfazm5o5s","0","69","83","55","","","","","","","","","","","","","","","",""
"590","
          <p id=""word"" style=""font-size: 40px;"">thwool</p>
          <p style=""font-size: 16px;"">F = YES &nbsp;&nbsp;&nbsp; J = NO</p>
        ","j","html-keyboard-response","305","2.1.0","322697","F=YES, J=NO","0hfazm5o5s","0","69","83","55","","","","","","","","","thwool","flaw","pseudoword","pseudoword","j","true","",""
"null","<p style=""font-size: 50px;"">+</p>","null","html-keyboard-response","306","2.1.0","322999","F=YES, J=NO","0hfazm5o5s","0","69","83","55","","","","","","","","","","","","","","","",""
"null","audio/beep-329314.mp3","null","audio-keyboard-response","307","2.1.0","324527","F=YES, J=NO","0hfazm5o5s","0","69","83","55","","","","","","","","","","","","","","","",""
"null","audio/cloud1.wav","null","audio-keyboard-response","308","2.1.0","325067","F=YES, J=NO","0hfazm5o5s","0","69","83","55","","","","","","","","","","","","","","","",""
"676","
          <p id=""word"" style=""font-size: 40px;"">brotant</p>
          <p style=""font-size: 16px;"">F = YES &nbsp;&nbsp;&nbsp; J = NO</p>
        ","f","html-keyboard-response","309","2.1.0","325743","F=YES, J=NO","0hfazm5o5s","0","69","83","55","","","","","","","","","brotant","cloud1","pseudoword","pseudoword","j","false","",""
"null","<p style=""font-size: 50px;"">+</p>","null","html-keyboard-response","310","2.1.0","326053","F=YES, J=NO","0hfazm5o5s","0","69","83","55","","","","","","","","","","","","","","","",""
"null","audio/beep-329314.mp3","null","audio-keyboard-response","311","2.1.0","327587","F=YES, J=NO","0hfazm5o5s","0","69","83","55","","","","","","","","","","","","","","","",""
"null","audio/belief.wav","null","audio-keyboard-response","312","2.1.0","328207","F=YES, J=NO","0hfazm5o5s","0","69","83","55","","","","","","","","","","","","","","","",""
"396","
          <p id=""word"" style=""font-size: 40px;"">share</p>
          <p style=""font-size: 16px;"">F = YES &nbsp;&nbsp;&nbsp; J = NO</p>
        ","f","html-keyboard-response","313","2.1.0","328603","F=YES, J=NO","0hfazm5o5s","0","69","83","55","","","","","","","","","share","belief","metaphor","experimental","f","true","",""
"null","<p style=""font-size: 50px;"">+</p>","null","html-keyboard-response","314","2.1.0","328911","F=YES, J=NO","0hfazm5o5s","0","69","83","55","","","","","","","","","","","","","","","",""
"null","audio/beep-329314.mp3","null","audio-keyboard-response","315","2.1.0","330447","F=YES, J=NO","0hfazm5o5s","0","69","83","55","","","","","","","","","","","","","","","",""
"null","audio/show.wav","null","audio-keyboard-response","316","2.1.0","330987","F=YES, J=NO","0hfazm5o5s","0","69","83","55","","","","","","","","","","","","","","","",""
"365","
          <p id=""word"" style=""font-size: 40px;"">smark</p>
          <p style=""font-size: 16px;"">F = YES &nbsp;&nbsp;&nbsp; J = NO</p>
        ","f","html-keyboard-response","317","2.1.0","331352","F=YES, J=NO","0hfazm5o5s","0","69","83","55","","","","","","","","","smark","show","pseudoword","pseudoword","j","false","",""
"null","<p style=""font-size: 50px;"">+</p>","null","html-keyboard-response","318","2.1.0","331663","F=YES, J=NO","0hfazm5o5s","0","69","83","55","","","","","","","","","","","","","","","",""
"null","audio/beep-329314.mp3","null","audio-keyboard-response","319","2.1.0","333187","F=YES, J=NO","0hfazm5o5s","0","69","83","55","","","","","","","","","","","","","","","",""
"null","audio/truth1.wav","null","audio-keyboard-response","320","2.1.0","333727","F=YES, J=NO","0hfazm5o5s","0","69","83","55","","","","","","","","","","","","","","","",""
"443","
          <p id=""word"" style=""font-size: 40px;"">expose</p>
          <p style=""font-size: 16px;"">F = YES &nbsp;&nbsp;&nbsp; J = NO</p>
        ","f","html-keyboard-response","321","2.1.0","334171","F=YES, J=NO","0hfazm5o5s","0","69","83","55","","","","","","","","","expose","truth1","metaphor","experimental","f","true","",""
"null","<p style=""font-size: 50px;"">+</p>","null","html-keyboard-response","322","2.1.0","334481","F=YES, J=NO","0hfazm5o5s","0","69","83","55","","","","","","","","","","","","","","","",""
"null","audio/beep-329314.mp3","null","audio-keyboard-response","323","2.1.0","336007","F=YES, J=NO","0hfazm5o5s","0","69","83","55","","","","","","","","","","","","","","","",""
"null","audio/age1.wav","null","audio-keyboard-response","324","2.1.0","336547","F=YES, J=NO","0hfazm5o5s","0","69","83","55","","","","","","","","","","","","","","","",""
"356","
          <p id=""word"" style=""font-size: 40px;"">bake</p>
          <p style=""font-size: 16px;"">F = YES &nbsp;&nbsp;&nbsp; J = NO</p>
        ","f","html-keyboard-response","325","2.1.0","336903","F=YES, J=NO","0hfazm5o5s","0","69","83","55","","","","","","","","","bake","age1","filler","filler","f","true","",""
"null","<p style=""font-size: 50px;"">+</p>","null","html-keyboard-response","326","2.1.0","337218","F=YES, J=NO","0hfazm5o5s","0","69","83","55","","","","","","","","","","","","","","","",""
"null","audio/beep-329314.mp3","null","audio-keyboard-response","327","2.1.0","338747","F=YES, J=NO","0hfazm5o5s","0","69","83","55","","","","","","","","","","","","","","","",""
"null","audio/smirk1.wav","null","audio-keyboard-response","328","2.1.0","339467","F=YES, J=NO","0hfazm5o5s","0","69","83","55","","","","","","","","","","","","","","","",""
"484","
          <p id=""word"" style=""font-size: 40px;"">wipe</p>
          <p style=""font-size: 16px;"">F = YES &nbsp;&nbsp;&nbsp; J = NO</p>
        ","f","html-keyboard-response","329","2.1.0","339952","F=YES, J=NO","0hfazm5o5s","0","69","83","55","","","","","","","","","wipe","smirk1","metaphor","experimental","f","true","",""
"null","<p style=""font-size: 50px;"">+</p>","null","html-keyboard-response","330","2.1.0","340264","F=YES, J=NO","0hfazm5o5s","0","69","83","55","","","","","","","","","","","","","","","",""
"null","audio/beep-329314.mp3","null","audio-keyboard-response","331","2.1.0","341787","F=YES, J=NO","0hfazm5o5s","0","69","83","55","","","","","","","","","","","","","","","",""
"null","audio/relief.wav","null","audio-keyboard-response","332","2.1.0","342427","F=YES, J=NO","0hfazm5o5s","0","69","83","55","","","","","","","","","","","","","","","",""
"587","
          <p id=""word"" style=""font-size: 40px;"">grigg</p>
          <p style=""font-size: 16px;"">F = YES &nbsp;&nbsp;&nbsp; J = NO</p>
        ","j","html-keyboard-response","333","2.1.0","343015","F=YES, J=NO","0hfazm5o5s","0","69","83","55","","","","","","","","","grigg","relief","pseudoword","pseudoword","j","true","",""
"null","<p style=""font-size: 50px;"">+</p>","null","html-keyboard-response","334","2.1.0","343329","F=YES, J=NO","0hfazm5o5s","0","69","83","55","","","","","","","","","","","","","","","",""
"null","audio/beep-329314.mp3","null","audio-keyboard-response","335","2.1.0","344867","F=YES, J=NO","0hfazm5o5s","0","69","83","55","","","","","","","","","","","","","","","",""
"null","audio/pattern.wav","null","audio-keyboard-response","336","2.1.0","345367","F=YES, J=NO","0hfazm5o5s","0","69","83","55","","","","","","","","","","","","","","","",""
"493","
          <p id=""word"" style=""font-size: 40px;"">defeat</p>
          <p style=""font-size: 16px;"">F = YES &nbsp;&nbsp;&nbsp; J = NO</p>
        ","f","html-keyboard-response","337","2.1.0","345861","F=YES, J=NO","0hfazm5o5s","0","69","83","55","","","","","","","","","defeat","pattern","unrelated","experimental","f","true","",""
"null","<p style=""font-size: 50px;"">+</p>","null","html-keyboard-response","338","2.1.0","346164","F=YES, J=NO","0hfazm5o5s","0","69","83","55","","","","","","","","","","","","","","","",""
"null","audio/beep-329314.mp3","null","audio-keyboard-response","339","2.1.0","347687","F=YES, J=NO","0hfazm5o5s","0","69","83","55","","","","","","","","","","","","","","","",""
"null","audio/dome.wav","null","audio-keyboard-response","340","2.1.0","348107","F=YES, J=NO","0hfazm5o5s","0","69","83","55","","","","","","","","","","","","","","","",""
"687","
          <p id=""word"" style=""font-size: 40px;"">scrupliness</p>
          <p style=""font-size: 16px;"">F = YES &nbsp;&nbsp;&nbsp; J = NO</p>
        ","j","html-keyboard-response","341","2.1.0","348795","F=YES, J=NO","0hfazm5o5s","0","69","83","55","","","","","","","","","scrupliness","dome","pseudoword","pseudoword","j","true","",""
"null","<p style=""font-size: 50px;"">+</p>","null","html-keyboard-response","342","2.1.0","349109","F=YES, J=NO","0hfazm5o5s","0","69","83","55","","","","","","","","","","","","","","","",""
"null","audio/beep-329314.mp3","null","audio-keyboard-response","343","2.1.0","350647","F=YES, J=NO","0hfazm5o5s","0","69","83","55","","","","","","","","","","","","","","","",""
"null","audio/foot1.wav","null","audio-keyboard-response","344","2.1.0","351207","F=YES, J=NO","0hfazm5o5s","0","69","83","55","","","","","","","","","","","","","","","",""
"315","
          <p id=""word"" style=""font-size: 40px;"">thrutt</p>
          <p style=""font-size: 16px;"">F = YES &nbsp;&nbsp;&nbsp; J = NO</p>
        ","f","html-keyboard-response","345","2.1.0","351523","F=YES, J=NO","0hfazm5o5s","0","69","83","55","","","","","","","","","thrutt","foot1","pseudoword","pseudoword","j","false","",""
"null","<p style=""font-size: 50px;"">+</p>","null","html-keyboard-response","346","2.1.0","351836","F=YES, J=NO","0hfazm5o5s","0","69","83","55","","","","","","","","","","","","","","","",""
"null","audio/beep-329314.mp3","null","audio-keyboard-response","347","2.1.0","353367","F=YES, J=NO","0hfazm5o5s","0","69","83","55","","","","","","","","","","","","","","","",""
"null","audio/alarm1.wav","null","audio-keyboard-response","348","2.1.0","353947","F=YES, J=NO","0hfazm5o5s","0","69","83","55","","","","","","","","","","","","","","","",""
"378","
          <p id=""word"" style=""font-size: 40px;"">save</p>
          <p style=""font-size: 16px;"">F = YES &nbsp;&nbsp;&nbsp; J = NO</p>
        ","f","html-keyboard-response","349","2.1.0","354326","F=YES, J=NO","0hfazm5o5s","0","69","83","55","","","","","","","","","save","alarm1","unrelated","experimental","f","true","",""
"null","<p style=""font-size: 50px;"">+</p>","null","html-keyboard-response","350","2.1.0","354628","F=YES, J=NO","0hfazm5o5s","0","69","83","55","","","","","","","","","","","","","","","",""
"null","audio/beep-329314.mp3","null","audio-keyboard-response","351","2.1.0","356167","F=YES, J=NO","0hfazm5o5s","0","69","83","55","","","","","","","","","","","","","","","",""
"null","audio/effort.wav","null","audio-keyboard-response","352","2.1.0","356747","F=YES, J=NO","0hfazm5o5s","0","69","83","55","","","","","","","","","","","","","","","",""
"391","
          <p id=""word"" style=""font-size: 40px;"">invest</p>
          <p style=""font-size: 16px;"">F = YES &nbsp;&nbsp;&nbsp; J = NO</p>
        ","f","html-keyboard-response","353","2.1.0","357139","F=YES, J=NO","0hfazm5o5s","0","69","83","55","","","","","","","","","invest","effort","metaphor","experimental","f","true","",""
"null","<p style=""font-size: 50px;"">+</p>","null","html-keyboard-response","354","2.1.0","357441","F=YES, J=NO","0hfazm5o5s","0","69","83","55","","","","","","","","","","","","","","","",""
"null","audio/beep-329314.mp3","null","audio-keyboard-response","355","2.1.0","358968","F=YES, J=NO","0hfazm5o5s","0","69","83","55","","","","","","","","","","","","","","","",""
"null","audio/belief.wav","null","audio-keyboard-response","356","2.1.0","359587","F=YES, J=NO","0hfazm5o5s","0","69","83","55","","","","","","","","","","","","","","","",""
"481","
          <p id=""word"" style=""font-size: 40px;"">read</p>
          <p style=""font-size: 16px;"">F = YES &nbsp;&nbsp;&nbsp; J = NO</p>
        ","f","html-keyboard-response","357","2.1.0","360069","F=YES, J=NO","0hfazm5o5s","0","69","83","55","","","","","","","","","read","belief","filler","filler","f","true","",""
"null","<p style=""font-size: 50px;"">+</p>","null","html-keyboard-response","358","2.1.0","360371","F=YES, J=NO","0hfazm5o5s","0","69","83","55","","","","","","","","","","","","","","","",""
"null","audio/beep-329314.mp3","null","audio-keyboard-response","359","2.1.0","361908","F=YES, J=NO","0hfazm5o5s","0","69","83","55","","","","","","","","","","","","","","","",""
"null","audio/haste1.wav","null","audio-keyboard-response","360","2.1.0","362468","F=YES, J=NO","0hfazm5o5s","0","69","83","55","","","","","","","","","","","","","","","",""
"377","
          <p id=""word"" style=""font-size: 40px;"">hide</p>
          <p style=""font-size: 16px;"">F = YES &nbsp;&nbsp;&nbsp; J = NO</p>
        ","f","html-keyboard-response","361","2.1.0","362845","F=YES, J=NO","0hfazm5o5s","0","69","83","55","","","","","","","","","hide","haste1","unrelated","experimental","f","true","",""
"1270","<p>Excellent! You have finished block 3 of 8.</p>
                     <p>Feel free to take a 30 second break.</p>
                     <p>Press any key when you're ready to continue.</p>","f","html-keyboard-response","362","2.1.0","364115","F=YES, J=NO","0hfazm5o5s","0","69","83","55","","","","","","","","","","","","","","","",""
"301","<p>Starting main block 4 of 8. Press any key to continue.</p>","f","html-keyboard-response","363","2.1.0","364417","F=YES, J=NO","0hfazm5o5s","0","69","83","55","","","","","","","","","","","","","","","",""
"null","<p style=""font-size: 50px;"">+</p>","null","html-keyboard-response","364","2.1.0","364733","F=YES, J=NO","0hfazm5o5s","0","69","83","55","","","","","","","","","","","","","","","",""
"null","audio/beep-329314.mp3","null","audio-keyboard-response","365","2.1.0","366268","F=YES, J=NO","0hfazm5o5s","0","69","83","55","","","","","","","","","","","","","","","",""
"null","audio/key1.wav","null","audio-keyboard-response","366","2.1.0","366628","F=YES, J=NO","0hfazm5o5s","0","69","83","55","","","","","","","","","","","","","","","",""
"425","
          <p id=""word"" style=""font-size: 40px;"">sminsh</p>
          <p style=""font-size: 16px;"">F = YES &nbsp;&nbsp;&nbsp; J = NO</p>
        ","f","html-keyboard-response","367","2.1.0","367053","F=YES, J=NO","0hfazm5o5s","0","69","83","55","","","","","","","","","sminsh","key1","pseudoword","pseudoword","j","false","",""
"null","<p style=""font-size: 50px;"">+</p>","null","html-keyboard-response","368","2.1.0","367357","F=YES, J=NO","0hfazm5o5s","0","69","83","55","","","","","","","","","","","","","","","",""
"null","audio/beep-329314.mp3","null","audio-keyboard-response","369","2.1.0","368888","F=YES, J=NO","0hfazm5o5s","0","69","83","55","","","","","","","","","","","","","","","",""
"null","audio/hotel1.wav","null","audio-keyboard-response","370","2.1.0","369508","F=YES, J=NO","0hfazm5o5s","0","69","83","55","","","","","","","","","","","","","","","",""
"397","
          <p id=""word"" style=""font-size: 40px;"">spread</p>
          <p style=""font-size: 16px;"">F = YES &nbsp;&nbsp;&nbsp; J = NO</p>
        ","f","html-keyboard-response","371","2.1.0","369905","F=YES, J=NO","0hfazm5o5s","0","69","83","55","","","","","","","","","spread","hotel1","unrelated","experimental","f","true","",""
"null","<p style=""font-size: 50px;"">+</p>","null","html-keyboard-response","372","2.1.0","370215","F=YES, J=NO","0hfazm5o5s","0","69","83","55","","","","","","","","","","","","","","","",""
"null","audio/beep-329314.mp3","null","audio-keyboard-response","373","2.1.0","371748","F=YES, J=NO","0hfazm5o5s","0","69","83","55","","","","","","","","","","","","","","","",""
"null","audio/vehicle1.wav","null","audio-keyboard-response","374","2.1.0","372388","F=YES, J=NO","0hfazm5o5s","0","69","83","55","","","","","","","","","","","","","","","",""
"546","
          <p id=""word"" style=""font-size: 40px;"">approach</p>
          <p style=""font-size: 16px;"">F = YES &nbsp;&nbsp;&nbsp; J = NO</p>
        ","f","html-keyboard-response","375","2.1.0","372935","F=YES, J=NO","0hfazm5o5s","0","69","83","55","","","","","","","","","approach","vehicle1","literal","experimental","f","true","",""
"null","<p style=""font-size: 50px;"">+</p>","null","html-keyboard-response","376","2.1.0","373251","F=YES, J=NO","0hfazm5o5s","0","69","83","55","","","","","","","","","","","","","","","",""
"null","audio/beep-329314.mp3","null","audio-keyboard-response","377","2.1.0","374788","F=YES, J=NO","0hfazm5o5s","0","69","83","55","","","","","","","","","","","","","","","",""
"null","audio/soul.wav","null","audio-keyboard-response","378","2.1.0","375368","F=YES, J=NO","0hfazm5o5s","0","69","83","55","","","","","","","","","","","","","","","",""
"356","
          <p id=""word"" style=""font-size: 40px;"">sell</p>
          <p style=""font-size: 16px;"">F = YES &nbsp;&nbsp;&nbsp; J = NO</p>
        ","f","html-keyboard-response","379","2.1.0","375724","F=YES, J=NO","0hfazm5o5s","0","69","83","55","","","","","","","","","sell","soul","metaphor","experimental","f","true","",""
"null","<p style=""font-size: 50px;"">+</p>","null","html-keyboard-response","380","2.1.0","376035","F=YES, J=NO","0hfazm5o5s","0","69","83","55","","","","","","","","","","","","","","","",""
"null","audio/beep-329314.mp3","null","audio-keyboard-response","381","2.1.0","377568","F=YES, J=NO","0hfazm5o5s","0","69","83","55","","","","","","","","","","","","","","","",""
"null","audio/table1.wav","null","audio-keyboard-response","382","2.1.0","378048","F=YES, J=NO","0hfazm5o5s","0","69","83","55","","","","","","","","","","","","","","","",""
"377","
          <p id=""word"" style=""font-size: 40px;"">stimb</p>
          <p style=""font-size: 16px;"">F = YES &nbsp;&nbsp;&nbsp; J = NO</p>
        ","f","html-keyboard-response","383","2.1.0","378425","F=YES, J=NO","0hfazm5o5s","0","69","83","55","","","","","","","","","stimb","table1","pseudoword","pseudoword","j","false","",""
"null","<p style=""font-size: 50px;"">+</p>","null","html-keyboard-response","384","2.1.0","378734","F=YES, J=NO","0hfazm5o5s","0","69","83","55","","","","","","","","","","","","","","","",""
"null","audio/beep-329314.mp3","null","audio-keyboard-response","385","2.1.0","380268","F=YES, J=NO","0hfazm5o5s","0","69","83","55","","","","","","","","","","","","","","","",""
"null","audio/hotel1.wav","null","audio-keyboard-response","386","2.1.0","380888","F=YES, J=NO","0hfazm5o5s","0","69","83","55","","","","","","","","","","","","","","","",""
"465","
          <p id=""word"" style=""font-size: 40px;"">flanter</p>
          <p style=""font-size: 16px;"">F = YES &nbsp;&nbsp;&nbsp; J = NO</p>
        ","f","html-keyboard-response","387","2.1.0","381353","F=YES, J=NO","0hfazm5o5s","0","69","83","55","","","","","","","","","flanter","hotel1","pseudoword","pseudoword","j","false","",""
"null","<p style=""font-size: 50px;"">+</p>","null","html-keyboard-response","388","2.1.0","381659","F=YES, J=NO","0hfazm5o5s","0","69","83","55","","","","","","","","","","","","","","","",""
"null","audio/beep-329314.mp3","null","audio-keyboard-response","389","2.1.0","383188","F=YES, J=NO","0hfazm5o5s","0","69","83","55","","","","","","","","","","","","","","","",""
"null","audio/mouth1.wav","null","audio-keyboard-response","390","2.1.0","383748","F=YES, J=NO","0hfazm5o5s","0","69","83","55","","","","","","","","","","","","","","","",""
"379","
          <p id=""word"" style=""font-size: 40px;"">close</p>
          <p style=""font-size: 16px;"">F = YES &nbsp;&nbsp;&nbsp; J = NO</p>
        ","f","html-keyboard-response","391","2.1.0","384128","F=YES, J=NO","0hfazm5o5s","0","69","83","55","","","","","","","","","close","mouth1","literal","experimental","f","true","",""
