"rt","stimulus","response","trial_type","trial_index","plugin_version","time_elapsed","response_mapping","subject_id","list_index","lextale_score","lextale_word_score","lextale_nonword_score","success","timeout","failed_images","failed_audio","failed_video","task","isWord","isDummy","target","prime","prime_type","stimulus_type","correct_response","correct","section","question_order"
"145389","
    <div style=""max-width: 800px; margin: auto; text-align: left;"">
      <h2>STANFORD UNIVERSITY</h2>
      <h3>Research Information Sheet</h3>
      <p><strong>Protocol Director:</strong> Robert Hawkins<br>
      <strong>Protocol Title:</strong> Communication and social cognition in natural audiovisual contexts<br>
      <strong>IRB#:</strong> 77226</p>

      <p><strong>DESCRIPTION:</strong> You are invited to participate in a research study about language and communication. The purpose of the research is to understand how you interact and communicate with other people in naturalistic settings as a fluent English speaker. This research will be conducted through the Prolific platform, including participants from the US, UK, and Canada. If you decide to participate in this research, you will play a communication game in a group with one or more partners.</p>

      <p><strong>TIME INVOLVEMENT:</strong> The task will last the amount of time advertised on Prolific. You are free to withdraw from the study at any time.</p>

      <p><strong>RISKS AND BENEFITS:</strong> You may become frustrated if your partner gets distracted, or experience discomfort if other participants in your group send text that is inappropriate for the task. We ask you to please be respectful of other participants you might be interacting with to mitigate these risks. You may also experience discomfort when being asked to discuss or challenge emotionally salient political beliefs. Study data will be stored securely, in compliance with Stanford University standards, minimizing the risk of confidentiality breach. This study advances our scientific understanding of how people communicate and collaborate in naturalistic settings. This study may lead to further insights about what can go wrong in teamwork, suggest potential interventions to overcome these barriers, and help to develop assistive technologies that collaborate with human partners. We cannot and do not guarantee or promise that you will receive any benefits from this study.</p>

      <p><strong>PAYMENTS:</strong> You will receive payment in the amount advertised on Prolific. If you do not complete this study, you will receive prorated payment based on the time that you have spent. Additionally, you may be eligible for bonus payments as described in the instructions.</p>

      <p><strong>PARTICIPANT’S RIGHTS:</strong> If you have read this form and have decided to participate in this project, please understand your participation is voluntary and you have the right to withdraw your consent or discontinue participation at any time without penalty or loss of benefits to which you are otherwise entitled. The alternative is not to participate. You have the right to refuse to answer particular questions. The results of this research study may be presented at scientific or professional meetings or published in scientific journals. Your individual privacy will be maintained in all published and written data resulting from the study. In accordance with scientific norms, the data from this study may be used or shared with other researchers for future research (after removing personally identifying information) without additional consent from you.</p>

      <p><strong>CONTACT INFORMATION:</strong><br>
      Questions: If you have any questions, concerns or complaints about this research, its procedures, risks and benefits, contact the Protocol Director, Robert Hawkins (<a href=""mailto:rdhawkins@stanford.edu"">rdhawkins@stanford.edu</a>, 217-549-6923).<br>
      Independent Contact: If you are not satisfied with how this study is being conducted, or if you have any concerns, complaints, or general questions about the research or your rights as a participant, please contact the Stanford Institutional Review Board (IRB) to speak to someone independent of the research team at 650-723-2480 or toll free at 1-866-680-2906, or email at <a href=""mailto:irbnon-med@stanford.edu"">irbnon-med@stanford.edu</a>. You can also write to the Stanford IRB, Stanford University, 1705 El Camino Real, Palo Alto, CA 94306.</p>

      <p><strong>Please save or print a copy of this page for your records.</strong></p>
      <p>If you agree to participate in this research, click ""Continue"" below.</p>
    </div>
  ","0","html-button-response","0","2.1.0","145402","J=YES, F=NO","0pmgnv4gya","0","79","73","85","","","","","","","","","","","","","","","",""
"2457","
    <div style=""max-width: 800px; margin: auto; text-align: left;"">
      <h2>Welcome!</h2>
      <p>Thank you for participating in this study. The experiment consists of three parts:</p>
      <ol>
        <li>An English vocabulary test</li>
        <li>A main task in which you will hear and see words, and decide whether the written word is a real English word</li>
        <li>A brief survey about your background</li>
      </ol>
      <p>Each part will be introduced before it begins.</p>
      <p>Please make sure you are in a quiet environment and can hear audio clearly for the final task.</p>
      <p style=""margin-top: 2em;"">Press any key to begin.</p>
    </div>
  ","ArrowDown","html-keyboard-response","1","2.1.0","147862","J=YES, F=NO","0pmgnv4gya","0","79","73","85","","","","","","","","","","","","","","","",""
"","","","preload","2","2.1.0","149576","J=YES, F=NO","0pmgnv4gya","0","79","73","85","true","false","[]","[]","[]","","","","","","","","","","",""
"70230","
    <div style=""max-width: 800px; margin: auto; text-align: left;"">
      <h2>Part 1: Vocabulary Test</h2>
      <p>You will now complete the first part of the study: a short English vocabulary test.</p>
      <p>This test is called <strong>LexTALE</strong> and helps us get a general sense of your English proficiency.</p>
      <p style=""margin-top: 2em;"">Press any key to continue.</p>
    </div>
  "," ","html-keyboard-response","3","2.1.0","219807","J=YES, F=NO","0pmgnv4gya","0","79","73","85","","","","","","","","","","","","","","","",""
"9903","
    <div style=""max-width: 800px; margin: auto; text-align: left;"">
      <h2>LexTALE Vocabulary Test</h2>
      <p>In this test, you will see a series of letter strings—one at a time.</p>
      <p>Your task is to decide whether each string is a real English word.</p>
      <p><strong>Key responses:</strong></p>
      <ul>
        <li><strong>J</strong> = YES (real English word)</li>
        <li><strong>F</strong> = NO (not a real English word)</li>
      </ul>
      <p>There is no time limit, but please try to be accurate.</p>
      <p style=""margin-top: 2em;"">Press any key to begin.</p>
    </div>
  "," ","html-keyboard-response","4","2.1.0","229711","J=YES, F=NO","0pmgnv4gya","0","79","73","85","","","","","","","","","","","","","","","",""
"1325","
  <p style=""font-size: 40px;"">platery</p>
  <p style=""font-size: 16px;"">J = YES &nbsp;&nbsp;&nbsp; F = NO</p>
","j","html-keyboard-response","5","2.1.0","231037","J=YES, F=NO","0pmgnv4gya","0","79","73","85","","","","","","lextale","false","true","","","","","","","",""
"880","
  <p style=""font-size: 40px;"">denial</p>
  <p style=""font-size: 16px;"">J = YES &nbsp;&nbsp;&nbsp; F = NO</p>
","j","html-keyboard-response","6","2.1.0","231918","J=YES, F=NO","0pmgnv4gya","0","79","73","85","","","","","","lextale","true","true","","","","","","","",""
"1581","
  <p style=""font-size: 40px;"">marrit</p>
  <p style=""font-size: 16px;"">J = YES &nbsp;&nbsp;&nbsp; F = NO</p>
","f","html-keyboard-response","7","2.1.0","233499","J=YES, F=NO","0pmgnv4gya","0","79","73","85","","","","","","lextale","false","true","","","","","","","",""
"809","
  <p style=""font-size: 40px;"">bottle</p>
  <p style=""font-size: 16px;"">J = YES &nbsp;&nbsp;&nbsp; F = NO</p>
","j","html-keyboard-response","8","2.1.0","234308","J=YES, F=NO","0pmgnv4gya","0","79","73","85","","","","","","lextale","true","false","","","","","","","",""
"983","
  <p style=""font-size: 40px;"">birst</p>
  <p style=""font-size: 16px;"">J = YES &nbsp;&nbsp;&nbsp; F = NO</p>
","f","html-keyboard-response","9","2.1.0","235292","J=YES, F=NO","0pmgnv4gya","0","79","73","85","","","","","","lextale","false","false","","","","","","","",""
"790","
  <p style=""font-size: 40px;"">envy</p>
  <p style=""font-size: 16px;"">J = YES &nbsp;&nbsp;&nbsp; F = NO</p>
","j","html-keyboard-response","10","2.1.0","236083","J=YES, F=NO","0pmgnv4gya","0","79","73","85","","","","","","lextale","true","false","","","","","","","",""
"1152","
  <p style=""font-size: 40px;"">brang</p>
  <p style=""font-size: 16px;"">J = YES &nbsp;&nbsp;&nbsp; F = NO</p>
","f","html-keyboard-response","11","2.1.0","237236","J=YES, F=NO","0pmgnv4gya","0","79","73","85","","","","","","lextale","false","false","","","","","","","",""
"709","
  <p style=""font-size: 40px;"">huge</p>
  <p style=""font-size: 16px;"">J = YES &nbsp;&nbsp;&nbsp; F = NO</p>
","j","html-keyboard-response","12","2.1.0","237946","J=YES, F=NO","0pmgnv4gya","0","79","73","85","","","","","","lextale","true","false","","","","","","","",""
"3856","
  <p style=""font-size: 40px;"">plove</p>
  <p style=""font-size: 16px;"">J = YES &nbsp;&nbsp;&nbsp; F = NO</p>
","j","html-keyboard-response","13","2.1.0","241802","J=YES, F=NO","0pmgnv4gya","0","79","73","85","","","","","","lextale","false","false","","","","","","","",""
"700","
  <p style=""font-size: 40px;"">border</p>
  <p style=""font-size: 16px;"">J = YES &nbsp;&nbsp;&nbsp; F = NO</p>
","j","html-keyboard-response","14","2.1.0","242502","J=YES, F=NO","0pmgnv4gya","0","79","73","85","","","","","","lextale","true","false","","","","","","","",""
"856","
  <p style=""font-size: 40px;"">flimsy</p>
  <p style=""font-size: 16px;"">J = YES &nbsp;&nbsp;&nbsp; F = NO</p>
","j","html-keyboard-response","15","2.1.0","243361","J=YES, F=NO","0pmgnv4gya","0","79","73","85","","","","","","lextale","true","false","","","","","","","",""
"680","
  <p style=""font-size: 40px;"">drain</p>
  <p style=""font-size: 16px;"">J = YES &nbsp;&nbsp;&nbsp; F = NO</p>
","j","html-keyboard-response","16","2.1.0","244042","J=YES, F=NO","0pmgnv4gya","0","79","73","85","","","","","","lextale","true","false","","","","","","","",""
"4556","
  <p style=""font-size: 40px;"">twindle</p>
  <p style=""font-size: 16px;"">J = YES &nbsp;&nbsp;&nbsp; F = NO</p>
","f","html-keyboard-response","17","2.1.0","248598","J=YES, F=NO","0pmgnv4gya","0","79","73","85","","","","","","lextale","false","false","","","","","","","",""
"811","
  <p style=""font-size: 40px;"">propose</p>
  <p style=""font-size: 16px;"">J = YES &nbsp;&nbsp;&nbsp; F = NO</p>
","j","html-keyboard-response","18","2.1.0","249409","J=YES, F=NO","0pmgnv4gya","0","79","73","85","","","","","","lextale","true","false","","","","","","","",""
"1989","
  <p style=""font-size: 40px;"">forlay</p>
  <p style=""font-size: 16px;"">J = YES &nbsp;&nbsp;&nbsp; F = NO</p>
","f","html-keyboard-response","19","2.1.0","251398","J=YES, F=NO","0pmgnv4gya","0","79","73","85","","","","","","lextale","false","false","","","","","","","",""
"1781","
  <p style=""font-size: 40px;"">tenant</p>
  <p style=""font-size: 16px;"">J = YES &nbsp;&nbsp;&nbsp; F = NO</p>
","j","html-keyboard-response","20","2.1.0","253180","J=YES, F=NO","0pmgnv4gya","0","79","73","85","","","","","","lextale","true","false","","","","","","","",""
"1031","
  <p style=""font-size: 40px;"">strain</p>
  <p style=""font-size: 16px;"">J = YES &nbsp;&nbsp;&nbsp; F = NO</p>
","j","html-keyboard-response","21","2.1.0","254211","J=YES, F=NO","0pmgnv4gya","0","79","73","85","","","","","","lextale","true","false","","","","","","","",""
"1350","
  <p style=""font-size: 40px;"">holster</p>
  <p style=""font-size: 16px;"">J = YES &nbsp;&nbsp;&nbsp; F = NO</p>
","j","html-keyboard-response","22","2.1.0","255563","J=YES, F=NO","0pmgnv4gya","0","79","73","85","","","","","","lextale","true","false","","","","","","","",""
"7905","
  <p style=""font-size: 40px;"">hinder</p>
  <p style=""font-size: 16px;"">J = YES &nbsp;&nbsp;&nbsp; F = NO</p>
","j","html-keyboard-response","23","2.1.0","263468","J=YES, F=NO","0pmgnv4gya","0","79","73","85","","","","","","lextale","true","false","","","","","","","",""
"789","
  <p style=""font-size: 40px;"">swindle</p>
  <p style=""font-size: 16px;"">J = YES &nbsp;&nbsp;&nbsp; F = NO</p>
","j","html-keyboard-response","24","2.1.0","264257","J=YES, F=NO","0pmgnv4gya","0","79","73","85","","","","","","lextale","true","false","","","","","","","",""
"25102","
  <p style=""font-size: 40px;"">nuder</p>
  <p style=""font-size: 16px;"">J = YES &nbsp;&nbsp;&nbsp; F = NO</p>
","f","html-keyboard-response","25","2.1.0","289360","J=YES, F=NO","0pmgnv4gya","0","79","73","85","","","","","","lextale","false","false","","","","","","","",""
"804","
  <p style=""font-size: 40px;"">pillow</p>
  <p style=""font-size: 16px;"">J = YES &nbsp;&nbsp;&nbsp; F = NO</p>
","j","html-keyboard-response","26","2.1.0","290165","J=YES, F=NO","0pmgnv4gya","0","79","73","85","","","","","","lextale","true","false","","","","","","","",""
"1690","
  <p style=""font-size: 40px;"">shumble</p>
  <p style=""font-size: 16px;"">J = YES &nbsp;&nbsp;&nbsp; F = NO</p>
","f","html-keyboard-response","27","2.1.0","291855","J=YES, F=NO","0pmgnv4gya","0","79","73","85","","","","","","lextale","false","false","","","","","","","",""
"888","
  <p style=""font-size: 40px;"">thirst</p>
  <p style=""font-size: 16px;"">J = YES &nbsp;&nbsp;&nbsp; F = NO</p>
","j","html-keyboard-response","28","2.1.0","292744","J=YES, F=NO","0pmgnv4gya","0","79","73","85","","","","","","lextale","true","false","","","","","","","",""
"1514","
  <p style=""font-size: 40px;"">unsail</p>
  <p style=""font-size: 16px;"">J = YES &nbsp;&nbsp;&nbsp; F = NO</p>
","f","html-keyboard-response","29","2.1.0","294258","J=YES, F=NO","0pmgnv4gya","0","79","73","85","","","","","","lextale","false","false","","","","","","","",""
"603","
  <p style=""font-size: 40px;"">rifle</p>
  <p style=""font-size: 16px;"">J = YES &nbsp;&nbsp;&nbsp; F = NO</p>
","j","html-keyboard-response","30","2.1.0","294863","J=YES, F=NO","0pmgnv4gya","0","79","73","85","","","","","","lextale","true","false","","","","","","","",""
"804","
  <p style=""font-size: 40px;"">mush</p>
  <p style=""font-size: 16px;"">J = YES &nbsp;&nbsp;&nbsp; F = NO</p>
","j","html-keyboard-response","31","2.1.0","295667","J=YES, F=NO","0pmgnv4gya","0","79","73","85","","","","","","lextale","false","false","","","","","","","",""
"693","
  <p style=""font-size: 40px;"">drench</p>
  <p style=""font-size: 16px;"">J = YES &nbsp;&nbsp;&nbsp; F = NO</p>
","j","html-keyboard-response","32","2.1.0","296361","J=YES, F=NO","0pmgnv4gya","0","79","73","85","","","","","","lextale","true","false","","","","","","","",""
"747","
  <p style=""font-size: 40px;"">snirt</p>
  <p style=""font-size: 16px;"">J = YES &nbsp;&nbsp;&nbsp; F = NO</p>
","f","html-keyboard-response","33","2.1.0","297109","J=YES, F=NO","0pmgnv4gya","0","79","73","85","","","","","","lextale","false","false","","","","","","","",""
"736","
  <p style=""font-size: 40px;"">bitter</p>
  <p style=""font-size: 16px;"">J = YES &nbsp;&nbsp;&nbsp; F = NO</p>
","j","html-keyboard-response","34","2.1.0","297846","J=YES, F=NO","0pmgnv4gya","0","79","73","85","","","","","","lextale","true","false","","","","","","","",""
"726","
  <p style=""font-size: 40px;"">pliff</p>
  <p style=""font-size: 16px;"">J = YES &nbsp;&nbsp;&nbsp; F = NO</p>
","f","html-keyboard-response","35","2.1.0","298572","J=YES, F=NO","0pmgnv4gya","0","79","73","85","","","","","","lextale","false","false","","","","","","","",""
"671","
  <p style=""font-size: 40px;"">tablet</p>
  <p style=""font-size: 16px;"">J = YES &nbsp;&nbsp;&nbsp; F = NO</p>
","j","html-keyboard-response","36","2.1.0","299245","J=YES, F=NO","0pmgnv4gya","0","79","73","85","","","","","","lextale","true","false","","","","","","","",""
"2774","
  <p style=""font-size: 40px;"">glimmer</p>
  <p style=""font-size: 16px;"">J = YES &nbsp;&nbsp;&nbsp; F = NO</p>
","j","html-keyboard-response","37","2.1.0","302019","J=YES, F=NO","0pmgnv4gya","0","79","73","85","","","","","","lextale","true","false","","","","","","","",""
"819","
  <p style=""font-size: 40px;"">slink</p>
  <p style=""font-size: 16px;"">J = YES &nbsp;&nbsp;&nbsp; F = NO</p>
","f","html-keyboard-response","38","2.1.0","302839","J=YES, F=NO","0pmgnv4gya","0","79","73","85","","","","","","lextale","true","false","","","","","","","",""
"611","
  <p style=""font-size: 40px;"">clever</p>
  <p style=""font-size: 16px;"">J = YES &nbsp;&nbsp;&nbsp; F = NO</p>
","j","html-keyboard-response","39","2.1.0","303451","J=YES, F=NO","0pmgnv4gya","0","79","73","85","","","","","","lextale","true","false","","","","","","","",""
"1664","
  <p style=""font-size: 40px;"">grum</p>
  <p style=""font-size: 16px;"">J = YES &nbsp;&nbsp;&nbsp; F = NO</p>
","f","html-keyboard-response","40","2.1.0","305116","J=YES, F=NO","0pmgnv4gya","0","79","73","85","","","","","","lextale","false","false","","","","","","","",""
"1056","
  <p style=""font-size: 40px;"">string</p>
  <p style=""font-size: 16px;"">J = YES &nbsp;&nbsp;&nbsp; F = NO</p>
","j","html-keyboard-response","41","2.1.0","306173","J=YES, F=NO","0pmgnv4gya","0","79","73","85","","","","","","lextale","true","false","","","","","","","",""
"6774","
  <p style=""font-size: 40px;"">plim</p>
  <p style=""font-size: 16px;"">J = YES &nbsp;&nbsp;&nbsp; F = NO</p>
","f","html-keyboard-response","42","2.1.0","312947","J=YES, F=NO","0pmgnv4gya","0","79","73","85","","","","","","lextale","false","false","","","","","","","",""
"1019","
  <p style=""font-size: 40px;"">cable</p>
  <p style=""font-size: 16px;"">J = YES &nbsp;&nbsp;&nbsp; F = NO</p>
","j","html-keyboard-response","43","2.1.0","313968","J=YES, F=NO","0pmgnv4gya","0","79","73","85","","","","","","lextale","true","false","","","","","","","",""
"1277","
  <p style=""font-size: 40px;"">shrivel</p>
  <p style=""font-size: 16px;"">J = YES &nbsp;&nbsp;&nbsp; F = NO</p>
","f","html-keyboard-response","44","2.1.0","315245","J=YES, F=NO","0pmgnv4gya","0","79","73","85","","","","","","lextale","true","false","","","","","","","",""
"920","
  <p style=""font-size: 40px;"">tarnish</p>
  <p style=""font-size: 16px;"">J = YES &nbsp;&nbsp;&nbsp; F = NO</p>
","j","html-keyboard-response","45","2.1.0","316165","J=YES, F=NO","0pmgnv4gya","0","79","73","85","","","","","","lextale","true","false","","","","","","","",""
"941","
  <p style=""font-size: 40px;"">blim</p>
  <p style=""font-size: 16px;"">J = YES &nbsp;&nbsp;&nbsp; F = NO</p>
","f","html-keyboard-response","46","2.1.0","317108","J=YES, F=NO","0pmgnv4gya","0","79","73","85","","","","","","lextale","false","false","","","","","","","",""
"1066","
  <p style=""font-size: 40px;"">stifle</p>
  <p style=""font-size: 16px;"">J = YES &nbsp;&nbsp;&nbsp; F = NO</p>
","f","html-keyboard-response","47","2.1.0","318175","J=YES, F=NO","0pmgnv4gya","0","79","73","85","","","","","","lextale","true","false","","","","","","","",""
"1436","
  <p style=""font-size: 40px;"">bint</p>
  <p style=""font-size: 16px;"">J = YES &nbsp;&nbsp;&nbsp; F = NO</p>
","f","html-keyboard-response","48","2.1.0","319611","J=YES, F=NO","0pmgnv4gya","0","79","73","85","","","","","","lextale","false","false","","","","","","","",""
"895","
  <p style=""font-size: 40px;"">purple</p>
  <p style=""font-size: 16px;"">J = YES &nbsp;&nbsp;&nbsp; F = NO</p>
","j","html-keyboard-response","49","2.1.0","320508","J=YES, F=NO","0pmgnv4gya","0","79","73","85","","","","","","lextale","true","false","","","","","","","",""
"808","
  <p style=""font-size: 40px;"">wriggle</p>
  <p style=""font-size: 16px;"">J = YES &nbsp;&nbsp;&nbsp; F = NO</p>
","j","html-keyboard-response","50","2.1.0","321316","J=YES, F=NO","0pmgnv4gya","0","79","73","85","","","","","","lextale","true","false","","","","","","","",""
"840","
  <p style=""font-size: 40px;"">mangle</p>
  <p style=""font-size: 16px;"">J = YES &nbsp;&nbsp;&nbsp; F = NO</p>
","j","html-keyboard-response","51","2.1.0","322156","J=YES, F=NO","0pmgnv4gya","0","79","73","85","","","","","","lextale","true","false","","","","","","","",""
"857","
  <p style=""font-size: 40px;"">shramp</p>
  <p style=""font-size: 16px;"">J = YES &nbsp;&nbsp;&nbsp; F = NO</p>
","f","html-keyboard-response","52","2.1.0","323014","J=YES, F=NO","0pmgnv4gya","0","79","73","85","","","","","","lextale","false","false","","","","","","","",""
"2746","
  <p style=""font-size: 40px;"">flirt</p>
  <p style=""font-size: 16px;"">J = YES &nbsp;&nbsp;&nbsp; F = NO</p>
","j","html-keyboard-response","53","2.1.0","325761","J=YES, F=NO","0pmgnv4gya","0","79","73","85","","","","","","lextale","true","false","","","","","","","",""
"679","
  <p style=""font-size: 40px;"">frip</p>
  <p style=""font-size: 16px;"">J = YES &nbsp;&nbsp;&nbsp; F = NO</p>
","f","html-keyboard-response","54","2.1.0","326441","J=YES, F=NO","0pmgnv4gya","0","79","73","85","","","","","","lextale","false","false","","","","","","","",""
"1295","
  <p style=""font-size: 40px;"">tangle</p>
  <p style=""font-size: 16px;"">J = YES &nbsp;&nbsp;&nbsp; F = NO</p>
","f","html-keyboard-response","55","2.1.0","327737","J=YES, F=NO","0pmgnv4gya","0","79","73","85","","","","","","lextale","true","false","","","","","","","",""
"1127","
  <p style=""font-size: 40px;"">crumble</p>
  <p style=""font-size: 16px;"">J = YES &nbsp;&nbsp;&nbsp; F = NO</p>
","j","html-keyboard-response","56","2.1.0","328863","J=YES, F=NO","0pmgnv4gya","0","79","73","85","","","","","","lextale","true","false","","","","","","","",""
"1344","
  <p style=""font-size: 40px;"">wrinkle</p>
  <p style=""font-size: 16px;"">J = YES &nbsp;&nbsp;&nbsp; F = NO</p>
","f","html-keyboard-response","57","2.1.0","330208","J=YES, F=NO","0pmgnv4gya","0","79","73","85","","","","","","lextale","true","false","","","","","","","",""
"1013","
  <p style=""font-size: 40px;"">slumb</p>
  <p style=""font-size: 16px;"">J = YES &nbsp;&nbsp;&nbsp; F = NO</p>
","f","html-keyboard-response","58","2.1.0","331220","J=YES, F=NO","0pmgnv4gya","0","79","73","85","","","","","","lextale","false","false","","","","","","","",""
"567","
  <p style=""font-size: 40px;"">jungle</p>
  <p style=""font-size: 16px;"">J = YES &nbsp;&nbsp;&nbsp; F = NO</p>
","j","html-keyboard-response","59","2.1.0","331788","J=YES, F=NO","0pmgnv4gya","0","79","73","85","","","","","","lextale","true","false","","","","","","","",""
"1284","
  <p style=""font-size: 40px;"">frolick</p>
  <p style=""font-size: 16px;"">J = YES &nbsp;&nbsp;&nbsp; F = NO</p>
","f","html-keyboard-response","60","2.1.0","333072","J=YES, F=NO","0pmgnv4gya","0","79","73","85","","","","","","lextale","false","false","","","","","","","",""
"2715","
      <h2>LexTALE Test Completed</h2>
      <p>Your LexTALE vocabulary score is: <strong>79%</strong></p>
      <p>Press any key to continue.</p>
    "," ","html-keyboard-response","61","2.1.0","335790","J=YES, F=NO","0pmgnv4gya","0","79","73","85","","","","","","","","","","","","","","","",""
"53148","
    <div style=""max-width: 800px; margin: auto; text-align: left;"">
      <h2>Break Time</h2>
      <p>You have completed the first part of the study.</p>
      <p>You may take a short <strong>30-second break</strong> before continuing.</p>
      <p>When you’re ready, press any key to continue to the final task.</p>
    </div>
  ","j","html-keyboard-response","62","2.1.0","388938","J=YES, F=NO","0pmgnv4gya","0","79","73","85","","","","","","","","","","","","","","","",""
"1050733","
    <div style=""max-width: 800px; margin: auto; text-align: left;"">
      <h2>Part 2: Lexical Decision Task</h2>
      <p>You will now begin the second part of the study.</p>
      <p>Each trial will follow this sequence:</p>
      <ul>
        <li>A fixation cross (+) appears at the center of the screen.</li>
        <li>You will hear a short beep followed by a spoken word.</li>
        <li>A written word will appear briefly on the screen.</li>
      </ul>
      <p>Your task is to judge whether the <strong>written word</strong> is a real English word.</p>
      <p style=""margin-top: 1em;""><strong>Key responses:</strong></p>
      <ul>
        <li><strong>J</strong> = YES (real English word)</li>
        <li><strong>F</strong> = NO (not a real English word)</li>
      </ul>
      <p>Please respond as quickly and accurately as you can.</p>
      <p style=""margin-top: 2em;"">Press any key to continue.</p>
    </div>
  ","AudioVolumeUp","html-keyboard-response","63","2.1.0","1439673","J=YES, F=NO","0pmgnv4gya","0","79","73","85","","","","","","","","","","","","","","","",""
"201","
    <div style=""max-width: 800px; margin: auto; text-align: left;"">
      <h2>Before You Begin</h2>
      <p>Make sure your sound is turned on.</p>
      <p>You will hear audio during each trial, but your decision should be based only on the <strong>written word</strong> you see on the screen.</p>
      <p><strong>Reminder:</strong></p>
      <ul>
        <li><strong>J</strong> = YES (real English word)</li>
        <li><strong>F</strong> = NO (not a real English word)</li>
      </ul>
      <p style=""margin-top: 2em;"">Press any key when you are ready to begin.</p>
    </div>
  ","AudioVolumeUp","html-keyboard-response","64","2.1.0","1439877","J=YES, F=NO","0pmgnv4gya","0","79","73","85","","","","","","","","","","","","","","","",""
"19936","
    <div style=""max-width: 800px; margin: auto; text-align: left;"">
      <h2>Part 2: Practice Trials</h2>
      <p>You will now complete a few <strong>practice trials</strong> to get familiar with the task.</p>
      <p>These trials are <strong>not scored</strong> and are only to help you get used to the format.</p>
      <p style=""margin-top: 2em;"">Press any key to begin.</p>
    </div>
  "," ","html-keyboard-response","65","2.1.0","1459813","J=YES, F=NO","0pmgnv4gya","0","79","73","85","","","","","","","","","","","","","","","",""
"1411","<p>Starting practice block 1 of 2. Press any key to continue.</p>"," ","html-keyboard-response","66","2.1.0","1461225","J=YES, F=NO","0pmgnv4gya","0","79","73","85","","","","","","","","","","","","","","","",""
"null","<p style=""font-size: 50px;"">+</p>","null","html-keyboard-response","67","2.1.0","1461536","J=YES, F=NO","0pmgnv4gya","0","79","73","85","","","","","","","","","","","","","","","",""
"null","audio/beep-329314.mp3","null","audio-keyboard-response","68","2.1.0","1463372","J=YES, F=NO","0pmgnv4gya","0","79","73","85","","","","","","","","","","","","","","","",""
"null","audio/breath.wav","null","audio-keyboard-response","69","2.1.0","1464136","J=YES, F=NO","0pmgnv4gya","0","79","73","85","","","","","","","","","","","","","","","",""
"null","
          <p id=""word"" style=""font-size: 40px;"">pack</p>
          <p style=""font-size: 16px;"">J = YES &nbsp;&nbsp;&nbsp; F = NO</p>
        ","null","html-keyboard-response","70","2.1.0","1465644","J=YES, F=NO","0pmgnv4gya","0","79","73","85","","","","","","","","","pack","breath","filler","filler","j","false","",""
"null","<p style=""font-size: 50px;"">+</p>","null","html-keyboard-response","71","2.1.0","1465955","J=YES, F=NO","0pmgnv4gya","0","79","73","85","","","","","","","","","","","","","","","",""
"null","audio/beep-329314.mp3","null","audio-keyboard-response","72","2.1.0","1467730","J=YES, F=NO","0pmgnv4gya","0","79","73","85","","","","","","","","","","","","","","","",""
"null","audio/gossip1.wav","null","audio-keyboard-response","73","2.1.0","1469081","J=YES, F=NO","0pmgnv4gya","0","79","73","85","","","","","","","","","","","","","","","",""
"947","
          <p id=""word"" style=""font-size: 40px;"">camerish</p>
          <p style=""font-size: 16px;"">J = YES &nbsp;&nbsp;&nbsp; F = NO</p>
        ","f","html-keyboard-response","74","2.1.0","1470029","J=YES, F=NO","0pmgnv4gya","0","79","73","85","","","","","","","","","camerish","gossip1","pseudoword","pseudoword","f","true","",""
"null","<p style=""font-size: 50px;"">+</p>","null","html-keyboard-response","75","2.1.0","1470334","J=YES, F=NO","0pmgnv4gya","0","79","73","85","","","","","","","","","","","","","","","",""
"null","audio/beep-329314.mp3","null","audio-keyboard-response","76","2.1.0","1472083","J=YES, F=NO","0pmgnv4gya","0","79","73","85","","","","","","","","","","","","","","","",""
"null","audio/gift1.wav","null","audio-keyboard-response","77","2.1.0","1473010","J=YES, F=NO","0pmgnv4gya","0","79","73","85","","","","","","","","","","","","","","","",""
"594","
          <p id=""word"" style=""font-size: 40px;"">protsh</p>
          <p style=""font-size: 16px;"">J = YES &nbsp;&nbsp;&nbsp; F = NO</p>
        ","f","html-keyboard-response","78","2.1.0","1473603","J=YES, F=NO","0pmgnv4gya","0","79","73","85","","","","","","","","","protsh","gift1","pseudoword","pseudoword","f","true","",""
"null","<p style=""font-size: 50px;"">+</p>","null","html-keyboard-response","79","2.1.0","1473917","J=YES, F=NO","0pmgnv4gya","0","79","73","85","","","","","","","","","","","","","","","",""
"null","audio/beep-329314.mp3","null","audio-keyboard-response","80","2.1.0","1475661","J=YES, F=NO","0pmgnv4gya","0","79","73","85","","","","","","","","","","","","","","","",""
"null","audio/radio1.wav","null","audio-keyboard-response","81","2.1.0","1476461","J=YES, F=NO","0pmgnv4gya","0","79","73","85","","","","","","","","","","","","","","","",""
"707","
          <p id=""word"" style=""font-size: 40px;"">blanter</p>
          <p style=""font-size: 16px;"">J = YES &nbsp;&nbsp;&nbsp; F = NO</p>
        ","f","html-keyboard-response","82","2.1.0","1477170","J=YES, F=NO","0pmgnv4gya","0","79","73","85","","","","","","","","","blanter","radio1","pseudoword","pseudoword","f","true","",""
"null","<p style=""font-size: 50px;"">+</p>","null","html-keyboard-response","83","2.1.0","1477474","J=YES, F=NO","0pmgnv4gya","0","79","73","85","","","","","","","","","","","","","","","",""
"null","audio/beep-329314.mp3","null","audio-keyboard-response","84","2.1.0","1479228","J=YES, F=NO","0pmgnv4gya","0","79","73","85","","","","","","","","","","","","","","","",""
"null","audio/arm.wav","null","audio-keyboard-response","85","2.1.0","1480227","J=YES, F=NO","0pmgnv4gya","0","79","73","85","","","","","","","","","","","","","","","",""
"659","
          <p id=""word"" style=""font-size: 40px;"">fold</p>
          <p style=""font-size: 16px;"">J = YES &nbsp;&nbsp;&nbsp; F = NO</p>
        ","f","html-keyboard-response","86","2.1.0","1480887","J=YES, F=NO","0pmgnv4gya","0","79","73","85","","","","","","","","","fold","arm","filler","filler","j","false","",""
"null","<p style=""font-size: 50px;"">+</p>","null","html-keyboard-response","87","2.1.0","1481188","J=YES, F=NO","0pmgnv4gya","0","79","73","85","","","","","","","","","","","","","","","",""
"null","audio/beep-329314.mp3","null","audio-keyboard-response","88","2.1.0","1482948","J=YES, F=NO","0pmgnv4gya","0","79","73","85","","","","","","","","","","","","","","","",""
"null","audio/brain.wav","null","audio-keyboard-response","89","2.1.0","1483632","J=YES, F=NO","0pmgnv4gya","0","79","73","85","","","","","","","","","","","","","","","",""
"615","
          <p id=""word"" style=""font-size: 40px;"">throw</p>
          <p style=""font-size: 16px;"">J = YES &nbsp;&nbsp;&nbsp; F = NO</p>
        ","f","html-keyboard-response","90","2.1.0","1484247","J=YES, F=NO","0pmgnv4gya","0","79","73","85","","","","","","","","","throw","brain","filler","filler","j","false","",""
"null","<p style=""font-size: 50px;"">+</p>","null","html-keyboard-response","91","2.1.0","1484558","J=YES, F=NO","0pmgnv4gya","0","79","73","85","","","","","","","","","","","","","","","",""
"null","audio/beep-329314.mp3","null","audio-keyboard-response","92","2.1.0","1486307","J=YES, F=NO","0pmgnv4gya","0","79","73","85","","","","","","","","","","","","","","","",""
"null","audio/baby.wav","null","audio-keyboard-response","93","2.1.0","1487213","J=YES, F=NO","0pmgnv4gya","0","79","73","85","","","","","","","","","","","","","","","",""
"954","
          <p id=""word"" style=""font-size: 40px;"">lift</p>
          <p style=""font-size: 16px;"">J = YES &nbsp;&nbsp;&nbsp; F = NO</p>
        ","j","html-keyboard-response","94","2.1.0","1488168","J=YES, F=NO","0pmgnv4gya","0","79","73","85","","","","","","","","","lift","baby","filler","filler","j","true","",""
"null","<p style=""font-size: 50px;"">+</p>","null","html-keyboard-response","95","2.1.0","1488482","J=YES, F=NO","0pmgnv4gya","0","79","73","85","","","","","","","","","","","","","","","",""
"null","audio/beep-329314.mp3","null","audio-keyboard-response","96","2.1.0","1490226","J=YES, F=NO","0pmgnv4gya","0","79","73","85","","","","","","","","","","","","","","","",""
"null","audio/pattern.wav","null","audio-keyboard-response","97","2.1.0","1490944","J=YES, F=NO","0pmgnv4gya","0","79","73","85","","","","","","","","","","","","","","","",""
"686","
          <p id=""word"" style=""font-size: 40px;"">tug</p>
          <p style=""font-size: 16px;"">J = YES &nbsp;&nbsp;&nbsp; F = NO</p>
        ","f","html-keyboard-response","98","2.1.0","1491632","J=YES, F=NO","0pmgnv4gya","0","79","73","85","","","","","","","","","tug","pattern","filler","filler","j","false","",""
"null","<p style=""font-size: 50px;"">+</p>","null","html-keyboard-response","99","2.1.0","1491947","J=YES, F=NO","0pmgnv4gya","0","79","73","85","","","","","","","","","","","","","","","",""
"null","audio/beep-329314.mp3","null","audio-keyboard-response","100","2.1.0","1493703","J=YES, F=NO","0pmgnv4gya","0","79","73","85","","","","","","","","","","","","","","","",""
"null","audio/butter1.wav","null","audio-keyboard-response","101","2.1.0","1494357","J=YES, F=NO","0pmgnv4gya","0","79","73","85","","","","","","","","","","","","","","","",""
"788","
          <p id=""word"" style=""font-size: 40px;"">chew</p>
          <p style=""font-size: 16px;"">J = YES &nbsp;&nbsp;&nbsp; F = NO</p>
        ","f","html-keyboard-response","102","2.1.0","1495147","J=YES, F=NO","0pmgnv4gya","0","79","73","85","","","","","","","","","chew","butter1","filler","filler","j","false","",""
"null","<p style=""font-size: 50px;"">+</p>","null","html-keyboard-response","103","2.1.0","1495453","J=YES, F=NO","0pmgnv4gya","0","79","73","85","","","","","","","","","","","","","","","",""
"null","audio/beep-329314.mp3","null","audio-keyboard-response","104","2.1.0","1497202","J=YES, F=NO","0pmgnv4gya","0","79","73","85","","","","","","","","","","","","","","","",""
"null","audio/battle1.wav","null","audio-keyboard-response","105","2.1.0","1498343","J=YES, F=NO","0pmgnv4gya","0","79","73","85","","","","","","","","","","","","","","","",""
"466","
          <p id=""word"" style=""font-size: 40px;"">boil</p>
          <p style=""font-size: 16px;"">J = YES &nbsp;&nbsp;&nbsp; F = NO</p>
        ","f","html-keyboard-response","106","2.1.0","1498810","J=YES, F=NO","0pmgnv4gya","0","79","73","85","","","","","","","","","boil","battle1","filler","filler","j","false","",""
"null","<p style=""font-size: 50px;"">+</p>","null","html-keyboard-response","107","2.1.0","1499116","J=YES, F=NO","0pmgnv4gya","0","79","73","85","","","","","","","","","","","","","","","",""
"null","audio/beep-329314.mp3","null","audio-keyboard-response","108","2.1.0","1500861","J=YES, F=NO","0pmgnv4gya","0","79","73","85","","","","","","","","","","","","","","","",""
"null","audio/smirk1.wav","null","audio-keyboard-response","109","2.1.0","1502195","J=YES, F=NO","0pmgnv4gya","0","79","73","85","","","","","","","","","","","","","","","",""
"877","
          <p id=""word"" style=""font-size: 40px;"">snopt</p>
          <p style=""font-size: 16px;"">J = YES &nbsp;&nbsp;&nbsp; F = NO</p>
        ","f","html-keyboard-response","110","2.1.0","1503072","J=YES, F=NO","0pmgnv4gya","0","79","73","85","","","","","","","","","snopt","smirk1","pseudoword","pseudoword","f","true","",""
"null","<p style=""font-size: 50px;"">+</p>","null","html-keyboard-response","111","2.1.0","1503385","J=YES, F=NO","0pmgnv4gya","0","79","73","85","","","","","","","","","","","","","","","",""
"null","audio/beep-329314.mp3","null","audio-keyboard-response","112","2.1.0","1505134","J=YES, F=NO","0pmgnv4gya","0","79","73","85","","","","","","","","","","","","","","","",""
"null","audio/desire.wav","null","audio-keyboard-response","113","2.1.0","1505964","J=YES, F=NO","0pmgnv4gya","0","79","73","85","","","","","","","","","","","","","","","",""
"676","
          <p id=""word"" style=""font-size: 40px;"">nophed</p>
          <p style=""font-size: 16px;"">J = YES &nbsp;&nbsp;&nbsp; F = NO</p>
        ","f","html-keyboard-response","114","2.1.0","1506641","J=YES, F=NO","0pmgnv4gya","0","79","73","85","","","","","","","","","nophed","desire","pseudoword","pseudoword","f","true","",""
"22894","<p>Starting practice block 2 of 2. Press any key to continue.</p>"," ","html-keyboard-response","115","2.1.0","1529536","J=YES, F=NO","0pmgnv4gya","0","79","73","85","","","","","","","","","","","","","","","",""
"null","<p style=""font-size: 50px;"">+</p>","null","html-keyboard-response","116","2.1.0","1529838","J=YES, F=NO","0pmgnv4gya","0","79","73","85","","","","","","","","","","","","","","","",""
"null","audio/beep-329314.mp3","null","audio-keyboard-response","117","2.1.0","1531471","J=YES, F=NO","0pmgnv4gya","0","79","73","85","","","","","","","","","","","","","","","",""
"null","audio/arm.wav","null","audio-keyboard-response","118","2.1.0","1532103","J=YES, F=NO","0pmgnv4gya","0","79","73","85","","","","","","","","","","","","","","","",""
"924","
          <p id=""word"" style=""font-size: 40px;"">pigne</p>
          <p style=""font-size: 16px;"">J = YES &nbsp;&nbsp;&nbsp; F = NO</p>
        ","f","html-keyboard-response","119","2.1.0","1533028","J=YES, F=NO","0pmgnv4gya","0","79","73","85","","","","","","","","","pigne","arm","pseudoword","pseudoword","f","true","",""
"null","<p style=""font-size: 50px;"">+</p>","null","html-keyboard-response","120","2.1.0","1533339","J=YES, F=NO","0pmgnv4gya","0","79","73","85","","","","","","","","","","","","","","","",""
"null","audio/beep-329314.mp3","null","audio-keyboard-response","121","2.1.0","1534963","J=YES, F=NO","0pmgnv4gya","0","79","73","85","","","","","","","","","","","","","","","",""
"null","audio/cancer1.wav","null","audio-keyboard-response","122","2.1.0","1535880","J=YES, F=NO","0pmgnv4gya","0","79","73","85","","","","","","","","","","","","","","","",""
"849","
          <p id=""word"" style=""font-size: 40px;"">draw</p>
          <p style=""font-size: 16px;"">J = YES &nbsp;&nbsp;&nbsp; F = NO</p>
        ","j","html-keyboard-response","123","2.1.0","1536731","J=YES, F=NO","0pmgnv4gya","0","79","73","85","","","","","","","","","draw","cancer1","filler","filler","j","true","",""
"null","<p style=""font-size: 50px;"">+</p>","null","html-keyboard-response","124","2.1.0","1537046","J=YES, F=NO","0pmgnv4gya","0","79","73","85","","","","","","","","","","","","","","","",""
"null","audio/beep-329314.mp3","null","audio-keyboard-response","125","2.1.0","1538667","J=YES, F=NO","0pmgnv4gya","0","79","73","85","","","","","","","","","","","","","","","",""
"null","audio/table1.wav","null","audio-keyboard-response","126","2.1.0","1539447","J=YES, F=NO","0pmgnv4gya","0","79","73","85","","","","","","","","","","","","","","","",""
"501","
          <p id=""word"" style=""font-size: 40px;"">stimb</p>
          <p style=""font-size: 16px;"">J = YES &nbsp;&nbsp;&nbsp; F = NO</p>
        ","f","html-keyboard-response","127","2.1.0","1539948","J=YES, F=NO","0pmgnv4gya","0","79","73","85","","","","","","","","","stimb","table1","pseudoword","pseudoword","f","true","",""
"null","<p style=""font-size: 50px;"">+</p>","null","html-keyboard-response","128","2.1.0","1540259","J=YES, F=NO","0pmgnv4gya","0","79","73","85","","","","","","","","","","","","","","","",""
"null","audio/beep-329314.mp3","null","audio-keyboard-response","129","2.1.0","1541880","J=YES, F=NO","0pmgnv4gya","0","79","73","85","","","","","","","","","","","","","","","",""
"null","audio/test1.wav","null","audio-keyboard-response","130","2.1.0","1542863","J=YES, F=NO","0pmgnv4gya","0","79","73","85","","","","","","","","","","","","","","","",""
"604","
          <p id=""word"" style=""font-size: 40px;"">twopch</p>
          <p style=""font-size: 16px;"">J = YES &nbsp;&nbsp;&nbsp; F = NO</p>
        ","f","html-keyboard-response","131","2.1.0","1543467","J=YES, F=NO","0pmgnv4gya","0","79","73","85","","","","","","","","","twopch","test1","pseudoword","pseudoword","f","true","",""
"null","<p style=""font-size: 50px;"">+</p>","null","html-keyboard-response","132","2.1.0","1543783","J=YES, F=NO","0pmgnv4gya","0","79","73","85","","","","","","","","","","","","","","","",""
"null","audio/beep-329314.mp3","null","audio-keyboard-response","133","2.1.0","1545527","J=YES, F=NO","0pmgnv4gya","0","79","73","85","","","","","","","","","","","","","","","",""
"null","audio/tomato.wav","null","audio-keyboard-response","134","2.1.0","1546718","J=YES, F=NO","0pmgnv4gya","0","79","73","85","","","","","","","","","","","","","","","",""
"416","
          <p id=""word"" style=""font-size: 40px;"">gladies</p>
          <p style=""font-size: 16px;"">J = YES &nbsp;&nbsp;&nbsp; F = NO</p>
        ","j","html-keyboard-response","135","2.1.0","1547134","J=YES, F=NO","0pmgnv4gya","0","79","73","85","","","","","","","","","gladies","tomato","pseudoword","pseudoword","f","false","",""
"null","<p style=""font-size: 50px;"">+</p>","null","html-keyboard-response","136","2.1.0","1547439","J=YES, F=NO","0pmgnv4gya","0","79","73","85","","","","","","","","","","","","","","","",""
"null","audio/beep-329314.mp3","null","audio-keyboard-response","137","2.1.0","1549188","J=YES, F=NO","0pmgnv4gya","0","79","73","85","","","","","","","","","","","","","","","",""
"null","audio/kettle1.wav","null","audio-keyboard-response","138","2.1.0","1550123","J=YES, F=NO","0pmgnv4gya","0","79","73","85","","","","","","","","","","","","","","","",""
"398","
          <p id=""word"" style=""font-size: 40px;"">wrap</p>
          <p style=""font-size: 16px;"">J = YES &nbsp;&nbsp;&nbsp; F = NO</p>
        ","f","html-keyboard-response","139","2.1.0","1550520","J=YES, F=NO","0pmgnv4gya","0","79","73","85","","","","","","","","","wrap","kettle1","filler","filler","j","false","",""
"null","<p style=""font-size: 50px;"">+</p>","null","html-keyboard-response","140","2.1.0","1550829","J=YES, F=NO","0pmgnv4gya","0","79","73","85","","","","","","","","","","","","","","","",""
"null","audio/beep-329314.mp3","null","audio-keyboard-response","141","2.1.0","1552576","J=YES, F=NO","0pmgnv4gya","0","79","73","85","","","","","","","","","","","","","","","",""
"null","audio/belief.wav","null","audio-keyboard-response","142","2.1.0","1553580","J=YES, F=NO","0pmgnv4gya","0","79","73","85","","","","","","","","","","","","","","","",""
"369","
          <p id=""word"" style=""font-size: 40px;"">read</p>
          <p style=""font-size: 16px;"">J = YES &nbsp;&nbsp;&nbsp; F = NO</p>
        ","f","html-keyboard-response","143","2.1.0","1553949","J=YES, F=NO","0pmgnv4gya","0","79","73","85","","","","","","","","","read","belief","filler","filler","j","false","",""
"null","<p style=""font-size: 50px;"">+</p>","null","html-keyboard-response","144","2.1.0","1554255","J=YES, F=NO","0pmgnv4gya","0","79","73","85","","","","","","","","","","","","","","","",""
"null","audio/beep-329314.mp3","null","audio-keyboard-response","145","2.1.0","1555998","J=YES, F=NO","0pmgnv4gya","0","79","73","85","","","","","","","","","","","","","","","",""
"null","audio/floor.wav","null","audio-keyboard-response","146","2.1.0","1556764","J=YES, F=NO","0pmgnv4gya","0","79","73","85","","","","","","","","","","","","","","","",""
"780","
          <p id=""word"" style=""font-size: 40px;"">mop</p>
          <p style=""font-size: 16px;"">J = YES &nbsp;&nbsp;&nbsp; F = NO</p>
        ","j","html-keyboard-response","147","2.1.0","1557544","J=YES, F=NO","0pmgnv4gya","0","79","73","85","","","","","","","","","mop","floor","filler","filler","j","true","",""
"null","<p style=""font-size: 50px;"">+</p>","null","html-keyboard-response","148","2.1.0","1557849","J=YES, F=NO","0pmgnv4gya","0","79","73","85","","","","","","","","","","","","","","","",""
"null","audio/beep-329314.mp3","null","audio-keyboard-response","149","2.1.0","1559595","J=YES, F=NO","0pmgnv4gya","0","79","73","85","","","","","","","","","","","","","","","",""
"null","audio/window1.wav","null","audio-keyboard-response","150","2.1.0","1560855","J=YES, F=NO","0pmgnv4gya","0","79","73","85","","","","","","","","","","","","","","","",""
"310","
          <p id=""word"" style=""font-size: 40px;"">toss</p>
          <p style=""font-size: 16px;"">J = YES &nbsp;&nbsp;&nbsp; F = NO</p>
        ","j","html-keyboard-response","151","2.1.0","1561166","J=YES, F=NO","0pmgnv4gya","0","79","73","85","","","","","","","","","toss","window1","filler","filler","j","true","",""
"null","<p style=""font-size: 50px;"">+</p>","null","html-keyboard-response","152","2.1.0","1561485","J=YES, F=NO","0pmgnv4gya","0","79","73","85","","","","","","","","","","","","","","","",""
"null","audio/beep-329314.mp3","null","audio-keyboard-response","153","2.1.0","1563231","J=YES, F=NO","0pmgnv4gya","0","79","73","85","","","","","","","","","","","","","","","",""
"null","audio/foe1.wav","null","audio-keyboard-response","154","2.1.0","1564262","J=YES, F=NO","0pmgnv4gya","0","79","73","85","","","","","","","","","","","","","","","",""
"520","
          <p id=""word"" style=""font-size: 40px;"">creth</p>
          <p style=""font-size: 16px;"">J = YES &nbsp;&nbsp;&nbsp; F = NO</p>
        ","f","html-keyboard-response","155","2.1.0","1564781","J=YES, F=NO","0pmgnv4gya","0","79","73","85","","","","","","","","","creth","foe1","pseudoword","pseudoword","f","true","",""
"null","<p style=""font-size: 50px;"">+</p>","null","html-keyboard-response","156","2.1.0","1565096","J=YES, F=NO","0pmgnv4gya","0","79","73","85","","","","","","","","","","","","","","","",""
"null","audio/beep-329314.mp3","null","audio-keyboard-response","157","2.1.0","1566845","J=YES, F=NO","0pmgnv4gya","0","79","73","85","","","","","","","","","","","","","","","",""
"null","audio/tax1.wav","null","audio-keyboard-response","158","2.1.0","1567662","J=YES, F=NO","0pmgnv4gya","0","79","73","85","","","","","","","","","","","","","","","",""
"817","
          <p id=""word"" style=""font-size: 40px;"">snate</p>
          <p style=""font-size: 16px;"">J = YES &nbsp;&nbsp;&nbsp; F = NO</p>
        ","f","html-keyboard-response","159","2.1.0","1568480","J=YES, F=NO","0pmgnv4gya","0","79","73","85","","","","","","","","","snate","tax1","pseudoword","pseudoword","f","true","",""
"null","<p style=""font-size: 50px;"">+</p>","null","html-keyboard-response","160","2.1.0","1568784","J=YES, F=NO","0pmgnv4gya","0","79","73","85","","","","","","","","","","","","","","","",""
"null","audio/beep-329314.mp3","null","audio-keyboard-response","161","2.1.0","1570545","J=YES, F=NO","0pmgnv4gya","0","79","73","85","","","","","","","","","","","","","","","",""
"null","audio/age1.wav","null","audio-keyboard-response","162","2.1.0","1571294","J=YES, F=NO","0pmgnv4gya","0","79","73","85","","","","","","","","","","","","","","","",""
"544","
          <p id=""word"" style=""font-size: 40px;"">lachry</p>
          <p style=""font-size: 16px;"">J = YES &nbsp;&nbsp;&nbsp; F = NO</p>
        ","j","html-keyboard-response","163","2.1.0","1571839","J=YES, F=NO","0pmgnv4gya","0","79","73","85","","","","","","","","","lachry","age1","pseudoword","pseudoword","f","false","",""
"44140","
    <div style=""max-width: 800px; margin: auto; text-align: left;"">
      <h2>Part 2: Main Trials</h2>
      <p>Great job on the practice trials!</p>
      <p>You will now begin the <strong>main set of trials</strong>.</p>
      <p>Remember your key assignments:</p>
      <ul>
        <li><strong>J</strong> = YES (real English word)</li>
        <li><strong>F</strong> = NO (not a real English word)</li>
      </ul>
      <p>Try to respond as <strong>quickly and accurately</strong> as possible.</p>
      <p style=""margin-top: 2em;"">Press any key to begin the main trials.</p>
    </div>
  ","j","html-keyboard-response","164","2.1.0","1615979","J=YES, F=NO","0pmgnv4gya","0","79","73","85","","","","","","","","","","","","","","","",""
"1435","<p>Starting main block 1 of 8. Press any key to continue.</p>","j","html-keyboard-response","165","2.1.0","1617415","J=YES, F=NO","0pmgnv4gya","0","79","73","85","","","","","","","","","","","","","","","",""
"null","<p style=""font-size: 50px;"">+</p>","null","html-keyboard-response","166","2.1.0","1617730","J=YES, F=NO","0pmgnv4gya","0","79","73","85","","","","","","","","","","","","","","","",""
"null","audio/beep-329314.mp3","null","audio-keyboard-response","167","2.1.0","1619525","J=YES, F=NO","0pmgnv4gya","0","79","73","85","","","","","","","","","","","","","","","",""
"null","audio/survey1.wav","null","audio-keyboard-response","168","2.1.0","1620461","J=YES, F=NO","0pmgnv4gya","0","79","73","85","","","","","","","","","","","","","","","",""
"484","
          <p id=""word"" style=""font-size: 40px;"">imploth</p>
          <p style=""font-size: 16px;"">J = YES &nbsp;&nbsp;&nbsp; F = NO</p>
        ","j","html-keyboard-response","169","2.1.0","1620946","J=YES, F=NO","0pmgnv4gya","0","79","73","85","","","","","","","","","imploth","survey1","pseudoword","pseudoword","f","false","",""
"null","<p style=""font-size: 50px;"">+</p>","null","html-keyboard-response","170","2.1.0","1621248","J=YES, F=NO","0pmgnv4gya","0","79","73","85","","","","","","","","","","","","","","","",""
"null","audio/beep-329314.mp3","null","audio-keyboard-response","171","2.1.0","1622998","J=YES, F=NO","0pmgnv4gya","0","79","73","85","","","","","","","","","","","","","","","",""
"null","audio/account1.wav","null","audio-keyboard-response","172","2.1.0","1623888","J=YES, F=NO","0pmgnv4gya","0","79","73","85","","","","","","","","","","","","","","","",""
"628","
          <p id=""word"" style=""font-size: 40px;"">paint</p>
          <p style=""font-size: 16px;"">J = YES &nbsp;&nbsp;&nbsp; F = NO</p>
        ","j","html-keyboard-response","173","2.1.0","1624517","J=YES, F=NO","0pmgnv4gya","0","79","73","85","","","","","","","","","paint","account1","filler","filler","j","true","",""
"null","<p style=""font-size: 50px;"">+</p>","null","html-keyboard-response","174","2.1.0","1624828","J=YES, F=NO","0pmgnv4gya","0","79","73","85","","","","","","","","","","","","","","","",""
"null","audio/beep-329314.mp3","null","audio-keyboard-response","175","2.1.0","1626575","J=YES, F=NO","0pmgnv4gya","0","79","73","85","","","","","","","","","","","","","","","",""
"null","audio/corpse1.wav","null","audio-keyboard-response","176","2.1.0","1627417","J=YES, F=NO","0pmgnv4gya","0","79","73","85","","","","","","","","","","","","","","","",""
"639","
          <p id=""word"" style=""font-size: 40px;"">glonet</p>
          <p style=""font-size: 16px;"">J = YES &nbsp;&nbsp;&nbsp; F = NO</p>
        ","f","html-keyboard-response","177","2.1.0","1628058","J=YES, F=NO","0pmgnv4gya","0","79","73","85","","","","","","","","","glonet","corpse1","pseudoword","pseudoword","f","true","",""
"null","<p style=""font-size: 50px;"">+</p>","null","html-keyboard-response","178","2.1.0","1628363","J=YES, F=NO","0pmgnv4gya","0","79","73","85","","","","","","","","","","","","","","","",""
"null","audio/beep-329314.mp3","null","audio-keyboard-response","179","2.1.0","1630107","J=YES, F=NO","0pmgnv4gya","0","79","73","85","","","","","","","","","","","","","","","",""
"null","audio/breath.wav","null","audio-keyboard-response","180","2.1.0","1630873","J=YES, F=NO","0pmgnv4gya","0","79","73","85","","","","","","","","","","","","","","","",""
"751","
          <p id=""word"" style=""font-size: 40px;"">twets</p>
          <p style=""font-size: 16px;"">J = YES &nbsp;&nbsp;&nbsp; F = NO</p>
        ","f","html-keyboard-response","181","2.1.0","1631624","J=YES, F=NO","0pmgnv4gya","0","79","73","85","","","","","","","","","twets","breath","pseudoword","pseudoword","f","true","",""
"null","<p style=""font-size: 50px;"">+</p>","null","html-keyboard-response","182","2.1.0","1631938","J=YES, F=NO","0pmgnv4gya","0","79","73","85","","","","","","","","","","","","","","","",""
"null","audio/beep-329314.mp3","null","audio-keyboard-response","183","2.1.0","1633695","J=YES, F=NO","0pmgnv4gya","0","79","73","85","","","","","","","","","","","","","","","",""
"null","audio/mouth1.wav","null","audio-keyboard-response","184","2.1.0","1634478","J=YES, F=NO","0pmgnv4gya","0","79","73","85","","","","","","","","","","","","","","","",""
"634","
          <p id=""word"" style=""font-size: 40px;"">spolial</p>
          <p style=""font-size: 16px;"">J = YES &nbsp;&nbsp;&nbsp; F = NO</p>
        ","f","html-keyboard-response","185","2.1.0","1635113","J=YES, F=NO","0pmgnv4gya","0","79","73","85","","","","","","","","","spolial","mouth1","pseudoword","pseudoword","f","true","",""
"null","<p style=""font-size: 50px;"">+</p>","null","html-keyboard-response","186","2.1.0","1635417","J=YES, F=NO","0pmgnv4gya","0","79","73","85","","","","","","","","","","","","","","","",""
"null","audio/beep-329314.mp3","null","audio-keyboard-response","187","2.1.0","1637166","J=YES, F=NO","0pmgnv4gya","0","79","73","85","","","","","","","","","","","","","","","",""
"null","audio/show.wav","null","audio-keyboard-response","188","2.1.0","1637913","J=YES, F=NO","0pmgnv4gya","0","79","73","85","","","","","","","","","","","","","","","",""
"645","
          <p id=""word"" style=""font-size: 40px;"">smark</p>
          <p style=""font-size: 16px;"">J = YES &nbsp;&nbsp;&nbsp; F = NO</p>
        ","f","html-keyboard-response","189","2.1.0","1638559","J=YES, F=NO","0pmgnv4gya","0","79","73","85","","","","","","","","","smark","show","pseudoword","pseudoword","f","true","",""
"null","<p style=""font-size: 50px;"">+</p>","null","html-keyboard-response","190","2.1.0","1638870","J=YES, F=NO","0pmgnv4gya","0","79","73","85","","","","","","","","","","","","","","","",""
"null","audio/beep-329314.mp3","null","audio-keyboard-response","191","2.1.0","1640619","J=YES, F=NO","0pmgnv4gya","0","79","73","85","","","","","","","","","","","","","","","",""
"null","audio/pine.wav","null","audio-keyboard-response","192","2.1.0","1641319","J=YES, F=NO","0pmgnv4gya","0","79","73","85","","","","","","","","","","","","","","","",""
"721","
          <p id=""word"" style=""font-size: 40px;"">crebble</p>
          <p style=""font-size: 16px;"">J = YES &nbsp;&nbsp;&nbsp; F = NO</p>
        ","f","html-keyboard-response","193","2.1.0","1642041","J=YES, F=NO","0pmgnv4gya","0","79","73","85","","","","","","","","","crebble","pine","pseudoword","pseudoword","f","true","",""
"null","<p style=""font-size: 50px;"">+</p>","null","html-keyboard-response","194","2.1.0","1642355","J=YES, F=NO","0pmgnv4gya","0","79","73","85","","","","","","","","","","","","","","","",""
"null","audio/beep-329314.mp3","null","audio-keyboard-response","195","2.1.0","1644098","J=YES, F=NO","0pmgnv4gya","0","79","73","85","","","","","","","","","","","","","","","",""
"null","audio/theory1.wav","null","audio-keyboard-response","196","2.1.0","1644939","J=YES, F=NO","0pmgnv4gya","0","79","73","85","","","","","","","","","","","","","","","",""
"732","
          <p id=""word"" style=""font-size: 40px;"">scolve</p>
          <p style=""font-size: 16px;"">J = YES &nbsp;&nbsp;&nbsp; F = NO</p>
        ","f","html-keyboard-response","197","2.1.0","1645672","J=YES, F=NO","0pmgnv4gya","0","79","73","85","","","","","","","","","scolve","theory1","pseudoword","pseudoword","f","true","",""
"null","<p style=""font-size: 50px;"">+</p>","null","html-keyboard-response","198","2.1.0","1645979","J=YES, F=NO","0pmgnv4gya","0","79","73","85","","","","","","","","","","","","","","","",""
"null","audio/beep-329314.mp3","null","audio-keyboard-response","199","2.1.0","1647740","J=YES, F=NO","0pmgnv4gya","0","79","73","85","","","","","","","","","","","","","","","",""
"null","audio/scar.wav","null","audio-keyboard-response","200","2.1.0","1648551","J=YES, F=NO","0pmgnv4gya","0","79","73","85","","","","","","","","","","","","","","","",""
"803","
          <p id=""word"" style=""font-size: 40px;"">hide</p>
          <p style=""font-size: 16px;"">J = YES &nbsp;&nbsp;&nbsp; F = NO</p>
        ","j","html-keyboard-response","201","2.1.0","1649355","J=YES, F=NO","0pmgnv4gya","0","79","73","85","","","","","","","","","hide","scar","literal","experimental","j","true","",""
"null","<p style=""font-size: 50px;"">+</p>","null","html-keyboard-response","202","2.1.0","1649665","J=YES, F=NO","0pmgnv4gya","0","79","73","85","","","","","","","","","","","","","","","",""
"null","audio/beep-329314.mp3","null","audio-keyboard-response","203","2.1.0","1651407","J=YES, F=NO","0pmgnv4gya","0","79","73","85","","","","","","","","","","","","","","","",""
"null","audio/trout1.wav","null","audio-keyboard-response","204","2.1.0","1652207","J=YES, F=NO","0pmgnv4gya","0","79","73","85","","","","","","","","","","","","","","","",""
"643","
          <p id=""word"" style=""font-size: 40px;"">spimt</p>
          <p style=""font-size: 16px;"">J = YES &nbsp;&nbsp;&nbsp; F = NO</p>
        ","f","html-keyboard-response","205","2.1.0","1652851","J=YES, F=NO","0pmgnv4gya","0","79","73","85","","","","","","","","","spimt","trout1","pseudoword","pseudoword","f","true","",""
"null","<p style=""font-size: 50px;"">+</p>","null","html-keyboard-response","206","2.1.0","1653158","J=YES, F=NO","0pmgnv4gya","0","79","73","85","","","","","","","","","","","","","","","",""
"null","audio/beep-329314.mp3","null","audio-keyboard-response","207","2.1.0","1654903","J=YES, F=NO","0pmgnv4gya","0","79","73","85","","","","","","","","","","","","","","","",""
"null","audio/camera1.wav","null","audio-keyboard-response","208","2.1.0","1655597","J=YES, F=NO","0pmgnv4gya","0","79","73","85","","","","","","","","","","","","","","","",""
"632","
          <p id=""word"" style=""font-size: 40px;"">stir</p>
          <p style=""font-size: 16px;"">J = YES &nbsp;&nbsp;&nbsp; F = NO</p>
        ","f","html-keyboard-response","209","2.1.0","1656228","J=YES, F=NO","0pmgnv4gya","0","79","73","85","","","","","","","","","stir","camera1","filler","filler","j","false","",""
"null","<p style=""font-size: 50px;"">+</p>","null","html-keyboard-response","210","2.1.0","1656546","J=YES, F=NO","0pmgnv4gya","0","79","73","85","","","","","","","","","","","","","","","",""
"null","audio/beep-329314.mp3","null","audio-keyboard-response","211","2.1.0","1658287","J=YES, F=NO","0pmgnv4gya","0","79","73","85","","","","","","","","","","","","","","","",""
"null","audio/rank1.wav","null","audio-keyboard-response","212","2.1.0","1659057","J=YES, F=NO","0pmgnv4gya","0","79","73","85","","","","","","","","","","","","","","","",""
"585","
          <p id=""word"" style=""font-size: 40px;"">climb</p>
          <p style=""font-size: 16px;"">J = YES &nbsp;&nbsp;&nbsp; F = NO</p>
        ","j","html-keyboard-response","213","2.1.0","1659643","J=YES, F=NO","0pmgnv4gya","0","79","73","85","","","","","","","","","climb","rank1","metaphor","experimental","j","true","",""
"null","<p style=""font-size: 50px;"">+</p>","null","html-keyboard-response","214","2.1.0","1659952","J=YES, F=NO","0pmgnv4gya","0","79","73","85","","","","","","","","","","","","","","","",""
"null","audio/beep-329314.mp3","null","audio-keyboard-response","215","2.1.0","1661696","J=YES, F=NO","0pmgnv4gya","0","79","73","85","","","","","","","","","","","","","","","",""
"null","audio/radio1.wav","null","audio-keyboard-response","216","2.1.0","1662508","J=YES, F=NO","0pmgnv4gya","0","79","73","85","","","","","","","","","","","","","","","",""
"511","
          <p id=""word"" style=""font-size: 40px;"">spend</p>
          <p style=""font-size: 16px;"">J = YES &nbsp;&nbsp;&nbsp; F = NO</p>
        ","j","html-keyboard-response","217","2.1.0","1663019","J=YES, F=NO","0pmgnv4gya","0","79","73","85","","","","","","","","","spend","radio1","unrelated","experimental","j","true","",""
"null","<p style=""font-size: 50px;"">+</p>","null","html-keyboard-response","218","2.1.0","1663328","J=YES, F=NO","0pmgnv4gya","0","79","73","85","","","","","","","","","","","","","","","",""
"null","audio/beep-329314.mp3","null","audio-keyboard-response","219","2.1.0","1665073","J=YES, F=NO","0pmgnv4gya","0","79","73","85","","","","","","","","","","","","","","","",""
"null","audio/life1.wav","null","audio-keyboard-response","220","2.1.0","1665837","J=YES, F=NO","0pmgnv4gya","0","79","73","85","","","","","","","","","","","","","","","",""
"500","
          <p id=""word"" style=""font-size: 40px;"">give</p>
          <p style=""font-size: 16px;"">J = YES &nbsp;&nbsp;&nbsp; F = NO</p>
        ","j","html-keyboard-response","221","2.1.0","1666339","J=YES, F=NO","0pmgnv4gya","0","79","73","85","","","","","","","","","give","life1","metaphor","experimental","j","true","",""
"null","<p style=""font-size: 50px;"">+</p>","null","html-keyboard-response","222","2.1.0","1666650","J=YES, F=NO","0pmgnv4gya","0","79","73","85","","","","","","","","","","","","","","","",""
"null","audio/beep-329314.mp3","null","audio-keyboard-response","223","2.1.0","1668395","J=YES, F=NO","0pmgnv4gya","0","79","73","85","","","","","","","","","","","","","","","",""
"null","audio/camera1.wav","null","audio-keyboard-response","224","2.1.0","1669100","J=YES, F=NO","0pmgnv4gya","0","79","73","85","","","","","","","","","","","","","","","",""
"482","
          <p id=""word"" style=""font-size: 40px;"">bring</p>
          <p style=""font-size: 16px;"">J = YES &nbsp;&nbsp;&nbsp; F = NO</p>
        ","j","html-keyboard-response","225","2.1.0","1669583","J=YES, F=NO","0pmgnv4gya","0","79","73","85","","","","","","","","","bring","camera1","literal","experimental","j","true","",""
"null","<p style=""font-size: 50px;"">+</p>","null","html-keyboard-response","226","2.1.0","1669896","J=YES, F=NO","0pmgnv4gya","0","79","73","85","","","","","","","","","","","","","","","",""
"null","audio/beep-329314.mp3","null","audio-keyboard-response","227","2.1.0","1671642","J=YES, F=NO","0pmgnv4gya","0","79","73","85","","","","","","","","","","","","","","","",""
"null","audio/cash1.wav","null","audio-keyboard-response","228","2.1.0","1672412","J=YES, F=NO","0pmgnv4gya","0","79","73","85","","","","","","","","","","","","","","","",""
"628","
          <p id=""word"" style=""font-size: 40px;"">splear</p>
          <p style=""font-size: 16px;"">J = YES &nbsp;&nbsp;&nbsp; F = NO</p>
        ","f","html-keyboard-response","229","2.1.0","1673041","J=YES, F=NO","0pmgnv4gya","0","79","73","85","","","","","","","","","splear","cash1","pseudoword","pseudoword","f","true","",""
"3556","<p>Excellent! You have finished block 1 of 8.</p>
                     <p>Feel free to take a 30 second break.</p>
                     <p>Press any key when you're ready to continue.</p>","j","html-keyboard-response","230","2.1.0","1676597","J=YES, F=NO","0pmgnv4gya","0","79","73","85","","","","","","","","","","","","","","","",""
"787","<p>Starting main block 2 of 8. Press any key to continue.</p>","j","html-keyboard-response","231","2.1.0","1677384","J=YES, F=NO","0pmgnv4gya","0","79","73","85","","","","","","","","","","","","","","","",""
"null","<p style=""font-size: 50px;"">+</p>","null","html-keyboard-response","232","2.1.0","1677686","J=YES, F=NO","0pmgnv4gya","0","79","73","85","","","","","","","","","","","","","","","",""
"null","audio/beep-329314.mp3","null","audio-keyboard-response","233","2.1.0","1679457","J=YES, F=NO","0pmgnv4gya","0","79","73","85","","","","","","","","","","","","","","","",""
"null","audio/cinema1.wav","null","audio-keyboard-response","234","2.1.0","1680274","J=YES, F=NO","0pmgnv4gya","0","79","73","85","","","","","","","","","","","","","","","",""
"776","
          <p id=""word"" style=""font-size: 40px;"">murple</p>
          <p style=""font-size: 16px;"">J = YES &nbsp;&nbsp;&nbsp; F = NO</p>
        ","f","html-keyboard-response","235","2.1.0","1681050","J=YES, F=NO","0pmgnv4gya","0","79","73","85","","","","","","","","","murple","cinema1","pseudoword","pseudoword","f","true","",""
"null","<p style=""font-size: 50px;"">+</p>","null","html-keyboard-response","236","2.1.0","1681356","J=YES, F=NO","0pmgnv4gya","0","79","73","85","","","","","","","","","","","","","","","",""
"null","audio/beep-329314.mp3","null","audio-keyboard-response","237","2.1.0","1683111","J=YES, F=NO","0pmgnv4gya","0","79","73","85","","","","","","","","","","","","","","","",""
"null","audio/burden.wav","null","audio-keyboard-response","238","2.1.0","1683828","J=YES, F=NO","0pmgnv4gya","0","79","73","85","","","","","","","","","","","","","","","",""
"612","
          <p id=""word"" style=""font-size: 40px;"">whotth</p>
          <p style=""font-size: 16px;"">J = YES &nbsp;&nbsp;&nbsp; F = NO</p>
        ","f","html-keyboard-response","239","2.1.0","1684442","J=YES, F=NO","0pmgnv4gya","0","79","73","85","","","","","","","","","whotth","burden","pseudoword","pseudoword","f","true","",""
"null","<p style=""font-size: 50px;"">+</p>","null","html-keyboard-response","240","2.1.0","1684759","J=YES, F=NO","0pmgnv4gya","0","79","73","85","","","","","","","","","","","","","","","",""
"null","audio/beep-329314.mp3","null","audio-keyboard-response","241","2.1.0","1686513","J=YES, F=NO","0pmgnv4gya","0","79","73","85","","","","","","","","","","","","","","","",""
"null","audio/bishop1.wav","null","audio-keyboard-response","242","2.1.0","1687311","J=YES, F=NO","0pmgnv4gya","0","79","73","85","","","","","","","","","","","","","","","",""
"580","
          <p id=""word"" style=""font-size: 40px;"">devour</p>
          <p style=""font-size: 16px;"">J = YES &nbsp;&nbsp;&nbsp; F = NO</p>
        ","f","html-keyboard-response","243","2.1.0","1687892","J=YES, F=NO","0pmgnv4gya","0","79","73","85","","","","","","","","","devour","bishop1","unrelated","experimental","j","false","",""
"null","<p style=""font-size: 50px;"">+</p>","null","html-keyboard-response","244","2.1.0","1688206","J=YES, F=NO","0pmgnv4gya","0","79","73","85","","","","","","","","","","","","","","","",""
"null","audio/beep-329314.mp3","null","audio-keyboard-response","245","2.1.0","1689961","J=YES, F=NO","0pmgnv4gya","0","79","73","85","","","","","","","","","","","","","","","",""
"null","audio/plot1.wav","null","audio-keyboard-response","246","2.1.0","1690714","J=YES, F=NO","0pmgnv4gya","0","79","73","85","","","","","","","","","","","","","","","",""
"606","
          <p id=""word"" style=""font-size: 40px;"">weave</p>
          <p style=""font-size: 16px;"">J = YES &nbsp;&nbsp;&nbsp; F = NO</p>
        ","j","html-keyboard-response","247","2.1.0","1691319","J=YES, F=NO","0pmgnv4gya","0","79","73","85","","","","","","","","","weave","plot1","metaphor","experimental","j","true","",""
"null","<p style=""font-size: 50px;"">+</p>","null","html-keyboard-response","248","2.1.0","1691628","J=YES, F=NO","0pmgnv4gya","0","79","73","85","","","","","","","","","","","","","","","",""
"null","audio/beep-329314.mp3","null","audio-keyboard-response","249","2.1.0","1693371","J=YES, F=NO","0pmgnv4gya","0","79","73","85","","","","","","","","","","","","","","","",""
"null","audio/ego.wav","null","audio-keyboard-response","250","2.1.0","1694134","J=YES, F=NO","0pmgnv4gya","0","79","73","85","","","","","","","","","","","","","","","",""
"598","
          <p id=""word"" style=""font-size: 40px;"">bruite</p>
          <p style=""font-size: 16px;"">J = YES &nbsp;&nbsp;&nbsp; F = NO</p>
        ","f","html-keyboard-response","251","2.1.0","1694733","J=YES, F=NO","0pmgnv4gya","0","79","73","85","","","","","","","","","bruite","ego","pseudoword","pseudoword","f","true","",""
"null","<p style=""font-size: 50px;"">+</p>","null","html-keyboard-response","252","2.1.0","1695043","J=YES, F=NO","0pmgnv4gya","0","79","73","85","","","","","","","","","","","","","","","",""
"null","audio/beep-329314.mp3","null","audio-keyboard-response","253","2.1.0","1696799","J=YES, F=NO","0pmgnv4gya","0","79","73","85","","","","","","","","","","","","","","","",""
"null","audio/heart1.wav","null","audio-keyboard-response","254","2.1.0","1697628","J=YES, F=NO","0pmgnv4gya","0","79","73","85","","","","","","","","","","","","","","","",""
"623","
          <p id=""word"" style=""font-size: 40px;"">dralm</p>
          <p style=""font-size: 16px;"">J = YES &nbsp;&nbsp;&nbsp; F = NO</p>
        ","f","html-keyboard-response","255","2.1.0","1698252","J=YES, F=NO","0pmgnv4gya","0","79","73","85","","","","","","","","","dralm","heart1","pseudoword","pseudoword","f","true","",""
"null","<p style=""font-size: 50px;"">+</p>","null","html-keyboard-response","256","2.1.0","1698555","J=YES, F=NO","0pmgnv4gya","0","79","73","85","","","","","","","","","","","","","","","",""
"null","audio/beep-329314.mp3","null","audio-keyboard-response","257","2.1.0","1700308","J=YES, F=NO","0pmgnv4gya","0","79","73","85","","","","","","","","","","","","","","","",""
"null","audio/pig.wav","null","audio-keyboard-response","258","2.1.0","1700903","J=YES, F=NO","0pmgnv4gya","0","79","73","85","","","","","","","","","","","","","","","",""
"528","
          <p id=""word"" style=""font-size: 40px;"">tirlike</p>
          <p style=""font-size: 16px;"">J = YES &nbsp;&nbsp;&nbsp; F = NO</p>
        ","f","html-keyboard-response","259","2.1.0","1701431","J=YES, F=NO","0pmgnv4gya","0","79","73","85","","","","","","","","","tirlike","pig","pseudoword","pseudoword","f","true","",""
"null","<p style=""font-size: 50px;"">+</p>","null","html-keyboard-response","260","2.1.0","1701736","J=YES, F=NO","0pmgnv4gya","0","79","73","85","","","","","","","","","","","","","","","",""
"null","audio/beep-329314.mp3","null","audio-keyboard-response","261","2.1.0","1703492","J=YES, F=NO","0pmgnv4gya","0","79","73","85","","","","","","","","","","","","","","","",""
"null","audio/meal.wav","null","audio-keyboard-response","262","2.1.0","1704147","J=YES, F=NO","0pmgnv4gya","0","79","73","85","","","","","","","","","","","","","","","",""
"650","
          <p id=""word"" style=""font-size: 40px;"">gallite</p>
          <p style=""font-size: 16px;"">J = YES &nbsp;&nbsp;&nbsp; F = NO</p>
        ","f","html-keyboard-response","263","2.1.0","1704798","J=YES, F=NO","0pmgnv4gya","0","79","73","85","","","","","","","","","gallite","meal","pseudoword","pseudoword","f","true","",""
"null","<p style=""font-size: 50px;"">+</p>","null","html-keyboard-response","264","2.1.0","1705107","J=YES, F=NO","0pmgnv4gya","0","79","73","85","","","","","","","","","","","","","","","",""
"null","audio/beep-329314.mp3","null","audio-keyboard-response","265","2.1.0","1706853","J=YES, F=NO","0pmgnv4gya","0","79","73","85","","","","","","","","","","","","","","","",""
"null","audio/emotion.wav","null","audio-keyboard-response","266","2.1.0","1707714","J=YES, F=NO","0pmgnv4gya","0","79","73","85","","","","","","","","","","","","","","","",""
"588","
          <p id=""word"" style=""font-size: 40px;"">bury</p>
          <p style=""font-size: 16px;"">J = YES &nbsp;&nbsp;&nbsp; F = NO</p>
        ","j","html-keyboard-response","267","2.1.0","1708302","J=YES, F=NO","0pmgnv4gya","0","79","73","85","","","","","","","","","bury","emotion","metaphor","experimental","j","true","",""
"null","<p style=""font-size: 50px;"">+</p>","null","html-keyboard-response","268","2.1.0","1708611","J=YES, F=NO","0pmgnv4gya","0","79","73","85","","","","","","","","","","","","","","","",""
"null","audio/beep-329314.mp3","null","audio-keyboard-response","269","2.1.0","1710360","J=YES, F=NO","0pmgnv4gya","0","79","73","85","","","","","","","","","","","","","","","",""
"null","audio/ground.wav","null","audio-keyboard-response","270","2.1.0","1711155","J=YES, F=NO","0pmgnv4gya","0","79","73","85","","","","","","","","","","","","","","","",""
"611","
          <p id=""word"" style=""font-size: 40px;"">touch</p>
          <p style=""font-size: 16px;"">J = YES &nbsp;&nbsp;&nbsp; F = NO</p>
        ","j","html-keyboard-response","271","2.1.0","1711768","J=YES, F=NO","0pmgnv4gya","0","79","73","85","","","","","","","","","touch","ground","literal","experimental","j","true","",""
"null","<p style=""font-size: 50px;"">+</p>","null","html-keyboard-response","272","2.1.0","1712083","J=YES, F=NO","0pmgnv4gya","0","79","73","85","","","","","","","","","","","","","","","",""
"null","audio/beep-329314.mp3","null","audio-keyboard-response","273","2.1.0","1713833","J=YES, F=NO","0pmgnv4gya","0","79","73","85","","","","","","","","","","","","","","","",""
"null","audio/milk.wav","null","audio-keyboard-response","274","2.1.0","1714612","J=YES, F=NO","0pmgnv4gya","0","79","73","85","","","","","","","","","","","","","","","",""
"632","
          <p id=""word"" style=""font-size: 40px;"">digest</p>
          <p style=""font-size: 16px;"">J = YES &nbsp;&nbsp;&nbsp; F = NO</p>
        ","j","html-keyboard-response","275","2.1.0","1715245","J=YES, F=NO","0pmgnv4gya","0","79","73","85","","","","","","","","","digest","milk","literal","experimental","j","true","",""
"null","<p style=""font-size: 50px;"">+</p>","null","html-keyboard-response","276","2.1.0","1715551","J=YES, F=NO","0pmgnv4gya","0","79","73","85","","","","","","","","","","","","","","","",""
"null","audio/beep-329314.mp3","null","audio-keyboard-response","277","2.1.0","1717295","J=YES, F=NO","0pmgnv4gya","0","79","73","85","","","","","","","","","","","","","","","",""
"null","audio/weight1.wav","null","audio-keyboard-response","278","2.1.0","1718029","J=YES, F=NO","0pmgnv4gya","0","79","73","85","","","","","","","","","","","","","","","",""
"617","
          <p id=""word"" style=""font-size: 40px;"">crimsh</p>
          <p style=""font-size: 16px;"">J = YES &nbsp;&nbsp;&nbsp; F = NO</p>
        ","f","html-keyboard-response","279","2.1.0","1718647","J=YES, F=NO","0pmgnv4gya","0","79","73","85","","","","","","","","","crimsh","weight1","pseudoword","pseudoword","f","true","",""
"null","<p style=""font-size: 50px;"">+</p>","null","html-keyboard-response","280","2.1.0","1718962","J=YES, F=NO","0pmgnv4gya","0","79","73","85","","","","","","","","","","","","","","","",""
"null","audio/beep-329314.mp3","null","audio-keyboard-response","281","2.1.0","1720707","J=YES, F=NO","0pmgnv4gya","0","79","73","85","","","","","","","","","","","","","","","",""
"null","audio/dome.wav","null","audio-keyboard-response","282","2.1.0","1721349","J=YES, F=NO","0pmgnv4gya","0","79","73","85","","","","","","","","","","","","","","","",""
"613","
          <p id=""word"" style=""font-size: 40px;"">feed</p>
          <p style=""font-size: 16px;"">J = YES &nbsp;&nbsp;&nbsp; F = NO</p>
        ","j","html-keyboard-response","283","2.1.0","1721963","J=YES, F=NO","0pmgnv4gya","0","79","73","85","","","","","","","","","feed","dome","unrelated","experimental","j","true","",""
"null","<p style=""font-size: 50px;"">+</p>","null","html-keyboard-response","284","2.1.0","1722277","J=YES, F=NO","0pmgnv4gya","0","79","73","85","","","","","","","","","","","","","","","",""
"null","audio/beep-329314.mp3","null","audio-keyboard-response","285","2.1.0","1724021","J=YES, F=NO","0pmgnv4gya","0","79","73","85","","","","","","","","","","","","","","","",""
"null","audio/bomb1.wav","null","audio-keyboard-response","286","2.1.0","1724616","J=YES, F=NO","0pmgnv4gya","0","79","73","85","","","","","","","","","","","","","","","",""
"535","
          <p id=""word"" style=""font-size: 40px;"">drop</p>
          <p style=""font-size: 16px;"">J = YES &nbsp;&nbsp;&nbsp; F = NO</p>
        ","j","html-keyboard-response","287","2.1.0","1725151","J=YES, F=NO","0pmgnv4gya","0","79","73","85","","","","","","","","","drop","bomb1","literal","experimental","j","true","",""
"null","<p style=""font-size: 50px;"">+</p>","null","html-keyboard-response","288","2.1.0","1725461","J=YES, F=NO","0pmgnv4gya","0","79","73","85","","","","","","","","","","","","","","","",""
"null","audio/beep-329314.mp3","null","audio-keyboard-response","289","2.1.0","1727203","J=YES, F=NO","0pmgnv4gya","0","79","73","85","","","","","","","","","","","","","","","",""
"null","audio/weight1.wav","null","audio-keyboard-response","290","2.1.0","1727935","J=YES, F=NO","0pmgnv4gya","0","79","73","85","","","","","","","","","","","","","","","",""
"912","
          <p id=""word"" style=""font-size: 40px;"">support</p>
          <p style=""font-size: 16px;"">J = YES &nbsp;&nbsp;&nbsp; F = NO</p>
        ","j","html-keyboard-response","291","2.1.0","1728848","J=YES, F=NO","0pmgnv4gya","0","79","73","85","","","","","","","","","support","weight1","literal","experimental","j","true","",""
"null","<p style=""font-size: 50px;"">+</p>","null","html-keyboard-response","292","2.1.0","1729161","J=YES, F=NO","0pmgnv4gya","0","79","73","85","","","","","","","","","","","","","","","",""
"null","audio/beep-329314.mp3","null","audio-keyboard-response","293","2.1.0","1730909","J=YES, F=NO","0pmgnv4gya","0","79","73","85","","","","","","","","","","","","","","","",""
"null","audio/bishop1.wav","null","audio-keyboard-response","294","2.1.0","1731704","J=YES, F=NO","0pmgnv4gya","0","79","73","85","","","","","","","","","","","","","","","",""
"436","
          <p id=""word"" style=""font-size: 40px;"">play</p>
          <p style=""font-size: 16px;"">J = YES &nbsp;&nbsp;&nbsp; F = NO</p>
        ","j","html-keyboard-response","295","2.1.0","1732142","J=YES, F=NO","0pmgnv4gya","0","79","73","85","","","","","","","","","play","bishop1","filler","filler","j","true","",""
"32527","<p>Excellent! You have finished block 2 of 8.</p>
                     <p>Feel free to take a 30 second break.</p>
                     <p>Press any key when you're ready to continue.</p>","f","html-keyboard-response","296","2.1.0","1764669","J=YES, F=NO","0pmgnv4gya","0","79","73","85","","","","","","","","","","","","","","","",""
"1859","<p>Starting main block 3 of 8. Press any key to continue.</p>","f","html-keyboard-response","297","2.1.0","1766529","J=YES, F=NO","0pmgnv4gya","0","79","73","85","","","","","","","","","","","","","","","",""
"null","<p style=""font-size: 50px;"">+</p>","null","html-keyboard-response","298","2.1.0","1766837","J=YES, F=NO","0pmgnv4gya","0","79","73","85","","","","","","","","","","","","","","","",""
"null","audio/beep-329314.mp3","null","audio-keyboard-response","299","2.1.0","1768651","J=YES, F=NO","0pmgnv4gya","0","79","73","85","","","","","","","","","","","","","","","",""
"null","audio/bridge.wav","null","audio-keyboard-response","300","2.1.0","1769391","J=YES, F=NO","0pmgnv4gya","0","79","73","85","","","","","","","","","","","","","","","",""
"735","
          <p id=""word"" style=""font-size: 40px;"">build</p>
          <p style=""font-size: 16px;"">J = YES &nbsp;&nbsp;&nbsp; F = NO</p>
        ","j","html-keyboard-response","301","2.1.0","1770127","J=YES, F=NO","0pmgnv4gya","0","79","73","85","","","","","","","","","build","bridge","literal","experimental","j","true","",""
"null","<p style=""font-size: 50px;"">+</p>","null","html-keyboard-response","302","2.1.0","1770427","J=YES, F=NO","0pmgnv4gya","0","79","73","85","","","","","","","","","","","","","","","",""
"null","audio/beep-329314.mp3","null","audio-keyboard-response","303","2.1.0","1772173","J=YES, F=NO","0pmgnv4gya","0","79","73","85","","","","","","","","","","","","","","","",""
"null","audio/foot1.wav","null","audio-keyboard-response","304","2.1.0","1772941","J=YES, F=NO","0pmgnv4gya","0","79","73","85","","","","","","","","","","","","","","","",""
"565","
          <p id=""word"" style=""font-size: 40px;"">close</p>
          <p style=""font-size: 16px;"">J = YES &nbsp;&nbsp;&nbsp; F = NO</p>
        ","j","html-keyboard-response","305","2.1.0","1773507","J=YES, F=NO","0pmgnv4gya","0","79","73","85","","","","","","","","","close","foot1","unrelated","experimental","j","true","",""
"null","<p style=""font-size: 50px;"">+</p>","null","html-keyboard-response","306","2.1.0","1773821","J=YES, F=NO","0pmgnv4gya","0","79","73","85","","","","","","","","","","","","","","","",""
"null","audio/beep-329314.mp3","null","audio-keyboard-response","307","2.1.0","1775567","J=YES, F=NO","0pmgnv4gya","0","79","73","85","","","","","","","","","","","","","","","",""
"null","audio/holiday1.wav","null","audio-keyboard-response","308","2.1.0","1776409","J=YES, F=NO","0pmgnv4gya","0","79","73","85","","","","","","","","","","","","","","","",""
"600","
          <p id=""word"" style=""font-size: 40px;"">drivets</p>
          <p style=""font-size: 16px;"">J = YES &nbsp;&nbsp;&nbsp; F = NO</p>
        ","f","html-keyboard-response","309","2.1.0","1777010","J=YES, F=NO","0pmgnv4gya","0","79","73","85","","","","","","","","","drivets","holiday1","pseudoword","pseudoword","f","true","",""
"null","<p style=""font-size: 50px;"">+</p>","null","html-keyboard-response","310","2.1.0","1777327","J=YES, F=NO","0pmgnv4gya","0","79","73","85","","","","","","","","","","","","","","","",""
"null","audio/beep-329314.mp3","null","audio-keyboard-response","311","2.1.0","1779070","J=YES, F=NO","0pmgnv4gya","0","79","73","85","","","","","","","","","","","","","","","",""
"null","audio/roof1.wav","null","audio-keyboard-response","312","2.1.0","1779806","J=YES, F=NO","0pmgnv4gya","0","79","73","85","","","","","","","","","","","","","","","",""
"594","
          <p id=""word"" style=""font-size: 40px;"">wronb</p>
          <p style=""font-size: 16px;"">J = YES &nbsp;&nbsp;&nbsp; F = NO</p>
        ","f","html-keyboard-response","313","2.1.0","1780400","J=YES, F=NO","0pmgnv4gya","0","79","73","85","","","","","","","","","wronb","roof1","pseudoword","pseudoword","f","true","",""
"null","<p style=""font-size: 50px;"">+</p>","null","html-keyboard-response","314","2.1.0","1780700","J=YES, F=NO","0pmgnv4gya","0","79","73","85","","","","","","","","","","","","","","","",""
"null","audio/beep-329314.mp3","null","audio-keyboard-response","315","2.1.0","1782453","J=YES, F=NO","0pmgnv4gya","0","79","73","85","","","","","","","","","","","","","","","",""
"null","audio/bridge.wav","null","audio-keyboard-response","316","2.1.0","1783200","J=YES, F=NO","0pmgnv4gya","0","79","73","85","","","","","","","","","","","","","","","",""
"520","
          <p id=""word"" style=""font-size: 40px;"">crack</p>
          <p style=""font-size: 16px;"">J = YES &nbsp;&nbsp;&nbsp; F = NO</p>
        ","j","html-keyboard-response","317","2.1.0","1783722","J=YES, F=NO","0pmgnv4gya","0","79","73","85","","","","","","","","","crack","bridge","filler","filler","j","true","",""
"null","<p style=""font-size: 50px;"">+</p>","null","html-keyboard-response","318","2.1.0","1784033","J=YES, F=NO","0pmgnv4gya","0","79","73","85","","","","","","","","","","","","","","","",""
"null","audio/beep-329314.mp3","null","audio-keyboard-response","319","2.1.0","1785781","J=YES, F=NO","0pmgnv4gya","0","79","73","85","","","","","","","","","","","","","","","",""
"null","audio/ankle1.wav","null","audio-keyboard-response","320","2.1.0","1786514","J=YES, F=NO","0pmgnv4gya","0","79","73","85","","","","","","","","","","","","","","","",""
"465","
          <p id=""word"" style=""font-size: 40px;"">kick</p>
          <p style=""font-size: 16px;"">J = YES &nbsp;&nbsp;&nbsp; F = NO</p>
        ","j","html-keyboard-response","321","2.1.0","1786980","J=YES, F=NO","0pmgnv4gya","0","79","73","85","","","","","","","","","kick","ankle1","filler","filler","j","true","",""
"null","<p style=""font-size: 50px;"">+</p>","null","html-keyboard-response","322","2.1.0","1787281","J=YES, F=NO","0pmgnv4gya","0","79","73","85","","","","","","","","","","","","","","","",""
"null","audio/beep-329314.mp3","null","audio-keyboard-response","323","2.1.0","1789030","J=YES, F=NO","0pmgnv4gya","0","79","73","85","","","","","","","","","","","","","","","",""
"null","audio/revenue1.wav","null","audio-keyboard-response","324","2.1.0","1789901","J=YES, F=NO","0pmgnv4gya","0","79","73","85","","","","","","","","","","","","","","","",""
"475","
          <p id=""word"" style=""font-size: 40px;"">grow</p>
          <p style=""font-size: 16px;"">J = YES &nbsp;&nbsp;&nbsp; F = NO</p>
        ","j","html-keyboard-response","325","2.1.0","1790376","J=YES, F=NO","0pmgnv4gya","0","79","73","85","","","","","","","","","grow","revenue1","metaphor","experimental","j","true","",""
"null","<p style=""font-size: 50px;"">+</p>","null","html-keyboard-response","326","2.1.0","1790687","J=YES, F=NO","0pmgnv4gya","0","79","73","85","","","","","","","","","","","","","","","",""
"null","audio/beep-329314.mp3","null","audio-keyboard-response","327","2.1.0","1792449","J=YES, F=NO","0pmgnv4gya","0","79","73","85","","","","","","","","","","","","","","","",""
"null","audio/show.wav","null","audio-keyboard-response","328","2.1.0","1793195","J=YES, F=NO","0pmgnv4gya","0","79","73","85","","","","","","","","","","","","","","","",""
"466","
          <p id=""word"" style=""font-size: 40px;"">hold</p>
          <p style=""font-size: 16px;"">J = YES &nbsp;&nbsp;&nbsp; F = NO</p>
        ","j","html-keyboard-response","329","2.1.0","1793661","J=YES, F=NO","0pmgnv4gya","0","79","73","85","","","","","","","","","hold","show","metaphor","experimental","j","true","",""
"null","<p style=""font-size: 50px;"">+</p>","null","html-keyboard-response","330","2.1.0","1793967","J=YES, F=NO","0pmgnv4gya","0","79","73","85","","","","","","","","","","","","","","","",""
"null","audio/beep-329314.mp3","null","audio-keyboard-response","331","2.1.0","1795711","J=YES, F=NO","0pmgnv4gya","0","79","73","85","","","","","","","","","","","","","","","",""
"null","audio/neck.wav","null","audio-keyboard-response","332","2.1.0","1796451","J=YES, F=NO","0pmgnv4gya","0","79","73","85","","","","","","","","","","","","","","","",""
"571","
          <p id=""word"" style=""font-size: 40px;"">werling</p>
          <p style=""font-size: 16px;"">J = YES &nbsp;&nbsp;&nbsp; F = NO</p>
        ","f","html-keyboard-response","333","2.1.0","1797022","J=YES, F=NO","0pmgnv4gya","0","79","73","85","","","","","","","","","werling","neck","pseudoword","pseudoword","f","true","",""
"null","<p style=""font-size: 50px;"">+</p>","null","html-keyboard-response","334","2.1.0","1797329","J=YES, F=NO","0pmgnv4gya","0","79","73","85","","","","","","","","","","","","","","","",""
"null","audio/beep-329314.mp3","null","audio-keyboard-response","335","2.1.0","1799074","J=YES, F=NO","0pmgnv4gya","0","79","73","85","","","","","","","","","","","","","","","",""
"null","audio/bomb1.wav","null","audio-keyboard-response","336","2.1.0","1799670","J=YES, F=NO","0pmgnv4gya","0","79","73","85","","","","","","","","","","","","","","","",""
"445","
          <p id=""word"" style=""font-size: 40px;"">clean</p>
          <p style=""font-size: 16px;"">J = YES &nbsp;&nbsp;&nbsp; F = NO</p>
        ","j","html-keyboard-response","337","2.1.0","1800117","J=YES, F=NO","0pmgnv4gya","0","79","73","85","","","","","","","","","clean","bomb1","filler","filler","j","true","",""
"null","<p style=""font-size: 50px;"">+</p>","null","html-keyboard-response","338","2.1.0","1800422","J=YES, F=NO","0pmgnv4gya","0","79","73","85","","","","","","","","","","","","","","","",""
"null","audio/beep-329314.mp3","null","audio-keyboard-response","339","2.1.0","1802173","J=YES, F=NO","0pmgnv4gya","0","79","73","85","","","","","","","","","","","","","","","",""
"null","audio/haste1.wav","null","audio-keyboard-response","340","2.1.0","1802957","J=YES, F=NO","0pmgnv4gya","0","79","73","85","","","","","","","","","","","","","","","",""
"608","
          <p id=""word"" style=""font-size: 40px;"">coraconate</p>
          <p style=""font-size: 16px;"">J = YES &nbsp;&nbsp;&nbsp; F = NO</p>
        ","f","html-keyboard-response","341","2.1.0","1803565","J=YES, F=NO","0pmgnv4gya","0","79","73","85","","","","","","","","","coraconate","haste1","pseudoword","pseudoword","f","true","",""
"null","<p style=""font-size: 50px;"">+</p>","null","html-keyboard-response","342","2.1.0","1803876","J=YES, F=NO","0pmgnv4gya","0","79","73","85","","","","","","","","","","","","","","","",""
"null","audio/beep-329314.mp3","null","audio-keyboard-response","343","2.1.0","1805634","J=YES, F=NO","0pmgnv4gya","0","79","73","85","","","","","","","","","","","","","","","",""
"null","audio/key1.wav","null","audio-keyboard-response","344","2.1.0","1806228","J=YES, F=NO","0pmgnv4gya","0","79","73","85","","","","","","","","","","","","","","","",""
"664","
          <p id=""word"" style=""font-size: 40px;"">sminsh</p>
          <p style=""font-size: 16px;"">J = YES &nbsp;&nbsp;&nbsp; F = NO</p>
        ","f","html-keyboard-response","345","2.1.0","1806893","J=YES, F=NO","0pmgnv4gya","0","79","73","85","","","","","","","","","sminsh","key1","pseudoword","pseudoword","f","true","",""
"null","<p style=""font-size: 50px;"">+</p>","null","html-keyboard-response","346","2.1.0","1807206","J=YES, F=NO","0pmgnv4gya","0","79","73","85","","","","","","","","","","","","","","","",""
"null","audio/beep-329314.mp3","null","audio-keyboard-response","347","2.1.0","1808972","J=YES, F=NO","0pmgnv4gya","0","79","73","85","","","","","","","","","","","","","","","",""
"null","audio/strength.wav","null","audio-keyboard-response","348","2.1.0","1809927","J=YES, F=NO","0pmgnv4gya","0","79","73","85","","","","","","","","","","","","","","","",""
"644","
          <p id=""word"" style=""font-size: 40px;"">plabet</p>
          <p style=""font-size: 16px;"">J = YES &nbsp;&nbsp;&nbsp; F = NO</p>
        ","f","html-keyboard-response","349","2.1.0","1810572","J=YES, F=NO","0pmgnv4gya","0","79","73","85","","","","","","","","","plabet","strength","pseudoword","pseudoword","f","true","",""
"null","<p style=""font-size: 50px;"">+</p>","null","html-keyboard-response","350","2.1.0","1810881","J=YES, F=NO","0pmgnv4gya","0","79","73","85","","","","","","","","","","","","","","","",""
"null","audio/beep-329314.mp3","null","audio-keyboard-response","351","2.1.0","1812635","J=YES, F=NO","0pmgnv4gya","0","79","73","85","","","","","","","","","","","","","","","",""
"null","audio/soul.wav","null","audio-keyboard-response","352","2.1.0","1813430","J=YES, F=NO","0pmgnv4gya","0","79","73","85","","","","","","","","","","","","","","","",""
"628","
          <p id=""word"" style=""font-size: 40px;"">sell</p>
          <p style=""font-size: 16px;"">J = YES &nbsp;&nbsp;&nbsp; F = NO</p>
        ","j","html-keyboard-response","353","2.1.0","1814059","J=YES, F=NO","0pmgnv4gya","0","79","73","85","","","","","","","","","sell","soul","metaphor","experimental","j","true","",""
"null","<p style=""font-size: 50px;"">+</p>","null","html-keyboard-response","354","2.1.0","1814367","J=YES, F=NO","0pmgnv4gya","0","79","73","85","","","","","","","","","","","","","","","",""
"null","audio/beep-329314.mp3","null","audio-keyboard-response","355","2.1.0","1816117","J=YES, F=NO","0pmgnv4gya","0","79","73","85","","","","","","","","","","","","","","","",""
"null","audio/menu.wav","null","audio-keyboard-response","356","2.1.0","1816903","J=YES, F=NO","0pmgnv4gya","0","79","73","85","","","","","","","","","","","","","","","",""
"593","
          <p id=""word"" style=""font-size: 40px;"">slice</p>
          <p style=""font-size: 16px;"">J = YES &nbsp;&nbsp;&nbsp; F = NO</p>
        ","f","html-keyboard-response","357","2.1.0","1817496","J=YES, F=NO","0pmgnv4gya","0","79","73","85","","","","","","","","","slice","menu","filler","filler","j","false","",""
"null","<p style=""font-size: 50px;"">+</p>","null","html-keyboard-response","358","2.1.0","1817799","J=YES, F=NO","0pmgnv4gya","0","79","73","85","","","","","","","","","","","","","","","",""
"null","audio/beep-329314.mp3","null","audio-keyboard-response","359","2.1.0","1819552","J=YES, F=NO","0pmgnv4gya","0","79","73","85","","","","","","","","","","","","","","","",""
"null","audio/brain.wav","null","audio-keyboard-response","360","2.1.0","1820244","J=YES, F=NO","0pmgnv4gya","0","79","73","85","","","","","","","","","","","","","","","",""
"663","
          <p id=""word"" style=""font-size: 40px;"">flood</p>
          <p style=""font-size: 16px;"">J = YES &nbsp;&nbsp;&nbsp; F = NO</p>
        ","j","html-keyboard-response","361","2.1.0","1820907","J=YES, F=NO","0pmgnv4gya","0","79","73","85","","","","","","","","","flood","brain","metaphor","experimental","j","true","",""
"1315","<p>Excellent! You have finished block 3 of 8.</p>
                     <p>Feel free to take a 30 second break.</p>
                     <p>Press any key when you're ready to continue.</p>","j","html-keyboard-response","362","2.1.0","1822222","J=YES, F=NO","0pmgnv4gya","0","79","73","85","","","","","","","","","","","","","","","",""
"750","<p>Starting main block 4 of 8. Press any key to continue.</p>","j","html-keyboard-response","363","2.1.0","1822974","J=YES, F=NO","0pmgnv4gya","0","79","73","85","","","","","","","","","","","","","","","",""
"null","<p style=""font-size: 50px;"">+</p>","null","html-keyboard-response","364","2.1.0","1823277","J=YES, F=NO","0pmgnv4gya","0","79","73","85","","","","","","","","","","","","","","","",""
"null","audio/beep-329314.mp3","null","audio-keyboard-response","365","2.1.0","1825042","J=YES, F=NO","0pmgnv4gya","0","79","73","85","","","","","","","","","","","","","","","",""
"null","audio/voice.wav","null","audio-keyboard-response","366","2.1.0","1825853","J=YES, F=NO","0pmgnv4gya","0","79","73","85","","","","","","","","","","","","","","","",""
"801","
          <p id=""word"" style=""font-size: 40px;"">grintle</p>
          <p style=""font-size: 16px;"">J = YES &nbsp;&nbsp;&nbsp; F = NO</p>
        ","f","html-keyboard-response","367","2.1.0","1826655","J=YES, F=NO","0pmgnv4gya","0","79","73","85","","","","","","","","","grintle","voice","pseudoword","pseudoword","f","true","",""
"null","<p style=""font-size: 50px;"">+</p>","null","html-keyboard-response","368","2.1.0","1826968","J=YES, F=NO","0pmgnv4gya","0","79","73","85","","","","","","","","","","","","","","","",""
"null","audio/beep-329314.mp3","null","audio-keyboard-response","369","2.1.0","1828733","J=YES, F=NO","0pmgnv4gya","0","79","73","85","","","","","","","","","","","","","","","",""
"null","audio/effort.wav","null","audio-keyboard-response","370","2.1.0","1829529","J=YES, F=NO","0pmgnv4gya","0","79","73","85","","","","","","","","","","","","","","","",""
"710","
          <p id=""word"" style=""font-size: 40px;"">whonk</p>
          <p style=""font-size: 16px;"">J = YES &nbsp;&nbsp;&nbsp; F = NO</p>
        ","f","html-keyboard-response","371","2.1.0","1830239","J=YES, F=NO","0pmgnv4gya","0","79","73","85","","","","","","","","","whonk","effort","pseudoword","pseudoword","f","true","",""
"null","<p style=""font-size: 50px;"">+</p>","null","html-keyboard-response","372","2.1.0","1830550","J=YES, F=NO","0pmgnv4gya","0","79","73","85","","","","","","","","","","","","","","","",""
"null","audio/beep-329314.mp3","null","audio-keyboard-response","373","2.1.0","1832290","J=YES, F=NO","0pmgnv4gya","0","79","73","85","","","","","","","","","","","","","","","",""
"null","audio/breath.wav","null","audio-keyboard-response","374","2.1.0","1833056","J=YES, F=NO","0pmgnv4gya","0","79","73","85","","","","","","","","","","","","","","","",""
"535","
          <p id=""word"" style=""font-size: 40px;"">construct</p>
          <p style=""font-size: 16px;"">J = YES &nbsp;&nbsp;&nbsp; F = NO</p>
        ","j","html-keyboard-response","375","2.1.0","1833591","J=YES, F=NO","0pmgnv4gya","0","79","73","85","","","","","","","","","construct","breath","unrelated","experimental","j","true","",""
"null","<p style=""font-size: 50px;"">+</p>","null","html-keyboard-response","376","2.1.0","1833900","J=YES, F=NO","0pmgnv4gya","0","79","73","85","","","","","","","","","","","","","","","",""
"null","audio/beep-329314.mp3","null","audio-keyboard-response","377","2.1.0","1835640","J=YES, F=NO","0pmgnv4gya","0","79","73","85","","","","","","","","","","","","","","","",""
"null","audio/card1.wav","null","audio-keyboard-response","378","2.1.0","1836377","J=YES, F=NO","0pmgnv4gya","0","79","73","85","","","","","","","","","","","","","","","",""
"479","
          <p id=""word"" style=""font-size: 40px;"">land</p>
          <p style=""font-size: 16px;"">J = YES &nbsp;&nbsp;&nbsp; F = NO</p>
        ","j","html-keyboard-response","379","2.1.0","1836858","J=YES, F=NO","0pmgnv4gya","0","79","73","85","","","","","","","","","land","card1","unrelated","experimental","j","true","",""
"null","<p style=""font-size: 50px;"">+</p>","null","html-keyboard-response","380","2.1.0","1837165","J=YES, F=NO","0pmgnv4gya","0","79","73","85","","","","","","","","","","","","","","","",""
"null","audio/beep-329314.mp3","null","audio-keyboard-response","381","2.1.0","1838911","J=YES, F=NO","0pmgnv4gya","0","79","73","85","","","","","","","","","","","","","","","",""
"null","audio/empire.wav","null","audio-keyboard-response","382","2.1.0","1839740","J=YES, F=NO","0pmgnv4gya","0","79","73","85","","","","","","","","","","","","","","","",""
"606","
          <p id=""word"" style=""font-size: 40px;"">slorby</p>
          <p style=""font-size: 16px;"">J = YES &nbsp;&nbsp;&nbsp; F = NO</p>
        ","f","html-keyboard-response","383","2.1.0","1840346","J=YES, F=NO","0pmgnv4gya","0","79","73","85","","","","","","","","","slorby","empire","pseudoword","pseudoword","f","true","",""
"null","<p style=""font-size: 50px;"">+</p>","null","html-keyboard-response","384","2.1.0","1840662","J=YES, F=NO","0pmgnv4gya","0","79","73","85","","","","","","","","","","","","","","","",""
"null","audio/beep-329314.mp3","null","audio-keyboard-response","385","2.1.0","1842410","J=YES, F=NO","0pmgnv4gya","0","79","73","85","","","","","","","","","","","","","","","",""
"null","audio/mind.wav","null","audio-keyboard-response","386","2.1.0","1843194","J=YES, F=NO","0pmgnv4gya","0","79","73","85","","","","","","","","","","","","","","","",""
"730","
          <p id=""word"" style=""font-size: 40px;"">crainate</p>
          <p style=""font-size: 16px;"">J = YES &nbsp;&nbsp;&nbsp; F = NO</p>
        ","f","html-keyboard-response","387","2.1.0","1843925","J=YES, F=NO","0pmgnv4gya","0","79","73","85","","","","","","","","","crainate","mind","pseudoword","pseudoword","f","true","",""
"null","<p style=""font-size: 50px;"">+</p>","null","html-keyboard-response","388","2.1.0","1844245","J=YES, F=NO","0pmgnv4gya","0","79","73","85","","","","","","","","","","","","","","","",""
"null","audio/beep-329314.mp3","null","audio-keyboard-response","389","2.1.0","1845994","J=YES, F=NO","0pmgnv4gya","0","79","73","85","","","","","","","","","","","","","","","",""
"null","audio/topic.wav","null","audio-keyboard-response","390","2.1.0","1846781","J=YES, F=NO","0pmgnv4gya","0","79","73","85","","","","","","","","","","","","","","","",""
"641","
