"rt","stimulus","response","trial_type","trial_index","plugin_version","time_elapsed","response_mapping","subject_id","list_index","lextale_score","lextale_word_score","lextale_nonword_score","success","timeout","failed_images","failed_audio","failed_video","task","isWord","isDummy","target","prime","prime_type","stimulus_type","correct_response","correct","section","question_order"
"29134","
    <div style=""max-width: 800px; margin: auto; text-align: left;"">
      <h2>STANFORD UNIVERSITY</h2>
      <h3>Research Information Sheet</h3>
      <p><strong>Protocol Director:</strong> Robert Hawkins<br>
      <strong>Protocol Title:</strong> Communication and social cognition in natural audiovisual contexts<br>
      <strong>IRB#:</strong> 77226</p>

      <p><strong>DESCRIPTION:</strong> You are invited to participate in a research study about language and communication. The purpose of the research is to understand how you interact and communicate with other people in naturalistic settings as a fluent English speaker. This research will be conducted through the Prolific platform, including participants from the US, UK, and Canada. If you decide to participate in this research, you will play a communication game in a group with one or more partners.</p>

      <p><strong>TIME INVOLVEMENT:</strong> The task will last the amount of time advertised on Prolific. You are free to withdraw from the study at any time.</p>

      <p><strong>RISKS AND BENEFITS:</strong> You may become frustrated if your partner gets distracted, or experience discomfort if other participants in your group send text that is inappropriate for the task. We ask you to please be respectful of other participants you might be interacting with to mitigate these risks. You may also experience discomfort when being asked to discuss or challenge emotionally salient political beliefs. Study data will be stored securely, in compliance with Stanford University standards, minimizing the risk of confidentiality breach. This study advances our scientific understanding of how people communicate and collaborate in naturalistic settings. This study may lead to further insights about what can go wrong in teamwork, suggest potential interventions to overcome these barriers, and help to develop assistive technologies that collaborate with human partners. We cannot and do not guarantee or promise that you will receive any benefits from this study.</p>

      <p><strong>PAYMENTS:</strong> You will receive payment in the amount advertised on Prolific. If you do not complete this study, you will receive prorated payment based on the time that you have spent. Additionally, you may be eligible for bonus payments as described in the instructions.</p>

      <p><strong>PARTICIPANT’S RIGHTS:</strong> If you have read this form and have decided to participate in this project, please understand your participation is voluntary and you have the right to withdraw your consent or discontinue participation at any time without penalty or loss of benefits to which you are otherwise entitled. The alternative is not to participate. You have the right to refuse to answer particular questions. The results of this research study may be presented at scientific or professional meetings or published in scientific journals. Your individual privacy will be maintained in all published and written data resulting from the study. In accordance with scientific norms, the data from this study may be used or shared with other researchers for future research (after removing personally identifying information) without additional consent from you.</p>

      <p><strong>CONTACT INFORMATION:</strong><br>
      Questions: If you have any questions, concerns or complaints about this research, its procedures, risks and benefits, contact the Protocol Director, Robert Hawkins (<a href=""mailto:rdhawkins@stanford.edu"">rdhawkins@stanford.edu</a>, 217-549-6923).<br>
      Independent Contact: If you are not satisfied with how this study is being conducted, or if you have any concerns, complaints, or general questions about the research or your rights as a participant, please contact the Stanford Institutional Review Board (IRB) to speak to someone independent of the research team at 650-723-2480 or toll free at 1-866-680-2906, or email at <a href=""mailto:irbnon-med@stanford.edu"">irbnon-med@stanford.edu</a>. You can also write to the Stanford IRB, Stanford University, 1705 El Camino Real, Palo Alto, CA 94306.</p>

      <p><strong>Please save or print a copy of this page for your records.</strong></p>
      <p>If you agree to participate in this research, click ""Continue"" below.</p>
    </div>
  ","0","html-button-response","0","2.1.0","29141","F=YES, J=NO","0t2tgroffu","0","85","85","85","","","","","","","","","","","","","","","",""
"10732","
    <div style=""max-width: 800px; margin: auto; text-align: left;"">
      <h2>Welcome!</h2>
      <p>Thank you for participating in this study. The experiment consists of three parts:</p>
      <ol>
        <li>An English vocabulary test</li>
        <li>A main task in which you will hear and see words, and decide whether the written word is a real English word</li>
        <li>A brief survey about your background</li>
      </ol>
      <p>Each part will be introduced before it begins.</p>
      <p>Please make sure you are in a quiet environment and can hear audio clearly for the final task.</p>
      <p style=""margin-top: 2em;"">Press any key to begin.</p>
    </div>
  "," ","html-keyboard-response","1","2.1.0","39875","F=YES, J=NO","0t2tgroffu","0","85","85","85","","","","","","","","","","","","","","","",""
"","","","preload","2","2.1.0","41154","F=YES, J=NO","0t2tgroffu","0","85","85","85","true","false","[]","[]","[]","","","","","","","","","","",""
"5392","
    <div style=""max-width: 800px; margin: auto; text-align: left;"">
      <h2>Part 1: Vocabulary Test</h2>
      <p>You will now complete the first part of the study: a short English vocabulary test.</p>
      <p>This test is called <strong>LexTALE</strong> and helps us get a general sense of your English proficiency.</p>
      <p style=""margin-top: 2em;"">Press any key to continue.</p>
    </div>
  "," ","html-keyboard-response","3","2.1.0","46548","F=YES, J=NO","0t2tgroffu","0","85","85","85","","","","","","","","","","","","","","","",""
"8656","
    <div style=""max-width: 800px; margin: auto; text-align: left;"">
      <h2>LexTALE Vocabulary Test</h2>
      <p>In this test, you will see a series of letter strings—one at a time.</p>
      <p>Your task is to decide whether each string is a real English word.</p>
      <p><strong>Key responses:</strong></p>
      <ul>
        <li><strong>F</strong> = YES (real English word)</li>
        <li><strong>J</strong> = NO (not a real English word)</li>
      </ul>
      <p>There is no time limit, but please try to be accurate.</p>
      <p style=""margin-top: 2em;"">Press any key to begin.</p>
    </div>
  ","ArrowLeft","html-keyboard-response","4","2.1.0","55205","F=YES, J=NO","0t2tgroffu","0","85","85","85","","","","","","","","","","","","","","","",""
"2026","
  <p style=""font-size: 40px;"">platery</p>
  <p style=""font-size: 16px;"">F = YES &nbsp;&nbsp;&nbsp; J = NO</p>
","j","html-keyboard-response","5","2.1.0","57233","F=YES, J=NO","0t2tgroffu","0","85","85","85","","","","","","lextale","false","true","","","","","","","",""
"1178","
  <p style=""font-size: 40px;"">denial</p>
  <p style=""font-size: 16px;"">F = YES &nbsp;&nbsp;&nbsp; J = NO</p>
","f","html-keyboard-response","6","2.1.0","58414","F=YES, J=NO","0t2tgroffu","0","85","85","85","","","","","","lextale","true","true","","","","","","","",""
"995","
  <p style=""font-size: 40px;"">marrit</p>
  <p style=""font-size: 16px;"">F = YES &nbsp;&nbsp;&nbsp; J = NO</p>
","j","html-keyboard-response","7","2.1.0","59410","F=YES, J=NO","0t2tgroffu","0","85","85","85","","","","","","lextale","false","true","","","","","","","",""
"734","
  <p style=""font-size: 40px;"">bottle</p>
  <p style=""font-size: 16px;"">F = YES &nbsp;&nbsp;&nbsp; J = NO</p>
","f","html-keyboard-response","8","2.1.0","60146","F=YES, J=NO","0t2tgroffu","0","85","85","85","","","","","","lextale","true","false","","","","","","","",""
"876","
  <p style=""font-size: 40px;"">birst</p>
  <p style=""font-size: 16px;"">F = YES &nbsp;&nbsp;&nbsp; J = NO</p>
","j","html-keyboard-response","9","2.1.0","61024","F=YES, J=NO","0t2tgroffu","0","85","85","85","","","","","","lextale","false","false","","","","","","","",""
"1166","
  <p style=""font-size: 40px;"">envy</p>
  <p style=""font-size: 16px;"">F = YES &nbsp;&nbsp;&nbsp; J = NO</p>
","f","html-keyboard-response","10","2.1.0","62196","F=YES, J=NO","0t2tgroffu","0","85","85","85","","","","","","lextale","true","false","","","","","","","",""
"994","
  <p style=""font-size: 40px;"">brang</p>
  <p style=""font-size: 16px;"">F = YES &nbsp;&nbsp;&nbsp; J = NO</p>
","j","html-keyboard-response","11","2.1.0","63191","F=YES, J=NO","0t2tgroffu","0","85","85","85","","","","","","lextale","false","false","","","","","","","",""
"662","
  <p style=""font-size: 40px;"">huge</p>
  <p style=""font-size: 16px;"">F = YES &nbsp;&nbsp;&nbsp; J = NO</p>
","f","html-keyboard-response","12","2.1.0","63854","F=YES, J=NO","0t2tgroffu","0","85","85","85","","","","","","lextale","true","false","","","","","","","",""
"1232","
  <p style=""font-size: 40px;"">plove</p>
  <p style=""font-size: 16px;"">F = YES &nbsp;&nbsp;&nbsp; J = NO</p>
","j","html-keyboard-response","13","2.1.0","65088","F=YES, J=NO","0t2tgroffu","0","85","85","85","","","","","","lextale","false","false","","","","","","","",""
"642","
  <p style=""font-size: 40px;"">border</p>
  <p style=""font-size: 16px;"">F = YES &nbsp;&nbsp;&nbsp; J = NO</p>
","f","html-keyboard-response","14","2.1.0","65732","F=YES, J=NO","0t2tgroffu","0","85","85","85","","","","","","lextale","true","false","","","","","","","",""
"1278","
  <p style=""font-size: 40px;"">flimsy</p>
  <p style=""font-size: 16px;"">F = YES &nbsp;&nbsp;&nbsp; J = NO</p>
","f","html-keyboard-response","15","2.1.0","67012","F=YES, J=NO","0t2tgroffu","0","85","85","85","","","","","","lextale","true","false","","","","","","","",""
"623","
  <p style=""font-size: 40px;"">drain</p>
  <p style=""font-size: 16px;"">F = YES &nbsp;&nbsp;&nbsp; J = NO</p>
","f","html-keyboard-response","16","2.1.0","67637","F=YES, J=NO","0t2tgroffu","0","85","85","85","","","","","","lextale","true","false","","","","","","","",""
"1376","
  <p style=""font-size: 40px;"">twindle</p>
  <p style=""font-size: 16px;"">F = YES &nbsp;&nbsp;&nbsp; J = NO</p>
","j","html-keyboard-response","17","2.1.0","69014","F=YES, J=NO","0t2tgroffu","0","85","85","85","","","","","","lextale","false","false","","","","","","","",""
"639","
  <p style=""font-size: 40px;"">propose</p>
  <p style=""font-size: 16px;"">F = YES &nbsp;&nbsp;&nbsp; J = NO</p>
","f","html-keyboard-response","18","2.1.0","69654","F=YES, J=NO","0t2tgroffu","0","85","85","85","","","","","","lextale","true","false","","","","","","","",""
"1429","
  <p style=""font-size: 40px;"">forlay</p>
  <p style=""font-size: 16px;"">F = YES &nbsp;&nbsp;&nbsp; J = NO</p>
","j","html-keyboard-response","19","2.1.0","71085","F=YES, J=NO","0t2tgroffu","0","85","85","85","","","","","","lextale","false","false","","","","","","","",""
"879","
  <p style=""font-size: 40px;"">tenant</p>
  <p style=""font-size: 16px;"">F = YES &nbsp;&nbsp;&nbsp; J = NO</p>
","f","html-keyboard-response","20","2.1.0","71965","F=YES, J=NO","0t2tgroffu","0","85","85","85","","","","","","lextale","true","false","","","","","","","",""
"1083","
  <p style=""font-size: 40px;"">strain</p>
  <p style=""font-size: 16px;"">F = YES &nbsp;&nbsp;&nbsp; J = NO</p>
","f","html-keyboard-response","21","2.1.0","73049","F=YES, J=NO","0t2tgroffu","0","85","85","85","","","","","","lextale","true","false","","","","","","","",""
"745","
  <p style=""font-size: 40px;"">holster</p>
  <p style=""font-size: 16px;"">F = YES &nbsp;&nbsp;&nbsp; J = NO</p>
","f","html-keyboard-response","22","2.1.0","73796","F=YES, J=NO","0t2tgroffu","0","85","85","85","","","","","","lextale","true","false","","","","","","","",""
"694","
  <p style=""font-size: 40px;"">hinder</p>
  <p style=""font-size: 16px;"">F = YES &nbsp;&nbsp;&nbsp; J = NO</p>
","f","html-keyboard-response","23","2.1.0","74491","F=YES, J=NO","0t2tgroffu","0","85","85","85","","","","","","lextale","true","false","","","","","","","",""
"602","
  <p style=""font-size: 40px;"">swindle</p>
  <p style=""font-size: 16px;"">F = YES &nbsp;&nbsp;&nbsp; J = NO</p>
","f","html-keyboard-response","24","2.1.0","75094","F=YES, J=NO","0t2tgroffu","0","85","85","85","","","","","","lextale","true","false","","","","","","","",""
"1025","
  <p style=""font-size: 40px;"">nuder</p>
  <p style=""font-size: 16px;"">F = YES &nbsp;&nbsp;&nbsp; J = NO</p>
","j","html-keyboard-response","25","2.1.0","76121","F=YES, J=NO","0t2tgroffu","0","85","85","85","","","","","","lextale","false","false","","","","","","","",""
"610","
  <p style=""font-size: 40px;"">pillow</p>
  <p style=""font-size: 16px;"">F = YES &nbsp;&nbsp;&nbsp; J = NO</p>
","f","html-keyboard-response","26","2.1.0","76733","F=YES, J=NO","0t2tgroffu","0","85","85","85","","","","","","lextale","true","false","","","","","","","",""
"793","
  <p style=""font-size: 40px;"">shumble</p>
  <p style=""font-size: 16px;"">F = YES &nbsp;&nbsp;&nbsp; J = NO</p>
","j","html-keyboard-response","27","2.1.0","77527","F=YES, J=NO","0t2tgroffu","0","85","85","85","","","","","","lextale","false","false","","","","","","","",""
"682","
  <p style=""font-size: 40px;"">thirst</p>
  <p style=""font-size: 16px;"">F = YES &nbsp;&nbsp;&nbsp; J = NO</p>
","f","html-keyboard-response","28","2.1.0","78211","F=YES, J=NO","0t2tgroffu","0","85","85","85","","","","","","lextale","true","false","","","","","","","",""
"2046","
  <p style=""font-size: 40px;"">unsail</p>
  <p style=""font-size: 16px;"">F = YES &nbsp;&nbsp;&nbsp; J = NO</p>
","j","html-keyboard-response","29","2.1.0","80258","F=YES, J=NO","0t2tgroffu","0","85","85","85","","","","","","lextale","false","false","","","","","","","",""
"599","
  <p style=""font-size: 40px;"">rifle</p>
  <p style=""font-size: 16px;"">F = YES &nbsp;&nbsp;&nbsp; J = NO</p>
","f","html-keyboard-response","30","2.1.0","80858","F=YES, J=NO","0t2tgroffu","0","85","85","85","","","","","","lextale","true","false","","","","","","","",""
"1339","
  <p style=""font-size: 40px;"">mush</p>
  <p style=""font-size: 16px;"">F = YES &nbsp;&nbsp;&nbsp; J = NO</p>
","f","html-keyboard-response","31","2.1.0","82199","F=YES, J=NO","0t2tgroffu","0","85","85","85","","","","","","lextale","false","false","","","","","","","",""
"642","
  <p style=""font-size: 40px;"">drench</p>
  <p style=""font-size: 16px;"">F = YES &nbsp;&nbsp;&nbsp; J = NO</p>
","f","html-keyboard-response","32","2.1.0","82842","F=YES, J=NO","0t2tgroffu","0","85","85","85","","","","","","lextale","true","false","","","","","","","",""
"782","
  <p style=""font-size: 40px;"">snirt</p>
  <p style=""font-size: 16px;"">F = YES &nbsp;&nbsp;&nbsp; J = NO</p>
","j","html-keyboard-response","33","2.1.0","83626","F=YES, J=NO","0t2tgroffu","0","85","85","85","","","","","","lextale","false","false","","","","","","","",""
"673","
  <p style=""font-size: 40px;"">bitter</p>
  <p style=""font-size: 16px;"">F = YES &nbsp;&nbsp;&nbsp; J = NO</p>
","f","html-keyboard-response","34","2.1.0","84299","F=YES, J=NO","0t2tgroffu","0","85","85","85","","","","","","lextale","true","false","","","","","","","",""
"1538","
  <p style=""font-size: 40px;"">pliff</p>
  <p style=""font-size: 16px;"">F = YES &nbsp;&nbsp;&nbsp; J = NO</p>
","j","html-keyboard-response","35","2.1.0","85839","F=YES, J=NO","0t2tgroffu","0","85","85","85","","","","","","lextale","false","false","","","","","","","",""
"599","
  <p style=""font-size: 40px;"">tablet</p>
  <p style=""font-size: 16px;"">F = YES &nbsp;&nbsp;&nbsp; J = NO</p>
","f","html-keyboard-response","36","2.1.0","86439","F=YES, J=NO","0t2tgroffu","0","85","85","85","","","","","","lextale","true","false","","","","","","","",""
"774","
  <p style=""font-size: 40px;"">glimmer</p>
  <p style=""font-size: 16px;"">F = YES &nbsp;&nbsp;&nbsp; J = NO</p>
","f","html-keyboard-response","37","2.1.0","87214","F=YES, J=NO","0t2tgroffu","0","85","85","85","","","","","","lextale","true","false","","","","","","","",""
"1613","
  <p style=""font-size: 40px;"">slink</p>
  <p style=""font-size: 16px;"">F = YES &nbsp;&nbsp;&nbsp; J = NO</p>
","f","html-keyboard-response","38","2.1.0","88829","F=YES, J=NO","0t2tgroffu","0","85","85","85","","","","","","lextale","true","false","","","","","","","",""
"1331","
  <p style=""font-size: 40px;"">clever</p>
  <p style=""font-size: 16px;"">F = YES &nbsp;&nbsp;&nbsp; J = NO</p>
","f","html-keyboard-response","39","2.1.0","90160","F=YES, J=NO","0t2tgroffu","0","85","85","85","","","","","","lextale","true","false","","","","","","","",""
"1311","
  <p style=""font-size: 40px;"">grum</p>
  <p style=""font-size: 16px;"">F = YES &nbsp;&nbsp;&nbsp; J = NO</p>
","j","html-keyboard-response","40","2.1.0","91472","F=YES, J=NO","0t2tgroffu","0","85","85","85","","","","","","lextale","false","false","","","","","","","",""
"566","
  <p style=""font-size: 40px;"">string</p>
  <p style=""font-size: 16px;"">F = YES &nbsp;&nbsp;&nbsp; J = NO</p>
","f","html-keyboard-response","41","2.1.0","92038","F=YES, J=NO","0t2tgroffu","0","85","85","85","","","","","","lextale","true","false","","","","","","","",""
"1315","
  <p style=""font-size: 40px;"">plim</p>
  <p style=""font-size: 16px;"">F = YES &nbsp;&nbsp;&nbsp; J = NO</p>
","j","html-keyboard-response","42","2.1.0","93354","F=YES, J=NO","0t2tgroffu","0","85","85","85","","","","","","lextale","false","false","","","","","","","",""
"727","
  <p style=""font-size: 40px;"">cable</p>
  <p style=""font-size: 16px;"">F = YES &nbsp;&nbsp;&nbsp; J = NO</p>
","f","html-keyboard-response","43","2.1.0","94083","F=YES, J=NO","0t2tgroffu","0","85","85","85","","","","","","lextale","true","false","","","","","","","",""
"639","
  <p style=""font-size: 40px;"">shrivel</p>
  <p style=""font-size: 16px;"">F = YES &nbsp;&nbsp;&nbsp; J = NO</p>
","f","html-keyboard-response","44","2.1.0","94723","F=YES, J=NO","0t2tgroffu","0","85","85","85","","","","","","lextale","true","false","","","","","","","",""
"606","
  <p style=""font-size: 40px;"">tarnish</p>
  <p style=""font-size: 16px;"">F = YES &nbsp;&nbsp;&nbsp; J = NO</p>
","f","html-keyboard-response","45","2.1.0","95329","F=YES, J=NO","0t2tgroffu","0","85","85","85","","","","","","lextale","true","false","","","","","","","",""
"729","
  <p style=""font-size: 40px;"">blim</p>
  <p style=""font-size: 16px;"">F = YES &nbsp;&nbsp;&nbsp; J = NO</p>
","j","html-keyboard-response","46","2.1.0","96059","F=YES, J=NO","0t2tgroffu","0","85","85","85","","","","","","lextale","false","false","","","","","","","",""
"909","
  <p style=""font-size: 40px;"">stifle</p>
  <p style=""font-size: 16px;"">F = YES &nbsp;&nbsp;&nbsp; J = NO</p>
","f","html-keyboard-response","47","2.1.0","96970","F=YES, J=NO","0t2tgroffu","0","85","85","85","","","","","","lextale","true","false","","","","","","","",""
"864","
  <p style=""font-size: 40px;"">bint</p>
  <p style=""font-size: 16px;"">F = YES &nbsp;&nbsp;&nbsp; J = NO</p>
","j","html-keyboard-response","48","2.1.0","97835","F=YES, J=NO","0t2tgroffu","0","85","85","85","","","","","","lextale","false","false","","","","","","","",""
"583","
  <p style=""font-size: 40px;"">purple</p>
  <p style=""font-size: 16px;"">F = YES &nbsp;&nbsp;&nbsp; J = NO</p>
","f","html-keyboard-response","49","2.1.0","98418","F=YES, J=NO","0t2tgroffu","0","85","85","85","","","","","","lextale","true","false","","","","","","","",""
"693","
  <p style=""font-size: 40px;"">wriggle</p>
  <p style=""font-size: 16px;"">F = YES &nbsp;&nbsp;&nbsp; J = NO</p>
","f","html-keyboard-response","50","2.1.0","99113","F=YES, J=NO","0t2tgroffu","0","85","85","85","","","","","","lextale","true","false","","","","","","","",""
"1386","
  <p style=""font-size: 40px;"">mangle</p>
  <p style=""font-size: 16px;"">F = YES &nbsp;&nbsp;&nbsp; J = NO</p>
","f","html-keyboard-response","51","2.1.0","100500","F=YES, J=NO","0t2tgroffu","0","85","85","85","","","","","","lextale","true","false","","","","","","","",""
"887","
  <p style=""font-size: 40px;"">shramp</p>
  <p style=""font-size: 16px;"">F = YES &nbsp;&nbsp;&nbsp; J = NO</p>
","j","html-keyboard-response","52","2.1.0","101388","F=YES, J=NO","0t2tgroffu","0","85","85","85","","","","","","lextale","false","false","","","","","","","",""
"559","
  <p style=""font-size: 40px;"">flirt</p>
  <p style=""font-size: 16px;"">F = YES &nbsp;&nbsp;&nbsp; J = NO</p>
","f","html-keyboard-response","53","2.1.0","101947","F=YES, J=NO","0t2tgroffu","0","85","85","85","","","","","","lextale","true","false","","","","","","","",""
"889","
  <p style=""font-size: 40px;"">frip</p>
  <p style=""font-size: 16px;"">F = YES &nbsp;&nbsp;&nbsp; J = NO</p>
","j","html-keyboard-response","54","2.1.0","102837","F=YES, J=NO","0t2tgroffu","0","85","85","85","","","","","","lextale","false","false","","","","","","","",""
"799","
  <p style=""font-size: 40px;"">tangle</p>
  <p style=""font-size: 16px;"">F = YES &nbsp;&nbsp;&nbsp; J = NO</p>
","f","html-keyboard-response","55","2.1.0","103637","F=YES, J=NO","0t2tgroffu","0","85","85","85","","","","","","lextale","true","false","","","","","","","",""
"583","
  <p style=""font-size: 40px;"">crumble</p>
  <p style=""font-size: 16px;"">F = YES &nbsp;&nbsp;&nbsp; J = NO</p>
","f","html-keyboard-response","56","2.1.0","104221","F=YES, J=NO","0t2tgroffu","0","85","85","85","","","","","","lextale","true","false","","","","","","","",""
"557","
  <p style=""font-size: 40px;"">wrinkle</p>
  <p style=""font-size: 16px;"">F = YES &nbsp;&nbsp;&nbsp; J = NO</p>
","f","html-keyboard-response","57","2.1.0","104780","F=YES, J=NO","0t2tgroffu","0","85","85","85","","","","","","lextale","true","false","","","","","","","",""
"708","
  <p style=""font-size: 40px;"">slumb</p>
  <p style=""font-size: 16px;"">F = YES &nbsp;&nbsp;&nbsp; J = NO</p>
","j","html-keyboard-response","58","2.1.0","105488","F=YES, J=NO","0t2tgroffu","0","85","85","85","","","","","","lextale","false","false","","","","","","","",""
"591","
  <p style=""font-size: 40px;"">jungle</p>
  <p style=""font-size: 16px;"">F = YES &nbsp;&nbsp;&nbsp; J = NO</p>
","f","html-keyboard-response","59","2.1.0","106081","F=YES, J=NO","0t2tgroffu","0","85","85","85","","","","","","lextale","true","false","","","","","","","",""
"791","
  <p style=""font-size: 40px;"">frolick</p>
  <p style=""font-size: 16px;"">F = YES &nbsp;&nbsp;&nbsp; J = NO</p>
","f","html-keyboard-response","60","2.1.0","106873","F=YES, J=NO","0t2tgroffu","0","85","85","85","","","","","","lextale","false","false","","","","","","","",""
"7080","
      <h2>LexTALE Test Completed</h2>
      <p>Your LexTALE vocabulary score is: <strong>85%</strong></p>
      <p>Press any key to continue.</p>
    "," ","html-keyboard-response","61","2.1.0","113955","F=YES, J=NO","0t2tgroffu","0","85","85","85","","","","","","","","","","","","","","","",""
"17745","
    <div style=""max-width: 800px; margin: auto; text-align: left;"">
      <h2>Break Time</h2>
      <p>You have completed the first part of the study.</p>
      <p>You may take a short <strong>30-second break</strong> before continuing.</p>
      <p>When you’re ready, press any key to continue to the final task.</p>
    </div>
  "," ","html-keyboard-response","62","2.1.0","131701","F=YES, J=NO","0t2tgroffu","0","85","85","85","","","","","","","","","","","","","","","",""
"16534","
    <div style=""max-width: 800px; margin: auto; text-align: left;"">
      <h2>Part 2: Lexical Decision Task</h2>
      <p>You will now begin the second part of the study.</p>
      <p>Each trial will follow this sequence:</p>
      <ul>
        <li>A fixation cross (+) appears at the center of the screen.</li>
        <li>You will hear a short beep followed by a spoken word.</li>
        <li>A written word will appear briefly on the screen.</li>
      </ul>
      <p>Your task is to judge whether the <strong>written word</strong> is a real English word.</p>
      <p style=""margin-top: 1em;""><strong>Key responses:</strong></p>
      <ul>
        <li><strong>F</strong> = YES (real English word)</li>
        <li><strong>J</strong> = NO (not a real English word)</li>
      </ul>
      <p>Please respond as quickly and accurately as you can.</p>
      <p style=""margin-top: 2em;"">Press any key to continue.</p>
    </div>
  "," ","html-keyboard-response","63","2.1.0","148236","F=YES, J=NO","0t2tgroffu","0","85","85","85","","","","","","","","","","","","","","","",""
"11254","
    <div style=""max-width: 800px; margin: auto; text-align: left;"">
      <h2>Before You Begin</h2>
      <p>Make sure your sound is turned on.</p>
      <p>You will hear audio during each trial, but your decision should be based only on the <strong>written word</strong> you see on the screen.</p>
      <p><strong>Reminder:</strong></p>
      <ul>
        <li><strong>F</strong> = YES (real English word)</li>
        <li><strong>J</strong> = NO (not a real English word)</li>
      </ul>
      <p style=""margin-top: 2em;"">Press any key when you are ready to begin.</p>
    </div>
  "," ","html-keyboard-response","64","2.1.0","159491","F=YES, J=NO","0t2tgroffu","0","85","85","85","","","","","","","","","","","","","","","",""
"2871","
    <div style=""max-width: 800px; margin: auto; text-align: left;"">
      <h2>Part 2: Practice Trials</h2>
      <p>You will now complete a few <strong>practice trials</strong> to get familiar with the task.</p>
      <p>These trials are <strong>not scored</strong> and are only to help you get used to the format.</p>
      <p style=""margin-top: 2em;"">Press any key to begin.</p>
    </div>
  "," ","html-keyboard-response","65","2.1.0","162363","F=YES, J=NO","0t2tgroffu","0","85","85","85","","","","","","","","","","","","","","","",""
"2042","<p>Starting practice block 1 of 2. Press any key to continue.</p>"," ","html-keyboard-response","66","2.1.0","164406","F=YES, J=NO","0t2tgroffu","0","85","85","85","","","","","","","","","","","","","","","",""
"null","<p style=""font-size: 50px;"">+</p>","null","html-keyboard-response","67","2.1.0","164710","F=YES, J=NO","0t2tgroffu","0","85","85","85","","","","","","","","","","","","","","","",""
"null","audio/beep-329314.mp3","null","audio-keyboard-response","68","2.1.0","167406","F=YES, J=NO","0t2tgroffu","0","85","85","85","","","","","","","","","","","","","","","",""
"null","audio/ankle1.wav","null","audio-keyboard-response","69","2.1.0","167925","F=YES, J=NO","0t2tgroffu","0","85","85","85","","","","","","","","","","","","","","","",""
"962","
          <p id=""word"" style=""font-size: 40px;"">kick</p>
          <p style=""font-size: 16px;"">F = YES &nbsp;&nbsp;&nbsp; J = NO</p>
        ","f","html-keyboard-response","70","2.1.0","168887","F=YES, J=NO","0t2tgroffu","0","85","85","85","","","","","","","","","kick","ankle1","filler","filler","f","true","",""
"null","<p style=""font-size: 50px;"">+</p>","null","html-keyboard-response","71","2.1.0","169203","F=YES, J=NO","0t2tgroffu","0","85","85","85","","","","","","","","","","","","","","","",""
"null","audio/beep-329314.mp3","null","audio-keyboard-response","72","2.1.0","170745","F=YES, J=NO","0t2tgroffu","0","85","85","85","","","","","","","","","","","","","","","",""
"null","audio/handle.wav","null","audio-keyboard-response","73","2.1.0","171365","F=YES, J=NO","0t2tgroffu","0","85","85","85","","","","","","","","","","","","","","","",""
"783","
          <p id=""word"" style=""font-size: 40px;"">moutes</p>
          <p style=""font-size: 16px;"">F = YES &nbsp;&nbsp;&nbsp; J = NO</p>
        ","j","html-keyboard-response","74","2.1.0","172150","F=YES, J=NO","0t2tgroffu","0","85","85","85","","","","","","","","","moutes","handle","pseudoword","pseudoword","j","true","",""
"null","<p style=""font-size: 50px;"">+</p>","null","html-keyboard-response","75","2.1.0","172463","F=YES, J=NO","0t2tgroffu","0","85","85","85","","","","","","","","","","","","","","","",""
"null","audio/beep-329314.mp3","null","audio-keyboard-response","76","2.1.0","174005","F=YES, J=NO","0t2tgroffu","0","85","85","85","","","","","","","","","","","","","","","",""
"null","audio/menu.wav","null","audio-keyboard-response","77","2.1.0","174605","F=YES, J=NO","0t2tgroffu","0","85","85","85","","","","","","","","","","","","","","","",""
"854","
          <p id=""word"" style=""font-size: 40px;"">slice</p>
          <p style=""font-size: 16px;"">F = YES &nbsp;&nbsp;&nbsp; J = NO</p>
        ","f","html-keyboard-response","78","2.1.0","175461","F=YES, J=NO","0t2tgroffu","0","85","85","85","","","","","","","","","slice","menu","filler","filler","f","true","",""
"null","<p style=""font-size: 50px;"">+</p>","null","html-keyboard-response","79","2.1.0","175771","F=YES, J=NO","0t2tgroffu","0","85","85","85","","","","","","","","","","","","","","","",""
"null","audio/beep-329314.mp3","null","audio-keyboard-response","80","2.1.0","177304","F=YES, J=NO","0t2tgroffu","0","85","85","85","","","","","","","","","","","","","","","",""
"null","audio/haste1.wav","null","audio-keyboard-response","81","2.1.0","177865","F=YES, J=NO","0t2tgroffu","0","85","85","85","","","","","","","","","","","","","","","",""
"695","
          <p id=""word"" style=""font-size: 40px;"">coraconate</p>
          <p style=""font-size: 16px;"">F = YES &nbsp;&nbsp;&nbsp; J = NO</p>
        ","j","html-keyboard-response","82","2.1.0","178561","F=YES, J=NO","0t2tgroffu","0","85","85","85","","","","","","","","","coraconate","haste1","pseudoword","pseudoword","j","true","",""
"null","<p style=""font-size: 50px;"">+</p>","null","html-keyboard-response","83","2.1.0","178868","F=YES, J=NO","0t2tgroffu","0","85","85","85","","","","","","","","","","","","","","","",""
"null","audio/beep-329314.mp3","null","audio-keyboard-response","84","2.1.0","180405","F=YES, J=NO","0t2tgroffu","0","85","85","85","","","","","","","","","","","","","","","",""
"null","audio/bomb1.wav","null","audio-keyboard-response","85","2.1.0","180785","F=YES, J=NO","0t2tgroffu","0","85","85","85","","","","","","","","","","","","","","","",""
"572","
          <p id=""word"" style=""font-size: 40px;"">clean</p>
          <p style=""font-size: 16px;"">F = YES &nbsp;&nbsp;&nbsp; J = NO</p>
        ","f","html-keyboard-response","86","2.1.0","181358","F=YES, J=NO","0t2tgroffu","0","85","85","85","","","","","","","","","clean","bomb1","filler","filler","f","true","",""
"null","<p style=""font-size: 50px;"">+</p>","null","html-keyboard-response","87","2.1.0","181674","F=YES, J=NO","0t2tgroffu","0","85","85","85","","","","","","","","","","","","","","","",""
"null","audio/beep-329314.mp3","null","audio-keyboard-response","88","2.1.0","183205","F=YES, J=NO","0t2tgroffu","0","85","85","85","","","","","","","","","","","","","","","",""
"null","audio/road.wav","null","audio-keyboard-response","89","2.1.0","183665","F=YES, J=NO","0t2tgroffu","0","85","85","85","","","","","","","","","","","","","","","",""
"719","
          <p id=""word"" style=""font-size: 40px;"">wappings</p>
          <p style=""font-size: 16px;"">F = YES &nbsp;&nbsp;&nbsp; J = NO</p>
        ","j","html-keyboard-response","90","2.1.0","184385","F=YES, J=NO","0t2tgroffu","0","85","85","85","","","","","","","","","wappings","road","pseudoword","pseudoword","j","true","",""
"null","<p style=""font-size: 50px;"">+</p>","null","html-keyboard-response","91","2.1.0","184688","F=YES, J=NO","0t2tgroffu","0","85","85","85","","","","","","","","","","","","","","","",""
"null","audio/beep-329314.mp3","null","audio-keyboard-response","92","2.1.0","186226","F=YES, J=NO","0t2tgroffu","0","85","85","85","","","","","","","","","","","","","","","",""
"null","audio/sand.wav","null","audio-keyboard-response","93","2.1.0","186865","F=YES, J=NO","0t2tgroffu","0","85","85","85","","","","","","","","","","","","","","","",""
"631","
          <p id=""word"" style=""font-size: 40px;"">proted</p>
          <p style=""font-size: 16px;"">F = YES &nbsp;&nbsp;&nbsp; J = NO</p>
        ","j","html-keyboard-response","94","2.1.0","187497","F=YES, J=NO","0t2tgroffu","0","85","85","85","","","","","","","","","proted","sand","pseudoword","pseudoword","j","true","",""
"null","<p style=""font-size: 50px;"">+</p>","null","html-keyboard-response","95","2.1.0","187808","F=YES, J=NO","0t2tgroffu","0","85","85","85","","","","","","","","","","","","","","","",""
"null","audio/beep-329314.mp3","null","audio-keyboard-response","96","2.1.0","189345","F=YES, J=NO","0t2tgroffu","0","85","85","85","","","","","","","","","","","","","","","",""
"null","audio/heart1.wav","null","audio-keyboard-response","97","2.1.0","189965","F=YES, J=NO","0t2tgroffu","0","85","85","85","","","","","","","","","","","","","","","",""
"634","
          <p id=""word"" style=""font-size: 40px;"">dralm</p>
          <p style=""font-size: 16px;"">F = YES &nbsp;&nbsp;&nbsp; J = NO</p>
        ","j","html-keyboard-response","98","2.1.0","190601","F=YES, J=NO","0t2tgroffu","0","85","85","85","","","","","","","","","dralm","heart1","pseudoword","pseudoword","j","true","",""
"null","<p style=""font-size: 50px;"">+</p>","null","html-keyboard-response","99","2.1.0","190903","F=YES, J=NO","0t2tgroffu","0","85","85","85","","","","","","","","","","","","","","","",""
"null","audio/beep-329314.mp3","null","audio-keyboard-response","100","2.1.0","192445","F=YES, J=NO","0t2tgroffu","0","85","85","85","","","","","","","","","","","","","","","",""
"null","audio/camera1.wav","null","audio-keyboard-response","101","2.1.0","192945","F=YES, J=NO","0t2tgroffu","0","85","85","85","","","","","","","","","","","","","","","",""
"643","
          <p id=""word"" style=""font-size: 40px;"">stir</p>
          <p style=""font-size: 16px;"">F = YES &nbsp;&nbsp;&nbsp; J = NO</p>
        ","f","html-keyboard-response","102","2.1.0","193590","F=YES, J=NO","0t2tgroffu","0","85","85","85","","","","","","","","","stir","camera1","filler","filler","f","true","",""
"null","<p style=""font-size: 50px;"">+</p>","null","html-keyboard-response","103","2.1.0","193893","F=YES, J=NO","0t2tgroffu","0","85","85","85","","","","","","","","","","","","","","","",""
"null","audio/beep-329314.mp3","null","audio-keyboard-response","104","2.1.0","195424","F=YES, J=NO","0t2tgroffu","0","85","85","85","","","","","","","","","","","","","","","",""
"null","audio/foot1.wav","null","audio-keyboard-response","105","2.1.0","196005","F=YES, J=NO","0t2tgroffu","0","85","85","85","","","","","","","","","","","","","","","",""
"602","
          <p id=""word"" style=""font-size: 40px;"">thrutt</p>
          <p style=""font-size: 16px;"">F = YES &nbsp;&nbsp;&nbsp; J = NO</p>
        ","j","html-keyboard-response","106","2.1.0","196609","F=YES, J=NO","0t2tgroffu","0","85","85","85","","","","","","","","","thrutt","foot1","pseudoword","pseudoword","j","true","",""
"null","<p style=""font-size: 50px;"">+</p>","null","html-keyboard-response","107","2.1.0","196911","F=YES, J=NO","0t2tgroffu","0","85","85","85","","","","","","","","","","","","","","","",""
"null","audio/beep-329314.mp3","null","audio-keyboard-response","108","2.1.0","198445","F=YES, J=NO","0t2tgroffu","0","85","85","85","","","","","","","","","","","","","","","",""
"null","audio/plot1.wav","null","audio-keyboard-response","109","2.1.0","198985","F=YES, J=NO","0t2tgroffu","0","85","85","85","","","","","","","","","","","","","","","",""
"701","
          <p id=""word"" style=""font-size: 40px;"">glenter</p>
          <p style=""font-size: 16px;"">F = YES &nbsp;&nbsp;&nbsp; J = NO</p>
        ","j","html-keyboard-response","110","2.1.0","199687","F=YES, J=NO","0t2tgroffu","0","85","85","85","","","","","","","","","glenter","plot1","pseudoword","pseudoword","j","true","",""
"null","<p style=""font-size: 50px;"">+</p>","null","html-keyboard-response","111","2.1.0","199994","F=YES, J=NO","0t2tgroffu","0","85","85","85","","","","","","","","","","","","","","","",""
"null","audio/beep-329314.mp3","null","audio-keyboard-response","112","2.1.0","201525","F=YES, J=NO","0t2tgroffu","0","85","85","85","","","","","","","","","","","","","","","",""
"null","audio/brain.wav","null","audio-keyboard-response","113","2.1.0","202005","F=YES, J=NO","0t2tgroffu","0","85","85","85","","","","","","","","","","","","","","","",""
"544","
          <p id=""word"" style=""font-size: 40px;"">throw</p>
          <p style=""font-size: 16px;"">F = YES &nbsp;&nbsp;&nbsp; J = NO</p>
        ","f","html-keyboard-response","114","2.1.0","202551","F=YES, J=NO","0t2tgroffu","0","85","85","85","","","","","","","","","throw","brain","filler","filler","f","true","",""
"1603","<p>Starting practice block 2 of 2. Press any key to continue.</p>"," ","html-keyboard-response","115","2.1.0","204154","F=YES, J=NO","0t2tgroffu","0","85","85","85","","","","","","","","","","","","","","","",""
"null","<p style=""font-size: 50px;"">+</p>","null","html-keyboard-response","116","2.1.0","204461","F=YES, J=NO","0t2tgroffu","0","85","85","85","","","","","","","","","","","","","","","",""
"null","audio/beep-329314.mp3","null","audio-keyboard-response","117","2.1.0","205984","F=YES, J=NO","0t2tgroffu","0","85","85","85","","","","","","","","","","","","","","","",""
"null","audio/battle1.wav","null","audio-keyboard-response","118","2.1.0","206485","F=YES, J=NO","0t2tgroffu","0","85","85","85","","","","","","","","","","","","","","","",""
"699","
          <p id=""word"" style=""font-size: 40px;"">boil</p>
          <p style=""font-size: 16px;"">F = YES &nbsp;&nbsp;&nbsp; J = NO</p>
        ","f","html-keyboard-response","119","2.1.0","207185","F=YES, J=NO","0t2tgroffu","0","85","85","85","","","","","","","","","boil","battle1","filler","filler","f","true","",""
"null","<p style=""font-size: 50px;"">+</p>","null","html-keyboard-response","120","2.1.0","207491","F=YES, J=NO","0t2tgroffu","0","85","85","85","","","","","","","","","","","","","","","",""
"null","audio/beep-329314.mp3","null","audio-keyboard-response","121","2.1.0","209025","F=YES, J=NO","0t2tgroffu","0","85","85","85","","","","","","","","","","","","","","","",""
"null","audio/account1.wav","null","audio-keyboard-response","122","2.1.0","209705","F=YES, J=NO","0t2tgroffu","0","85","85","85","","","","","","","","","","","","","","","",""
"585","
          <p id=""word"" style=""font-size: 40px;"">paint</p>
          <p style=""font-size: 16px;"">F = YES &nbsp;&nbsp;&nbsp; J = NO</p>
        ","f","html-keyboard-response","123","2.1.0","210292","F=YES, J=NO","0t2tgroffu","0","85","85","85","","","","","","","","","paint","account1","filler","filler","f","true","",""
"null","<p style=""font-size: 50px;"">+</p>","null","html-keyboard-response","124","2.1.0","210600","F=YES, J=NO","0t2tgroffu","0","85","85","85","","","","","","","","","","","","","","","",""
"null","audio/beep-329314.mp3","null","audio-keyboard-response","125","2.1.0","212125","F=YES, J=NO","0t2tgroffu","0","85","85","85","","","","","","","","","","","","","","","",""
"null","audio/golf1.wav","null","audio-keyboard-response","126","2.1.0","212725","F=YES, J=NO","0t2tgroffu","0","85","85","85","","","","","","","","","","","","","","","",""
"646","
          <p id=""word"" style=""font-size: 40px;"">drabble</p>
          <p style=""font-size: 16px;"">F = YES &nbsp;&nbsp;&nbsp; J = NO</p>
        ","j","html-keyboard-response","127","2.1.0","213372","F=YES, J=NO","0t2tgroffu","0","85","85","85","","","","","","","","","drabble","golf1","pseudoword","pseudoword","j","true","",""
"null","<p style=""font-size: 50px;"">+</p>","null","html-keyboard-response","128","2.1.0","213680","F=YES, J=NO","0t2tgroffu","0","85","85","85","","","","","","","","","","","","","","","",""
"null","audio/beep-329314.mp3","null","audio-keyboard-response","129","2.1.0","215205","F=YES, J=NO","0t2tgroffu","0","85","85","85","","","","","","","","","","","","","","","",""
"null","audio/flaw.wav","null","audio-keyboard-response","130","2.1.0","215965","F=YES, J=NO","0t2tgroffu","0","85","85","85","","","","","","","","","","","","","","","",""
"550","
          <p id=""word"" style=""font-size: 40px;"">thwool</p>
          <p style=""font-size: 16px;"">F = YES &nbsp;&nbsp;&nbsp; J = NO</p>
        ","j","html-keyboard-response","131","2.1.0","216516","F=YES, J=NO","0t2tgroffu","0","85","85","85","","","","","","","","","thwool","flaw","pseudoword","pseudoword","j","true","",""
"null","<p style=""font-size: 50px;"">+</p>","null","html-keyboard-response","132","2.1.0","216825","F=YES, J=NO","0t2tgroffu","0","85","85","85","","","","","","","","","","","","","","","",""
"null","audio/beep-329314.mp3","null","audio-keyboard-response","133","2.1.0","218365","F=YES, J=NO","0t2tgroffu","0","85","85","85","","","","","","","","","","","","","","","",""
"null","audio/corpse1.wav","null","audio-keyboard-response","134","2.1.0","219124","F=YES, J=NO","0t2tgroffu","0","85","85","85","","","","","","","","","","","","","","","",""
"694","
          <p id=""word"" style=""font-size: 40px;"">glonet</p>
          <p style=""font-size: 16px;"">F = YES &nbsp;&nbsp;&nbsp; J = NO</p>
        ","j","html-keyboard-response","135","2.1.0","219819","F=YES, J=NO","0t2tgroffu","0","85","85","85","","","","","","","","","glonet","corpse1","pseudoword","pseudoword","j","true","",""
"null","<p style=""font-size: 50px;"">+</p>","null","html-keyboard-response","136","2.1.0","220127","F=YES, J=NO","0t2tgroffu","0","85","85","85","","","","","","","","","","","","","","","",""
"null","audio/beep-329314.mp3","null","audio-keyboard-response","137","2.1.0","221664","F=YES, J=NO","0t2tgroffu","0","85","85","85","","","","","","","","","","","","","","","",""
"null","audio/gift1.wav","null","audio-keyboard-response","138","2.1.0","222245","F=YES, J=NO","0t2tgroffu","0","85","85","85","","","","","","","","","","","","","","","",""
"659","
          <p id=""word"" style=""font-size: 40px;"">protsh</p>
          <p style=""font-size: 16px;"">F = YES &nbsp;&nbsp;&nbsp; J = NO</p>
        ","j","html-keyboard-response","139","2.1.0","222905","F=YES, J=NO","0t2tgroffu","0","85","85","85","","","","","","","","","protsh","gift1","pseudoword","pseudoword","j","true","",""
"null","<p style=""font-size: 50px;"">+</p>","null","html-keyboard-response","140","2.1.0","223221","F=YES, J=NO","0t2tgroffu","0","85","85","85","","","","","","","","","","","","","","","",""
"null","audio/beep-329314.mp3","null","audio-keyboard-response","141","2.1.0","224745","F=YES, J=NO","0t2tgroffu","0","85","85","85","","","","","","","","","","","","","","","",""
"null","audio/floor.wav","null","audio-keyboard-response","142","2.1.0","225425","F=YES, J=NO","0t2tgroffu","0","85","85","85","","","","","","","","","","","","","","","",""
"622","
          <p id=""word"" style=""font-size: 40px;"">mop</p>
          <p style=""font-size: 16px;"">F = YES &nbsp;&nbsp;&nbsp; J = NO</p>
        ","f","html-keyboard-response","143","2.1.0","226048","F=YES, J=NO","0t2tgroffu","0","85","85","85","","","","","","","","","mop","floor","filler","filler","f","true","",""
"null","<p style=""font-size: 50px;"">+</p>","null","html-keyboard-response","144","2.1.0","226353","F=YES, J=NO","0t2tgroffu","0","85","85","85","","","","","","","","","","","","","","","",""
"null","audio/beep-329314.mp3","null","audio-keyboard-response","145","2.1.0","227884","F=YES, J=NO","0t2tgroffu","0","85","85","85","","","","","","","","","","","","","","","",""
"null","audio/trust.wav","null","audio-keyboard-response","146","2.1.0","228645","F=YES, J=NO","0t2tgroffu","0","85","85","85","","","","","","","","","","","","","","","",""
"683","
          <p id=""word"" style=""font-size: 40px;"">swint</p>
          <p style=""font-size: 16px;"">F = YES &nbsp;&nbsp;&nbsp; J = NO</p>
        ","j","html-keyboard-response","147","2.1.0","229329","F=YES, J=NO","0t2tgroffu","0","85","85","85","","","","","","","","","swint","trust","pseudoword","pseudoword","j","true","",""
"null","<p style=""font-size: 50px;"">+</p>","null","html-keyboard-response","148","2.1.0","229642","F=YES, J=NO","0t2tgroffu","0","85","85","85","","","","","","","","","","","","","","","",""
"null","audio/beep-329314.mp3","null","audio-keyboard-response","149","2.1.0","231185","F=YES, J=NO","0t2tgroffu","0","85","85","85","","","","","","","","","","","","","","","",""
"null","audio/beach1.wav","null","audio-keyboard-response","150","2.1.0","231925","F=YES, J=NO","0t2tgroffu","0","85","85","85","","","","","","","","","","","","","","","",""
"530","
          <p id=""word"" style=""font-size: 40px;"">drive</p>
          <p style=""font-size: 16px;"">F = YES &nbsp;&nbsp;&nbsp; J = NO</p>
        ","f","html-keyboard-response","151","2.1.0","232457","F=YES, J=NO","0t2tgroffu","0","85","85","85","","","","","","","","","drive","beach1","filler","filler","f","true","",""
"null","<p style=""font-size: 50px;"">+</p>","null","html-keyboard-response","152","2.1.0","232772","F=YES, J=NO","0t2tgroffu","0","85","85","85","","","","","","","","","","","","","","","",""
"null","audio/beep-329314.mp3","null","audio-keyboard-response","153","2.1.0","234305","F=YES, J=NO","0t2tgroffu","0","85","85","85","","","","","","","","","","","","","","","",""
"null","audio/novel.wav","null","audio-keyboard-response","154","2.1.0","234924","F=YES, J=NO","0t2tgroffu","0","85","85","85","","","","","","","","","","","","","","","",""
"630","
          <p id=""word"" style=""font-size: 40px;"">type</p>
          <p style=""font-size: 16px;"">F = YES &nbsp;&nbsp;&nbsp; J = NO</p>
        ","f","html-keyboard-response","155","2.1.0","235555","F=YES, J=NO","0t2tgroffu","0","85","85","85","","","","","","","","","type","novel","filler","filler","f","true","",""
"null","<p style=""font-size: 50px;"">+</p>","null","html-keyboard-response","156","2.1.0","235870","F=YES, J=NO","0t2tgroffu","0","85","85","85","","","","","","","","","","","","","","","",""
"null","audio/beep-329314.mp3","null","audio-keyboard-response","157","2.1.0","237405","F=YES, J=NO","0t2tgroffu","0","85","85","85","","","","","","","","","","","","","","","",""
"null","audio/bottle.wav","null","audio-keyboard-response","158","2.1.0","238025","F=YES, J=NO","0t2tgroffu","0","85","85","85","","","","","","","","","","","","","","","",""
"533","
          <p id=""word"" style=""font-size: 40px;"">watch</p>
          <p style=""font-size: 16px;"">F = YES &nbsp;&nbsp;&nbsp; J = NO</p>
        ","f","html-keyboard-response","159","2.1.0","238558","F=YES, J=NO","0t2tgroffu","0","85","85","85","","","","","","","","","watch","bottle","filler","filler","f","true","",""
"null","<p style=""font-size: 50px;"">+</p>","null","html-keyboard-response","160","2.1.0","238872","F=YES, J=NO","0t2tgroffu","0","85","85","85","","","","","","","","","","","","","","","",""
"null","audio/beep-329314.mp3","null","audio-keyboard-response","161","2.1.0","240405","F=YES, J=NO","0t2tgroffu","0","85","85","85","","","","","","","","","","","","","","","",""
"null","audio/cancer1.wav","null","audio-keyboard-response","162","2.1.0","241085","F=YES, J=NO","0t2tgroffu","0","85","85","85","","","","","","","","","","","","","","","",""
"529","
          <p id=""word"" style=""font-size: 40px;"">draw</p>
          <p style=""font-size: 16px;"">F = YES &nbsp;&nbsp;&nbsp; J = NO</p>
        ","f","html-keyboard-response","163","2.1.0","241616","F=YES, J=NO","0t2tgroffu","0","85","85","85","","","","","","","","","draw","cancer1","filler","filler","f","true","",""
"10493","
    <div style=""max-width: 800px; margin: auto; text-align: left;"">
      <h2>Part 2: Main Trials</h2>
      <p>Great job on the practice trials!</p>
      <p>You will now begin the <strong>main set of trials</strong>.</p>
      <p>Remember your key assignments:</p>
      <ul>
        <li><strong>F</strong> = YES (real English word)</li>
        <li><strong>J</strong> = NO (not a real English word)</li>
      </ul>
      <p>Try to respond as <strong>quickly and accurately</strong> as possible.</p>
      <p style=""margin-top: 2em;"">Press any key to begin the main trials.</p>
    </div>
  "," ","html-keyboard-response","164","2.1.0","252109","F=YES, J=NO","0t2tgroffu","0","85","85","85","","","","","","","","","","","","","","","",""
"2747","<p>Starting main block 1 of 8. Press any key to continue.</p>"," ","html-keyboard-response","165","2.1.0","254857","F=YES, J=NO","0t2tgroffu","0","85","85","85","","","","","","","","","","","","","","","",""
"null","<p style=""font-size: 50px;"">+</p>","null","html-keyboard-response","166","2.1.0","255163","F=YES, J=NO","0t2tgroffu","0","85","85","85","","","","","","","","","","","","","","","",""
"null","audio/beep-329314.mp3","null","audio-keyboard-response","167","2.1.0","256662","F=YES, J=NO","0t2tgroffu","0","85","85","85","","","","","","","","","","","","","","","",""
"null","audio/pine.wav","null","audio-keyboard-response","168","2.1.0","257252","F=YES, J=NO","0t2tgroffu","0","85","85","85","","","","","","","","","","","","","","","",""
"565","
          <p id=""word"" style=""font-size: 40px;"">crebble</p>
          <p style=""font-size: 16px;"">F = YES &nbsp;&nbsp;&nbsp; J = NO</p>
        ","j","html-keyboard-response","169","2.1.0","257818","F=YES, J=NO","0t2tgroffu","0","85","85","85","","","","","","","","","crebble","pine","pseudoword","pseudoword","j","true","",""
"null","<p style=""font-size: 50px;"">+</p>","null","html-keyboard-response","170","2.1.0","258135","F=YES, J=NO","0t2tgroffu","0","85","85","85","","","","","","","","","","","","","","","",""
"null","audio/beep-329314.mp3","null","audio-keyboard-response","171","2.1.0","259662","F=YES, J=NO","0t2tgroffu","0","85","85","85","","","","","","","","","","","","","","","",""
"null","audio/tunnel.wav","null","audio-keyboard-response","172","2.1.0","260092","F=YES, J=NO","0t2tgroffu","0","85","85","85","","","","","","","","","","","","","","","",""
"707","
          <p id=""word"" style=""font-size: 40px;"">gred</p>
          <p style=""font-size: 16px;"">F = YES &nbsp;&nbsp;&nbsp; J = NO</p>
        ","j","html-keyboard-response","173","2.1.0","260800","F=YES, J=NO","0t2tgroffu","0","85","85","85","","","","","","","","","gred","tunnel","pseudoword","pseudoword","j","true","",""
"null","<p style=""font-size: 50px;"">+</p>","null","html-keyboard-response","174","2.1.0","261109","F=YES, J=NO","0t2tgroffu","0","85","85","85","","","","","","","","","","","","","","","",""
"null","audio/beep-329314.mp3","null","audio-keyboard-response","175","2.1.0","262642","F=YES, J=NO","0t2tgroffu","0","85","85","85","","","","","","","","","","","","","","","",""
"null","audio/trust.wav","null","audio-keyboard-response","176","2.1.0","263252","F=YES, J=NO","0t2tgroffu","0","85","85","85","","","","","","","","","","","","","","","",""
"507","
          <p id=""word"" style=""font-size: 40px;"">build</p>
          <p style=""font-size: 16px;"">F = YES &nbsp;&nbsp;&nbsp; J = NO</p>
        ","f","html-keyboard-response","177","2.1.0","263761","F=YES, J=NO","0t2tgroffu","0","85","85","85","","","","","","","","","build","trust","metaphor","experimental","f","true","",""
"null","<p style=""font-size: 50px;"">+</p>","null","html-keyboard-response","178","2.1.0","264066","F=YES, J=NO","0t2tgroffu","0","85","85","85","","","","","","","","","","","","","","","",""
"null","audio/beep-329314.mp3","null","audio-keyboard-response","179","2.1.0","265602","F=YES, J=NO","0t2tgroffu","0","85","85","85","","","","","","","","","","","","","","","",""
"null","audio/bishop1.wav","null","audio-keyboard-response","180","2.1.0","266312","F=YES, J=NO","0t2tgroffu","0","85","85","85","","","","","","","","","","","","","","","",""
"532","
          <p id=""word"" style=""font-size: 40px;"">play</p>
          <p style=""font-size: 16px;"">F = YES &nbsp;&nbsp;&nbsp; J = NO</p>
        ","f","html-keyboard-response","181","2.1.0","266845","F=YES, J=NO","0t2tgroffu","0","85","85","85","","","","","","","","","play","bishop1","filler","filler","f","true","",""
"null","<p style=""font-size: 50px;"">+</p>","null","html-keyboard-response","182","2.1.0","267157","F=YES, J=NO","0t2tgroffu","0","85","85","85","","","","","","","","","","","","","","","",""
"null","audio/beep-329314.mp3","null","audio-keyboard-response","183","2.1.0","268682","F=YES, J=NO","0t2tgroffu","0","85","85","85","","","","","","","","","","","","","","","",""
"null","audio/pattern.wav","null","audio-keyboard-response","184","2.1.0","269312","F=YES, J=NO","0t2tgroffu","0","85","85","85","","","","","","","","","","","","","","","",""
"577","
          <p id=""word"" style=""font-size: 40px;"">tug</p>
          <p style=""font-size: 16px;"">F = YES &nbsp;&nbsp;&nbsp; J = NO</p>
        ","j","html-keyboard-response","185","2.1.0","269890","F=YES, J=NO","0t2tgroffu","0","85","85","85","","","","","","","","","tug","pattern","filler","filler","f","false","",""
"null","<p style=""font-size: 50px;"">+</p>","null","html-keyboard-response","186","2.1.0","270199","F=YES, J=NO","0t2tgroffu","0","85","85","85","","","","","","","","","","","","","","","",""
"null","audio/beep-329314.mp3","null","audio-keyboard-response","187","2.1.0","271722","F=YES, J=NO","0t2tgroffu","0","85","85","85","","","","","","","","","","","","","","","",""
"null","audio/ego.wav","null","audio-keyboard-response","188","2.1.0","272392","F=YES, J=NO","0t2tgroffu","0","85","85","85","","","","","","","","","","","","","","","",""
"542","
          <p id=""word"" style=""font-size: 40px;"">feed</p>
          <p style=""font-size: 16px;"">F = YES &nbsp;&nbsp;&nbsp; J = NO</p>
        ","f","html-keyboard-response","189","2.1.0","272935","F=YES, J=NO","0t2tgroffu","0","85","85","85","","","","","","","","","feed","ego","metaphor","experimental","f","true","",""
"null","<p style=""font-size: 50px;"">+</p>","null","html-keyboard-response","190","2.1.0","273239","F=YES, J=NO","0t2tgroffu","0","85","85","85","","","","","","","","","","","","","","","",""
"null","audio/beep-329314.mp3","null","audio-keyboard-response","191","2.1.0","274762","F=YES, J=NO","0t2tgroffu","0","85","85","85","","","","","","","","","","","","","","","",""
"null","audio/grass.wav","null","audio-keyboard-response","192","2.1.0","275532","F=YES, J=NO","0t2tgroffu","0","85","85","85","","","","","","","","","","","","","","","",""
"588","
          <p id=""word"" style=""font-size: 40px;"">milames</p>
          <p style=""font-size: 16px;"">F = YES &nbsp;&nbsp;&nbsp; J = NO</p>
        ","j","html-keyboard-response","193","2.1.0","276121","F=YES, J=NO","0t2tgroffu","0","85","85","85","","","","","","","","","milames","grass","pseudoword","pseudoword","j","true","",""
"null","<p style=""font-size: 50px;"">+</p>","null","html-keyboard-response","194","2.1.0","276436","F=YES, J=NO","0t2tgroffu","0","85","85","85","","","","","","","","","","","","","","","",""
"null","audio/beep-329314.mp3","null","audio-keyboard-response","195","2.1.0","277962","F=YES, J=NO","0t2tgroffu","0","85","85","85","","","","","","","","","","","","","","","",""
"null","audio/cave1.wav","null","audio-keyboard-response","196","2.1.0","278632","F=YES, J=NO","0t2tgroffu","0","85","85","85","","","","","","","","","","","","","","","",""
"727","
          <p id=""word"" style=""font-size: 40px;"">blacket</p>
          <p style=""font-size: 16px;"">F = YES &nbsp;&nbsp;&nbsp; J = NO</p>
        ","j","html-keyboard-response","197","2.1.0","279360","F=YES, J=NO","0t2tgroffu","0","85","85","85","","","","","","","","","blacket","cave1","pseudoword","pseudoword","j","true","",""
"null","<p style=""font-size: 50px;"">+</p>","null","html-keyboard-response","198","2.1.0","279669","F=YES, J=NO","0t2tgroffu","0","85","85","85","","","","","","","","","","","","","","","",""
"null","audio/beep-329314.mp3","null","audio-keyboard-response","199","2.1.0","281202","F=YES, J=NO","0t2tgroffu","0","85","85","85","","","","","","","","","","","","","","","",""
"null","audio/roof1.wav","null","audio-keyboard-response","200","2.1.0","281871","F=YES, J=NO","0t2tgroffu","0","85","85","85","","","","","","","","","","","","","","","",""
"606","
          <p id=""word"" style=""font-size: 40px;"">wronb</p>
          <p style=""font-size: 16px;"">F = YES &nbsp;&nbsp;&nbsp; J = NO</p>
        ","j","html-keyboard-response","201","2.1.0","282478","F=YES, J=NO","0t2tgroffu","0","85","85","85","","","","","","","","","wronb","roof1","pseudoword","pseudoword","j","true","",""
"null","<p style=""font-size: 50px;"">+</p>","null","html-keyboard-response","202","2.1.0","282785","F=YES, J=NO","0t2tgroffu","0","85","85","85","","","","","","","","","","","","","","","",""
"null","audio/beep-329314.mp3","null","audio-keyboard-response","203","2.1.0","284323","F=YES, J=NO","0t2tgroffu","0","85","85","85","","","","","","","","","","","","","","","",""
"null","audio/pattern.wav","null","audio-keyboard-response","204","2.1.0","284812","F=YES, J=NO","0t2tgroffu","0","85","85","85","","","","","","","","","","","","","","","",""
"498","
          <p id=""word"" style=""font-size: 40px;"">defeat</p>
          <p style=""font-size: 16px;"">F = YES &nbsp;&nbsp;&nbsp; J = NO</p>
        ","f","html-keyboard-response","205","2.1.0","285312","F=YES, J=NO","0t2tgroffu","0","85","85","85","","","","","","","","","defeat","pattern","unrelated","experimental","f","true","",""
"null","<p style=""font-size: 50px;"">+</p>","null","html-keyboard-response","206","2.1.0","285626","F=YES, J=NO","0t2tgroffu","0","85","85","85","","","","","","","","","","","","","","","",""
"null","audio/beep-329314.mp3","null","audio-keyboard-response","207","2.1.0","287161","F=YES, J=NO","0t2tgroffu","0","85","85","85","","","","","","","","","","","","","","","",""
"null","audio/breath.wav","null","audio-keyboard-response","208","2.1.0","287872","F=YES, J=NO","0t2tgroffu","0","85","85","85","","","","","","","","","","","","","","","",""
"509","
          <p id=""word"" style=""font-size: 40px;"">construct</p>
          <p style=""font-size: 16px;"">F = YES &nbsp;&nbsp;&nbsp; J = NO</p>
        ","f","html-keyboard-response","209","2.1.0","288383","F=YES, J=NO","0t2tgroffu","0","85","85","85","","","","","","","","","construct","breath","unrelated","experimental","f","true","",""
"null","<p style=""font-size: 50px;"">+</p>","null","html-keyboard-response","210","2.1.0","288694","F=YES, J=NO","0t2tgroffu","0","85","85","85","","","","","","","","","","","","","","","",""
"null","audio/beep-329314.mp3","null","audio-keyboard-response","211","2.1.0","290222","F=YES, J=NO","0t2tgroffu","0","85","85","85","","","","","","","","","","","","","","","",""
"null","audio/dome.wav","null","audio-keyboard-response","212","2.1.0","290652","F=YES, J=NO","0t2tgroffu","0","85","85","85","","","","","","","","","","","","","","","",""
"612","
          <p id=""word"" style=""font-size: 40px;"">scrupliness</p>
          <p style=""font-size: 16px;"">F = YES &nbsp;&nbsp;&nbsp; J = NO</p>
        ","j","html-keyboard-response","213","2.1.0","291264","F=YES, J=NO","0t2tgroffu","0","85","85","85","","","","","","","","","scrupliness","dome","pseudoword","pseudoword","j","true","",""
"null","<p style=""font-size: 50px;"">+</p>","null","html-keyboard-response","214","2.1.0","291578","F=YES, J=NO","0t2tgroffu","0","85","85","85","","","","","","","","","","","","","","","",""
"null","audio/beep-329314.mp3","null","audio-keyboard-response","215","2.1.0","293102","F=YES, J=NO","0t2tgroffu","0","85","85","85","","","","","","","","","","","","","","","",""
"null","audio/truth1.wav","null","audio-keyboard-response","216","2.1.0","293772","F=YES, J=NO","0t2tgroffu","0","85","85","85","","","","","","","","","","","","","","","",""
"590","
          <p id=""word"" style=""font-size: 40px;"">calitom</p>
          <p style=""font-size: 16px;"">F = YES &nbsp;&nbsp;&nbsp; J = NO</p>
        ","j","html-keyboard-response","217","2.1.0","294364","F=YES, J=NO","0t2tgroffu","0","85","85","85","","","","","","","","","calitom","truth1","pseudoword","pseudoword","j","true","",""
"null","<p style=""font-size: 50px;"">+</p>","null","html-keyboard-response","218","2.1.0","294669","F=YES, J=NO","0t2tgroffu","0","85","85","85","","","","","","","","","","","","","","","",""
"null","audio/beep-329314.mp3","null","audio-keyboard-response","219","2.1.0","296202","F=YES, J=NO","0t2tgroffu","0","85","85","85","","","","","","","","","","","","","","","",""
"null","audio/radio1.wav","null","audio-keyboard-response","220","2.1.0","296912","F=YES, J=NO","0t2tgroffu","0","85","85","85","","","","","","","","","","","","","","","",""
"830","
          <p id=""word"" style=""font-size: 40px;"">blanter</p>
          <p style=""font-size: 16px;"">F = YES &nbsp;&nbsp;&nbsp; J = NO</p>
        ","j","html-keyboard-response","221","2.1.0","297743","F=YES, J=NO","0t2tgroffu","0","85","85","85","","","","","","","","","blanter","radio1","pseudoword","pseudoword","j","true","",""
"null","<p style=""font-size: 50px;"">+</p>","null","html-keyboard-response","222","2.1.0","298051","F=YES, J=NO","0t2tgroffu","0","85","85","85","","","","","","","","","","","","","","","",""
"null","audio/beep-329314.mp3","null","audio-keyboard-response","223","2.1.0","299582","F=YES, J=NO","0t2tgroffu","0","85","85","85","","","","","","","","","","","","","","","",""
"null","audio/rain.wav","null","audio-keyboard-response","224","2.1.0","300051","F=YES, J=NO","0t2tgroffu","0","85","85","85","","","","","","","","","","","","","","","",""
"582","
          <p id=""word"" style=""font-size: 40px;"">lose</p>
          <p style=""font-size: 16px;"">F = YES &nbsp;&nbsp;&nbsp; J = NO</p>
        ","f","html-keyboard-response","225","2.1.0","300635","F=YES, J=NO","0t2tgroffu","0","85","85","85","","","","","","","","","lose","rain","unrelated","experimental","f","true","",""
"null","<p style=""font-size: 50px;"">+</p>","null","html-keyboard-response","226","2.1.0","300948","F=YES, J=NO","0t2tgroffu","0","85","85","85","","","","","","","","","","","","","","","",""
"null","audio/beep-329314.mp3","null","audio-keyboard-response","227","2.1.0","302482","F=YES, J=NO","0t2tgroffu","0","85","85","85","","","","","","","","","","","","","","","",""
"null","audio/age1.wav","null","audio-keyboard-response","228","2.1.0","303152","F=YES, J=NO","0t2tgroffu","0","85","85","85","","","","","","","","","","","","","","","",""
"636","
          <p id=""word"" style=""font-size: 40px;"">lachry</p>
          <p style=""font-size: 16px;"">F = YES &nbsp;&nbsp;&nbsp; J = NO</p>
        ","j","html-keyboard-response","229","2.1.0","303790","F=YES, J=NO","0t2tgroffu","0","85","85","85","","","","","","","","","lachry","age1","pseudoword","pseudoword","j","true","",""
"5228","<p>Excellent! You have finished block 1 of 8.</p>
                     <p>Feel free to take a 30 second break.</p>
                     <p>Press any key when you're ready to continue.</p>"," ","html-keyboard-response","230","2.1.0","309019","F=YES, J=NO","0t2tgroffu","0","85","85","85","","","","","","","","","","","","","","","",""
"779","<p>Starting main block 2 of 8. Press any key to continue.</p>"," ","html-keyboard-response","231","2.1.0","309799","F=YES, J=NO","0t2tgroffu","0","85","85","85","","","","","","","","","","","","","","","",""
"null","<p style=""font-size: 50px;"">+</p>","null","html-keyboard-response","232","2.1.0","310116","F=YES, J=NO","0t2tgroffu","0","85","85","85","","","","","","","","","","","","","","","",""
"null","audio/beep-329314.mp3","null","audio-keyboard-response","233","2.1.0","311642","F=YES, J=NO","0t2tgroffu","0","85","85","85","","","","","","","","","","","","","","","",""
"null","audio/alarm1.wav","null","audio-keyboard-response","234","2.1.0","312352","F=YES, J=NO","0t2tgroffu","0","85","85","85","","","","","","","","","","","","","","","",""
"555","
          <p id=""word"" style=""font-size: 40px;"">swetp</p>
          <p style=""font-size: 16px;"">F = YES &nbsp;&nbsp;&nbsp; J = NO</p>
        ","j","html-keyboard-response","235","2.1.0","312909","F=YES, J=NO","0t2tgroffu","0","85","85","85","","","","","","","","","swetp","alarm1","pseudoword","pseudoword","j","true","",""
"null","<p style=""font-size: 50px;"">+</p>","null","html-keyboard-response","236","2.1.0","313223","F=YES, J=NO","0t2tgroffu","0","85","85","85","","","","","","","","","","","","","","","",""
"null","audio/beep-329314.mp3","null","audio-keyboard-response","237","2.1.0","314761","F=YES, J=NO","0t2tgroffu","0","85","85","85","","","","","","","","","","","","","","","",""
"null","audio/kettle1.wav","null","audio-keyboard-response","238","2.1.0","315352","F=YES, J=NO","0t2tgroffu","0","85","85","85","","","","","","","","","","","","","","","",""
"546","
          <p id=""word"" style=""font-size: 40px;"">navigate</p>
          <p style=""font-size: 16px;"">F = YES &nbsp;&nbsp;&nbsp; J = NO</p>
        ","f","html-keyboard-response","239","2.1.0","315899","F=YES, J=NO","0t2tgroffu","0","85","85","85","","","","","","","","","navigate","kettle1","unrelated","experimental","f","true","",""
"null","<p style=""font-size: 50px;"">+</p>","null","html-keyboard-response","240","2.1.0","316215","F=YES, J=NO","0t2tgroffu","0","85","85","85","","","","","","","","","","","","","","","",""
"null","audio/beep-329314.mp3","null","audio-keyboard-response","241","2.1.0","317742","F=YES, J=NO","0t2tgroffu","0","85","85","85","","","","","","","","","","","","","","","",""
"null","audio/effort.wav","null","audio-keyboard-response","242","2.1.0","318472","F=YES, J=NO","0t2tgroffu","0","85","85","85","","","","","","","","","","","","","","","",""
"549","
          <p id=""word"" style=""font-size: 40px;"">whonk</p>
          <p style=""font-size: 16px;"">F = YES &nbsp;&nbsp;&nbsp; J = NO</p>
        ","j","html-keyboard-response","243","2.1.0","319022","F=YES, J=NO","0t2tgroffu","0","85","85","85","","","","","","","","","whonk","effort","pseudoword","pseudoword","j","true","",""
"null","<p style=""font-size: 50px;"">+</p>","null","html-keyboard-response","244","2.1.0","319333","F=YES, J=NO","0t2tgroffu","0","85","85","85","","","","","","","","","","","","","","","",""
"null","audio/beep-329314.mp3","null","audio-keyboard-response","245","2.1.0","320862","F=YES, J=NO","0t2tgroffu","0","85","85","85","","","","","","","","","","","","","","","",""
"null","audio/storm1.wav","null","audio-keyboard-response","246","2.1.0","321592","F=YES, J=NO","0t2tgroffu","0","85","85","85","","","","","","","","","","","","","","","",""
"536","
          <p id=""word"" style=""font-size: 40px;"">climb</p>
          <p style=""font-size: 16px;"">F = YES &nbsp;&nbsp;&nbsp; J = NO</p>
        ","f","html-keyboard-response","247","2.1.0","322130","F=YES, J=NO","0t2tgroffu","0","85","85","85","","","","","","","","","climb","storm1","unrelated","experimental","f","true","",""
"null","<p style=""font-size: 50px;"">+</p>","null","html-keyboard-response","248","2.1.0","322434","F=YES, J=NO","0t2tgroffu","0","85","85","85","","","","","","","","","","","","","","","",""
"null","audio/beep-329314.mp3","null","audio-keyboard-response","249","2.1.0","323961","F=YES, J=NO","0t2tgroffu","0","85","85","85","","","","","","","","","","","","","","","",""
"null","audio/scar.wav","null","audio-keyboard-response","250","2.1.0","324672","F=YES, J=NO","0t2tgroffu","0","85","85","85","","","","","","","","","","","","","","","",""
"604","
          <p id=""word"" style=""font-size: 40px;"">adelineate</p>
          <p style=""font-size: 16px;"">F = YES &nbsp;&nbsp;&nbsp; J = NO</p>
        ","j","html-keyboard-response","251","2.1.0","325277","F=YES, J=NO","0t2tgroffu","0","85","85","85","","","","","","","","","adelineate","scar","pseudoword","pseudoword","j","true","",""
"null","<p style=""font-size: 50px;"">+</p>","null","html-keyboard-response","252","2.1.0","325583","F=YES, J=NO","0t2tgroffu","0","85","85","85","","","","","","","","","","","","","","","",""
"null","audio/beep-329314.mp3","null","audio-keyboard-response","253","2.1.0","327121","F=YES, J=NO","0t2tgroffu","0","85","85","85","","","","","","","","","","","","","","","",""
"null","audio/truth1.wav","null","audio-keyboard-response","254","2.1.0","327651","F=YES, J=NO","0t2tgroffu","0","85","85","85","","","","","","","","","","","","","","","",""
"510","
          <p id=""word"" style=""font-size: 40px;"">expose</p>
          <p style=""font-size: 16px;"">F = YES &nbsp;&nbsp;&nbsp; J = NO</p>
        ","f","html-keyboard-response","255","2.1.0","328162","F=YES, J=NO","0t2tgroffu","0","85","85","85","","","","","","","","","expose","truth1","metaphor","experimental","f","true","",""
"null","<p style=""font-size: 50px;"">+</p>","null","html-keyboard-response","256","2.1.0","328473","F=YES, J=NO","0t2tgroffu","0","85","85","85","","","","","","","","","","","","","","","",""
"null","audio/beep-329314.mp3","null","audio-keyboard-response","257","2.1.0","330002","F=YES, J=NO","0t2tgroffu","0","85","85","85","","","","","","","","","","","","","","","",""
"null","audio/bomb1.wav","null","audio-keyboard-response","258","2.1.0","330372","F=YES, J=NO","0t2tgroffu","0","85","85","85","","","","","","","","","","","","","","","",""
"653","
          <p id=""word"" style=""font-size: 40px;"">drop</p>
          <p style=""font-size: 16px;"">F = YES &nbsp;&nbsp;&nbsp; J = NO</p>
        ","f","html-keyboard-response","259","2.1.0","331026","F=YES, J=NO","0t2tgroffu","0","85","85","85","","","","","","","","","drop","bomb1","literal","experimental","f","true","",""
"null","<p style=""font-size: 50px;"">+</p>","null","html-keyboard-response","260","2.1.0","331336","F=YES, J=NO","0t2tgroffu","0","85","85","85","","","","","","","","","","","","","","","",""
"null","audio/beep-329314.mp3","null","audio-keyboard-response","261","2.1.0","332862","F=YES, J=NO","0t2tgroffu","0","85","85","85","","","","","","","","","","","","","","","",""
"null","audio/heart1.wav","null","audio-keyboard-response","262","2.1.0","333472","F=YES, J=NO","0t2tgroffu","0","85","85","85","","","","","","","","","","","","","","","",""
"502","
          <p id=""word"" style=""font-size: 40px;"">touch</p>
          <p style=""font-size: 16px;"">F = YES &nbsp;&nbsp;&nbsp; J = NO</p>
        ","f","html-keyboard-response","263","2.1.0","333975","F=YES, J=NO","0t2tgroffu","0","85","85","85","","","","","","","","","touch","heart1","metaphor","experimental","f","true","",""
"null","<p style=""font-size: 50px;"">+</p>","null","html-keyboard-response","264","2.1.0","334279","F=YES, J=NO","0t2tgroffu","0","85","85","85","","","","","","","","","","","","","","","",""
"null","audio/beep-329314.mp3","null","audio-keyboard-response","265","2.1.0","335803","F=YES, J=NO","0t2tgroffu","0","85","85","85","","","","","","","","","","","","","","","",""
"null","audio/birth1.wav","null","audio-keyboard-response","266","2.1.0","336472","F=YES, J=NO","0t2tgroffu","0","85","85","85","","","","","","","","","","","","","","","",""
"641","
          <p id=""word"" style=""font-size: 40px;"">peel</p>
          <p style=""font-size: 16px;"">F = YES &nbsp;&nbsp;&nbsp; J = NO</p>
        ","f","html-keyboard-response","267","2.1.0","337115","F=YES, J=NO","0t2tgroffu","0","85","85","85","","","","","","","","","peel","birth1","filler","filler","f","true","",""
"null","<p style=""font-size: 50px;"">+</p>","null","html-keyboard-response","268","2.1.0","337431","F=YES, J=NO","0t2tgroffu","0","85","85","85","","","","","","","","","","","","","","","",""
"null","audio/beep-329314.mp3","null","audio-keyboard-response","269","2.1.0","338962","F=YES, J=NO","0t2tgroffu","0","85","85","85","","","","","","","","","","","","","","","",""
"null","audio/weight1.wav","null","audio-keyboard-response","270","2.1.0","339612","F=YES, J=NO","0t2tgroffu","0","85","85","85","","","","","","","","","","","","","","","",""
"578","
          <p id=""word"" style=""font-size: 40px;"">crimsh</p>
          <p style=""font-size: 16px;"">F = YES &nbsp;&nbsp;&nbsp; J = NO</p>
        ","j","html-keyboard-response","271","2.1.0","340192","F=YES, J=NO","0t2tgroffu","0","85","85","85","","","","","","","","","crimsh","weight1","pseudoword","pseudoword","j","true","",""
"null","<p style=""font-size: 50px;"">+</p>","null","html-keyboard-response","272","2.1.0","340500","F=YES, J=NO","0t2tgroffu","0","85","85","85","","","","","","","","","","","","","","","",""
"null","audio/beep-329314.mp3","null","audio-keyboard-response","273","2.1.0","342022","F=YES, J=NO","0t2tgroffu","0","85","85","85","","","","","","","","","","","","","","","",""
"null","audio/budget1.wav","null","audio-keyboard-response","274","2.1.0","342652","F=YES, J=NO","0t2tgroffu","0","85","85","85","","","","","","","","","","","","","","","",""
"592","
          <p id=""word"" style=""font-size: 40px;"">sulist</p>
          <p style=""font-size: 16px;"">F = YES &nbsp;&nbsp;&nbsp; J = NO</p>
        ","j","html-keyboard-response","275","2.1.0","343244","F=YES, J=NO","0t2tgroffu","0","85","85","85","","","","","","","","","sulist","budget1","pseudoword","pseudoword","j","true","",""
"null","<p style=""font-size: 50px;"">+</p>","null","html-keyboard-response","276","2.1.0","343560","F=YES, J=NO","0t2tgroffu","0","85","85","85","","","","","","","","","","","","","","","",""
"null","audio/beep-329314.mp3","null","audio-keyboard-response","277","2.1.0","345082","F=YES, J=NO","0t2tgroffu","0","85","85","85","","","","","","","","","","","","","","","",""
"null","audio/belief.wav","null","audio-keyboard-response","278","2.1.0","345712","F=YES, J=NO","0t2tgroffu","0","85","85","85","","","","","","","","","","","","","","","",""
"546","
          <p id=""word"" style=""font-size: 40px;"">read</p>
          <p style=""font-size: 16px;"">F = YES &nbsp;&nbsp;&nbsp; J = NO</p>
        ","f","html-keyboard-response","279","2.1.0","346259","F=YES, J=NO","0t2tgroffu","0","85","85","85","","","","","","","","","read","belief","filler","filler","f","true","",""
"null","<p style=""font-size: 50px;"">+</p>","null","html-keyboard-response","280","2.1.0","346575","F=YES, J=NO","0t2tgroffu","0","85","85","85","","","","","","","","","","","","","","","",""
"null","audio/beep-329314.mp3","null","audio-keyboard-response","281","2.1.0","348102","F=YES, J=NO","0t2tgroffu","0","85","85","85","","","","","","","","","","","","","","","",""
"null","audio/hotel1.wav","null","audio-keyboard-response","282","2.1.0","348852","F=YES, J=NO","0t2tgroffu","0","85","85","85","","","","","","","","","","","","","","","",""
"645","
          <p id=""word"" style=""font-size: 40px;"">flanter</p>
          <p style=""font-size: 16px;"">F = YES &nbsp;&nbsp;&nbsp; J = NO</p>
        ","j","html-keyboard-response","283","2.1.0","349499","F=YES, J=NO","0t2tgroffu","0","85","85","85","","","","","","","","","flanter","hotel1","pseudoword","pseudoword","j","true","",""
"null","<p style=""font-size: 50px;"">+</p>","null","html-keyboard-response","284","2.1.0","349804","F=YES, J=NO","0t2tgroffu","0","85","85","85","","","","","","","","","","","","","","","",""
"null","audio/beep-329314.mp3","null","audio-keyboard-response","285","2.1.0","351343","F=YES, J=NO","0t2tgroffu","0","85","85","85","","","","","","","","","","","","","","","",""
"null","audio/topic.wav","null","audio-keyboard-response","286","2.1.0","352032","F=YES, J=NO","0t2tgroffu","0","85","85","85","","","","","","","","","","","","","","","",""
"570","
          <p id=""word"" style=""font-size: 40px;"">infortuitist</p>
          <p style=""font-size: 16px;"">F = YES &nbsp;&nbsp;&nbsp; J = NO</p>
        ","j","html-keyboard-response","287","2.1.0","352603","F=YES, J=NO","0t2tgroffu","0","85","85","85","","","","","","","","","infortuitist","topic","pseudoword","pseudoword","j","true","",""
"null","<p style=""font-size: 50px;"">+</p>","null","html-keyboard-response","288","2.1.0","352917","F=YES, J=NO","0t2tgroffu","0","85","85","85","","","","","","","","","","","","","","","",""
"null","audio/beep-329314.mp3","null","audio-keyboard-response","289","2.1.0","354443","F=YES, J=NO","0t2tgroffu","0","85","85","85","","","","","","","","","","","","","","","",""
"null","audio/holiday1.wav","null","audio-keyboard-response","290","2.1.0","355192","F=YES, J=NO","0t2tgroffu","0","85","85","85","","","","","","","","","","","","","","","",""
"621","
          <p id=""word"" style=""font-size: 40px;"">drivets</p>
          <p style=""font-size: 16px;"">F = YES &nbsp;&nbsp;&nbsp; J = NO</p>
        ","j","html-keyboard-response","291","2.1.0","355814","F=YES, J=NO","0t2tgroffu","0","85","85","85","","","","","","","","","drivets","holiday1","pseudoword","pseudoword","j","true","",""
"null","<p style=""font-size: 50px;"">+</p>","null","html-keyboard-response","292","2.1.0","356130","F=YES, J=NO","0t2tgroffu","0","85","85","85","","","","","","","","","","","","","","","",""
"null","audio/beep-329314.mp3","null","audio-keyboard-response","293","2.1.0","357662","F=YES, J=NO","0t2tgroffu","0","85","85","85","","","","","","","","","","","","","","","",""
"null","audio/mouth1.wav","null","audio-keyboard-response","294","2.1.0","358252","F=YES, J=NO","0t2tgroffu","0","85","85","85","","","","","","","","","","","","","","","",""
"539","
          <p id=""word"" style=""font-size: 40px;"">spolial</p>
          <p style=""font-size: 16px;"">F = YES &nbsp;&nbsp;&nbsp; J = NO</p>
        ","j","html-keyboard-response","295","2.1.0","358793","F=YES, J=NO","0t2tgroffu","0","85","85","85","","","","","","","","","spolial","mouth1","pseudoword","pseudoword","j","true","",""
"8680","<p>Excellent! You have finished block 2 of 8.</p>
                     <p>Feel free to take a 30 second break.</p>
                     <p>Press any key when you're ready to continue.</p>"," ","html-keyboard-response","296","2.1.0","367475","F=YES, J=NO","0t2tgroffu","0","85","85","85","","","","","","","","","","","","","","","",""
"920","<p>Starting main block 3 of 8. Press any key to continue.</p>","ArrowLeft","html-keyboard-response","297","2.1.0","368396","F=YES, J=NO","0t2tgroffu","0","85","85","85","","","","","","","","","","","","","","","",""
"null","<p style=""font-size: 50px;"">+</p>","null","html-keyboard-response","298","2.1.0","368707","F=YES, J=NO","0t2tgroffu","0","85","85","85","","","","","","","","","","","","","","","",""
"null","audio/beep-329314.mp3","null","audio-keyboard-response","299","2.1.0","370207","F=YES, J=NO","0t2tgroffu","0","85","85","85","","","","","","","","","","","","","","","",""
"null","audio/winter.wav","null","audio-keyboard-response","300","2.1.0","370886","F=YES, J=NO","0t2tgroffu","0","85","85","85","","","","","","","","","","","","","","","",""
"577","
          <p id=""word"" style=""font-size: 40px;"">straven</p>
          <p style=""font-size: 16px;"">F = YES &nbsp;&nbsp;&nbsp; J = NO</p>
        ","j","html-keyboard-response","301","2.1.0","371464","F=YES, J=NO","0t2tgroffu","0","85","85","85","","","","","","","","","straven","winter","pseudoword","pseudoword","j","true","",""
"null","<p style=""font-size: 50px;"">+</p>","null","html-keyboard-response","302","2.1.0","371771","F=YES, J=NO","0t2tgroffu","0","85","85","85","","","","","","","","","","","","","","","",""
"null","audio/beep-329314.mp3","null","audio-keyboard-response","303","2.1.0","373307","F=YES, J=NO","0t2tgroffu","0","85","85","85","","","","","","","","","","","","","","","",""
"null","audio/life1.wav","null","audio-keyboard-response","304","2.1.0","374006","F=YES, J=NO","0t2tgroffu","0","85","85","85","","","","","","","","","","","","","","","",""
"547","
          <p id=""word"" style=""font-size: 40px;"">flimch</p>
          <p style=""font-size: 16px;"">F = YES &nbsp;&nbsp;&nbsp; J = NO</p>
        ","j","html-keyboard-response","305","2.1.0","374553","F=YES, J=NO","0t2tgroffu","0","85","85","85","","","","","","","","","flimch","life1","pseudoword","pseudoword","j","true","",""
"null","<p style=""font-size: 50px;"">+</p>","null","html-keyboard-response","306","2.1.0","374866","F=YES, J=NO","0t2tgroffu","0","85","85","85","","","","","","","","","","","","","","","",""
"null","audio/beep-329314.mp3","null","audio-keyboard-response","307","2.1.0","376407","F=YES, J=NO","0t2tgroffu","0","85","85","85","","","","","","","","","","","","","","","",""
"null","audio/test1.wav","null","audio-keyboard-response","308","2.1.0","377106","F=YES, J=NO","0t2tgroffu","0","85","85","85","","","","","","","","","","","","","","","",""
"486","
          <p id=""word"" style=""font-size: 40px;"">twopch</p>
          <p style=""font-size: 16px;"">F = YES &nbsp;&nbsp;&nbsp; J = NO</p>
        ","j","html-keyboard-response","309","2.1.0","377594","F=YES, J=NO","0t2tgroffu","0","85","85","85","","","","","","","","","twopch","test1","pseudoword","pseudoword","j","true","",""
"null","<p style=""font-size: 50px;"">+</p>","null","html-keyboard-response","310","2.1.0","377907","F=YES, J=NO","0t2tgroffu","0","85","85","85","","","","","","","","","","","","","","","",""
"null","audio/beep-329314.mp3","null","audio-keyboard-response","311","2.1.0","379445","F=YES, J=NO","0t2tgroffu","0","85","85","85","","","","","","","","","","","","","","","",""
"null","audio/table1.wav","null","audio-keyboard-response","312","2.1.0","380047","F=YES, J=NO","0t2tgroffu","0","85","85","85","","","","","","","","","","","","","","","",""
"508","
          <p id=""word"" style=""font-size: 40px;"">stimb</p>
          <p style=""font-size: 16px;"">F = YES &nbsp;&nbsp;&nbsp; J = NO</p>
        ","j","html-keyboard-response","313","2.1.0","380556","F=YES, J=NO","0t2tgroffu","0","85","85","85","","","","","","","","","stimb","table1","pseudoword","pseudoword","j","true","",""
"null","<p style=""font-size: 50px;"">+</p>","null","html-keyboard-response","314","2.1.0","380867","F=YES, J=NO","0t2tgroffu","0","85","85","85","","","","","","","","","","","","","","","",""
"null","audio/beep-329314.mp3","null","audio-keyboard-response","315","2.1.0","382406","F=YES, J=NO","0t2tgroffu","0","85","85","85","","","","","","","","","","","","","","","",""
"null","audio/size1.wav","null","audio-keyboard-response","316","2.1.0","383265","F=YES, J=NO","0t2tgroffu","0","85","85","85","","","","","","","","","","","","","","","",""
"487","
          <p id=""word"" style=""font-size: 40px;"">clear</p>
          <p style=""font-size: 16px;"">F = YES &nbsp;&nbsp;&nbsp; J = NO</p>
        ","f","html-keyboard-response","317","2.1.0","383753","F=YES, J=NO","0t2tgroffu","0","85","85","85","","","","","","","","","clear","size1","unrelated","experimental","f","true","",""
"null","<p style=""font-size: 50px;"">+</p>","null","html-keyboard-response","318","2.1.0","384061","F=YES, J=NO","0t2tgroffu","0","85","85","85","","","","","","","","","","","","","","","",""
"null","audio/beep-329314.mp3","null","audio-keyboard-response","319","2.1.0","385586","F=YES, J=NO","0t2tgroffu","0","85","85","85","","","","","","","","","","","","","","","",""
"null","audio/theory1.wav","null","audio-keyboard-response","320","2.1.0","386365","F=YES, J=NO","0t2tgroffu","0","85","85","85","","","","","","","","","","","","","","","",""
"558","
          <p id=""word"" style=""font-size: 40px;"">scolve</p>
          <p style=""font-size: 16px;"">F = YES &nbsp;&nbsp;&nbsp; J = NO</p>
        ","j","html-keyboard-response","321","2.1.0","386925","F=YES, J=NO","0t2tgroffu","0","85","85","85","","","","","","","","","scolve","theory1","pseudoword","pseudoword","j","true","",""
"null","<p style=""font-size: 50px;"">+</p>","null","html-keyboard-response","322","2.1.0","387231","F=YES, J=NO","0t2tgroffu","0","85","85","85","","","","","","","","","","","","","","","",""
"null","audio/beep-329314.mp3","null","audio-keyboard-response","323","2.1.0","388767","F=YES, J=NO","0t2tgroffu","0","85","85","85","","","","","","","","","","","","","","","",""
"null","audio/fence.wav","null","audio-keyboard-response","324","2.1.0","389548","F=YES, J=NO","0t2tgroffu","0","85","85","85","","","","","","","","","","","","","","","",""
"573","
          <p id=""word"" style=""font-size: 40px;"">trim</p>
          <p style=""font-size: 16px;"">F = YES &nbsp;&nbsp;&nbsp; J = NO</p>
        ","f","html-keyboard-response","325","2.1.0","390122","F=YES, J=NO","0t2tgroffu","0","85","85","85","","","","","","","","","trim","fence","filler","filler","f","true","",""
"null","<p style=""font-size: 50px;"">+</p>","null","html-keyboard-response","326","2.1.0","390424","F=YES, J=NO","0t2tgroffu","0","85","85","85","","","","","","","","","","","","","","","",""
"null","audio/beep-329314.mp3","null","audio-keyboard-response","327","2.1.0","391967","F=YES, J=NO","0t2tgroffu","0","85","85","85","","","","","","","","","","","","","","","",""
"null","audio/strength.wav","null","audio-keyboard-response","328","2.1.0","392726","F=YES, J=NO","0t2tgroffu","0","85","85","85","","","","","","","","","","","","","","","",""
"526","
          <p id=""word"" style=""font-size: 40px;"">plabet</p>
          <p style=""font-size: 16px;"">F = YES &nbsp;&nbsp;&nbsp; J = NO</p>
        ","j","html-keyboard-response","329","2.1.0","393254","F=YES, J=NO","0t2tgroffu","0","85","85","85","","","","","","","","","plabet","strength","pseudoword","pseudoword","j","true","",""
"null","<p style=""font-size: 50px;"">+</p>","null","html-keyboard-response","330","2.1.0","393555","F=YES, J=NO","0t2tgroffu","0","85","85","85","","","","","","","","","","","","","","","",""
"null","audio/beep-329314.mp3","null","audio-keyboard-response","331","2.1.0","395086","F=YES, J=NO","0t2tgroffu","0","85","85","85","","","","","","","","","","","","","","","",""
"null","audio/cloud1.wav","null","audio-keyboard-response","332","2.1.0","395645","F=YES, J=NO","0t2tgroffu","0","85","85","85","","","","","","","","","","","","","","","",""
"566","
          <p id=""word"" style=""font-size: 40px;"">brotant</p>
          <p style=""font-size: 16px;"">F = YES &nbsp;&nbsp;&nbsp; J = NO</p>
        ","j","html-keyboard-response","333","2.1.0","396212","F=YES, J=NO","0t2tgroffu","0","85","85","85","","","","","","","","","brotant","cloud1","pseudoword","pseudoword","j","true","",""
"null","<p style=""font-size: 50px;"">+</p>","null","html-keyboard-response","334","2.1.0","396522","F=YES, J=NO","0t2tgroffu","0","85","85","85","","","","","","","","","","","","","","","",""
"null","audio/beep-329314.mp3","null","audio-keyboard-response","335","2.1.0","398046","F=YES, J=NO","0t2tgroffu","0","85","85","85","","","","","","","","","","","","","","","",""
"null","audio/tomato.wav","null","audio-keyboard-response","336","2.1.0","398765","F=YES, J=NO","0t2tgroffu","0","85","85","85","","","","","","","","","","","","","","","",""
"526","
          <p id=""word"" style=""font-size: 40px;"">gladies</p>
          <p style=""font-size: 16px;"">F = YES &nbsp;&nbsp;&nbsp; J = NO</p>
        ","j","html-keyboard-response","337","2.1.0","399292","F=YES, J=NO","0t2tgroffu","0","85","85","85","","","","","","","","","gladies","tomato","pseudoword","pseudoword","j","true","",""
"null","<p style=""font-size: 50px;"">+</p>","null","html-keyboard-response","338","2.1.0","399594","F=YES, J=NO","0t2tgroffu","0","85","85","85","","","","","","","","","","","","","","","",""
"null","audio/beep-329314.mp3","null","audio-keyboard-response","339","2.1.0","401126","F=YES, J=NO","0t2tgroffu","0","85","85","85","","","","","","","","","","","","","","","",""
"null","audio/cash1.wav","null","audio-keyboard-response","340","2.1.0","401826","F=YES, J=NO","0t2tgroffu","0","85","85","85","","","","","","","","","","","","","","","",""
"499","
          <p id=""word"" style=""font-size: 40px;"">splear</p>
          <p style=""font-size: 16px;"">F = YES &nbsp;&nbsp;&nbsp; J = NO</p>
        ","j","html-keyboard-response","341","2.1.0","402326","F=YES, J=NO","0t2tgroffu","0","85","85","85","","","","","","","","","splear","cash1","pseudoword","pseudoword","j","true","",""
"null","<p style=""font-size: 50px;"">+</p>","null","html-keyboard-response","342","2.1.0","402632","F=YES, J=NO","0t2tgroffu","0","85","85","85","","","","","","","","","","","","","","","",""
"null","audio/beep-329314.mp3","null","audio-keyboard-response","343","2.1.0","404166","F=YES, J=NO","0t2tgroffu","0","85","85","85","","","","","","","","","","","","","","","",""
"null","audio/stain.wav","null","audio-keyboard-response","344","2.1.0","404946","F=YES, J=NO","0t2tgroffu","0","85","85","85","","","","","","","","","","","","","","","",""
"535","
          <p id=""word"" style=""font-size: 40px;"">wipe</p>
          <p style=""font-size: 16px;"">F = YES &nbsp;&nbsp;&nbsp; J = NO</p>
        ","f","html-keyboard-response","345","2.1.0","405483","F=YES, J=NO","0t2tgroffu","0","85","85","85","","","","","","","","","wipe","stain","literal","experimental","f","true","",""
"null","<p style=""font-size: 50px;"">+</p>","null","html-keyboard-response","346","2.1.0","405791","F=YES, J=NO","0t2tgroffu","0","85","85","85","","","","","","","","","","","","","","","",""
"null","audio/beep-329314.mp3","null","audio-keyboard-response","347","2.1.0","407326","F=YES, J=NO","0t2tgroffu","0","85","85","85","","","","","","","","","","","","","","","",""
"null","audio/survey1.wav","null","audio-keyboard-response","348","2.1.0","408186","F=YES, J=NO","0t2tgroffu","0","85","85","85","","","","","","","","","","","","","","","",""
"566","
          <p id=""word"" style=""font-size: 40px;"">imploth</p>
          <p style=""font-size: 16px;"">F = YES &nbsp;&nbsp;&nbsp; J = NO</p>
        ","j","html-keyboard-response","349","2.1.0","408754","F=YES, J=NO","0t2tgroffu","0","85","85","85","","","","","","","","","imploth","survey1","pseudoword","pseudoword","j","true","",""
"null","<p style=""font-size: 50px;"">+</p>","null","html-keyboard-response","350","2.1.0","409062","F=YES, J=NO","0t2tgroffu","0","85","85","85","","","","","","","","","","","","","","","",""
"null","audio/beep-329314.mp3","null","audio-keyboard-response","351","2.1.0","410586","F=YES, J=NO","0t2tgroffu","0","85","85","85","","","","","","","","","","","","","","","",""
"null","audio/belief.wav","null","audio-keyboard-response","352","2.1.0","411206","F=YES, J=NO","0t2tgroffu","0","85","85","85","","","","","","","","","","","","","","","",""
"639","
          <p id=""word"" style=""font-size: 40px;"">share</p>
          <p style=""font-size: 16px;"">F = YES &nbsp;&nbsp;&nbsp; J = NO</p>
        ","f","html-keyboard-response","353","2.1.0","411846","F=YES, J=NO","0t2tgroffu","0","85","85","85","","","","","","","","","share","belief","metaphor","experimental","f","true","",""
"null","<p style=""font-size: 50px;"">+</p>","null","html-keyboard-response","354","2.1.0","412160","F=YES, J=NO","0t2tgroffu","0","85","85","85","","","","","","","","","","","","","","","",""
"null","audio/beep-329314.mp3","null","audio-keyboard-response","355","2.1.0","413686","F=YES, J=NO","0t2tgroffu","0","85","85","85","","","","","","","","","","","","","","","",""
"null","audio/grass.wav","null","audio-keyboard-response","356","2.1.0","414326","F=YES, J=NO","0t2tgroffu","0","85","85","85","","","","","","","","","","","","","","","",""
"560","
          <p id=""word"" style=""font-size: 40px;"">cut</p>
          <p style=""font-size: 16px;"">F = YES &nbsp;&nbsp;&nbsp; J = NO</p>
        ","f","html-keyboard-response","357","2.1.0","414887","F=YES, J=NO","0t2tgroffu","0","85","85","85","","","","","","","","","cut","grass","literal","experimental","f","true","",""
"null","<p style=""font-size: 50px;"">+</p>","null","html-keyboard-response","358","2.1.0","415199","F=YES, J=NO","0t2tgroffu","0","85","85","85","","","","","","","","","","","","","","","",""
"null","audio/beep-329314.mp3","null","audio-keyboard-response","359","2.1.0","416726","F=YES, J=NO","0t2tgroffu","0","85","85","85","","","","","","","","","","","","","","","",""
"null","audio/purpose.wav","null","audio-keyboard-response","360","2.1.0","417426","F=YES, J=NO","0t2tgroffu","0","85","85","85","","","","","","","","","","","","","","","",""
"545","
          <p id=""word"" style=""font-size: 40px;"">whigm</p>
          <p style=""font-size: 16px;"">F = YES &nbsp;&nbsp;&nbsp; J = NO</p>
        ","j","html-keyboard-response","361","2.1.0","417972","F=YES, J=NO","0t2tgroffu","0","85","85","85","","","","","","","","","whigm","purpose","pseudoword","pseudoword","j","true","",""
"1915","<p>Excellent! You have finished block 3 of 8.</p>
                     <p>Feel free to take a 30 second break.</p>
                     <p>Press any key when you're ready to continue.</p>"," ","html-keyboard-response","362","2.1.0","419888","F=YES, J=NO","0t2tgroffu","0","85","85","85","","","","","","","","","","","","","","","",""
"886","<p>Starting main block 4 of 8. Press any key to continue.</p>"," ","html-keyboard-response","363","2.1.0","420774","F=YES, J=NO","0t2tgroffu","0","85","85","85","","","","","","","","","","","","","","","",""
"null","<p style=""font-size: 50px;"">+</p>","null","html-keyboard-response","364","2.1.0","421077","F=YES, J=NO","0t2tgroffu","0","85","85","85","","","","","","","","","","","","","","","",""
"null","audio/beep-329314.mp3","null","audio-keyboard-response","365","2.1.0","422606","F=YES, J=NO","0t2tgroffu","0","85","85","85","","","","","","","","","","","","","","","",""
"null","audio/plot1.wav","null","audio-keyboard-response","366","2.1.0","423145","F=YES, J=NO","0t2tgroffu","0","85","85","85","","","","","","","","","","","","","","","",""
"550","
          <p id=""word"" style=""font-size: 40px;"">weave</p>
          <p style=""font-size: 16px;"">F = YES &nbsp;&nbsp;&nbsp; J = NO</p>
        ","f","html-keyboard-response","367","2.1.0","423696","F=YES, J=NO","0t2tgroffu","0","85","85","85","","","","","","","","","weave","plot1","metaphor","experimental","f","true","",""
"null","<p style=""font-size: 50px;"">+</p>","null","html-keyboard-response","368","2.1.0","424005","F=YES, J=NO","0t2tgroffu","0","85","85","85","","","","","","","","","","","","","","","",""
"null","audio/beep-329314.mp3","null","audio-keyboard-response","369","2.1.0","425546","F=YES, J=NO","0t2tgroffu","0","85","85","85","","","","","","","","","","","","","","","",""
"null","audio/window1.wav","null","audio-keyboard-response","370","2.1.0","426306","F=YES, J=NO","0t2tgroffu","0","85","85","85","","","","","","","","","","","","","","","",""
"496","
          <p id=""word"" style=""font-size: 40px;"">break</p>
          <p style=""font-size: 16px;"">F = YES &nbsp;&nbsp;&nbsp; J = NO</p>
        ","f","html-keyboard-response","371","2.1.0","426804","F=YES, J=NO","0t2tgroffu","0","85","85","85","","","","","","","","","break","window1","literal","experimental","f","true","",""
"null","<p style=""font-size: 50px;"">+</p>","null","html-keyboard-response","372","2.1.0","427117","F=YES, J=NO","0t2tgroffu","0","85","85","85","","","","","","","","","","","","","","","",""
"null","audio/beep-329314.mp3","null","audio-keyboard-response","373","2.1.0","428646","F=YES, J=NO","0t2tgroffu","0","85","85","85","","","","","","","","","","","","","","","",""
"null","audio/relief.wav","null","audio-keyboard-response","374","2.1.0","429426","F=YES, J=NO","0t2tgroffu","0","85","85","85","","","","","","","","","","","","","","","",""
"557","
          <p id=""word"" style=""font-size: 40px;"">grigg</p>
          <p style=""font-size: 16px;"">F = YES &nbsp;&nbsp;&nbsp; J = NO</p>
        ","j","html-keyboard-response","375","2.1.0","429984","F=YES, J=NO","0t2tgroffu","0","85","85","85","","","","","","","","","grigg","relief","pseudoword","pseudoword","j","true","",""
"null","<p style=""font-size: 50px;"">+</p>","null","html-keyboard-response","376","2.1.0","430291","F=YES, J=NO","0t2tgroffu","0","85","85","85","","","","","","","","","","","","","","","",""
"null","audio/beep-329314.mp3","null","audio-keyboard-response","377","2.1.0","431826","F=YES, J=NO","0t2tgroffu","0","85","85","85","","","","","","","","","","","","","","","",""
"null","audio/mile1.wav","null","audio-keyboard-response","378","2.1.0","432446","F=YES, J=NO","0t2tgroffu","0","85","85","85","","","","","","","","","","","","","","","",""
"619","
          <p id=""word"" style=""font-size: 40px;"">writch</p>
          <p style=""font-size: 16px;"">F = YES &nbsp;&nbsp;&nbsp; J = NO</p>
        ","j","html-keyboard-response","379","2.1.0","433065","F=YES, J=NO","0t2tgroffu","0","85","85","85","","","","","","","","","writch","mile1","pseudoword","pseudoword","j","true","",""
"null","<p style=""font-size: 50px;"">+</p>","null","html-keyboard-response","380","2.1.0","433374","F=YES, J=NO","0t2tgroffu","0","85","85","85","","","","","","","","","","","","","","","",""
"null","audio/beep-329314.mp3","null","audio-keyboard-response","381","2.1.0","434906","F=YES, J=NO","0t2tgroffu","0","85","85","85","","","","","","","","","","","","","","","",""
"null","audio/voice.wav","null","audio-keyboard-response","382","2.1.0","435646","F=YES, J=NO","0t2tgroffu","0","85","85","85","","","","","","","","","","","","","","","",""
"617","
          <p id=""word"" style=""font-size: 40px;"">grintle</p>
          <p style=""font-size: 16px;"">F = YES &nbsp;&nbsp;&nbsp; J = NO</p>
        ","j","html-keyboard-response","383","2.1.0","436264","F=YES, J=NO","0t2tgroffu","0","85","85","85","","","","","","","","","grintle","voice","pseudoword","pseudoword","j","true","",""
"null","<p style=""font-size: 50px;"">+</p>","null","html-keyboard-response","384","2.1.0","436567","F=YES, J=NO","0t2tgroffu","0","85","85","85","","","","","","","","","","","","","","","",""
"null","audio/beep-329314.mp3","null","audio-keyboard-response","385","2.1.0","438105","F=YES, J=NO","0t2tgroffu","0","85","85","85","","","","","","","","","","","","","","","",""
"null","audio/bush1.wav","null","audio-keyboard-response","386","2.1.0","438726","F=YES, J=NO","0t2tgroffu","0","85","85","85","","","","","","","","","","","","","","","",""
"706","
          <p id=""word"" style=""font-size: 40px;"">platined</p>
          <p style=""font-size: 16px;"">F = YES &nbsp;&nbsp;&nbsp; J = NO</p>
        ","j","html-keyboard-response","387","2.1.0","439434","F=YES, J=NO","0t2tgroffu","0","85","85","85","","","","","","","","","platined","bush1","pseudoword","pseudoword","j","true","",""
"null","<p style=""font-size: 50px;"">+</p>","null","html-keyboard-response","388","2.1.0","439737","F=YES, J=NO","0t2tgroffu","0","85","85","85","","","","","","","","","","","","","","","",""
"null","audio/beep-329314.mp3","null","audio-keyboard-response","389","2.1.0","441266","F=YES, J=NO","0t2tgroffu","0","85","85","85","","","","","","","","","","","","","","","",""
"null","audio/neck.wav","null","audio-keyboard-response","390","2.1.0","441946","F=YES, J=NO","0t2tgroffu","0","85","85","85","","","","","","","","","","","","","","","",""
"598","
          <p id=""word"" style=""font-size: 40px;"">werling</p>
          <p style=""font-size: 16px;"">F = YES &nbsp;&nbsp;&nbsp; J = NO</p>
        ","j","html-keyboard-response","391","2.1.0","442544","F=YES, J=NO","0t2tgroffu","0","85","85","85","","","","","","","","","werling","neck","pseudoword","pseudoword","j","true","",""
