"rt","stimulus","response","trial_type","trial_index","plugin_version","time_elapsed","response_mapping","subject_id","list_index","lextale_score","lextale_word_score","lextale_nonword_score","success","timeout","failed_images","failed_audio","failed_video","task","isWord","isDummy","target","prime","prime_type","stimulus_type","correct_response","correct","section","question_order"
"23482","
    <div style=""max-width: 800px; margin: auto; text-align: left;"">
      <h2>STANFORD UNIVERSITY</h2>
      <h3>Research Information Sheet</h3>
      <p><strong>Protocol Director:</strong> Robert Hawkins<br>
      <strong>Protocol Title:</strong> Communication and social cognition in natural audiovisual contexts<br>
      <strong>IRB#:</strong> 77226</p>

      <p><strong>DESCRIPTION:</strong> You are invited to participate in a research study about language and communication. The purpose of the research is to understand how you interact and communicate with other people in naturalistic settings as a fluent English speaker. This research will be conducted through the Prolific platform, including participants from the US, UK, and Canada. If you decide to participate in this research, you will play a communication game in a group with one or more partners.</p>

      <p><strong>TIME INVOLVEMENT:</strong> The task will last the amount of time advertised on Prolific. You are free to withdraw from the study at any time.</p>

      <p><strong>RISKS AND BENEFITS:</strong> You may become frustrated if your partner gets distracted, or experience discomfort if other participants in your group send text that is inappropriate for the task. We ask you to please be respectful of other participants you might be interacting with to mitigate these risks. You may also experience discomfort when being asked to discuss or challenge emotionally salient political beliefs. Study data will be stored securely, in compliance with Stanford University standards, minimizing the risk of confidentiality breach. This study advances our scientific understanding of how people communicate and collaborate in naturalistic settings. This study may lead to further insights about what can go wrong in teamwork, suggest potential interventions to overcome these barriers, and help to develop assistive technologies that collaborate with human partners. We cannot and do not guarantee or promise that you will receive any benefits from this study.</p>

      <p><strong>PAYMENTS:</strong> You will receive payment in the amount advertised on Prolific. If you do not complete this study, you will receive prorated payment based on the time that you have spent. Additionally, you may be eligible for bonus payments as described in the instructions.</p>

      <p><strong>PARTICIPANT’S RIGHTS:</strong> If you have read this form and have decided to participate in this project, please understand your participation is voluntary and you have the right to withdraw your consent or discontinue participation at any time without penalty or loss of benefits to which you are otherwise entitled. The alternative is not to participate. You have the right to refuse to answer particular questions. The results of this research study may be presented at scientific or professional meetings or published in scientific journals. Your individual privacy will be maintained in all published and written data resulting from the study. In accordance with scientific norms, the data from this study may be used or shared with other researchers for future research (after removing personally identifying information) without additional consent from you.</p>

      <p><strong>CONTACT INFORMATION:</strong><br>
      Questions: If you have any questions, concerns or complaints about this research, its procedures, risks and benefits, contact the Protocol Director, Robert Hawkins (<a href=""mailto:rdhawkins@stanford.edu"">rdhawkins@stanford.edu</a>, 217-549-6923).<br>
      Independent Contact: If you are not satisfied with how this study is being conducted, or if you have any concerns, complaints, or general questions about the research or your rights as a participant, please contact the Stanford Institutional Review Board (IRB) to speak to someone independent of the research team at 650-723-2480 or toll free at 1-866-680-2906, or email at <a href=""mailto:irbnon-med@stanford.edu"">irbnon-med@stanford.edu</a>. You can also write to the Stanford IRB, Stanford University, 1705 El Camino Real, Palo Alto, CA 94306.</p>

      <p><strong>Please save or print a copy of this page for your records.</strong></p>
      <p>If you agree to participate in this research, click ""Continue"" below.</p>
    </div>
  ","0","html-button-response","0","2.1.0","23500","J=YES, F=NO","1fz1ewo8mn","1","79","73","85","","","","","","","","","","","","","","","",""
"7762","
    <div style=""max-width: 800px; margin: auto; text-align: left;"">
      <h2>Welcome!</h2>
      <p>Thank you for participating in this study. The experiment consists of three parts:</p>
      <ol>
        <li>An English vocabulary test</li>
        <li>A main task in which you will hear and see words, and decide whether the written word is a real English word</li>
        <li>A brief survey about your background</li>
      </ol>
      <p>Each part will be introduced before it begins.</p>
      <p>Please make sure you are in a quiet environment and can hear audio clearly for the final task.</p>
      <p style=""margin-top: 2em;"">Press any key to begin.</p>
    </div>
  "," ","html-keyboard-response","1","2.1.0","31266","J=YES, F=NO","1fz1ewo8mn","1","79","73","85","","","","","","","","","","","","","","","",""
"","","","preload","2","2.1.0","32470","J=YES, F=NO","1fz1ewo8mn","1","79","73","85","true","false","[]","[]","[]","","","","","","","","","","",""
"3155","
    <div style=""max-width: 800px; margin: auto; text-align: left;"">
      <h2>Part 1: Vocabulary Test</h2>
      <p>You will now complete the first part of the study: a short English vocabulary test.</p>
      <p>This test is called <strong>LexTALE</strong> and helps us get a general sense of your English proficiency.</p>
      <p style=""margin-top: 2em;"">Press any key to continue.</p>
    </div>
  "," ","html-keyboard-response","3","2.1.0","35627","J=YES, F=NO","1fz1ewo8mn","1","79","73","85","","","","","","","","","","","","","","","",""
"8402","
    <div style=""max-width: 800px; margin: auto; text-align: left;"">
      <h2>LexTALE Vocabulary Test</h2>
      <p>In this test, you will see a series of letter strings—one at a time.</p>
      <p>Your task is to decide whether each string is a real English word.</p>
      <p><strong>Key responses:</strong></p>
      <ul>
        <li><strong>J</strong> = YES (real English word)</li>
        <li><strong>F</strong> = NO (not a real English word)</li>
      </ul>
      <p>There is no time limit, but please try to be accurate.</p>
      <p style=""margin-top: 2em;"">Press any key to begin.</p>
    </div>
  "," ","html-keyboard-response","4","2.1.0","44030","J=YES, F=NO","1fz1ewo8mn","1","79","73","85","","","","","","","","","","","","","","","",""
"2238","
  <p style=""font-size: 40px;"">platery</p>
  <p style=""font-size: 16px;"">J = YES &nbsp;&nbsp;&nbsp; F = NO</p>
","j","html-keyboard-response","5","2.1.0","46271","J=YES, F=NO","1fz1ewo8mn","1","79","73","85","","","","","","lextale","false","true","","","","","","","",""
"1431","
  <p style=""font-size: 40px;"">denial</p>
  <p style=""font-size: 16px;"">J = YES &nbsp;&nbsp;&nbsp; F = NO</p>
","j","html-keyboard-response","6","2.1.0","47705","J=YES, F=NO","1fz1ewo8mn","1","79","73","85","","","","","","lextale","true","true","","","","","","","",""
"1493","
  <p style=""font-size: 40px;"">marrit</p>
  <p style=""font-size: 16px;"">J = YES &nbsp;&nbsp;&nbsp; F = NO</p>
","f","html-keyboard-response","7","2.1.0","49200","J=YES, F=NO","1fz1ewo8mn","1","79","73","85","","","","","","lextale","false","true","","","","","","","",""
"793","
  <p style=""font-size: 40px;"">bottle</p>
  <p style=""font-size: 16px;"">J = YES &nbsp;&nbsp;&nbsp; F = NO</p>
","j","html-keyboard-response","8","2.1.0","49995","J=YES, F=NO","1fz1ewo8mn","1","79","73","85","","","","","","lextale","true","false","","","","","","","",""
"1122","
  <p style=""font-size: 40px;"">birst</p>
  <p style=""font-size: 16px;"">J = YES &nbsp;&nbsp;&nbsp; F = NO</p>
","f","html-keyboard-response","9","2.1.0","51119","J=YES, F=NO","1fz1ewo8mn","1","79","73","85","","","","","","lextale","false","false","","","","","","","",""
"1939","
  <p style=""font-size: 40px;"">envy</p>
  <p style=""font-size: 16px;"">J = YES &nbsp;&nbsp;&nbsp; F = NO</p>
","j","html-keyboard-response","10","2.1.0","53060","J=YES, F=NO","1fz1ewo8mn","1","79","73","85","","","","","","lextale","true","false","","","","","","","",""
"1550","
  <p style=""font-size: 40px;"">brang</p>
  <p style=""font-size: 16px;"">J = YES &nbsp;&nbsp;&nbsp; F = NO</p>
","f","html-keyboard-response","11","2.1.0","54612","J=YES, F=NO","1fz1ewo8mn","1","79","73","85","","","","","","lextale","false","false","","","","","","","",""
"626","
  <p style=""font-size: 40px;"">huge</p>
  <p style=""font-size: 16px;"">J = YES &nbsp;&nbsp;&nbsp; F = NO</p>
","j","html-keyboard-response","12","2.1.0","55241","J=YES, F=NO","1fz1ewo8mn","1","79","73","85","","","","","","lextale","true","false","","","","","","","",""
"1057","
  <p style=""font-size: 40px;"">plove</p>
  <p style=""font-size: 16px;"">J = YES &nbsp;&nbsp;&nbsp; F = NO</p>
","f","html-keyboard-response","13","2.1.0","56300","J=YES, F=NO","1fz1ewo8mn","1","79","73","85","","","","","","lextale","false","false","","","","","","","",""
"606","
  <p style=""font-size: 40px;"">border</p>
  <p style=""font-size: 16px;"">J = YES &nbsp;&nbsp;&nbsp; F = NO</p>
","j","html-keyboard-response","14","2.1.0","56907","J=YES, F=NO","1fz1ewo8mn","1","79","73","85","","","","","","lextale","true","false","","","","","","","",""
"1129","
  <p style=""font-size: 40px;"">flimsy</p>
  <p style=""font-size: 16px;"">J = YES &nbsp;&nbsp;&nbsp; F = NO</p>
","j","html-keyboard-response","15","2.1.0","58037","J=YES, F=NO","1fz1ewo8mn","1","79","73","85","","","","","","lextale","true","false","","","","","","","",""
"937","
  <p style=""font-size: 40px;"">drain</p>
  <p style=""font-size: 16px;"">J = YES &nbsp;&nbsp;&nbsp; F = NO</p>
","j","html-keyboard-response","16","2.1.0","58976","J=YES, F=NO","1fz1ewo8mn","1","79","73","85","","","","","","lextale","true","false","","","","","","","",""
"1080","
  <p style=""font-size: 40px;"">twindle</p>
  <p style=""font-size: 16px;"">J = YES &nbsp;&nbsp;&nbsp; F = NO</p>
","f","html-keyboard-response","17","2.1.0","60057","J=YES, F=NO","1fz1ewo8mn","1","79","73","85","","","","","","lextale","false","false","","","","","","","",""
"813","
  <p style=""font-size: 40px;"">propose</p>
  <p style=""font-size: 16px;"">J = YES &nbsp;&nbsp;&nbsp; F = NO</p>
","j","html-keyboard-response","18","2.1.0","60873","J=YES, F=NO","1fz1ewo8mn","1","79","73","85","","","","","","lextale","true","false","","","","","","","",""
"1174","
  <p style=""font-size: 40px;"">forlay</p>
  <p style=""font-size: 16px;"">J = YES &nbsp;&nbsp;&nbsp; F = NO</p>
","f","html-keyboard-response","19","2.1.0","62049","J=YES, F=NO","1fz1ewo8mn","1","79","73","85","","","","","","lextale","false","false","","","","","","","",""
"908","
  <p style=""font-size: 40px;"">tenant</p>
  <p style=""font-size: 16px;"">J = YES &nbsp;&nbsp;&nbsp; F = NO</p>
","j","html-keyboard-response","20","2.1.0","62959","J=YES, F=NO","1fz1ewo8mn","1","79","73","85","","","","","","lextale","true","false","","","","","","","",""
"777","
  <p style=""font-size: 40px;"">strain</p>
  <p style=""font-size: 16px;"">J = YES &nbsp;&nbsp;&nbsp; F = NO</p>
","j","html-keyboard-response","21","2.1.0","63738","J=YES, F=NO","1fz1ewo8mn","1","79","73","85","","","","","","lextale","true","false","","","","","","","",""
"793","
  <p style=""font-size: 40px;"">holster</p>
  <p style=""font-size: 16px;"">J = YES &nbsp;&nbsp;&nbsp; F = NO</p>
","j","html-keyboard-response","22","2.1.0","64533","J=YES, F=NO","1fz1ewo8mn","1","79","73","85","","","","","","lextale","true","false","","","","","","","",""
"1460","
  <p style=""font-size: 40px;"">hinder</p>
  <p style=""font-size: 16px;"">J = YES &nbsp;&nbsp;&nbsp; F = NO</p>
","f","html-keyboard-response","23","2.1.0","65995","J=YES, F=NO","1fz1ewo8mn","1","79","73","85","","","","","","lextale","true","false","","","","","","","",""
"794","
  <p style=""font-size: 40px;"">swindle</p>
  <p style=""font-size: 16px;"">J = YES &nbsp;&nbsp;&nbsp; F = NO</p>
","j","html-keyboard-response","24","2.1.0","66791","J=YES, F=NO","1fz1ewo8mn","1","79","73","85","","","","","","lextale","true","false","","","","","","","",""
"1182","
  <p style=""font-size: 40px;"">nuder</p>
  <p style=""font-size: 16px;"">J = YES &nbsp;&nbsp;&nbsp; F = NO</p>
","f","html-keyboard-response","25","2.1.0","67973","J=YES, F=NO","1fz1ewo8mn","1","79","73","85","","","","","","lextale","false","false","","","","","","","",""
"607","
  <p style=""font-size: 40px;"">pillow</p>
  <p style=""font-size: 16px;"">J = YES &nbsp;&nbsp;&nbsp; F = NO</p>
","j","html-keyboard-response","26","2.1.0","68582","J=YES, F=NO","1fz1ewo8mn","1","79","73","85","","","","","","lextale","true","false","","","","","","","",""
"1090","
  <p style=""font-size: 40px;"">shumble</p>
  <p style=""font-size: 16px;"">J = YES &nbsp;&nbsp;&nbsp; F = NO</p>
","f","html-keyboard-response","27","2.1.0","69674","J=YES, F=NO","1fz1ewo8mn","1","79","73","85","","","","","","lextale","false","false","","","","","","","",""
"1810","
  <p style=""font-size: 40px;"">thirst</p>
  <p style=""font-size: 16px;"">J = YES &nbsp;&nbsp;&nbsp; F = NO</p>
","j","html-keyboard-response","28","2.1.0","71485","J=YES, F=NO","1fz1ewo8mn","1","79","73","85","","","","","","lextale","true","false","","","","","","","",""
"1534","
  <p style=""font-size: 40px;"">unsail</p>
  <p style=""font-size: 16px;"">J = YES &nbsp;&nbsp;&nbsp; F = NO</p>
","j","html-keyboard-response","29","2.1.0","73021","J=YES, F=NO","1fz1ewo8mn","1","79","73","85","","","","","","lextale","false","false","","","","","","","",""
"3700","
  <p style=""font-size: 40px;"">rifle</p>
  <p style=""font-size: 16px;"">J = YES &nbsp;&nbsp;&nbsp; F = NO</p>
","f","html-keyboard-response","30","2.1.0","76723","J=YES, F=NO","1fz1ewo8mn","1","79","73","85","","","","","","lextale","true","false","","","","","","","",""
"1163","
  <p style=""font-size: 40px;"">mush</p>
  <p style=""font-size: 16px;"">J = YES &nbsp;&nbsp;&nbsp; F = NO</p>
","j","html-keyboard-response","31","2.1.0","77887","J=YES, F=NO","1fz1ewo8mn","1","79","73","85","","","","","","lextale","false","false","","","","","","","",""
"773","
  <p style=""font-size: 40px;"">drench</p>
  <p style=""font-size: 16px;"">J = YES &nbsp;&nbsp;&nbsp; F = NO</p>
","j","html-keyboard-response","32","2.1.0","78661","J=YES, F=NO","1fz1ewo8mn","1","79","73","85","","","","","","lextale","true","false","","","","","","","",""
"889","
  <p style=""font-size: 40px;"">snirt</p>
  <p style=""font-size: 16px;"">J = YES &nbsp;&nbsp;&nbsp; F = NO</p>
","f","html-keyboard-response","33","2.1.0","79552","J=YES, F=NO","1fz1ewo8mn","1","79","73","85","","","","","","lextale","false","false","","","","","","","",""
"759","
  <p style=""font-size: 40px;"">bitter</p>
  <p style=""font-size: 16px;"">J = YES &nbsp;&nbsp;&nbsp; F = NO</p>
","j","html-keyboard-response","34","2.1.0","80312","J=YES, F=NO","1fz1ewo8mn","1","79","73","85","","","","","","lextale","true","false","","","","","","","",""
"794","
  <p style=""font-size: 40px;"">pliff</p>
  <p style=""font-size: 16px;"">J = YES &nbsp;&nbsp;&nbsp; F = NO</p>
","f","html-keyboard-response","35","2.1.0","81107","J=YES, F=NO","1fz1ewo8mn","1","79","73","85","","","","","","lextale","false","false","","","","","","","",""
"671","
  <p style=""font-size: 40px;"">tablet</p>
  <p style=""font-size: 16px;"">J = YES &nbsp;&nbsp;&nbsp; F = NO</p>
","j","html-keyboard-response","36","2.1.0","81780","J=YES, F=NO","1fz1ewo8mn","1","79","73","85","","","","","","lextale","true","false","","","","","","","",""
"1064","
  <p style=""font-size: 40px;"">glimmer</p>
  <p style=""font-size: 16px;"">J = YES &nbsp;&nbsp;&nbsp; F = NO</p>
","f","html-keyboard-response","37","2.1.0","82845","J=YES, F=NO","1fz1ewo8mn","1","79","73","85","","","","","","lextale","true","false","","","","","","","",""
"1960","
  <p style=""font-size: 40px;"">slink</p>
  <p style=""font-size: 16px;"">J = YES &nbsp;&nbsp;&nbsp; F = NO</p>
","j","html-keyboard-response","38","2.1.0","84807","J=YES, F=NO","1fz1ewo8mn","1","79","73","85","","","","","","lextale","true","false","","","","","","","",""
"837","
  <p style=""font-size: 40px;"">clever</p>
  <p style=""font-size: 16px;"">J = YES &nbsp;&nbsp;&nbsp; F = NO</p>
","j","html-keyboard-response","39","2.1.0","85645","J=YES, F=NO","1fz1ewo8mn","1","79","73","85","","","","","","lextale","true","false","","","","","","","",""
"822","
  <p style=""font-size: 40px;"">grum</p>
  <p style=""font-size: 16px;"">J = YES &nbsp;&nbsp;&nbsp; F = NO</p>
","f","html-keyboard-response","40","2.1.0","86469","J=YES, F=NO","1fz1ewo8mn","1","79","73","85","","","","","","lextale","false","false","","","","","","","",""
"602","
  <p style=""font-size: 40px;"">string</p>
  <p style=""font-size: 16px;"">J = YES &nbsp;&nbsp;&nbsp; F = NO</p>
","j","html-keyboard-response","41","2.1.0","87071","J=YES, F=NO","1fz1ewo8mn","1","79","73","85","","","","","","lextale","true","false","","","","","","","",""
"855","
  <p style=""font-size: 40px;"">plim</p>
  <p style=""font-size: 16px;"">J = YES &nbsp;&nbsp;&nbsp; F = NO</p>
","f","html-keyboard-response","42","2.1.0","87929","J=YES, F=NO","1fz1ewo8mn","1","79","73","85","","","","","","lextale","false","false","","","","","","","",""
"554","
  <p style=""font-size: 40px;"">cable</p>
  <p style=""font-size: 16px;"">J = YES &nbsp;&nbsp;&nbsp; F = NO</p>
","j","html-keyboard-response","43","2.1.0","88484","J=YES, F=NO","1fz1ewo8mn","1","79","73","85","","","","","","lextale","true","false","","","","","","","",""
"1319","
  <p style=""font-size: 40px;"">shrivel</p>
  <p style=""font-size: 16px;"">J = YES &nbsp;&nbsp;&nbsp; F = NO</p>
","f","html-keyboard-response","44","2.1.0","89804","J=YES, F=NO","1fz1ewo8mn","1","79","73","85","","","","","","lextale","true","false","","","","","","","",""
"3911","
  <p style=""font-size: 40px;"">tarnish</p>
  <p style=""font-size: 16px;"">J = YES &nbsp;&nbsp;&nbsp; F = NO</p>
","j","html-keyboard-response","45","2.1.0","93717","J=YES, F=NO","1fz1ewo8mn","1","79","73","85","","","","","","lextale","true","false","","","","","","","",""
"987","
  <p style=""font-size: 40px;"">blim</p>
  <p style=""font-size: 16px;"">J = YES &nbsp;&nbsp;&nbsp; F = NO</p>
","f","html-keyboard-response","46","2.1.0","94706","J=YES, F=NO","1fz1ewo8mn","1","79","73","85","","","","","","lextale","false","false","","","","","","","",""
"2571","
  <p style=""font-size: 40px;"">stifle</p>
  <p style=""font-size: 16px;"">J = YES &nbsp;&nbsp;&nbsp; F = NO</p>
","j","html-keyboard-response","47","2.1.0","97279","J=YES, F=NO","1fz1ewo8mn","1","79","73","85","","","","","","lextale","true","false","","","","","","","",""
"638","
  <p style=""font-size: 40px;"">bint</p>
  <p style=""font-size: 16px;"">J = YES &nbsp;&nbsp;&nbsp; F = NO</p>
","f","html-keyboard-response","48","2.1.0","97919","J=YES, F=NO","1fz1ewo8mn","1","79","73","85","","","","","","lextale","false","false","","","","","","","",""
"503","
  <p style=""font-size: 40px;"">purple</p>
  <p style=""font-size: 16px;"">J = YES &nbsp;&nbsp;&nbsp; F = NO</p>
","j","html-keyboard-response","49","2.1.0","98423","J=YES, F=NO","1fz1ewo8mn","1","79","73","85","","","","","","lextale","true","false","","","","","","","",""
"1204","
  <p style=""font-size: 40px;"">wriggle</p>
  <p style=""font-size: 16px;"">J = YES &nbsp;&nbsp;&nbsp; F = NO</p>
","f","html-keyboard-response","50","2.1.0","99629","J=YES, F=NO","1fz1ewo8mn","1","79","73","85","","","","","","lextale","true","false","","","","","","","",""
"710","
  <p style=""font-size: 40px;"">mangle</p>
  <p style=""font-size: 16px;"">J = YES &nbsp;&nbsp;&nbsp; F = NO</p>
","j","html-keyboard-response","51","2.1.0","100340","J=YES, F=NO","1fz1ewo8mn","1","79","73","85","","","","","","lextale","true","false","","","","","","","",""
"1282","
  <p style=""font-size: 40px;"">shramp</p>
  <p style=""font-size: 16px;"">J = YES &nbsp;&nbsp;&nbsp; F = NO</p>
","f","html-keyboard-response","52","2.1.0","101624","J=YES, F=NO","1fz1ewo8mn","1","79","73","85","","","","","","lextale","false","false","","","","","","","",""
"549","
  <p style=""font-size: 40px;"">flirt</p>
  <p style=""font-size: 16px;"">J = YES &nbsp;&nbsp;&nbsp; F = NO</p>
","j","html-keyboard-response","53","2.1.0","102174","J=YES, F=NO","1fz1ewo8mn","1","79","73","85","","","","","","lextale","true","false","","","","","","","",""
"706","
  <p style=""font-size: 40px;"">frip</p>
  <p style=""font-size: 16px;"">J = YES &nbsp;&nbsp;&nbsp; F = NO</p>
","f","html-keyboard-response","54","2.1.0","102882","J=YES, F=NO","1fz1ewo8mn","1","79","73","85","","","","","","lextale","false","false","","","","","","","",""
"638","
  <p style=""font-size: 40px;"">tangle</p>
  <p style=""font-size: 16px;"">J = YES &nbsp;&nbsp;&nbsp; F = NO</p>
","j","html-keyboard-response","55","2.1.0","103521","J=YES, F=NO","1fz1ewo8mn","1","79","73","85","","","","","","lextale","true","false","","","","","","","",""
"772","
  <p style=""font-size: 40px;"">crumble</p>
  <p style=""font-size: 16px;"">J = YES &nbsp;&nbsp;&nbsp; F = NO</p>
","j","html-keyboard-response","56","2.1.0","104295","J=YES, F=NO","1fz1ewo8mn","1","79","73","85","","","","","","lextale","true","false","","","","","","","",""
"838","
  <p style=""font-size: 40px;"">wrinkle</p>
  <p style=""font-size: 16px;"">J = YES &nbsp;&nbsp;&nbsp; F = NO</p>
","j","html-keyboard-response","57","2.1.0","105134","J=YES, F=NO","1fz1ewo8mn","1","79","73","85","","","","","","lextale","true","false","","","","","","","",""
"1293","
  <p style=""font-size: 40px;"">slumb</p>
  <p style=""font-size: 16px;"">J = YES &nbsp;&nbsp;&nbsp; F = NO</p>
","f","html-keyboard-response","58","2.1.0","106428","J=YES, F=NO","1fz1ewo8mn","1","79","73","85","","","","","","lextale","false","false","","","","","","","",""
"538","
  <p style=""font-size: 40px;"">jungle</p>
  <p style=""font-size: 16px;"">J = YES &nbsp;&nbsp;&nbsp; F = NO</p>
","j","html-keyboard-response","59","2.1.0","106968","J=YES, F=NO","1fz1ewo8mn","1","79","73","85","","","","","","lextale","true","false","","","","","","","",""
"717","
  <p style=""font-size: 40px;"">frolick</p>
  <p style=""font-size: 16px;"">J = YES &nbsp;&nbsp;&nbsp; F = NO</p>
","f","html-keyboard-response","60","2.1.0","107686","J=YES, F=NO","1fz1ewo8mn","1","79","73","85","","","","","","lextale","false","false","","","","","","","",""
"1624","
      <h2>LexTALE Test Completed</h2>
      <p>Your LexTALE vocabulary score is: <strong>79%</strong></p>
      <p>Press any key to continue.</p>
    "," ","html-keyboard-response","61","2.1.0","109313","J=YES, F=NO","1fz1ewo8mn","1","79","73","85","","","","","","","","","","","","","","","",""
"8751","
    <div style=""max-width: 800px; margin: auto; text-align: left;"">
      <h2>Break Time</h2>
      <p>You have completed the first part of the study.</p>
      <p>You may take a short <strong>30-second break</strong> before continuing.</p>
      <p>When you’re ready, press any key to continue to the final task.</p>
    </div>
  "," ","html-keyboard-response","62","2.1.0","118065","J=YES, F=NO","1fz1ewo8mn","1","79","73","85","","","","","","","","","","","","","","","",""
"12012","
    <div style=""max-width: 800px; margin: auto; text-align: left;"">
      <h2>Part 2: Lexical Decision Task</h2>
      <p>You will now begin the second part of the study.</p>
      <p>Each trial will follow this sequence:</p>
      <ul>
        <li>A fixation cross (+) appears at the center of the screen.</li>
        <li>You will hear a short beep followed by a spoken word.</li>
        <li>A written word will appear briefly on the screen.</li>
      </ul>
      <p>Your task is to judge whether the <strong>written word</strong> is a real English word.</p>
      <p style=""margin-top: 1em;""><strong>Key responses:</strong></p>
      <ul>
        <li><strong>J</strong> = YES (real English word)</li>
        <li><strong>F</strong> = NO (not a real English word)</li>
      </ul>
      <p>Please respond as quickly and accurately as you can.</p>
      <p style=""margin-top: 2em;"">Press any key to continue.</p>
    </div>
  "," ","html-keyboard-response","63","2.1.0","130079","J=YES, F=NO","1fz1ewo8mn","1","79","73","85","","","","","","","","","","","","","","","",""
"3524","
    <div style=""max-width: 800px; margin: auto; text-align: left;"">
      <h2>Before You Begin</h2>
      <p>Make sure your sound is turned on.</p>
      <p>You will hear audio during each trial, but your decision should be based only on the <strong>written word</strong> you see on the screen.</p>
      <p><strong>Reminder:</strong></p>
      <ul>
        <li><strong>J</strong> = YES (real English word)</li>
        <li><strong>F</strong> = NO (not a real English word)</li>
      </ul>
      <p style=""margin-top: 2em;"">Press any key when you are ready to begin.</p>
    </div>
  "," ","html-keyboard-response","64","2.1.0","133605","J=YES, F=NO","1fz1ewo8mn","1","79","73","85","","","","","","","","","","","","","","","",""
"2218","
    <div style=""max-width: 800px; margin: auto; text-align: left;"">
      <h2>Part 2: Practice Trials</h2>
      <p>You will now complete a few <strong>practice trials</strong> to get familiar with the task.</p>
      <p>These trials are <strong>not scored</strong> and are only to help you get used to the format.</p>
      <p style=""margin-top: 2em;"">Press any key to begin.</p>
    </div>
  "," ","html-keyboard-response","65","2.1.0","135824","J=YES, F=NO","1fz1ewo8mn","1","79","73","85","","","","","","","","","","","","","","","",""
"1937","<p>Starting practice block 1 of 2. Press any key to continue.</p>","j","html-keyboard-response","66","2.1.0","137764","J=YES, F=NO","1fz1ewo8mn","1","79","73","85","","","","","","","","","","","","","","","",""
"null","<p style=""font-size: 50px;"">+</p>","null","html-keyboard-response","67","2.1.0","138066","J=YES, F=NO","1fz1ewo8mn","1","79","73","85","","","","","","","","","","","","","","","",""
"null","audio/beep-329314.mp3","null","audio-keyboard-response","68","2.1.0","139685","J=YES, F=NO","1fz1ewo8mn","1","79","73","85","","","","","","","","","","","","","","","",""
"null","audio/purpose.wav","null","audio-keyboard-response","69","2.1.0","140494","J=YES, F=NO","1fz1ewo8mn","1","79","73","85","","","","","","","","","","","","","","","",""
"1013","
          <p id=""word"" style=""font-size: 40px;"">whigm</p>
          <p style=""font-size: 16px;"">J = YES &nbsp;&nbsp;&nbsp; F = NO</p>
        ","f","html-keyboard-response","70","2.1.0","141510","J=YES, F=NO","1fz1ewo8mn","1","79","73","85","","","","","","","","","whigm","purpose","pseudoword","pseudoword","f","true","",""
"null","<p style=""font-size: 50px;"">+</p>","null","html-keyboard-response","71","2.1.0","141812","J=YES, F=NO","1fz1ewo8mn","1","79","73","85","","","","","","","","","","","","","","","",""
"null","audio/beep-329314.mp3","null","audio-keyboard-response","72","2.1.0","143354","J=YES, F=NO","1fz1ewo8mn","1","79","73","85","","","","","","","","","","","","","","","",""
"null","audio/hawk1.wav","null","audio-keyboard-response","73","2.1.0","144036","J=YES, F=NO","1fz1ewo8mn","1","79","73","85","","","","","","","","","","","","","","","",""
"null","
          <p id=""word"" style=""font-size: 40px;"">ostach</p>
          <p style=""font-size: 16px;"">J = YES &nbsp;&nbsp;&nbsp; F = NO</p>
        ","null","html-keyboard-response","74","2.1.0","145539","J=YES, F=NO","1fz1ewo8mn","1","79","73","85","","","","","","","","","ostach","hawk1","pseudoword","pseudoword","f","false","",""
"null","<p style=""font-size: 50px;"">+</p>","null","html-keyboard-response","75","2.1.0","145841","J=YES, F=NO","1fz1ewo8mn","1","79","73","85","","","","","","","","","","","","","","","",""
"null","audio/beep-329314.mp3","null","audio-keyboard-response","76","2.1.0","147386","J=YES, F=NO","1fz1ewo8mn","1","79","73","85","","","","","","","","","","","","","","","",""
"null","audio/key1.wav","null","audio-keyboard-response","77","2.1.0","147876","J=YES, F=NO","1fz1ewo8mn","1","79","73","85","","","","","","","","","","","","","","","",""
"750","
          <p id=""word"" style=""font-size: 40px;"">sminsh</p>
          <p style=""font-size: 16px;"">J = YES &nbsp;&nbsp;&nbsp; F = NO</p>
        ","f","html-keyboard-response","78","2.1.0","148627","J=YES, F=NO","1fz1ewo8mn","1","79","73","85","","","","","","","","","sminsh","key1","pseudoword","pseudoword","f","true","",""
"null","<p style=""font-size: 50px;"">+</p>","null","html-keyboard-response","79","2.1.0","148929","J=YES, F=NO","1fz1ewo8mn","1","79","73","85","","","","","","","","","","","","","","","",""
"null","audio/beep-329314.mp3","null","audio-keyboard-response","80","2.1.0","150478","J=YES, F=NO","1fz1ewo8mn","1","79","73","85","","","","","","","","","","","","","","","",""
"null","audio/butter1.wav","null","audio-keyboard-response","81","2.1.0","151012","J=YES, F=NO","1fz1ewo8mn","1","79","73","85","","","","","","","","","","","","","","","",""
"null","
          <p id=""word"" style=""font-size: 40px;"">chew</p>
          <p style=""font-size: 16px;"">J = YES &nbsp;&nbsp;&nbsp; F = NO</p>
        ","null","html-keyboard-response","82","2.1.0","152514","J=YES, F=NO","1fz1ewo8mn","1","79","73","85","","","","","","","","","chew","butter1","filler","filler","j","false","",""
"null","<p style=""font-size: 50px;"">+</p>","null","html-keyboard-response","83","2.1.0","152816","J=YES, F=NO","1fz1ewo8mn","1","79","73","85","","","","","","","","","","","","","","","",""
"null","audio/beep-329314.mp3","null","audio-keyboard-response","84","2.1.0","154362","J=YES, F=NO","1fz1ewo8mn","1","79","73","85","","","","","","","","","","","","","","","",""
"null","audio/emotion.wav","null","audio-keyboard-response","85","2.1.0","155022","J=YES, F=NO","1fz1ewo8mn","1","79","73","85","","","","","","","","","","","","","","","",""
"218","
          <p id=""word"" style=""font-size: 40px;"">devering</p>
          <p style=""font-size: 16px;"">J = YES &nbsp;&nbsp;&nbsp; F = NO</p>
        ","j","html-keyboard-response","86","2.1.0","155242","J=YES, F=NO","1fz1ewo8mn","1","79","73","85","","","","","","","","","devering","emotion","pseudoword","pseudoword","f","false","",""
"null","<p style=""font-size: 50px;"">+</p>","null","html-keyboard-response","87","2.1.0","155543","J=YES, F=NO","1fz1ewo8mn","1","79","73","85","","","","","","","","","","","","","","","",""
"null","audio/beep-329314.mp3","null","audio-keyboard-response","88","2.1.0","157091","J=YES, F=NO","1fz1ewo8mn","1","79","73","85","","","","","","","","","","","","","","","",""
"null","audio/age1.wav","null","audio-keyboard-response","89","2.1.0","157839","J=YES, F=NO","1fz1ewo8mn","1","79","73","85","","","","","","","","","","","","","","","",""
"322","
          <p id=""word"" style=""font-size: 40px;"">bake</p>
          <p style=""font-size: 16px;"">J = YES &nbsp;&nbsp;&nbsp; F = NO</p>
        ","j","html-keyboard-response","90","2.1.0","158162","J=YES, F=NO","1fz1ewo8mn","1","79","73","85","","","","","","","","","bake","age1","filler","filler","j","true","",""
"null","<p style=""font-size: 50px;"">+</p>","null","html-keyboard-response","91","2.1.0","158464","J=YES, F=NO","1fz1ewo8mn","1","79","73","85","","","","","","","","","","","","","","","",""
"null","audio/beep-329314.mp3","null","audio-keyboard-response","92","2.1.0","160014","J=YES, F=NO","1fz1ewo8mn","1","79","73","85","","","","","","","","","","","","","","","",""
"null","audio/cancer1.wav","null","audio-keyboard-response","93","2.1.0","160633","J=YES, F=NO","1fz1ewo8mn","1","79","73","85","","","","","","","","","","","","","","","",""
"573","
          <p id=""word"" style=""font-size: 40px;"">draw</p>
          <p style=""font-size: 16px;"">J = YES &nbsp;&nbsp;&nbsp; F = NO</p>
        ","j","html-keyboard-response","94","2.1.0","161208","J=YES, F=NO","1fz1ewo8mn","1","79","73","85","","","","","","","","","draw","cancer1","filler","filler","j","true","",""
"null","<p style=""font-size: 50px;"">+</p>","null","html-keyboard-response","95","2.1.0","161510","J=YES, F=NO","1fz1ewo8mn","1","79","73","85","","","","","","","","","","","","","","","",""
"null","audio/beep-329314.mp3","null","audio-keyboard-response","96","2.1.0","163067","J=YES, F=NO","1fz1ewo8mn","1","79","73","85","","","","","","","","","","","","","","","",""
"null","audio/menu.wav","null","audio-keyboard-response","97","2.1.0","163791","J=YES, F=NO","1fz1ewo8mn","1","79","73","85","","","","","","","","","","","","","","","",""
"543","
          <p id=""word"" style=""font-size: 40px;"">slice</p>
          <p style=""font-size: 16px;"">J = YES &nbsp;&nbsp;&nbsp; F = NO</p>
        ","j","html-keyboard-response","98","2.1.0","164336","J=YES, F=NO","1fz1ewo8mn","1","79","73","85","","","","","","","","","slice","menu","filler","filler","j","true","",""
"null","<p style=""font-size: 50px;"">+</p>","null","html-keyboard-response","99","2.1.0","164637","J=YES, F=NO","1fz1ewo8mn","1","79","73","85","","","","","","","","","","","","","","","",""
"null","audio/beep-329314.mp3","null","audio-keyboard-response","100","2.1.0","166180","J=YES, F=NO","1fz1ewo8mn","1","79","73","85","","","","","","","","","","","","","","","",""
"null","audio/stain.wav","null","audio-keyboard-response","101","2.1.0","166884","J=YES, F=NO","1fz1ewo8mn","1","79","73","85","","","","","","","","","","","","","","","",""
"795","
          <p id=""word"" style=""font-size: 40px;"">rumpsied</p>
          <p style=""font-size: 16px;"">J = YES &nbsp;&nbsp;&nbsp; F = NO</p>
        ","f","html-keyboard-response","102","2.1.0","167680","J=YES, F=NO","1fz1ewo8mn","1","79","73","85","","","","","","","","","rumpsied","stain","pseudoword","pseudoword","f","true","",""
"null","<p style=""font-size: 50px;"">+</p>","null","html-keyboard-response","103","2.1.0","167982","J=YES, F=NO","1fz1ewo8mn","1","79","73","85","","","","","","","","","","","","","","","",""
"null","audio/beep-329314.mp3","null","audio-keyboard-response","104","2.1.0","169530","J=YES, F=NO","1fz1ewo8mn","1","79","73","85","","","","","","","","","","","","","","","",""
"null","audio/cash1.wav","null","audio-keyboard-response","105","2.1.0","170107","J=YES, F=NO","1fz1ewo8mn","1","79","73","85","","","","","","","","","","","","","","","",""
"677","
          <p id=""word"" style=""font-size: 40px;"">splear</p>
          <p style=""font-size: 16px;"">J = YES &nbsp;&nbsp;&nbsp; F = NO</p>
        ","f","html-keyboard-response","106","2.1.0","170787","J=YES, F=NO","1fz1ewo8mn","1","79","73","85","","","","","","","","","splear","cash1","pseudoword","pseudoword","f","true","",""
"null","<p style=""font-size: 50px;"">+</p>","null","html-keyboard-response","107","2.1.0","171089","J=YES, F=NO","1fz1ewo8mn","1","79","73","85","","","","","","","","","","","","","","","",""
"null","audio/beep-329314.mp3","null","audio-keyboard-response","108","2.1.0","172644","J=YES, F=NO","1fz1ewo8mn","1","79","73","85","","","","","","","","","","","","","","","",""
"null","audio/fence.wav","null","audio-keyboard-response","109","2.1.0","173348","J=YES, F=NO","1fz1ewo8mn","1","79","73","85","","","","","","","","","","","","","","","",""
"963","
          <p id=""word"" style=""font-size: 40px;"">trim</p>
          <p style=""font-size: 16px;"">J = YES &nbsp;&nbsp;&nbsp; F = NO</p>
        ","j","html-keyboard-response","110","2.1.0","174312","J=YES, F=NO","1fz1ewo8mn","1","79","73","85","","","","","","","","","trim","fence","filler","filler","j","true","",""
"null","<p style=""font-size: 50px;"">+</p>","null","html-keyboard-response","111","2.1.0","174614","J=YES, F=NO","1fz1ewo8mn","1","79","73","85","","","","","","","","","","","","","","","",""
"null","audio/beep-329314.mp3","null","audio-keyboard-response","112","2.1.0","176164","J=YES, F=NO","1fz1ewo8mn","1","79","73","85","","","","","","","","","","","","","","","",""
"null","audio/tax1.wav","null","audio-keyboard-response","113","2.1.0","176783","J=YES, F=NO","1fz1ewo8mn","1","79","73","85","","","","","","","","","","","","","","","",""
"1100","
          <p id=""word"" style=""font-size: 40px;"">snate</p>
          <p style=""font-size: 16px;"">J = YES &nbsp;&nbsp;&nbsp; F = NO</p>
        ","f","html-keyboard-response","114","2.1.0","177885","J=YES, F=NO","1fz1ewo8mn","1","79","73","85","","","","","","","","","snate","tax1","pseudoword","pseudoword","f","true","",""
"1399","<p>Starting practice block 2 of 2. Press any key to continue.</p>","j","html-keyboard-response","115","2.1.0","179286","J=YES, F=NO","1fz1ewo8mn","1","79","73","85","","","","","","","","","","","","","","","",""
"null","<p style=""font-size: 50px;"">+</p>","null","html-keyboard-response","116","2.1.0","179589","J=YES, F=NO","1fz1ewo8mn","1","79","73","85","","","","","","","","","","","","","","","",""
"null","audio/beep-329314.mp3","null","audio-keyboard-response","117","2.1.0","181136","J=YES, F=NO","1fz1ewo8mn","1","79","73","85","","","","","","","","","","","","","","","",""
"null","audio/brain.wav","null","audio-keyboard-response","118","2.1.0","181669","J=YES, F=NO","1fz1ewo8mn","1","79","73","85","","","","","","","","","","","","","","","",""
"629","
          <p id=""word"" style=""font-size: 40px;"">throw</p>
          <p style=""font-size: 16px;"">J = YES &nbsp;&nbsp;&nbsp; F = NO</p>
        ","j","html-keyboard-response","119","2.1.0","182299","J=YES, F=NO","1fz1ewo8mn","1","79","73","85","","","","","","","","","throw","brain","filler","filler","j","true","",""
"null","<p style=""font-size: 50px;"">+</p>","null","html-keyboard-response","120","2.1.0","182601","J=YES, F=NO","1fz1ewo8mn","1","79","73","85","","","","","","","","","","","","","","","",""
"null","audio/beep-329314.mp3","null","audio-keyboard-response","121","2.1.0","184144","J=YES, F=NO","1fz1ewo8mn","1","79","73","85","","","","","","","","","","","","","","","",""
"null","audio/uncle1.wav","null","audio-keyboard-response","122","2.1.0","184697","J=YES, F=NO","1fz1ewo8mn","1","79","73","85","","","","","","","","","","","","","","","",""
"701","
          <p id=""word"" style=""font-size: 40px;"">dramble</p>
          <p style=""font-size: 16px;"">J = YES &nbsp;&nbsp;&nbsp; F = NO</p>
        ","f","html-keyboard-response","123","2.1.0","185399","J=YES, F=NO","1fz1ewo8mn","1","79","73","85","","","","","","","","","dramble","uncle1","pseudoword","pseudoword","f","true","",""
"null","<p style=""font-size: 50px;"">+</p>","null","html-keyboard-response","124","2.1.0","185701","J=YES, F=NO","1fz1ewo8mn","1","79","73","85","","","","","","","","","","","","","","","",""
"null","audio/beep-329314.mp3","null","audio-keyboard-response","125","2.1.0","187258","J=YES, F=NO","1fz1ewo8mn","1","79","73","85","","","","","","","","","","","","","","","",""
"null","audio/client1.wav","null","audio-keyboard-response","126","2.1.0","187962","J=YES, F=NO","1fz1ewo8mn","1","79","73","85","","","","","","","","","","","","","","","",""
"673","
          <p id=""word"" style=""font-size: 40px;"">droothe</p>
          <p style=""font-size: 16px;"">J = YES &nbsp;&nbsp;&nbsp; F = NO</p>
        ","f","html-keyboard-response","127","2.1.0","188636","J=YES, F=NO","1fz1ewo8mn","1","79","73","85","","","","","","","","","droothe","client1","pseudoword","pseudoword","f","true","",""
"null","<p style=""font-size: 50px;"">+</p>","null","html-keyboard-response","128","2.1.0","188939","J=YES, F=NO","1fz1ewo8mn","1","79","73","85","","","","","","","","","","","","","","","",""
"null","audio/beep-329314.mp3","null","audio-keyboard-response","129","2.1.0","190481","J=YES, F=NO","1fz1ewo8mn","1","79","73","85","","","","","","","","","","","","","","","",""
"null","audio/ankle1.wav","null","audio-keyboard-response","130","2.1.0","191033","J=YES, F=NO","1fz1ewo8mn","1","79","73","85","","","","","","","","","","","","","","","",""
"771","
          <p id=""word"" style=""font-size: 40px;"">kick</p>
          <p style=""font-size: 16px;"">J = YES &nbsp;&nbsp;&nbsp; F = NO</p>
        ","j","html-keyboard-response","131","2.1.0","191806","J=YES, F=NO","1fz1ewo8mn","1","79","73","85","","","","","","","","","kick","ankle1","filler","filler","j","true","",""
"null","<p style=""font-size: 50px;"">+</p>","null","html-keyboard-response","132","2.1.0","192108","J=YES, F=NO","1fz1ewo8mn","1","79","73","85","","","","","","","","","","","","","","","",""
"null","audio/beep-329314.mp3","null","audio-keyboard-response","133","2.1.0","193658","J=YES, F=NO","1fz1ewo8mn","1","79","73","85","","","","","","","","","","","","","","","",""
"null","audio/bridge.wav","null","audio-keyboard-response","134","2.1.0","194298","J=YES, F=NO","1fz1ewo8mn","1","79","73","85","","","","","","","","","","","","","","","",""
"798","
          <p id=""word"" style=""font-size: 40px;"">crack</p>
          <p style=""font-size: 16px;"">J = YES &nbsp;&nbsp;&nbsp; F = NO</p>
        ","j","html-keyboard-response","135","2.1.0","195098","J=YES, F=NO","1fz1ewo8mn","1","79","73","85","","","","","","","","","crack","bridge","filler","filler","j","true","",""
"null","<p style=""font-size: 50px;"">+</p>","null","html-keyboard-response","136","2.1.0","195400","J=YES, F=NO","1fz1ewo8mn","1","79","73","85","","","","","","","","","","","","","","","",""
"null","audio/beep-329314.mp3","null","audio-keyboard-response","137","2.1.0","196944","J=YES, F=NO","1fz1ewo8mn","1","79","73","85","","","","","","","","","","","","","","","",""
"null","audio/terrain.wav","null","audio-keyboard-response","138","2.1.0","197626","J=YES, F=NO","1fz1ewo8mn","1","79","73","85","","","","","","","","","","","","","","","",""
"756","
          <p id=""word"" style=""font-size: 40px;"">twist</p>
          <p style=""font-size: 16px;"">J = YES &nbsp;&nbsp;&nbsp; F = NO</p>
        ","j","html-keyboard-response","139","2.1.0","198384","J=YES, F=NO","1fz1ewo8mn","1","79","73","85","","","","","","","","","twist","terrain","filler","filler","j","true","",""
"null","<p style=""font-size: 50px;"">+</p>","null","html-keyboard-response","140","2.1.0","198685","J=YES, F=NO","1fz1ewo8mn","1","79","73","85","","","","","","","","","","","","","","","",""
"null","audio/beep-329314.mp3","null","audio-keyboard-response","141","2.1.0","200229","J=YES, F=NO","1fz1ewo8mn","1","79","73","85","","","","","","","","","","","","","","","",""
"null","audio/trust.wav","null","audio-keyboard-response","142","2.1.0","201018","J=YES, F=NO","1fz1ewo8mn","1","79","73","85","","","","","","","","","","","","","","","",""
"624","
          <p id=""word"" style=""font-size: 40px;"">swint</p>
          <p style=""font-size: 16px;"">J = YES &nbsp;&nbsp;&nbsp; F = NO</p>
        ","f","html-keyboard-response","143","2.1.0","201643","J=YES, F=NO","1fz1ewo8mn","1","79","73","85","","","","","","","","","swint","trust","pseudoword","pseudoword","f","true","",""
"null","<p style=""font-size: 50px;"">+</p>","null","html-keyboard-response","144","2.1.0","201945","J=YES, F=NO","1fz1ewo8mn","1","79","73","85","","","","","","","","","","","","","","","",""
"null","audio/beep-329314.mp3","null","audio-keyboard-response","145","2.1.0","203493","J=YES, F=NO","1fz1ewo8mn","1","79","73","85","","","","","","","","","","","","","","","",""
"null","audio/battle1.wav","null","audio-keyboard-response","146","2.1.0","203963","J=YES, F=NO","1fz1ewo8mn","1","79","73","85","","","","","","","","","","","","","","","",""
"537","
          <p id=""word"" style=""font-size: 40px;"">boil</p>
          <p style=""font-size: 16px;"">J = YES &nbsp;&nbsp;&nbsp; F = NO</p>
        ","j","html-keyboard-response","147","2.1.0","204502","J=YES, F=NO","1fz1ewo8mn","1","79","73","85","","","","","","","","","boil","battle1","filler","filler","j","true","",""
"null","<p style=""font-size: 50px;"">+</p>","null","html-keyboard-response","148","2.1.0","204804","J=YES, F=NO","1fz1ewo8mn","1","79","73","85","","","","","","","","","","","","","","","",""
"null","audio/beep-329314.mp3","null","audio-keyboard-response","149","2.1.0","206352","J=YES, F=NO","1fz1ewo8mn","1","79","73","85","","","","","","","","","","","","","","","",""
"null","audio/relief.wav","null","audio-keyboard-response","150","2.1.0","207163","J=YES, F=NO","1fz1ewo8mn","1","79","73","85","","","","","","","","","","","","","","","",""
"570","
          <p id=""word"" style=""font-size: 40px;"">grigg</p>
          <p style=""font-size: 16px;"">J = YES &nbsp;&nbsp;&nbsp; F = NO</p>
        ","f","html-keyboard-response","151","2.1.0","207734","J=YES, F=NO","1fz1ewo8mn","1","79","73","85","","","","","","","","","grigg","relief","pseudoword","pseudoword","f","true","",""
"null","<p style=""font-size: 50px;"">+</p>","null","html-keyboard-response","152","2.1.0","208036","J=YES, F=NO","1fz1ewo8mn","1","79","73","85","","","","","","","","","","","","","","","",""
"null","audio/beep-329314.mp3","null","audio-keyboard-response","153","2.1.0","209594","J=YES, F=NO","1fz1ewo8mn","1","79","73","85","","","","","","","","","","","","","","","",""
"null","audio/corpse1.wav","null","audio-keyboard-response","154","2.1.0","210278","J=YES, F=NO","1fz1ewo8mn","1","79","73","85","","","","","","","","","","","","","","","",""
"704","
          <p id=""word"" style=""font-size: 40px;"">glonet</p>
          <p style=""font-size: 16px;"">J = YES &nbsp;&nbsp;&nbsp; F = NO</p>
        ","f","html-keyboard-response","155","2.1.0","210984","J=YES, F=NO","1fz1ewo8mn","1","79","73","85","","","","","","","","","glonet","corpse1","pseudoword","pseudoword","f","true","",""
"null","<p style=""font-size: 50px;"">+</p>","null","html-keyboard-response","156","2.1.0","211285","J=YES, F=NO","1fz1ewo8mn","1","79","73","85","","","","","","","","","","","","","","","",""
"null","audio/beep-329314.mp3","null","audio-keyboard-response","157","2.1.0","212838","J=YES, F=NO","1fz1ewo8mn","1","79","73","85","","","","","","","","","","","","","","","",""
"null","audio/floor.wav","null","audio-keyboard-response","158","2.1.0","213477","J=YES, F=NO","1fz1ewo8mn","1","79","73","85","","","","","","","","","","","","","","","",""
"808","
          <p id=""word"" style=""font-size: 40px;"">mop</p>
          <p style=""font-size: 16px;"">J = YES &nbsp;&nbsp;&nbsp; F = NO</p>
        ","j","html-keyboard-response","159","2.1.0","214287","J=YES, F=NO","1fz1ewo8mn","1","79","73","85","","","","","","","","","mop","floor","filler","filler","j","true","",""
"null","<p style=""font-size: 50px;"">+</p>","null","html-keyboard-response","160","2.1.0","214589","J=YES, F=NO","1fz1ewo8mn","1","79","73","85","","","","","","","","","","","","","","","",""
"null","audio/beep-329314.mp3","null","audio-keyboard-response","161","2.1.0","216144","J=YES, F=NO","1fz1ewo8mn","1","79","73","85","","","","","","","","","","","","","","","",""
"null","audio/belief.wav","null","audio-keyboard-response","162","2.1.0","216827","J=YES, F=NO","1fz1ewo8mn","1","79","73","85","","","","","","","","","","","","","","","",""
"902","
          <p id=""word"" style=""font-size: 40px;"">read</p>
          <p style=""font-size: 16px;"">J = YES &nbsp;&nbsp;&nbsp; F = NO</p>
        ","j","html-keyboard-response","163","2.1.0","217731","J=YES, F=NO","1fz1ewo8mn","1","79","73","85","","","","","","","","","read","belief","filler","filler","j","true","",""
"18089","
    <div style=""max-width: 800px; margin: auto; text-align: left;"">
      <h2>Part 2: Main Trials</h2>
      <p>Great job on the practice trials!</p>
      <p>You will now begin the <strong>main set of trials</strong>.</p>
      <p>Remember your key assignments:</p>
      <ul>
        <li><strong>J</strong> = YES (real English word)</li>
        <li><strong>F</strong> = NO (not a real English word)</li>
      </ul>
      <p>Try to respond as <strong>quickly and accurately</strong> as possible.</p>
      <p style=""margin-top: 2em;"">Press any key to begin the main trials.</p>
    </div>
  ","j","html-keyboard-response","164","2.1.0","235821","J=YES, F=NO","1fz1ewo8mn","1","79","73","85","","","","","","","","","","","","","","","",""
"1245","<p>Starting main block 1 of 8. Press any key to continue.</p>","j","html-keyboard-response","165","2.1.0","237067","J=YES, F=NO","1fz1ewo8mn","1","79","73","85","","","","","","","","","","","","","","","",""
"null","<p style=""font-size: 50px;"">+</p>","null","html-keyboard-response","166","2.1.0","237368","J=YES, F=NO","1fz1ewo8mn","1","79","73","85","","","","","","","","","","","","","","","",""
"null","audio/beep-329314.mp3","null","audio-keyboard-response","167","2.1.0","238923","J=YES, F=NO","1fz1ewo8mn","1","79","73","85","","","","","","","","","","","","","","","",""
"null","audio/birth1.wav","null","audio-keyboard-response","168","2.1.0","239499","J=YES, F=NO","1fz1ewo8mn","1","79","73","85","","","","","","","","","","","","","","","",""
"716","
          <p id=""word"" style=""font-size: 40px;"">peel</p>
          <p style=""font-size: 16px;"">J = YES &nbsp;&nbsp;&nbsp; F = NO</p>
        ","j","html-keyboard-response","169","2.1.0","240216","J=YES, F=NO","1fz1ewo8mn","1","79","73","85","","","","","","","","","peel","birth1","filler","filler","j","true","",""
"null","<p style=""font-size: 50px;"">+</p>","null","html-keyboard-response","170","2.1.0","240518","J=YES, F=NO","1fz1ewo8mn","1","79","73","85","","","","","","","","","","","","","","","",""
"null","audio/beep-329314.mp3","null","audio-keyboard-response","171","2.1.0","242059","J=YES, F=NO","1fz1ewo8mn","1","79","73","85","","","","","","","","","","","","","","","",""
"null","audio/neck.wav","null","audio-keyboard-response","172","2.1.0","242636","J=YES, F=NO","1fz1ewo8mn","1","79","73","85","","","","","","","","","","","","","","","",""
"681","
          <p id=""word"" style=""font-size: 40px;"">werling</p>
          <p style=""font-size: 16px;"">J = YES &nbsp;&nbsp;&nbsp; F = NO</p>
        ","f","html-keyboard-response","173","2.1.0","243319","J=YES, F=NO","1fz1ewo8mn","1","79","73","85","","","","","","","","","werling","neck","pseudoword","pseudoword","f","true","",""
"null","<p style=""font-size: 50px;"">+</p>","null","html-keyboard-response","174","2.1.0","243621","J=YES, F=NO","1fz1ewo8mn","1","79","73","85","","","","","","","","","","","","","","","",""
"null","audio/beep-329314.mp3","null","audio-keyboard-response","175","2.1.0","245175","J=YES, F=NO","1fz1ewo8mn","1","79","73","85","","","","","","","","","","","","","","","",""
"null","audio/van1.wav","null","audio-keyboard-response","176","2.1.0","245750","J=YES, F=NO","1fz1ewo8mn","1","79","73","85","","","","","","","","","","","","","","","",""
"469","
          <p id=""word"" style=""font-size: 40px;"">support</p>
          <p style=""font-size: 16px;"">J = YES &nbsp;&nbsp;&nbsp; F = NO</p>
        ","j","html-keyboard-response","177","2.1.0","246220","J=YES, F=NO","1fz1ewo8mn","1","79","73","85","","","","","","","","","support","van1","unrelated","experimental","j","true","",""
"null","<p style=""font-size: 50px;"">+</p>","null","html-keyboard-response","178","2.1.0","246522","J=YES, F=NO","1fz1ewo8mn","1","79","73","85","","","","","","","","","","","","","","","",""
"null","audio/beep-329314.mp3","null","audio-keyboard-response","179","2.1.0","248075","J=YES, F=NO","1fz1ewo8mn","1","79","73","85","","","","","","","","","","","","","","","",""
"null","audio/battle1.wav","null","audio-keyboard-response","180","2.1.0","248545","J=YES, F=NO","1fz1ewo8mn","1","79","73","85","","","","","","","","","","","","","","","",""
"513","
          <p id=""word"" style=""font-size: 40px;"">fight</p>
          <p style=""font-size: 16px;"">J = YES &nbsp;&nbsp;&nbsp; F = NO</p>
        ","j","html-keyboard-response","181","2.1.0","249059","J=YES, F=NO","1fz1ewo8mn","1","79","73","85","","","","","","","","","fight","battle1","literal","experimental","j","true","",""
"null","<p style=""font-size: 50px;"">+</p>","null","html-keyboard-response","182","2.1.0","249361","J=YES, F=NO","1fz1ewo8mn","1","79","73","85","","","","","","","","","","","","","","","",""
"null","audio/beep-329314.mp3","null","audio-keyboard-response","183","2.1.0","250913","J=YES, F=NO","1fz1ewo8mn","1","79","73","85","","","","","","","","","","","","","","","",""
"null","audio/death1.wav","null","audio-keyboard-response","184","2.1.0","251702","J=YES, F=NO","1fz1ewo8mn","1","79","73","85","","","","","","","","","","","","","","","",""
"729","
          <p id=""word"" style=""font-size: 40px;"">conquer</p>
          <p style=""font-size: 16px;"">J = YES &nbsp;&nbsp;&nbsp; F = NO</p>
        ","j","html-keyboard-response","185","2.1.0","252432","J=YES, F=NO","1fz1ewo8mn","1","79","73","85","","","","","","","","","conquer","death1","metaphor","experimental","j","true","",""
"null","<p style=""font-size: 50px;"">+</p>","null","html-keyboard-response","186","2.1.0","252734","J=YES, F=NO","1fz1ewo8mn","1","79","73","85","","","","","","","","","","","","","","","",""
"null","audio/beep-329314.mp3","null","audio-keyboard-response","187","2.1.0","254284","J=YES, F=NO","1fz1ewo8mn","1","79","73","85","","","","","","","","","","","","","","","",""
"null","audio/storm1.wav","null","audio-keyboard-response","188","2.1.0","254923","J=YES, F=NO","1fz1ewo8mn","1","79","73","85","","","","","","","","","","","","","","","",""
"829","
          <p id=""word"" style=""font-size: 40px;"">climb</p>
          <p style=""font-size: 16px;"">J = YES &nbsp;&nbsp;&nbsp; F = NO</p>
        ","j","html-keyboard-response","189","2.1.0","255754","J=YES, F=NO","1fz1ewo8mn","1","79","73","85","","","","","","","","","climb","storm1","unrelated","experimental","j","true","",""
"null","<p style=""font-size: 50px;"">+</p>","null","html-keyboard-response","190","2.1.0","256055","J=YES, F=NO","1fz1ewo8mn","1","79","73","85","","","","","","","","","","","","","","","",""
"null","audio/beep-329314.mp3","null","audio-keyboard-response","191","2.1.0","257612","J=YES, F=NO","1fz1ewo8mn","1","79","73","85","","","","","","","","","","","","","","","",""
"null","audio/tax1.wav","null","audio-keyboard-response","192","2.1.0","258251","J=YES, F=NO","1fz1ewo8mn","1","79","73","85","","","","","","","","","","","","","","","",""
"733","
          <p id=""word"" style=""font-size: 40px;"">scrap</p>
          <p style=""font-size: 16px;"">J = YES &nbsp;&nbsp;&nbsp; F = NO</p>
        ","j","html-keyboard-response","193","2.1.0","258986","J=YES, F=NO","1fz1ewo8mn","1","79","73","85","","","","","","","","","scrap","tax1","metaphor","experimental","j","true","",""
"null","<p style=""font-size: 50px;"">+</p>","null","html-keyboard-response","194","2.1.0","259288","J=YES, F=NO","1fz1ewo8mn","1","79","73","85","","","","","","","","","","","","","","","",""
"null","audio/beep-329314.mp3","null","audio-keyboard-response","195","2.1.0","260832","J=YES, F=NO","1fz1ewo8mn","1","79","73","85","","","","","","","","","","","","","","","",""
"null","audio/truth1.wav","null","audio-keyboard-response","196","2.1.0","261687","J=YES, F=NO","1fz1ewo8mn","1","79","73","85","","","","","","","","","","","","","","","",""
"542","
          <p id=""word"" style=""font-size: 40px;"">calitom</p>
          <p style=""font-size: 16px;"">J = YES &nbsp;&nbsp;&nbsp; F = NO</p>
        ","f","html-keyboard-response","197","2.1.0","262231","J=YES, F=NO","1fz1ewo8mn","1","79","73","85","","","","","","","","","calitom","truth1","pseudoword","pseudoword","f","true","",""
"null","<p style=""font-size: 50px;"">+</p>","null","html-keyboard-response","198","2.1.0","262532","J=YES, F=NO","1fz1ewo8mn","1","79","73","85","","","","","","","","","","","","","","","",""
"null","audio/beep-329314.mp3","null","audio-keyboard-response","199","2.1.0","264076","J=YES, F=NO","1fz1ewo8mn","1","79","73","85","","","","","","","","","","","","","","","",""
"null","audio/empire.wav","null","audio-keyboard-response","200","2.1.0","265036","J=YES, F=NO","1fz1ewo8mn","1","79","73","85","","","","","","","","","","","","","","","",""
"505","
          <p id=""word"" style=""font-size: 40px;"">slorby</p>
          <p style=""font-size: 16px;"">J = YES &nbsp;&nbsp;&nbsp; F = NO</p>
        ","f","html-keyboard-response","201","2.1.0","265542","J=YES, F=NO","1fz1ewo8mn","1","79","73","85","","","","","","","","","slorby","empire","pseudoword","pseudoword","f","true","",""
"null","<p style=""font-size: 50px;"">+</p>","null","html-keyboard-response","202","2.1.0","265844","J=YES, F=NO","1fz1ewo8mn","1","79","73","85","","","","","","","","","","","","","","","",""
"null","audio/beep-329314.mp3","null","audio-keyboard-response","203","2.1.0","267404","J=YES, F=NO","1fz1ewo8mn","1","79","73","85","","","","","","","","","","","","","","","",""
"null","audio/alarm1.wav","null","audio-keyboard-response","204","2.1.0","268278","J=YES, F=NO","1fz1ewo8mn","1","79","73","85","","","","","","","","","","","","","","","",""
"510","
          <p id=""word"" style=""font-size: 40px;"">lock</p>
          <p style=""font-size: 16px;"">J = YES &nbsp;&nbsp;&nbsp; F = NO</p>
        ","j","html-keyboard-response","205","2.1.0","268790","J=YES, F=NO","1fz1ewo8mn","1","79","73","85","","","","","","","","","lock","alarm1","filler","filler","j","true","",""
"null","<p style=""font-size: 50px;"">+</p>","null","html-keyboard-response","206","2.1.0","269092","J=YES, F=NO","1fz1ewo8mn","1","79","73","85","","","","","","","","","","","","","","","",""
"null","audio/beep-329314.mp3","null","audio-keyboard-response","207","2.1.0","270646","J=YES, F=NO","1fz1ewo8mn","1","79","73","85","","","","","","","","","","","","","","","",""
"null","audio/sugar1.wav","null","audio-keyboard-response","208","2.1.0","271244","J=YES, F=NO","1fz1ewo8mn","1","79","73","85","","","","","","","","","","","","","","","",""
"529","
          <p id=""word"" style=""font-size: 40px;"">glung</p>
          <p style=""font-size: 16px;"">J = YES &nbsp;&nbsp;&nbsp; F = NO</p>
        ","f","html-keyboard-response","209","2.1.0","271774","J=YES, F=NO","1fz1ewo8mn","1","79","73","85","","","","","","","","","glung","sugar1","pseudoword","pseudoword","f","true","",""
"null","<p style=""font-size: 50px;"">+</p>","null","html-keyboard-response","210","2.1.0","272077","J=YES, F=NO","1fz1ewo8mn","1","79","73","85","","","","","","","","","","","","","","","",""
"null","audio/beep-329314.mp3","null","audio-keyboard-response","211","2.1.0","273634","J=YES, F=NO","1fz1ewo8mn","1","79","73","85","","","","","","","","","","","","","","","",""
"null","audio/meal.wav","null","audio-keyboard-response","212","2.1.0","274103","J=YES, F=NO","1fz1ewo8mn","1","79","73","85","","","","","","","","","","","","","","","",""
"532","
          <p id=""word"" style=""font-size: 40px;"">gallite</p>
          <p style=""font-size: 16px;"">J = YES &nbsp;&nbsp;&nbsp; F = NO</p>
        ","f","html-keyboard-response","213","2.1.0","274638","J=YES, F=NO","1fz1ewo8mn","1","79","73","85","","","","","","","","","gallite","meal","pseudoword","pseudoword","f","true","",""
"null","<p style=""font-size: 50px;"">+</p>","null","html-keyboard-response","214","2.1.0","274939","J=YES, F=NO","1fz1ewo8mn","1","79","73","85","","","","","","","","","","","","","","","",""
"null","audio/beep-329314.mp3","null","audio-keyboard-response","215","2.1.0","276492","J=YES, F=NO","1fz1ewo8mn","1","79","73","85","","","","","","","","","","","","","","","",""
"null","audio/promise1.wav","null","audio-keyboard-response","216","2.1.0","277132","J=YES, F=NO","1fz1ewo8mn","1","79","73","85","","","","","","","","","","","","","","","",""
"441","
          <p id=""word"" style=""font-size: 40px;"">break</p>
          <p style=""font-size: 16px;"">J = YES &nbsp;&nbsp;&nbsp; F = NO</p>
        ","j","html-keyboard-response","217","2.1.0","277574","J=YES, F=NO","1fz1ewo8mn","1","79","73","85","","","","","","","","","break","promise1","metaphor","experimental","j","true","",""
"null","<p style=""font-size: 50px;"">+</p>","null","html-keyboard-response","218","2.1.0","277876","J=YES, F=NO","1fz1ewo8mn","1","79","73","85","","","","","","","","","","","","","","","",""
"null","audio/beep-329314.mp3","null","audio-keyboard-response","219","2.1.0","279415","J=YES, F=NO","1fz1ewo8mn","1","79","73","85","","","","","","","","","","","","","","","",""
"null","audio/age1.wav","null","audio-keyboard-response","220","2.1.0","279990","J=YES, F=NO","1fz1ewo8mn","1","79","73","85","","","","","","","","","","","","","","","",""
"516","
          <p id=""word"" style=""font-size: 40px;"">lachry</p>
          <p style=""font-size: 16px;"">J = YES &nbsp;&nbsp;&nbsp; F = NO</p>
        ","f","html-keyboard-response","221","2.1.0","280508","J=YES, F=NO","1fz1ewo8mn","1","79","73","85","","","","","","","","","lachry","age1","pseudoword","pseudoword","f","true","",""
"null","<p style=""font-size: 50px;"">+</p>","null","html-keyboard-response","222","2.1.0","280809","J=YES, F=NO","1fz1ewo8mn","1","79","73","85","","","","","","","","","","","","","","","",""
"null","audio/beep-329314.mp3","null","audio-keyboard-response","223","2.1.0","282359","J=YES, F=NO","1fz1ewo8mn","1","79","73","85","","","","","","","","","","","","","","","",""
"null","audio/ego.wav","null","audio-keyboard-response","224","2.1.0","283190","J=YES, F=NO","1fz1ewo8mn","1","79","73","85","","","","","","","","","","","","","","","",""
"724","
          <p id=""word"" style=""font-size: 40px;"">bruite</p>
          <p style=""font-size: 16px;"">J = YES &nbsp;&nbsp;&nbsp; F = NO</p>
        ","f","html-keyboard-response","225","2.1.0","283916","J=YES, F=NO","1fz1ewo8mn","1","79","73","85","","","","","","","","","bruite","ego","pseudoword","pseudoword","f","true","",""
"null","<p style=""font-size: 50px;"">+</p>","null","html-keyboard-response","226","2.1.0","284219","J=YES, F=NO","1fz1ewo8mn","1","79","73","85","","","","","","","","","","","","","","","",""
"null","audio/beep-329314.mp3","null","audio-keyboard-response","227","2.1.0","285773","J=YES, F=NO","1fz1ewo8mn","1","79","73","85","","","","","","","","","","","","","","","",""
"null","audio/bush1.wav","null","audio-keyboard-response","228","2.1.0","286262","J=YES, F=NO","1fz1ewo8mn","1","79","73","85","","","","","","","","","","","","","","","",""
"606","
          <p id=""word"" style=""font-size: 40px;"">platined</p>
          <p style=""font-size: 16px;"">J = YES &nbsp;&nbsp;&nbsp; F = NO</p>
        ","f","html-keyboard-response","229","2.1.0","286870","J=YES, F=NO","1fz1ewo8mn","1","79","73","85","","","","","","","","","platined","bush1","pseudoword","pseudoword","f","true","",""
"1615","<p>Excellent! You have finished block 1 of 8.</p>
                     <p>Feel free to take a 30 second break.</p>
                     <p>Press any key when you're ready to continue.</p>","j","html-keyboard-response","230","2.1.0","288486","J=YES, F=NO","1fz1ewo8mn","1","79","73","85","","","","","","","","","","","","","","","",""
"513","<p>Starting main block 2 of 8. Press any key to continue.</p>","j","html-keyboard-response","231","2.1.0","289001","J=YES, F=NO","1fz1ewo8mn","1","79","73","85","","","","","","","","","","","","","","","",""
"null","<p style=""font-size: 50px;"">+</p>","null","html-keyboard-response","232","2.1.0","289303","J=YES, F=NO","1fz1ewo8mn","1","79","73","85","","","","","","","","","","","","","","","",""
"null","audio/beep-329314.mp3","null","audio-keyboard-response","233","2.1.0","290850","J=YES, F=NO","1fz1ewo8mn","1","79","73","85","","","","","","","","","","","","","","","",""
"null","audio/emotion.wav","null","audio-keyboard-response","234","2.1.0","291511","J=YES, F=NO","1fz1ewo8mn","1","79","73","85","","","","","","","","","","","","","","","",""
"726","
          <p id=""word"" style=""font-size: 40px;"">bury</p>
          <p style=""font-size: 16px;"">J = YES &nbsp;&nbsp;&nbsp; F = NO</p>
        ","j","html-keyboard-response","235","2.1.0","292239","J=YES, F=NO","1fz1ewo8mn","1","79","73","85","","","","","","","","","bury","emotion","metaphor","experimental","j","true","",""
"null","<p style=""font-size: 50px;"">+</p>","null","html-keyboard-response","236","2.1.0","292540","J=YES, F=NO","1fz1ewo8mn","1","79","73","85","","","","","","","","","","","","","","","",""
"null","audio/beep-329314.mp3","null","audio-keyboard-response","237","2.1.0","294093","J=YES, F=NO","1fz1ewo8mn","1","79","73","85","","","","","","","","","","","","","","","",""
"null","audio/camera1.wav","null","audio-keyboard-response","238","2.1.0","294605","J=YES, F=NO","1fz1ewo8mn","1","79","73","85","","","","","","","","","","","","","","","",""
"557","
          <p id=""word"" style=""font-size: 40px;"">stir</p>
          <p style=""font-size: 16px;"">J = YES &nbsp;&nbsp;&nbsp; F = NO</p>
        ","f","html-keyboard-response","239","2.1.0","295164","J=YES, F=NO","1fz1ewo8mn","1","79","73","85","","","","","","","","","stir","camera1","filler","filler","j","false","",""
"null","<p style=""font-size: 50px;"">+</p>","null","html-keyboard-response","240","2.1.0","295466","J=YES, F=NO","1fz1ewo8mn","1","79","73","85","","","","","","","","","","","","","","","",""
"null","audio/beep-329314.mp3","null","audio-keyboard-response","241","2.1.0","297016","J=YES, F=NO","1fz1ewo8mn","1","79","73","85","","","","","","","","","","","","","","","",""
"null","audio/arm.wav","null","audio-keyboard-response","242","2.1.0","297612","J=YES, F=NO","1fz1ewo8mn","1","79","73","85","","","","","","","","","","","","","","","",""
"622","
          <p id=""word"" style=""font-size: 40px;"">fold</p>
          <p style=""font-size: 16px;"">J = YES &nbsp;&nbsp;&nbsp; F = NO</p>
        ","j","html-keyboard-response","243","2.1.0","298235","J=YES, F=NO","1fz1ewo8mn","1","79","73","85","","","","","","","","","fold","arm","filler","filler","j","true","",""
"null","<p style=""font-size: 50px;"">+</p>","null","html-keyboard-response","244","2.1.0","298537","J=YES, F=NO","1fz1ewo8mn","1","79","73","85","","","","","","","","","","","","","","","",""
"null","audio/beep-329314.mp3","null","audio-keyboard-response","245","2.1.0","300087","J=YES, F=NO","1fz1ewo8mn","1","79","73","85","","","","","","","","","","","","","","","",""
"null","audio/account1.wav","null","audio-keyboard-response","246","2.1.0","301047","J=YES, F=NO","1fz1ewo8mn","1","79","73","85","","","","","","","","","","","","","","","",""
"480","
          <p id=""word"" style=""font-size: 40px;"">paint</p>
          <p style=""font-size: 16px;"">J = YES &nbsp;&nbsp;&nbsp; F = NO</p>
        ","j","html-keyboard-response","247","2.1.0","301529","J=YES, F=NO","1fz1ewo8mn","1","79","73","85","","","","","","","","","paint","account1","filler","filler","j","true","",""
"null","<p style=""font-size: 50px;"">+</p>","null","html-keyboard-response","248","2.1.0","301831","J=YES, F=NO","1fz1ewo8mn","1","79","73","85","","","","","","","","","","","","","","","",""
"null","audio/beep-329314.mp3","null","audio-keyboard-response","249","2.1.0","303373","J=YES, F=NO","1fz1ewo8mn","1","79","73","85","","","","","","","","","","","","","","","",""
"null","audio/dome.wav","null","audio-keyboard-response","250","2.1.0","303821","J=YES, F=NO","1fz1ewo8mn","1","79","73","85","","","","","","","","","","","","","","","",""
"651","
          <p id=""word"" style=""font-size: 40px;"">scrupliness</p>
          <p style=""font-size: 16px;"">J = YES &nbsp;&nbsp;&nbsp; F = NO</p>
        ","f","html-keyboard-response","251","2.1.0","304474","J=YES, F=NO","1fz1ewo8mn","1","79","73","85","","","","","","","","","scrupliness","dome","pseudoword","pseudoword","f","true","",""
"null","<p style=""font-size: 50px;"">+</p>","null","html-keyboard-response","252","2.1.0","304776","J=YES, F=NO","1fz1ewo8mn","1","79","73","85","","","","","","","","","","","","","","","",""
"null","audio/beep-329314.mp3","null","audio-keyboard-response","253","2.1.0","306316","J=YES, F=NO","1fz1ewo8mn","1","79","73","85","","","","","","","","","","","","","","","",""
"null","audio/dollar.wav","null","audio-keyboard-response","254","2.1.0","306701","J=YES, F=NO","1fz1ewo8mn","1","79","73","85","","","","","","","","","","","","","","","",""
"578","
          <p id=""word"" style=""font-size: 40px;"">gliptism</p>
          <p style=""font-size: 16px;"">J = YES &nbsp;&nbsp;&nbsp; F = NO</p>
        ","f","html-keyboard-response","255","2.1.0","307280","J=YES, F=NO","1fz1ewo8mn","1","79","73","85","","","","","","","","","gliptism","dollar","pseudoword","pseudoword","f","true","",""
"null","<p style=""font-size: 50px;"">+</p>","null","html-keyboard-response","256","2.1.0","307583","J=YES, F=NO","1fz1ewo8mn","1","79","73","85","","","","","","","","","","","","","","","",""
"null","audio/beep-329314.mp3","null","audio-keyboard-response","257","2.1.0","309133","J=YES, F=NO","1fz1ewo8mn","1","79","73","85","","","","","","","","","","","","","","","",""
"null","audio/grass.wav","null","audio-keyboard-response","258","2.1.0","310007","J=YES, F=NO","1fz1ewo8mn","1","79","73","85","","","","","","","","","","","","","","","",""
"532","
          <p id=""word"" style=""font-size: 40px;"">cut</p>
          <p style=""font-size: 16px;"">J = YES &nbsp;&nbsp;&nbsp; F = NO</p>
        ","j","html-keyboard-response","259","2.1.0","310541","J=YES, F=NO","1fz1ewo8mn","1","79","73","85","","","","","","","","","cut","grass","literal","experimental","j","true","",""
"null","<p style=""font-size: 50px;"">+</p>","null","html-keyboard-response","260","2.1.0","310842","J=YES, F=NO","1fz1ewo8mn","1","79","73","85","","","","","","","","","","","","","","","",""
"null","audio/beep-329314.mp3","null","audio-keyboard-response","261","2.1.0","312397","J=YES, F=NO","1fz1ewo8mn","1","79","73","85","","","","","","","","","","","","","","","",""
"null","audio/roof1.wav","null","audio-keyboard-response","262","2.1.0","312994","J=YES, F=NO","1fz1ewo8mn","1","79","73","85","","","","","","","","","","","","","","","",""
"596","
          <p id=""word"" style=""font-size: 40px;"">construct</p>
          <p style=""font-size: 16px;"">J = YES &nbsp;&nbsp;&nbsp; F = NO</p>
        ","j","html-keyboard-response","263","2.1.0","313591","J=YES, F=NO","1fz1ewo8mn","1","79","73","85","","","","","","","","","construct","roof1","literal","experimental","j","true","",""
"null","<p style=""font-size: 50px;"">+</p>","null","html-keyboard-response","264","2.1.0","313893","J=YES, F=NO","1fz1ewo8mn","1","79","73","85","","","","","","","","","","","","","","","",""
"null","audio/beep-329314.mp3","null","audio-keyboard-response","265","2.1.0","315447","J=YES, F=NO","1fz1ewo8mn","1","79","73","85","","","","","","","","","","","","","","","",""
"null","audio/noise1.wav","null","audio-keyboard-response","266","2.1.0","316323","J=YES, F=NO","1fz1ewo8mn","1","79","73","85","","","","","","","","","","","","","","","",""
"968","
          <p id=""word"" style=""font-size: 40px;"">slintered</p>
          <p style=""font-size: 16px;"">J = YES &nbsp;&nbsp;&nbsp; F = NO</p>
        ","f","html-keyboard-response","267","2.1.0","317292","J=YES, F=NO","1fz1ewo8mn","1","79","73","85","","","","","","","","","slintered","noise1","pseudoword","pseudoword","f","true","",""
"null","<p style=""font-size: 50px;"">+</p>","null","html-keyboard-response","268","2.1.0","317594","J=YES, F=NO","1fz1ewo8mn","1","79","73","85","","","","","","","","","","","","","","","",""
"null","audio/beep-329314.mp3","null","audio-keyboard-response","269","2.1.0","319138","J=YES, F=NO","1fz1ewo8mn","1","79","73","85","","","","","","","","","","","","","","","",""
"null","audio/alarm1.wav","null","audio-keyboard-response","270","2.1.0","319736","J=YES, F=NO","1fz1ewo8mn","1","79","73","85","","","","","","","","","","","","","","","",""
"550","
          <p id=""word"" style=""font-size: 40px;"">save</p>
          <p style=""font-size: 16px;"">J = YES &nbsp;&nbsp;&nbsp; F = NO</p>
        ","j","html-keyboard-response","271","2.1.0","320287","J=YES, F=NO","1fz1ewo8mn","1","79","73","85","","","","","","","","","save","alarm1","unrelated","experimental","j","true","",""
"null","<p style=""font-size: 50px;"">+</p>","null","html-keyboard-response","272","2.1.0","320589","J=YES, F=NO","1fz1ewo8mn","1","79","73","85","","","","","","","","","","","","","","","",""
"null","audio/beep-329314.mp3","null","audio-keyboard-response","273","2.1.0","322145","J=YES, F=NO","1fz1ewo8mn","1","79","73","85","","","","","","","","","","","","","","","",""
"null","audio/bush1.wav","null","audio-keyboard-response","274","2.1.0","322637","J=YES, F=NO","1fz1ewo8mn","1","79","73","85","","","","","","","","","","","","","","","",""
"456","
          <p id=""word"" style=""font-size: 40px;"">run</p>
          <p style=""font-size: 16px;"">J = YES &nbsp;&nbsp;&nbsp; F = NO</p>
        ","j","html-keyboard-response","275","2.1.0","323094","J=YES, F=NO","1fz1ewo8mn","1","79","73","85","","","","","","","","","run","bush1","unrelated","experimental","j","true","",""
"null","<p style=""font-size: 50px;"">+</p>","null","html-keyboard-response","276","2.1.0","323396","J=YES, F=NO","1fz1ewo8mn","1","79","73","85","","","","","","","","","","","","","","","",""
"null","audio/beep-329314.mp3","null","audio-keyboard-response","277","2.1.0","324941","J=YES, F=NO","1fz1ewo8mn","1","79","73","85","","","","","","","","","","","","","","","",""
"null","audio/arm.wav","null","audio-keyboard-response","278","2.1.0","325496","J=YES, F=NO","1fz1ewo8mn","1","79","73","85","","","","","","","","","","","","","","","",""
"554","
          <p id=""word"" style=""font-size: 40px;"">pigne</p>
          <p style=""font-size: 16px;"">J = YES &nbsp;&nbsp;&nbsp; F = NO</p>
        ","f","html-keyboard-response","279","2.1.0","326052","J=YES, F=NO","1fz1ewo8mn","1","79","73","85","","","","","","","","","pigne","arm","pseudoword","pseudoword","f","true","",""
"null","<p style=""font-size: 50px;"">+</p>","null","html-keyboard-response","280","2.1.0","326354","J=YES, F=NO","1fz1ewo8mn","1","79","73","85","","","","","","","","","","","","","","","",""
"null","audio/beep-329314.mp3","null","audio-keyboard-response","281","2.1.0","327906","J=YES, F=NO","1fz1ewo8mn","1","79","73","85","","","","","","","","","","","","","","","",""
"null","audio/survey1.wav","null","audio-keyboard-response","282","2.1.0","328781","J=YES, F=NO","1fz1ewo8mn","1","79","73","85","","","","","","","","","","","","","","","",""
"597","
          <p id=""word"" style=""font-size: 40px;"">imploth</p>
          <p style=""font-size: 16px;"">J = YES &nbsp;&nbsp;&nbsp; F = NO</p>
        ","f","html-keyboard-response","283","2.1.0","329380","J=YES, F=NO","1fz1ewo8mn","1","79","73","85","","","","","","","","","imploth","survey1","pseudoword","pseudoword","f","true","",""
"null","<p style=""font-size: 50px;"">+</p>","null","html-keyboard-response","284","2.1.0","329682","J=YES, F=NO","1fz1ewo8mn","1","79","73","85","","","","","","","","","","","","","","","",""
"null","audio/beep-329314.mp3","null","audio-keyboard-response","285","2.1.0","331235","J=YES, F=NO","1fz1ewo8mn","1","79","73","85","","","","","","","","","","","","","","","",""
"null","audio/gift1.wav","null","audio-keyboard-response","286","2.1.0","331939","J=YES, F=NO","1fz1ewo8mn","1","79","73","85","","","","","","","","","","","","","","","",""
"573","
          <p id=""word"" style=""font-size: 40px;"">protsh</p>
          <p style=""font-size: 16px;"">J = YES &nbsp;&nbsp;&nbsp; F = NO</p>
        ","f","html-keyboard-response","287","2.1.0","332514","J=YES, F=NO","1fz1ewo8mn","1","79","73","85","","","","","","","","","protsh","gift1","pseudoword","pseudoword","f","true","",""
"null","<p style=""font-size: 50px;"">+</p>","null","html-keyboard-response","288","2.1.0","332816","J=YES, F=NO","1fz1ewo8mn","1","79","73","85","","","","","","","","","","","","","","","",""
"null","audio/beep-329314.mp3","null","audio-keyboard-response","289","2.1.0","334370","J=YES, F=NO","1fz1ewo8mn","1","79","73","85","","","","","","","","","","","","","","","",""
"null","audio/essence1.wav","null","audio-keyboard-response","290","2.1.0","335075","J=YES, F=NO","1fz1ewo8mn","1","79","73","85","","","","","","","","","","","","","","","",""
"651","
          <p id=""word"" style=""font-size: 40px;"">grasp</p>
          <p style=""font-size: 16px;"">J = YES &nbsp;&nbsp;&nbsp; F = NO</p>
        ","j","html-keyboard-response","291","2.1.0","335727","J=YES, F=NO","1fz1ewo8mn","1","79","73","85","","","","","","","","","grasp","essence1","metaphor","experimental","j","true","",""
"null","<p style=""font-size: 50px;"">+</p>","null","html-keyboard-response","292","2.1.0","336028","J=YES, F=NO","1fz1ewo8mn","1","79","73","85","","","","","","","","","","","","","","","",""
"null","audio/beep-329314.mp3","null","audio-keyboard-response","293","2.1.0","337571","J=YES, F=NO","1fz1ewo8mn","1","79","73","85","","","","","","","","","","","","","","","",""
"null","audio/prisoner.wav","null","audio-keyboard-response","294","2.1.0","338339","J=YES, F=NO","1fz1ewo8mn","1","79","73","85","","","","","","","","","","","","","","","",""
"699","
          <p id=""word"" style=""font-size: 40px;"">egotian</p>
          <p style=""font-size: 16px;"">J = YES &nbsp;&nbsp;&nbsp; F = NO</p>
        ","f","html-keyboard-response","295","2.1.0","339040","J=YES, F=NO","1fz1ewo8mn","1","79","73","85","","","","","","","","","egotian","prisoner","pseudoword","pseudoword","f","true","",""
"10397","<p>Excellent! You have finished block 2 of 8.</p>
                     <p>Feel free to take a 30 second break.</p>
                     <p>Press any key when you're ready to continue.</p>","j","html-keyboard-response","296","2.1.0","349438","J=YES, F=NO","1fz1ewo8mn","1","79","73","85","","","","","","","","","","","","","","","",""
"684","<p>Starting main block 3 of 8. Press any key to continue.</p>","j","html-keyboard-response","297","2.1.0","350124","J=YES, F=NO","1fz1ewo8mn","1","79","73","85","","","","","","","","","","","","","","","",""
"null","<p style=""font-size: 50px;"">+</p>","null","html-keyboard-response","298","2.1.0","350426","J=YES, F=NO","1fz1ewo8mn","1","79","73","85","","","","","","","","","","","","","","","",""
"null","audio/beep-329314.mp3","null","audio-keyboard-response","299","2.1.0","351971","J=YES, F=NO","1fz1ewo8mn","1","79","73","85","","","","","","","","","","","","","","","",""
"null","audio/gossip1.wav","null","audio-keyboard-response","300","2.1.0","352590","J=YES, F=NO","1fz1ewo8mn","1","79","73","85","","","","","","","","","","","","","","","",""
"557","
          <p id=""word"" style=""font-size: 40px;"">wrestle</p>
          <p style=""font-size: 16px;"">J = YES &nbsp;&nbsp;&nbsp; F = NO</p>
        ","j","html-keyboard-response","301","2.1.0","353149","J=YES, F=NO","1fz1ewo8mn","1","79","73","85","","","","","","","","","wrestle","gossip1","unrelated","experimental","j","true","",""
"null","<p style=""font-size: 50px;"">+</p>","null","html-keyboard-response","302","2.1.0","353450","J=YES, F=NO","1fz1ewo8mn","1","79","73","85","","","","","","","","","","","","","","","",""
"null","audio/beep-329314.mp3","null","audio-keyboard-response","303","2.1.0","355043","J=YES, F=NO","1fz1ewo8mn","1","79","73","85","","","","","","","","","","","","","","","",""
"null","audio/gift1.wav","null","audio-keyboard-response","304","2.1.0","355555","J=YES, F=NO","1fz1ewo8mn","1","79","73","85","","","","","","","","","","","","","","","",""
"586","
          <p id=""word"" style=""font-size: 40px;"">give</p>
          <p style=""font-size: 16px;"">J = YES &nbsp;&nbsp;&nbsp; F = NO</p>
        ","j","html-keyboard-response","305","2.1.0","356143","J=YES, F=NO","1fz1ewo8mn","1","79","73","85","","","","","","","","","give","gift1","literal","experimental","j","true","",""
"null","<p style=""font-size: 50px;"">+</p>","null","html-keyboard-response","306","2.1.0","356444","J=YES, F=NO","1fz1ewo8mn","1","79","73","85","","","","","","","","","","","","","","","",""
"null","audio/beep-329314.mp3","null","audio-keyboard-response","307","2.1.0","358008","J=YES, F=NO","1fz1ewo8mn","1","79","73","85","","","","","","","","","","","","","","","",""
"null","audio/plot1.wav","null","audio-keyboard-response","308","2.1.0","358606","J=YES, F=NO","1fz1ewo8mn","1","79","73","85","","","","","","","","","","","","","","","",""
"567","
          <p id=""word"" style=""font-size: 40px;"">glenter</p>
          <p style=""font-size: 16px;"">J = YES &nbsp;&nbsp;&nbsp; F = NO</p>
        ","f","html-keyboard-response","309","2.1.0","359176","J=YES, F=NO","1fz1ewo8mn","1","79","73","85","","","","","","","","","glenter","plot1","pseudoword","pseudoword","f","true","",""
"null","<p style=""font-size: 50px;"">+</p>","null","html-keyboard-response","310","2.1.0","359478","J=YES, F=NO","1fz1ewo8mn","1","79","73","85","","","","","","","","","","","","","","","",""
"null","audio/beep-329314.mp3","null","audio-keyboard-response","311","2.1.0","361039","J=YES, F=NO","1fz1ewo8mn","1","79","73","85","","","","","","","","","","","","","","","",""
"null","audio/farm1.wav","null","audio-keyboard-response","312","2.1.0","361763","J=YES, F=NO","1fz1ewo8mn","1","79","73","85","","","","","","","","","","","","","","","",""
"603","
          <p id=""word"" style=""font-size: 40px;"">catch</p>
          <p style=""font-size: 16px;"">J = YES &nbsp;&nbsp;&nbsp; F = NO</p>
        ","j","html-keyboard-response","313","2.1.0","362369","J=YES, F=NO","1fz1ewo8mn","1","79","73","85","","","","","","","","","catch","farm1","unrelated","experimental","j","true","",""
"null","<p style=""font-size: 50px;"">+</p>","null","html-keyboard-response","314","2.1.0","362671","J=YES, F=NO","1fz1ewo8mn","1","79","73","85","","","","","","","","","","","","","","","",""
"null","audio/beep-329314.mp3","null","audio-keyboard-response","315","2.1.0","364217","J=YES, F=NO","1fz1ewo8mn","1","79","73","85","","","","","","","","","","","","","","","",""
"null","audio/winter.wav","null","audio-keyboard-response","316","2.1.0","364857","J=YES, F=NO","1fz1ewo8mn","1","79","73","85","","","","","","","","","","","","","","","",""
"831","
          <p id=""word"" style=""font-size: 40px;"">straven</p>
          <p style=""font-size: 16px;"">J = YES &nbsp;&nbsp;&nbsp; F = NO</p>
        ","f","html-keyboard-response","317","2.1.0","365690","J=YES, F=NO","1fz1ewo8mn","1","79","73","85","","","","","","","","","straven","winter","pseudoword","pseudoword","f","true","",""
"null","<p style=""font-size: 50px;"">+</p>","null","html-keyboard-response","318","2.1.0","365992","J=YES, F=NO","1fz1ewo8mn","1","79","73","85","","","","","","","","","","","","","","","",""
"null","audio/beep-329314.mp3","null","audio-keyboard-response","319","2.1.0","367545","J=YES, F=NO","1fz1ewo8mn","1","79","73","85","","","","","","","","","","","","","","","",""
"null","audio/table1.wav","null","audio-keyboard-response","320","2.1.0","368121","J=YES, F=NO","1fz1ewo8mn","1","79","73","85","","","","","","","","","","","","","","","",""
"573","
          <p id=""word"" style=""font-size: 40px;"">stimb</p>
          <p style=""font-size: 16px;"">J = YES &nbsp;&nbsp;&nbsp; F = NO</p>
        ","f","html-keyboard-response","321","2.1.0","368696","J=YES, F=NO","1fz1ewo8mn","1","79","73","85","","","","","","","","","stimb","table1","pseudoword","pseudoword","f","true","",""
"null","<p style=""font-size: 50px;"">+</p>","null","html-keyboard-response","322","2.1.0","368998","J=YES, F=NO","1fz1ewo8mn","1","79","73","85","","","","","","","","","","","","","","","",""
"null","audio/beep-329314.mp3","null","audio-keyboard-response","323","2.1.0","370553","J=YES, F=NO","1fz1ewo8mn","1","79","73","85","","","","","","","","","","","","","","","",""
"null","audio/ego.wav","null","audio-keyboard-response","324","2.1.0","371129","J=YES, F=NO","1fz1ewo8mn","1","79","73","85","","","","","","","","","","","","","","","",""
"419","
          <p id=""word"" style=""font-size: 40px;"">feed</p>
          <p style=""font-size: 16px;"">J = YES &nbsp;&nbsp;&nbsp; F = NO</p>
        ","j","html-keyboard-response","325","2.1.0","371550","J=YES, F=NO","1fz1ewo8mn","1","79","73","85","","","","","","","","","feed","ego","metaphor","experimental","j","true","",""
"null","<p style=""font-size: 50px;"">+</p>","null","html-keyboard-response","326","2.1.0","371851","J=YES, F=NO","1fz1ewo8mn","1","79","73","85","","","","","","","","","","","","","","","",""
"null","audio/beep-329314.mp3","null","audio-keyboard-response","327","2.1.0","373390","J=YES, F=NO","1fz1ewo8mn","1","79","73","85","","","","","","","","","","","","","","","",""
"null","audio/flaw.wav","null","audio-keyboard-response","328","2.1.0","374051","J=YES, F=NO","1fz1ewo8mn","1","79","73","85","","","","","","","","","","","","","","","",""
"533","
          <p id=""word"" style=""font-size: 40px;"">thwool</p>
          <p style=""font-size: 16px;"">J = YES &nbsp;&nbsp;&nbsp; F = NO</p>
        ","f","html-keyboard-response","329","2.1.0","374586","J=YES, F=NO","1fz1ewo8mn","1","79","73","85","","","","","","","","","thwool","flaw","pseudoword","pseudoword","f","true","",""
"null","<p style=""font-size: 50px;"">+</p>","null","html-keyboard-response","330","2.1.0","374888","J=YES, F=NO","1fz1ewo8mn","1","79","73","85","","","","","","","","","","","","","","","",""
"null","audio/beep-329314.mp3","null","audio-keyboard-response","331","2.1.0","376441","J=YES, F=NO","1fz1ewo8mn","1","79","73","85","","","","","","","","","","","","","","","",""
"null","audio/burden.wav","null","audio-keyboard-response","332","2.1.0","377144","J=YES, F=NO","1fz1ewo8mn","1","79","73","85","","","","","","","","","","","","","","","",""
"542","
          <p id=""word"" style=""font-size: 40px;"">whotth</p>
          <p style=""font-size: 16px;"">J = YES &nbsp;&nbsp;&nbsp; F = NO</p>
        ","f","html-keyboard-response","333","2.1.0","377688","J=YES, F=NO","1fz1ewo8mn","1","79","73","85","","","","","","","","","whotth","burden","pseudoword","pseudoword","f","true","",""
"null","<p style=""font-size: 50px;"">+</p>","null","html-keyboard-response","334","2.1.0","377990","J=YES, F=NO","1fz1ewo8mn","1","79","73","85","","","","","","","","","","","","","","","",""
"null","audio/beep-329314.mp3","null","audio-keyboard-response","335","2.1.0","379535","J=YES, F=NO","1fz1ewo8mn","1","79","73","85","","","","","","","","","","","","","","","",""
"null","audio/meal.wav","null","audio-keyboard-response","336","2.1.0","380003","J=YES, F=NO","1fz1ewo8mn","1","79","73","85","","","","","","","","","","","","","","","",""
"440","
          <p id=""word"" style=""font-size: 40px;"">share</p>
          <p style=""font-size: 16px;"">J = YES &nbsp;&nbsp;&nbsp; F = NO</p>
        ","j","html-keyboard-response","337","2.1.0","380445","J=YES, F=NO","1fz1ewo8mn","1","79","73","85","","","","","","","","","share","meal","literal","experimental","j","true","",""
"null","<p style=""font-size: 50px;"">+</p>","null","html-keyboard-response","338","2.1.0","380747","J=YES, F=NO","1fz1ewo8mn","1","79","73","85","","","","","","","","","","","","","","","",""
"null","audio/beep-329314.mp3","null","audio-keyboard-response","339","2.1.0","382287","J=YES, F=NO","1fz1ewo8mn","1","79","73","85","","","","","","","","","","","","","","","",""
"null","audio/haste1.wav","null","audio-keyboard-response","340","2.1.0","383034","J=YES, F=NO","1fz1ewo8mn","1","79","73","85","","","","","","","","","","","","","","","",""
"746","
          <p id=""word"" style=""font-size: 40px;"">coraconate</p>
          <p style=""font-size: 16px;"">J = YES &nbsp;&nbsp;&nbsp; F = NO</p>
        ","f","html-keyboard-response","341","2.1.0","383782","J=YES, F=NO","1fz1ewo8mn","1","79","73","85","","","","","","","","","coraconate","haste1","pseudoword","pseudoword","f","true","",""
"null","<p style=""font-size: 50px;"">+</p>","null","html-keyboard-response","342","2.1.0","384084","J=YES, F=NO","1fz1ewo8mn","1","79","73","85","","","","","","","","","","","","","","","",""
"null","audio/beep-329314.mp3","null","audio-keyboard-response","343","2.1.0","385636","J=YES, F=NO","1fz1ewo8mn","1","79","73","85","","","","","","","","","","","","","","","",""
"null","audio/tomato.wav","null","audio-keyboard-response","344","2.1.0","386361","J=YES, F=NO","1fz1ewo8mn","1","79","73","85","","","","","","","","","","","","","","","",""
"483","
          <p id=""word"" style=""font-size: 40px;"">grow</p>
          <p style=""font-size: 16px;"">J = YES &nbsp;&nbsp;&nbsp; F = NO</p>
        ","j","html-keyboard-response","345","2.1.0","386846","J=YES, F=NO","1fz1ewo8mn","1","79","73","85","","","","","","","","","grow","tomato","literal","experimental","j","true","",""
"null","<p style=""font-size: 50px;"">+</p>","null","html-keyboard-response","346","2.1.0","387147","J=YES, F=NO","1fz1ewo8mn","1","79","73","85","","","","","","","","","","","","","","","",""
"null","audio/beep-329314.mp3","null","audio-keyboard-response","347","2.1.0","388686","J=YES, F=NO","1fz1ewo8mn","1","79","73","85","","","","","","","","","","","","","","","",""
"null","audio/truth1.wav","null","audio-keyboard-response","348","2.1.0","389263","J=YES, F=NO","1fz1ewo8mn","1","79","73","85","","","","","","","","","","","","","","","",""
"524","
          <p id=""word"" style=""font-size: 40px;"">expose</p>
          <p style=""font-size: 16px;"">J = YES &nbsp;&nbsp;&nbsp; F = NO</p>
        ","j","html-keyboard-response","349","2.1.0","389788","J=YES, F=NO","1fz1ewo8mn","1","79","73","85","","","","","","","","","expose","truth1","metaphor","experimental","j","true","",""
"null","<p style=""font-size: 50px;"">+</p>","null","html-keyboard-response","350","2.1.0","390089","J=YES, F=NO","1fz1ewo8mn","1","79","73","85","","","","","","","","","","","","","","","",""
"null","audio/beep-329314.mp3","null","audio-keyboard-response","351","2.1.0","391631","J=YES, F=NO","1fz1ewo8mn","1","79","73","85","","","","","","","","","","","","","","","",""
"null","audio/noise1.wav","null","audio-keyboard-response","352","2.1.0","392250","J=YES, F=NO","1fz1ewo8mn","1","79","73","85","","","","","","","","","","","","","","","",""
"582","
          <p id=""word"" style=""font-size: 40px;"">build</p>
          <p style=""font-size: 16px;"">J = YES &nbsp;&nbsp;&nbsp; F = NO</p>
        ","j","html-keyboard-response","353","2.1.0","392835","J=YES, F=NO","1fz1ewo8mn","1","79","73","85","","","","","","","","","build","noise1","unrelated","experimental","j","true","",""
"null","<p style=""font-size: 50px;"">+</p>","null","html-keyboard-response","354","2.1.0","393136","J=YES, F=NO","1fz1ewo8mn","1","79","73","85","","","","","","","","","","","","","","","",""
"null","audio/beep-329314.mp3","null","audio-keyboard-response","355","2.1.0","394684","J=YES, F=NO","1fz1ewo8mn","1","79","73","85","","","","","","","","","","","","","","","",""
"null","audio/pain1.wav","null","audio-keyboard-response","356","2.1.0","395150","J=YES, F=NO","1fz1ewo8mn","1","79","73","85","","","","","","","","","","","","","","","",""
"515","
          <p id=""word"" style=""font-size: 40px;"">tritted</p>
          <p style=""font-size: 16px;"">J = YES &nbsp;&nbsp;&nbsp; F = NO</p>
        ","f","html-keyboard-response","357","2.1.0","395667","J=YES, F=NO","1fz1ewo8mn","1","79","73","85","","","","","","","","","tritted","pain1","pseudoword","pseudoword","f","true","",""
"null","<p style=""font-size: 50px;"">+</p>","null","html-keyboard-response","358","2.1.0","395969","J=YES, F=NO","1fz1ewo8mn","1","79","73","85","","","","","","","","","","","","","","","",""
"null","audio/beep-329314.mp3","null","audio-keyboard-response","359","2.1.0","397519","J=YES, F=NO","1fz1ewo8mn","1","79","73","85","","","","","","","","","","","","","","","",""
"null","audio/inch1.wav","null","audio-keyboard-response","360","2.1.0","398265","J=YES, F=NO","1fz1ewo8mn","1","79","73","85","","","","","","","","","","","","","","","",""
"489","
          <p id=""word"" style=""font-size: 40px;"">lose</p>
          <p style=""font-size: 16px;"">J = YES &nbsp;&nbsp;&nbsp; F = NO</p>
        ","j","html-keyboard-response","361","2.1.0","398756","J=YES, F=NO","1fz1ewo8mn","1","79","73","85","","","","","","","","","lose","inch1","metaphor","experimental","j","true","",""
"873","<p>Excellent! You have finished block 3 of 8.</p>
                     <p>Feel free to take a 30 second break.</p>
                     <p>Press any key when you're ready to continue.</p>","j","html-keyboard-response","362","2.1.0","399630","J=YES, F=NO","1fz1ewo8mn","1","79","73","85","","","","","","","","","","","","","","","",""
"569","<p>Starting main block 4 of 8. Press any key to continue.</p>","j","html-keyboard-response","363","2.1.0","400200","J=YES, F=NO","1fz1ewo8mn","1","79","73","85","","","","","","","","","","","","","","","",""
"null","<p style=""font-size: 50px;"">+</p>","null","html-keyboard-response","364","2.1.0","400502","J=YES, F=NO","1fz1ewo8mn","1","79","73","85","","","","","","","","","","","","","","","",""
"null","audio/beep-329314.mp3","null","audio-keyboard-response","365","2.1.0","402042","J=YES, F=NO","1fz1ewo8mn","1","79","73","85","","","","","","","","","","","","","","","",""
"null","audio/road.wav","null","audio-keyboard-response","366","2.1.0","402490","J=YES, F=NO","1fz1ewo8mn","1","79","73","85","","","","","","","","","","","","","","","",""
"555","
          <p id=""word"" style=""font-size: 40px;"">wappings</p>
          <p style=""font-size: 16px;"">J = YES &nbsp;&nbsp;&nbsp; F = NO</p>
        ","f","html-keyboard-response","367","2.1.0","403047","J=YES, F=NO","1fz1ewo8mn","1","79","73","85","","","","","","","","","wappings","road","pseudoword","pseudoword","f","true","",""
"null","<p style=""font-size: 50px;"">+</p>","null","html-keyboard-response","368","2.1.0","403348","J=YES, F=NO","1fz1ewo8mn","1","79","73","85","","","","","","","","","","","","","","","",""
"null","audio/beep-329314.mp3","null","audio-keyboard-response","369","2.1.0","404901","J=YES, F=NO","1fz1ewo8mn","1","79","73","85","","","","","","","","","","","","","","","",""
"null","audio/cinema1.wav","null","audio-keyboard-response","370","2.1.0","405519","J=YES, F=NO","1fz1ewo8mn","1","79","73","85","","","","","","","","","","","","","","","",""
"574","
          <p id=""word"" style=""font-size: 40px;"">murple</p>
          <p style=""font-size: 16px;"">J = YES &nbsp;&nbsp;&nbsp; F = NO</p>
        ","f","html-keyboard-response","371","2.1.0","406096","J=YES, F=NO","1fz1ewo8mn","1","79","73","85","","","","","","","","","murple","cinema1","pseudoword","pseudoword","f","true","",""
"null","<p style=""font-size: 50px;"">+</p>","null","html-keyboard-response","372","2.1.0","406397","J=YES, F=NO","1fz1ewo8mn","1","79","73","85","","","","","","","","","","","","","","","",""
"null","audio/beep-329314.mp3","null","audio-keyboard-response","373","2.1.0","407951","J=YES, F=NO","1fz1ewo8mn","1","79","73","85","","","","","","","","","","","","","","","",""
"null","audio/smirk1.wav","null","audio-keyboard-response","374","2.1.0","408825","J=YES, F=NO","1fz1ewo8mn","1","79","73","85","","","","","","","","","","","","","","","",""
"373","
          <p id=""word"" style=""font-size: 40px;"">wipe</p>
          <p style=""font-size: 16px;"">J = YES &nbsp;&nbsp;&nbsp; F = NO</p>
        ","j","html-keyboard-response","375","2.1.0","409199","J=YES, F=NO","1fz1ewo8mn","1","79","73","85","","","","","","","","","wipe","smirk1","metaphor","experimental","j","true","",""
"null","<p style=""font-size: 50px;"">+</p>","null","html-keyboard-response","376","2.1.0","409501","J=YES, F=NO","1fz1ewo8mn","1","79","73","85","","","","","","","","","","","","","","","",""
"null","audio/beep-329314.mp3","null","audio-keyboard-response","377","2.1.0","411045","J=YES, F=NO","1fz1ewo8mn","1","79","73","85","","","","","","","","","","","","","","","",""
"null","audio/novel.wav","null","audio-keyboard-response","378","2.1.0","411557","J=YES, F=NO","1fz1ewo8mn","1","79","73","85","","","","","","","","","","","","","","","",""
"421","
          <p id=""word"" style=""font-size: 40px;"">type</p>
          <p style=""font-size: 16px;"">J = YES &nbsp;&nbsp;&nbsp; F = NO</p>
        ","j","html-keyboard-response","379","2.1.0","411980","J=YES, F=NO","1fz1ewo8mn","1","79","73","85","","","","","","","","","type","novel","filler","filler","j","true","",""
"null","<p style=""font-size: 50px;"">+</p>","null","html-keyboard-response","380","2.1.0","412281","J=YES, F=NO","1fz1ewo8mn","1","79","73","85","","","","","","","","","","","","","","","",""
"null","audio/beep-329314.mp3","null","audio-keyboard-response","381","2.1.0","413838","J=YES, F=NO","1fz1ewo8mn","1","79","73","85","","","","","","","","","","","","","","","",""
"null","audio/bomb1.wav","null","audio-keyboard-response","382","2.1.0","414244","J=YES, F=NO","1fz1ewo8mn","1","79","73","85","","","","","","","","","","","","","","","",""
"496","
          <p id=""word"" style=""font-size: 40px;"">clean</p>
          <p style=""font-size: 16px;"">J = YES &nbsp;&nbsp;&nbsp; F = NO</p>
        ","j","html-keyboard-response","383","2.1.0","414743","J=YES, F=NO","1fz1ewo8mn","1","79","73","85","","","","","","","","","clean","bomb1","filler","filler","j","true","",""
"null","<p style=""font-size: 50px;"">+</p>","null","html-keyboard-response","384","2.1.0","415044","J=YES, F=NO","1fz1ewo8mn","1","79","73","85","","","","","","","","","","","","","","","",""
"null","audio/beep-329314.mp3","null","audio-keyboard-response","385","2.1.0","416592","J=YES, F=NO","1fz1ewo8mn","1","79","73","85","","","","","","","","","","","","","","","",""
"null","audio/novel.wav","null","audio-keyboard-response","386","2.1.0","417103","J=YES, F=NO","1fz1ewo8mn","1","79","73","85","","","","","","","","","","","","","","","",""
"717","
          <p id=""word"" style=""font-size: 40px;"">devour</p>
          <p style=""font-size: 16px;"">J = YES &nbsp;&nbsp;&nbsp; F = NO</p>
        ","f","html-keyboard-response","387","2.1.0","417822","J=YES, F=NO","1fz1ewo8mn","1","79","73","85","","","","","","","","","devour","novel","metaphor","experimental","j","false","",""
"null","<p style=""font-size: 50px;"">+</p>","null","html-keyboard-response","388","2.1.0","418124","J=YES, F=NO","1fz1ewo8mn","1","79","73","85","","","","","","","","","","","","","","","",""
"null","audio/beep-329314.mp3","null","audio-keyboard-response","389","2.1.0","419663","J=YES, F=NO","1fz1ewo8mn","1","79","73","85","","","","","","","","","","","","","","","",""
"null","audio/pattern.wav","null","audio-keyboard-response","390","2.1.0","420282","J=YES, F=NO","1fz1ewo8mn","1","79","73","85","","","","","","","","","","","","","","","",""
"589","
          <p id=""word"" style=""font-size: 40px;"">tug</p>
          <p style=""font-size: 16px;"">J = YES &nbsp;&nbsp;&nbsp; F = NO</p>
        ","j","html-keyboard-response","391","2.1.0","420873","J=YES, F=NO","1fz1ewo8mn","1","79","73","85","","","","","","","","","tug","pattern","filler","filler","j","true","",""
