"rt","stimulus","response","trial_type","trial_index","plugin_version","time_elapsed","response_mapping","subject_id","list_index","lextale_score","lextale_word_score","lextale_nonword_score","success","timeout","failed_images","failed_audio","failed_video","task","isWord","isDummy","target","prime","prime_type","stimulus_type","correct_response","correct","section","question_order"
"1029119","
    <div style=""max-width: 800px; margin: auto; text-align: left;"">
      <h2>STANFORD UNIVERSITY</h2>
      <h3>Research Information Sheet</h3>
      <p><strong>Protocol Director:</strong> Robert Hawkins<br>
      <strong>Protocol Title:</strong> Communication and social cognition in natural audiovisual contexts<br>
      <strong>IRB#:</strong> 77226</p>

      <p><strong>DESCRIPTION:</strong> You are invited to participate in a research study about language and communication. The purpose of the research is to understand how you interact and communicate with other people in naturalistic settings as a fluent English speaker. This research will be conducted through the Prolific platform, including participants from the US, UK, and Canada. If you decide to participate in this research, you will play a communication game in a group with one or more partners.</p>

      <p><strong>TIME INVOLVEMENT:</strong> The task will last the amount of time advertised on Prolific. You are free to withdraw from the study at any time.</p>

      <p><strong>RISKS AND BENEFITS:</strong> You may become frustrated if your partner gets distracted, or experience discomfort if other participants in your group send text that is inappropriate for the task. We ask you to please be respectful of other participants you might be interacting with to mitigate these risks. You may also experience discomfort when being asked to discuss or challenge emotionally salient political beliefs. Study data will be stored securely, in compliance with Stanford University standards, minimizing the risk of confidentiality breach. This study advances our scientific understanding of how people communicate and collaborate in naturalistic settings. This study may lead to further insights about what can go wrong in teamwork, suggest potential interventions to overcome these barriers, and help to develop assistive technologies that collaborate with human partners. We cannot and do not guarantee or promise that you will receive any benefits from this study.</p>

      <p><strong>PAYMENTS:</strong> You will receive payment in the amount advertised on Prolific. If you do not complete this study, you will receive prorated payment based on the time that you have spent. Additionally, you may be eligible for bonus payments as described in the instructions.</p>

      <p><strong>PARTICIPANT’S RIGHTS:</strong> If you have read this form and have decided to participate in this project, please understand your participation is voluntary and you have the right to withdraw your consent or discontinue participation at any time without penalty or loss of benefits to which you are otherwise entitled. The alternative is not to participate. You have the right to refuse to answer particular questions. The results of this research study may be presented at scientific or professional meetings or published in scientific journals. Your individual privacy will be maintained in all published and written data resulting from the study. In accordance with scientific norms, the data from this study may be used or shared with other researchers for future research (after removing personally identifying information) without additional consent from you.</p>

      <p><strong>CONTACT INFORMATION:</strong><br>
      Questions: If you have any questions, concerns or complaints about this research, its procedures, risks and benefits, contact the Protocol Director, Robert Hawkins (<a href=""mailto:rdhawkins@stanford.edu"">rdhawkins@stanford.edu</a>, 217-549-6923).<br>
      Independent Contact: If you are not satisfied with how this study is being conducted, or if you have any concerns, complaints, or general questions about the research or your rights as a participant, please contact the Stanford Institutional Review Board (IRB) to speak to someone independent of the research team at 650-723-2480 or toll free at 1-866-680-2906, or email at <a href=""mailto:irbnon-med@stanford.edu"">irbnon-med@stanford.edu</a>. You can also write to the Stanford IRB, Stanford University, 1705 El Camino Real, Palo Alto, CA 94306.</p>

      <p><strong>Please save or print a copy of this page for your records.</strong></p>
      <p>If you agree to participate in this research, click ""Continue"" below.</p>
    </div>
  ","0","html-button-response","0","2.1.0","1029232","F=YES, J=NO","1ke5kk7upe","0","71","57","85","","","","","","","","","","","","","","","",""
"7787","
    <div style=""max-width: 800px; margin: auto; text-align: left;"">
      <h2>Welcome!</h2>
      <p>Thank you for participating in this study. The experiment consists of three parts:</p>
      <ol>
        <li>An English vocabulary test</li>
        <li>A main task in which you will hear and see words, and decide whether the written word is a real English word</li>
        <li>A brief survey about your background</li>
      </ol>
      <p>Each part will be introduced before it begins.</p>
      <p>Please make sure you are in a quiet environment and can hear audio clearly for the final task.</p>
      <p style=""margin-top: 2em;"">Press any key to begin.</p>
    </div>
  "," ","html-keyboard-response","1","2.1.0","1037021","F=YES, J=NO","1ke5kk7upe","0","71","57","85","","","","","","","","","","","","","","","",""
"","","","preload","2","2.1.0","1038307","F=YES, J=NO","1ke5kk7upe","0","71","57","85","true","false","[]","[]","[]","","","","","","","","","","",""
"6447","
    <div style=""max-width: 800px; margin: auto; text-align: left;"">
      <h2>Part 1: Vocabulary Test</h2>
      <p>You will now complete the first part of the study: a short English vocabulary test.</p>
      <p>This test is called <strong>LexTALE</strong> and helps us get a general sense of your English proficiency.</p>
      <p style=""margin-top: 2em;"">Press any key to continue.</p>
    </div>
  "," ","html-keyboard-response","3","2.1.0","1044755","F=YES, J=NO","1ke5kk7upe","0","71","57","85","","","","","","","","","","","","","","","",""
"6704","
    <div style=""max-width: 800px; margin: auto; text-align: left;"">
      <h2>LexTALE Vocabulary Test</h2>
      <p>In this test, you will see a series of letter strings—one at a time.</p>
      <p>Your task is to decide whether each string is a real English word.</p>
      <p><strong>Key responses:</strong></p>
      <ul>
        <li><strong>F</strong> = YES (real English word)</li>
        <li><strong>J</strong> = NO (not a real English word)</li>
      </ul>
      <p>There is no time limit, but please try to be accurate.</p>
      <p style=""margin-top: 2em;"">Press any key to begin.</p>
    </div>
  "," ","html-keyboard-response","4","2.1.0","1051460","F=YES, J=NO","1ke5kk7upe","0","71","57","85","","","","","","","","","","","","","","","",""
"3229","
  <p style=""font-size: 40px;"">platery</p>
  <p style=""font-size: 16px;"">F = YES &nbsp;&nbsp;&nbsp; J = NO</p>
","F","html-keyboard-response","5","2.1.0","1054690","F=YES, J=NO","1ke5kk7upe","0","71","57","85","","","","","","lextale","false","true","","","","","","","",""
"1562","
  <p style=""font-size: 40px;"">denial</p>
  <p style=""font-size: 16px;"">F = YES &nbsp;&nbsp;&nbsp; J = NO</p>
","F","html-keyboard-response","6","2.1.0","1056253","F=YES, J=NO","1ke5kk7upe","0","71","57","85","","","","","","lextale","true","true","","","","","","","",""
"1352","
  <p style=""font-size: 40px;"">marrit</p>
  <p style=""font-size: 16px;"">F = YES &nbsp;&nbsp;&nbsp; J = NO</p>
","F","html-keyboard-response","7","2.1.0","1057605","F=YES, J=NO","1ke5kk7upe","0","71","57","85","","","","","","lextale","false","true","","","","","","","",""
"2007","
  <p style=""font-size: 40px;"">bottle</p>
  <p style=""font-size: 16px;"">F = YES &nbsp;&nbsp;&nbsp; J = NO</p>
","F","html-keyboard-response","8","2.1.0","1059614","F=YES, J=NO","1ke5kk7upe","0","71","57","85","","","","","","lextale","true","false","","","","","","","",""
"2691","
  <p style=""font-size: 40px;"">birst</p>
  <p style=""font-size: 16px;"">F = YES &nbsp;&nbsp;&nbsp; J = NO</p>
","J","html-keyboard-response","9","2.1.0","1062306","F=YES, J=NO","1ke5kk7upe","0","71","57","85","","","","","","lextale","false","false","","","","","","","",""
"875","
  <p style=""font-size: 40px;"">envy</p>
  <p style=""font-size: 16px;"">F = YES &nbsp;&nbsp;&nbsp; J = NO</p>
","F","html-keyboard-response","10","2.1.0","1063182","F=YES, J=NO","1ke5kk7upe","0","71","57","85","","","","","","lextale","true","false","","","","","","","",""
"2428","
  <p style=""font-size: 40px;"">brang</p>
  <p style=""font-size: 16px;"">F = YES &nbsp;&nbsp;&nbsp; J = NO</p>
","J","html-keyboard-response","11","2.1.0","1065610","F=YES, J=NO","1ke5kk7upe","0","71","57","85","","","","","","lextale","false","false","","","","","","","",""
"707","
  <p style=""font-size: 40px;"">huge</p>
  <p style=""font-size: 16px;"">F = YES &nbsp;&nbsp;&nbsp; J = NO</p>
","F","html-keyboard-response","12","2.1.0","1066318","F=YES, J=NO","1ke5kk7upe","0","71","57","85","","","","","","lextale","true","false","","","","","","","",""
"1261","
  <p style=""font-size: 40px;"">plove</p>
  <p style=""font-size: 16px;"">F = YES &nbsp;&nbsp;&nbsp; J = NO</p>
","J","html-keyboard-response","13","2.1.0","1067579","F=YES, J=NO","1ke5kk7upe","0","71","57","85","","","","","","lextale","false","false","","","","","","","",""
"577","
  <p style=""font-size: 40px;"">border</p>
  <p style=""font-size: 16px;"">F = YES &nbsp;&nbsp;&nbsp; J = NO</p>
","F","html-keyboard-response","14","2.1.0","1068158","F=YES, J=NO","1ke5kk7upe","0","71","57","85","","","","","","lextale","true","false","","","","","","","",""
"1221","
  <p style=""font-size: 40px;"">flimsy</p>
  <p style=""font-size: 16px;"">F = YES &nbsp;&nbsp;&nbsp; J = NO</p>
","J","html-keyboard-response","15","2.1.0","1069380","F=YES, J=NO","1ke5kk7upe","0","71","57","85","","","","","","lextale","true","false","","","","","","","",""
"787","
  <p style=""font-size: 40px;"">drain</p>
  <p style=""font-size: 16px;"">F = YES &nbsp;&nbsp;&nbsp; J = NO</p>
","F","html-keyboard-response","16","2.1.0","1070167","F=YES, J=NO","1ke5kk7upe","0","71","57","85","","","","","","lextale","true","false","","","","","","","",""
"1060","
  <p style=""font-size: 40px;"">twindle</p>
  <p style=""font-size: 16px;"">F = YES &nbsp;&nbsp;&nbsp; J = NO</p>
","J","html-keyboard-response","17","2.1.0","1071229","F=YES, J=NO","1ke5kk7upe","0","71","57","85","","","","","","lextale","false","false","","","","","","","",""
"620","
  <p style=""font-size: 40px;"">propose</p>
  <p style=""font-size: 16px;"">F = YES &nbsp;&nbsp;&nbsp; J = NO</p>
","F","html-keyboard-response","18","2.1.0","1071849","F=YES, J=NO","1ke5kk7upe","0","71","57","85","","","","","","lextale","true","false","","","","","","","",""
"928","
  <p style=""font-size: 40px;"">forlay</p>
  <p style=""font-size: 16px;"">F = YES &nbsp;&nbsp;&nbsp; J = NO</p>
","J","html-keyboard-response","19","2.1.0","1072779","F=YES, J=NO","1ke5kk7upe","0","71","57","85","","","","","","lextale","false","false","","","","","","","",""
"747","
  <p style=""font-size: 40px;"">tenant</p>
  <p style=""font-size: 16px;"">F = YES &nbsp;&nbsp;&nbsp; J = NO</p>
","F","html-keyboard-response","20","2.1.0","1073527","F=YES, J=NO","1ke5kk7upe","0","71","57","85","","","","","","lextale","true","false","","","","","","","",""
"595","
  <p style=""font-size: 40px;"">strain</p>
  <p style=""font-size: 16px;"">F = YES &nbsp;&nbsp;&nbsp; J = NO</p>
","F","html-keyboard-response","21","2.1.0","1074122","F=YES, J=NO","1ke5kk7upe","0","71","57","85","","","","","","lextale","true","false","","","","","","","",""
"2760","
  <p style=""font-size: 40px;"">holster</p>
  <p style=""font-size: 16px;"">F = YES &nbsp;&nbsp;&nbsp; J = NO</p>
","J","html-keyboard-response","22","2.1.0","1076883","F=YES, J=NO","1ke5kk7upe","0","71","57","85","","","","","","lextale","true","false","","","","","","","",""
"1206","
  <p style=""font-size: 40px;"">hinder</p>
  <p style=""font-size: 16px;"">F = YES &nbsp;&nbsp;&nbsp; J = NO</p>
","J","html-keyboard-response","23","2.1.0","1078090","F=YES, J=NO","1ke5kk7upe","0","71","57","85","","","","","","lextale","true","false","","","","","","","",""
"2221","
  <p style=""font-size: 40px;"">swindle</p>
  <p style=""font-size: 16px;"">F = YES &nbsp;&nbsp;&nbsp; J = NO</p>
","J","html-keyboard-response","24","2.1.0","1080312","F=YES, J=NO","1ke5kk7upe","0","71","57","85","","","","","","lextale","true","false","","","","","","","",""
"1176","
  <p style=""font-size: 40px;"">nuder</p>
  <p style=""font-size: 16px;"">F = YES &nbsp;&nbsp;&nbsp; J = NO</p>
","J","html-keyboard-response","25","2.1.0","1081489","F=YES, J=NO","1ke5kk7upe","0","71","57","85","","","","","","lextale","false","false","","","","","","","",""
"639","
  <p style=""font-size: 40px;"">pillow</p>
  <p style=""font-size: 16px;"">F = YES &nbsp;&nbsp;&nbsp; J = NO</p>
","F","html-keyboard-response","26","2.1.0","1082129","F=YES, J=NO","1ke5kk7upe","0","71","57","85","","","","","","lextale","true","false","","","","","","","",""
"968","
  <p style=""font-size: 40px;"">shumble</p>
  <p style=""font-size: 16px;"">F = YES &nbsp;&nbsp;&nbsp; J = NO</p>
","F","html-keyboard-response","27","2.1.0","1083097","F=YES, J=NO","1ke5kk7upe","0","71","57","85","","","","","","lextale","false","false","","","","","","","",""
"2222","
  <p style=""font-size: 40px;"">thirst</p>
  <p style=""font-size: 16px;"">F = YES &nbsp;&nbsp;&nbsp; J = NO</p>
","F","html-keyboard-response","28","2.1.0","1085319","F=YES, J=NO","1ke5kk7upe","0","71","57","85","","","","","","lextale","true","false","","","","","","","",""
"2102","
  <p style=""font-size: 40px;"">unsail</p>
  <p style=""font-size: 16px;"">F = YES &nbsp;&nbsp;&nbsp; J = NO</p>
","J","html-keyboard-response","29","2.1.0","1087422","F=YES, J=NO","1ke5kk7upe","0","71","57","85","","","","","","lextale","false","false","","","","","","","",""
"714","
  <p style=""font-size: 40px;"">rifle</p>
  <p style=""font-size: 16px;"">F = YES &nbsp;&nbsp;&nbsp; J = NO</p>
","F","html-keyboard-response","30","2.1.0","1088137","F=YES, J=NO","1ke5kk7upe","0","71","57","85","","","","","","lextale","true","false","","","","","","","",""
"862","
  <p style=""font-size: 40px;"">mush</p>
  <p style=""font-size: 16px;"">F = YES &nbsp;&nbsp;&nbsp; J = NO</p>
","F","html-keyboard-response","31","2.1.0","1088999","F=YES, J=NO","1ke5kk7upe","0","71","57","85","","","","","","lextale","false","false","","","","","","","",""
"961","
  <p style=""font-size: 40px;"">drench</p>
  <p style=""font-size: 16px;"">F = YES &nbsp;&nbsp;&nbsp; J = NO</p>
","F","html-keyboard-response","32","2.1.0","1089961","F=YES, J=NO","1ke5kk7upe","0","71","57","85","","","","","","lextale","true","false","","","","","","","",""
"1271","
  <p style=""font-size: 40px;"">snirt</p>
  <p style=""font-size: 16px;"">F = YES &nbsp;&nbsp;&nbsp; J = NO</p>
","J","html-keyboard-response","33","2.1.0","1091233","F=YES, J=NO","1ke5kk7upe","0","71","57","85","","","","","","lextale","false","false","","","","","","","",""
"635","
  <p style=""font-size: 40px;"">bitter</p>
  <p style=""font-size: 16px;"">F = YES &nbsp;&nbsp;&nbsp; J = NO</p>
","F","html-keyboard-response","34","2.1.0","1091870","F=YES, J=NO","1ke5kk7upe","0","71","57","85","","","","","","lextale","true","false","","","","","","","",""
"864","
  <p style=""font-size: 40px;"">pliff</p>
  <p style=""font-size: 16px;"">F = YES &nbsp;&nbsp;&nbsp; J = NO</p>
","J","html-keyboard-response","35","2.1.0","1092735","F=YES, J=NO","1ke5kk7upe","0","71","57","85","","","","","","lextale","false","false","","","","","","","",""
"562","
  <p style=""font-size: 40px;"">tablet</p>
  <p style=""font-size: 16px;"">F = YES &nbsp;&nbsp;&nbsp; J = NO</p>
","F","html-keyboard-response","36","2.1.0","1093298","F=YES, J=NO","1ke5kk7upe","0","71","57","85","","","","","","lextale","true","false","","","","","","","",""
"2227","
  <p style=""font-size: 40px;"">glimmer</p>
  <p style=""font-size: 16px;"">F = YES &nbsp;&nbsp;&nbsp; J = NO</p>
","J","html-keyboard-response","37","2.1.0","1095525","F=YES, J=NO","1ke5kk7upe","0","71","57","85","","","","","","lextale","true","false","","","","","","","",""
"778","
  <p style=""font-size: 40px;"">slink</p>
  <p style=""font-size: 16px;"">F = YES &nbsp;&nbsp;&nbsp; J = NO</p>
","J","html-keyboard-response","38","2.1.0","1096304","F=YES, J=NO","1ke5kk7upe","0","71","57","85","","","","","","lextale","true","false","","","","","","","",""
"1704","
  <p style=""font-size: 40px;"">clever</p>
  <p style=""font-size: 16px;"">F = YES &nbsp;&nbsp;&nbsp; J = NO</p>
","F","html-keyboard-response","39","2.1.0","1098009","F=YES, J=NO","1ke5kk7upe","0","71","57","85","","","","","","lextale","true","false","","","","","","","",""
"771","
  <p style=""font-size: 40px;"">grum</p>
  <p style=""font-size: 16px;"">F = YES &nbsp;&nbsp;&nbsp; J = NO</p>
","J","html-keyboard-response","40","2.1.0","1098781","F=YES, J=NO","1ke5kk7upe","0","71","57","85","","","","","","lextale","false","false","","","","","","","",""
"568","
  <p style=""font-size: 40px;"">string</p>
  <p style=""font-size: 16px;"">F = YES &nbsp;&nbsp;&nbsp; J = NO</p>
","F","html-keyboard-response","41","2.1.0","1099350","F=YES, J=NO","1ke5kk7upe","0","71","57","85","","","","","","lextale","true","false","","","","","","","",""
"931","
  <p style=""font-size: 40px;"">plim</p>
  <p style=""font-size: 16px;"">F = YES &nbsp;&nbsp;&nbsp; J = NO</p>
","J","html-keyboard-response","42","2.1.0","1100282","F=YES, J=NO","1ke5kk7upe","0","71","57","85","","","","","","lextale","false","false","","","","","","","",""
"536","
  <p style=""font-size: 40px;"">cable</p>
  <p style=""font-size: 16px;"">F = YES &nbsp;&nbsp;&nbsp; J = NO</p>
","F","html-keyboard-response","43","2.1.0","1100819","F=YES, J=NO","1ke5kk7upe","0","71","57","85","","","","","","lextale","true","false","","","","","","","",""
"912","
  <p style=""font-size: 40px;"">shrivel</p>
  <p style=""font-size: 16px;"">F = YES &nbsp;&nbsp;&nbsp; J = NO</p>
","J","html-keyboard-response","44","2.1.0","1101731","F=YES, J=NO","1ke5kk7upe","0","71","57","85","","","","","","lextale","true","false","","","","","","","",""
"694","
  <p style=""font-size: 40px;"">tarnish</p>
  <p style=""font-size: 16px;"">F = YES &nbsp;&nbsp;&nbsp; J = NO</p>
","J","html-keyboard-response","45","2.1.0","1102426","F=YES, J=NO","1ke5kk7upe","0","71","57","85","","","","","","lextale","true","false","","","","","","","",""
"1302","
  <p style=""font-size: 40px;"">blim</p>
  <p style=""font-size: 16px;"">F = YES &nbsp;&nbsp;&nbsp; J = NO</p>
","J","html-keyboard-response","46","2.1.0","1103728","F=YES, J=NO","1ke5kk7upe","0","71","57","85","","","","","","lextale","false","false","","","","","","","",""
"2007","
  <p style=""font-size: 40px;"">stifle</p>
  <p style=""font-size: 16px;"">F = YES &nbsp;&nbsp;&nbsp; J = NO</p>
","J","html-keyboard-response","47","2.1.0","1105736","F=YES, J=NO","1ke5kk7upe","0","71","57","85","","","","","","lextale","true","false","","","","","","","",""
"831","
  <p style=""font-size: 40px;"">bint</p>
  <p style=""font-size: 16px;"">F = YES &nbsp;&nbsp;&nbsp; J = NO</p>
","J","html-keyboard-response","48","2.1.0","1106568","F=YES, J=NO","1ke5kk7upe","0","71","57","85","","","","","","lextale","false","false","","","","","","","",""
"954","
  <p style=""font-size: 40px;"">purple</p>
  <p style=""font-size: 16px;"">F = YES &nbsp;&nbsp;&nbsp; J = NO</p>
","F","html-keyboard-response","49","2.1.0","1107524","F=YES, J=NO","1ke5kk7upe","0","71","57","85","","","","","","lextale","true","false","","","","","","","",""
"1708","
  <p style=""font-size: 40px;"">wriggle</p>
  <p style=""font-size: 16px;"">F = YES &nbsp;&nbsp;&nbsp; J = NO</p>
","J","html-keyboard-response","50","2.1.0","1109232","F=YES, J=NO","1ke5kk7upe","0","71","57","85","","","","","","lextale","true","false","","","","","","","",""
"1530","
  <p style=""font-size: 40px;"">mangle</p>
  <p style=""font-size: 16px;"">F = YES &nbsp;&nbsp;&nbsp; J = NO</p>
","F","html-keyboard-response","51","2.1.0","1110762","F=YES, J=NO","1ke5kk7upe","0","71","57","85","","","","","","lextale","true","false","","","","","","","",""
"1153","
  <p style=""font-size: 40px;"">shramp</p>
  <p style=""font-size: 16px;"">F = YES &nbsp;&nbsp;&nbsp; J = NO</p>
","J","html-keyboard-response","52","2.1.0","1111916","F=YES, J=NO","1ke5kk7upe","0","71","57","85","","","","","","lextale","false","false","","","","","","","",""
"711","
  <p style=""font-size: 40px;"">flirt</p>
  <p style=""font-size: 16px;"">F = YES &nbsp;&nbsp;&nbsp; J = NO</p>
","F","html-keyboard-response","53","2.1.0","1112628","F=YES, J=NO","1ke5kk7upe","0","71","57","85","","","","","","lextale","true","false","","","","","","","",""
"823","
  <p style=""font-size: 40px;"">frip</p>
  <p style=""font-size: 16px;"">F = YES &nbsp;&nbsp;&nbsp; J = NO</p>
","J","html-keyboard-response","54","2.1.0","1113451","F=YES, J=NO","1ke5kk7upe","0","71","57","85","","","","","","lextale","false","false","","","","","","","",""
"1048","
  <p style=""font-size: 40px;"">tangle</p>
  <p style=""font-size: 16px;"">F = YES &nbsp;&nbsp;&nbsp; J = NO</p>
","F","html-keyboard-response","55","2.1.0","1114500","F=YES, J=NO","1ke5kk7upe","0","71","57","85","","","","","","lextale","true","false","","","","","","","",""
"1678","
  <p style=""font-size: 40px;"">crumble</p>
  <p style=""font-size: 16px;"">F = YES &nbsp;&nbsp;&nbsp; J = NO</p>
","F","html-keyboard-response","56","2.1.0","1116179","F=YES, J=NO","1ke5kk7upe","0","71","57","85","","","","","","lextale","true","false","","","","","","","",""
"758","
  <p style=""font-size: 40px;"">wrinkle</p>
  <p style=""font-size: 16px;"">F = YES &nbsp;&nbsp;&nbsp; J = NO</p>
","J","html-keyboard-response","57","2.1.0","1116937","F=YES, J=NO","1ke5kk7upe","0","71","57","85","","","","","","lextale","true","false","","","","","","","",""
"1704","
  <p style=""font-size: 40px;"">slumb</p>
  <p style=""font-size: 16px;"">F = YES &nbsp;&nbsp;&nbsp; J = NO</p>
","J","html-keyboard-response","58","2.1.0","1118641","F=YES, J=NO","1ke5kk7upe","0","71","57","85","","","","","","lextale","false","false","","","","","","","",""
"699","
  <p style=""font-size: 40px;"">jungle</p>
  <p style=""font-size: 16px;"">F = YES &nbsp;&nbsp;&nbsp; J = NO</p>
","F","html-keyboard-response","59","2.1.0","1119342","F=YES, J=NO","1ke5kk7upe","0","71","57","85","","","","","","lextale","true","false","","","","","","","",""
"2108","
  <p style=""font-size: 40px;"">frolick</p>
  <p style=""font-size: 16px;"">F = YES &nbsp;&nbsp;&nbsp; J = NO</p>
","J","html-keyboard-response","60","2.1.0","1121451","F=YES, J=NO","1ke5kk7upe","0","71","57","85","","","","","","lextale","false","false","","","","","","","",""
"2862","
      <h2>LexTALE Test Completed</h2>
      <p>Your LexTALE vocabulary score is: <strong>71%</strong></p>
      <p>Press any key to continue.</p>
    "," ","html-keyboard-response","61","2.1.0","1124315","F=YES, J=NO","1ke5kk7upe","0","71","57","85","","","","","","","","","","","","","","","",""
"2526","
    <div style=""max-width: 800px; margin: auto; text-align: left;"">
      <h2>Break Time</h2>
      <p>You have completed the first part of the study.</p>
      <p>You may take a short <strong>30-second break</strong> before continuing.</p>
      <p>When you’re ready, press any key to continue to the final task.</p>
    </div>
  ","Alt","html-keyboard-response","62","2.1.0","1126842","F=YES, J=NO","1ke5kk7upe","0","71","57","85","","","","","","","","","","","","","","","",""
"216492","
    <div style=""max-width: 800px; margin: auto; text-align: left;"">
      <h2>Part 2: Lexical Decision Task</h2>
      <p>You will now begin the second part of the study.</p>
      <p>Each trial will follow this sequence:</p>
      <ul>
        <li>A fixation cross (+) appears at the center of the screen.</li>
        <li>You will hear a short beep followed by a spoken word.</li>
        <li>A written word will appear briefly on the screen.</li>
      </ul>
      <p>Your task is to judge whether the <strong>written word</strong> is a real English word.</p>
      <p style=""margin-top: 1em;""><strong>Key responses:</strong></p>
      <ul>
        <li><strong>F</strong> = YES (real English word)</li>
        <li><strong>J</strong> = NO (not a real English word)</li>
      </ul>
      <p>Please respond as quickly and accurately as you can.</p>
      <p style=""margin-top: 2em;"">Press any key to continue.</p>
    </div>
  "," ","html-keyboard-response","63","2.1.0","1343335","F=YES, J=NO","1ke5kk7upe","0","71","57","85","","","","","","","","","","","","","","","",""
"7525","
    <div style=""max-width: 800px; margin: auto; text-align: left;"">
      <h2>Before You Begin</h2>
      <p>Make sure your sound is turned on.</p>
      <p>You will hear audio during each trial, but your decision should be based only on the <strong>written word</strong> you see on the screen.</p>
      <p><strong>Reminder:</strong></p>
      <ul>
        <li><strong>F</strong> = YES (real English word)</li>
        <li><strong>J</strong> = NO (not a real English word)</li>
      </ul>
      <p style=""margin-top: 2em;"">Press any key when you are ready to begin.</p>
    </div>
  "," ","html-keyboard-response","64","2.1.0","1350861","F=YES, J=NO","1ke5kk7upe","0","71","57","85","","","","","","","","","","","","","","","",""
"1841","
    <div style=""max-width: 800px; margin: auto; text-align: left;"">
      <h2>Part 2: Practice Trials</h2>
      <p>You will now complete a few <strong>practice trials</strong> to get familiar with the task.</p>
      <p>These trials are <strong>not scored</strong> and are only to help you get used to the format.</p>
      <p style=""margin-top: 2em;"">Press any key to begin.</p>
    </div>
  "," ","html-keyboard-response","65","2.1.0","1352702","F=YES, J=NO","1ke5kk7upe","0","71","57","85","","","","","","","","","","","","","","","",""
"1330","<p>Starting practice block 1 of 2. Press any key to continue.</p>"," ","html-keyboard-response","66","2.1.0","1354033","F=YES, J=NO","1ke5kk7upe","0","71","57","85","","","","","","","","","","","","","","","",""
"null","<p style=""font-size: 50px;"">+</p>","null","html-keyboard-response","67","2.1.0","1354335","F=YES, J=NO","1ke5kk7upe","0","71","57","85","","","","","","","","","","","","","","","",""
"null","audio/beep-329314.mp3","null","audio-keyboard-response","68","2.1.0","1355871","F=YES, J=NO","1ke5kk7upe","0","71","57","85","","","","","","","","","","","","","","","",""
"null","audio/desire.wav","null","audio-keyboard-response","69","2.1.0","1356481","F=YES, J=NO","1ke5kk7upe","0","71","57","85","","","","","","","","","","","","","","","",""
"null","
          <p id=""word"" style=""font-size: 40px;"">nophed</p>
          <p style=""font-size: 16px;"">F = YES &nbsp;&nbsp;&nbsp; J = NO</p>
        ","null","html-keyboard-response","70","2.1.0","1357998","F=YES, J=NO","1ke5kk7upe","0","71","57","85","","","","","","","","","nophed","desire","pseudoword","pseudoword","j","false","",""
"null","<p style=""font-size: 50px;"">+</p>","null","html-keyboard-response","71","2.1.0","1358299","F=YES, J=NO","1ke5kk7upe","0","71","57","85","","","","","","","","","","","","","","","",""
"null","audio/beep-329314.mp3","null","audio-keyboard-response","72","2.1.0","1359831","F=YES, J=NO","1ke5kk7upe","0","71","57","85","","","","","","","","","","","","","","","",""
"null","audio/empire.wav","null","audio-keyboard-response","73","2.1.0","1360521","F=YES, J=NO","1ke5kk7upe","0","71","57","85","","","","","","","","","","","","","","","",""
"855","
          <p id=""word"" style=""font-size: 40px;"">slorby</p>
          <p style=""font-size: 16px;"">F = YES &nbsp;&nbsp;&nbsp; J = NO</p>
        ","J","html-keyboard-response","74","2.1.0","1361377","F=YES, J=NO","1ke5kk7upe","0","71","57","85","","","","","","","","","slorby","empire","pseudoword","pseudoword","j","true","",""
"null","<p style=""font-size: 50px;"">+</p>","null","html-keyboard-response","75","2.1.0","1361680","F=YES, J=NO","1ke5kk7upe","0","71","57","85","","","","","","","","","","","","","","","",""
"null","audio/beep-329314.mp3","null","audio-keyboard-response","76","2.1.0","1363212","F=YES, J=NO","1ke5kk7upe","0","71","57","85","","","","","","","","","","","","","","","",""
"null","audio/weight1.wav","null","audio-keyboard-response","77","2.1.0","1363922","F=YES, J=NO","1ke5kk7upe","0","71","57","85","","","","","","","","","","","","","","","",""
"766","
          <p id=""word"" style=""font-size: 40px;"">crimsh</p>
          <p style=""font-size: 16px;"">F = YES &nbsp;&nbsp;&nbsp; J = NO</p>
        ","J","html-keyboard-response","78","2.1.0","1364689","F=YES, J=NO","1ke5kk7upe","0","71","57","85","","","","","","","","","crimsh","weight1","pseudoword","pseudoword","j","true","",""
"null","<p style=""font-size: 50px;"">+</p>","null","html-keyboard-response","79","2.1.0","1365003","F=YES, J=NO","1ke5kk7upe","0","71","57","85","","","","","","","","","","","","","","","",""
"null","audio/beep-329314.mp3","null","audio-keyboard-response","80","2.1.0","1366532","F=YES, J=NO","1ke5kk7upe","0","71","57","85","","","","","","","","","","","","","","","",""
"null","audio/cave1.wav","null","audio-keyboard-response","81","2.1.0","1367262","F=YES, J=NO","1ke5kk7upe","0","71","57","85","","","","","","","","","","","","","","","",""
"1233","
          <p id=""word"" style=""font-size: 40px;"">blacket</p>
          <p style=""font-size: 16px;"">F = YES &nbsp;&nbsp;&nbsp; J = NO</p>
        ","J","html-keyboard-response","82","2.1.0","1368496","F=YES, J=NO","1ke5kk7upe","0","71","57","85","","","","","","","","","blacket","cave1","pseudoword","pseudoword","j","true","",""
"null","<p style=""font-size: 50px;"">+</p>","null","html-keyboard-response","83","2.1.0","1368804","F=YES, J=NO","1ke5kk7upe","0","71","57","85","","","","","","","","","","","","","","","",""
"null","audio/beep-329314.mp3","null","audio-keyboard-response","84","2.1.0","1370333","F=YES, J=NO","1ke5kk7upe","0","71","57","85","","","","","","","","","","","","","","","",""
"null","audio/hawk1.wav","null","audio-keyboard-response","85","2.1.0","1371103","F=YES, J=NO","1ke5kk7upe","0","71","57","85","","","","","","","","","","","","","","","",""
"643","
          <p id=""word"" style=""font-size: 40px;"">ostach</p>
          <p style=""font-size: 16px;"">F = YES &nbsp;&nbsp;&nbsp; J = NO</p>
        ","J","html-keyboard-response","86","2.1.0","1371746","F=YES, J=NO","1ke5kk7upe","0","71","57","85","","","","","","","","","ostach","hawk1","pseudoword","pseudoword","j","true","",""
"null","<p style=""font-size: 50px;"">+</p>","null","html-keyboard-response","87","2.1.0","1372063","F=YES, J=NO","1ke5kk7upe","0","71","57","85","","","","","","","","","","","","","","","",""
"null","audio/beep-329314.mp3","null","audio-keyboard-response","88","2.1.0","1373594","F=YES, J=NO","1ke5kk7upe","0","71","57","85","","","","","","","","","","","","","","","",""
"null","audio/brain.wav","null","audio-keyboard-response","89","2.1.0","1374263","F=YES, J=NO","1ke5kk7upe","0","71","57","85","","","","","","","","","","","","","","","",""
"1018","
          <p id=""word"" style=""font-size: 40px;"">throw</p>
          <p style=""font-size: 16px;"">F = YES &nbsp;&nbsp;&nbsp; J = NO</p>
        ","F","html-keyboard-response","90","2.1.0","1375282","F=YES, J=NO","1ke5kk7upe","0","71","57","85","","","","","","","","","throw","brain","filler","filler","f","true","",""
"null","<p style=""font-size: 50px;"">+</p>","null","html-keyboard-response","91","2.1.0","1375584","F=YES, J=NO","1ke5kk7upe","0","71","57","85","","","","","","","","","","","","","","","",""
"null","audio/beep-329314.mp3","null","audio-keyboard-response","92","2.1.0","1377113","F=YES, J=NO","1ke5kk7upe","0","71","57","85","","","","","","","","","","","","","","","",""
"null","audio/client1.wav","null","audio-keyboard-response","93","2.1.0","1377984","F=YES, J=NO","1ke5kk7upe","0","71","57","85","","","","","","","","","","","","","","","",""
"872","
          <p id=""word"" style=""font-size: 40px;"">droothe</p>
          <p style=""font-size: 16px;"">F = YES &nbsp;&nbsp;&nbsp; J = NO</p>
        ","J","html-keyboard-response","94","2.1.0","1378857","F=YES, J=NO","1ke5kk7upe","0","71","57","85","","","","","","","","","droothe","client1","pseudoword","pseudoword","j","true","",""
"null","<p style=""font-size: 50px;"">+</p>","null","html-keyboard-response","95","2.1.0","1379173","F=YES, J=NO","1ke5kk7upe","0","71","57","85","","","","","","","","","","","","","","","",""
"null","audio/beep-329314.mp3","null","audio-keyboard-response","96","2.1.0","1380694","F=YES, J=NO","1ke5kk7upe","0","71","57","85","","","","","","","","","","","","","","","",""
"null","audio/birth1.wav","null","audio-keyboard-response","97","2.1.0","1381304","F=YES, J=NO","1ke5kk7upe","0","71","57","85","","","","","","","","","","","","","","","",""
"706","
          <p id=""word"" style=""font-size: 40px;"">peel</p>
          <p style=""font-size: 16px;"">F = YES &nbsp;&nbsp;&nbsp; J = NO</p>
        ","F","html-keyboard-response","98","2.1.0","1382011","F=YES, J=NO","1ke5kk7upe","0","71","57","85","","","","","","","","","peel","birth1","filler","filler","f","true","",""
"null","<p style=""font-size: 50px;"">+</p>","null","html-keyboard-response","99","2.1.0","1382314","F=YES, J=NO","1ke5kk7upe","0","71","57","85","","","","","","","","","","","","","","","",""
"null","audio/beep-329314.mp3","null","audio-keyboard-response","100","2.1.0","1383854","F=YES, J=NO","1ke5kk7upe","0","71","57","85","","","","","","","","","","","","","","","",""
"null","audio/dome.wav","null","audio-keyboard-response","101","2.1.0","1384344","F=YES, J=NO","1ke5kk7upe","0","71","57","85","","","","","","","","","","","","","","","",""
"1008","
          <p id=""word"" style=""font-size: 40px;"">scrupliness</p>
          <p style=""font-size: 16px;"">F = YES &nbsp;&nbsp;&nbsp; J = NO</p>
        ","J","html-keyboard-response","102","2.1.0","1385354","F=YES, J=NO","1ke5kk7upe","0","71","57","85","","","","","","","","","scrupliness","dome","pseudoword","pseudoword","j","true","",""
"null","<p style=""font-size: 50px;"">+</p>","null","html-keyboard-response","103","2.1.0","1385658","F=YES, J=NO","1ke5kk7upe","0","71","57","85","","","","","","","","","","","","","","","",""
"null","audio/beep-329314.mp3","null","audio-keyboard-response","104","2.1.0","1387195","F=YES, J=NO","1ke5kk7upe","0","71","57","85","","","","","","","","","","","","","","","",""
"null","audio/age1.wav","null","audio-keyboard-response","105","2.1.0","1387805","F=YES, J=NO","1ke5kk7upe","0","71","57","85","","","","","","","","","","","","","","","",""
"573","
          <p id=""word"" style=""font-size: 40px;"">bake</p>
          <p style=""font-size: 16px;"">F = YES &nbsp;&nbsp;&nbsp; J = NO</p>
        ","F","html-keyboard-response","106","2.1.0","1388378","F=YES, J=NO","1ke5kk7upe","0","71","57","85","","","","","","","","","bake","age1","filler","filler","f","true","",""
"null","<p style=""font-size: 50px;"">+</p>","null","html-keyboard-response","107","2.1.0","1388684","F=YES, J=NO","1ke5kk7upe","0","71","57","85","","","","","","","","","","","","","","","",""
"null","audio/beep-329314.mp3","null","audio-keyboard-response","108","2.1.0","1390216","F=YES, J=NO","1ke5kk7upe","0","71","57","85","","","","","","","","","","","","","","","",""
"null","audio/planet1.wav","null","audio-keyboard-response","109","2.1.0","1390985","F=YES, J=NO","1ke5kk7upe","0","71","57","85","","","","","","","","","","","","","","","",""
"971","
          <p id=""word"" style=""font-size: 40px;"">cratched</p>
          <p style=""font-size: 16px;"">F = YES &nbsp;&nbsp;&nbsp; J = NO</p>
        ","J","html-keyboard-response","110","2.1.0","1391957","F=YES, J=NO","1ke5kk7upe","0","71","57","85","","","","","","","","","cratched","planet1","pseudoword","pseudoword","j","true","",""
"null","<p style=""font-size: 50px;"">+</p>","null","html-keyboard-response","111","2.1.0","1392262","F=YES, J=NO","1ke5kk7upe","0","71","57","85","","","","","","","","","","","","","","","",""
"null","audio/beep-329314.mp3","null","audio-keyboard-response","112","2.1.0","1393796","F=YES, J=NO","1ke5kk7upe","0","71","57","85","","","","","","","","","","","","","","","",""
"null","audio/tunnel.wav","null","audio-keyboard-response","113","2.1.0","1394226","F=YES, J=NO","1ke5kk7upe","0","71","57","85","","","","","","","","","","","","","","","",""
"777","
          <p id=""word"" style=""font-size: 40px;"">gred</p>
          <p style=""font-size: 16px;"">F = YES &nbsp;&nbsp;&nbsp; J = NO</p>
        ","J","html-keyboard-response","114","2.1.0","1395004","F=YES, J=NO","1ke5kk7upe","0","71","57","85","","","","","","","","","gred","tunnel","pseudoword","pseudoword","j","true","",""
"1217","<p>Starting practice block 2 of 2. Press any key to continue.</p>","J","html-keyboard-response","115","2.1.0","1396222","F=YES, J=NO","1ke5kk7upe","0","71","57","85","","","","","","","","","","","","","","","",""
"null","<p style=""font-size: 50px;"">+</p>","null","html-keyboard-response","116","2.1.0","1396538","F=YES, J=NO","1ke5kk7upe","0","71","57","85","","","","","","","","","","","","","","","",""
"null","audio/beep-329314.mp3","null","audio-keyboard-response","117","2.1.0","1398077","F=YES, J=NO","1ke5kk7upe","0","71","57","85","","","","","","","","","","","","","","","",""
"null","audio/voice.wav","null","audio-keyboard-response","118","2.1.0","1398746","F=YES, J=NO","1ke5kk7upe","0","71","57","85","","","","","","","","","","","","","","","",""
"883","
          <p id=""word"" style=""font-size: 40px;"">grintle</p>
          <p style=""font-size: 16px;"">F = YES &nbsp;&nbsp;&nbsp; J = NO</p>
        ","J","html-keyboard-response","119","2.1.0","1399631","F=YES, J=NO","1ke5kk7upe","0","71","57","85","","","","","","","","","grintle","voice","pseudoword","pseudoword","j","true","",""
"null","<p style=""font-size: 50px;"">+</p>","null","html-keyboard-response","120","2.1.0","1399941","F=YES, J=NO","1ke5kk7upe","0","71","57","85","","","","","","","","","","","","","","","",""
"null","audio/beep-329314.mp3","null","audio-keyboard-response","121","2.1.0","1401477","F=YES, J=NO","1ke5kk7upe","0","71","57","85","","","","","","","","","","","","","","","",""
"null","audio/battle1.wav","null","audio-keyboard-response","122","2.1.0","1401947","F=YES, J=NO","1ke5kk7upe","0","71","57","85","","","","","","","","","","","","","","","",""
"696","
          <p id=""word"" style=""font-size: 40px;"">boil</p>
          <p style=""font-size: 16px;"">F = YES &nbsp;&nbsp;&nbsp; J = NO</p>
        ","F","html-keyboard-response","123","2.1.0","1402643","F=YES, J=NO","1ke5kk7upe","0","71","57","85","","","","","","","","","boil","battle1","filler","filler","f","true","",""
"null","<p style=""font-size: 50px;"">+</p>","null","html-keyboard-response","124","2.1.0","1402957","F=YES, J=NO","1ke5kk7upe","0","71","57","85","","","","","","","","","","","","","","","",""
"null","audio/beep-329314.mp3","null","audio-keyboard-response","125","2.1.0","1404497","F=YES, J=NO","1ke5kk7upe","0","71","57","85","","","","","","","","","","","","","","","",""
"null","audio/foot1.wav","null","audio-keyboard-response","126","2.1.0","1405127","F=YES, J=NO","1ke5kk7upe","0","71","57","85","","","","","","","","","","","","","","","",""
"711","
          <p id=""word"" style=""font-size: 40px;"">thrutt</p>
          <p style=""font-size: 16px;"">F = YES &nbsp;&nbsp;&nbsp; J = NO</p>
        ","J","html-keyboard-response","127","2.1.0","1405839","F=YES, J=NO","1ke5kk7upe","0","71","57","85","","","","","","","","","thrutt","foot1","pseudoword","pseudoword","j","true","",""
"null","<p style=""font-size: 50px;"">+</p>","null","html-keyboard-response","128","2.1.0","1406150","F=YES, J=NO","1ke5kk7upe","0","71","57","85","","","","","","","","","","","","","","","",""
"null","audio/beep-329314.mp3","null","audio-keyboard-response","129","2.1.0","1407678","F=YES, J=NO","1ke5kk7upe","0","71","57","85","","","","","","","","","","","","","","","",""
"null","audio/bridge.wav","null","audio-keyboard-response","130","2.1.0","1408287","F=YES, J=NO","1ke5kk7upe","0","71","57","85","","","","","","","","","","","","","","","",""
"620","
          <p id=""word"" style=""font-size: 40px;"">crack</p>
          <p style=""font-size: 16px;"">F = YES &nbsp;&nbsp;&nbsp; J = NO</p>
        ","F","html-keyboard-response","131","2.1.0","1408909","F=YES, J=NO","1ke5kk7upe","0","71","57","85","","","","","","","","","crack","bridge","filler","filler","f","true","",""
"null","<p style=""font-size: 50px;"">+</p>","null","html-keyboard-response","132","2.1.0","1409213","F=YES, J=NO","1ke5kk7upe","0","71","57","85","","","","","","","","","","","","","","","",""
"null","audio/beep-329314.mp3","null","audio-keyboard-response","133","2.1.0","1410738","F=YES, J=NO","1ke5kk7upe","0","71","57","85","","","","","","","","","","","","","","","",""
"null","audio/kettle1.wav","null","audio-keyboard-response","134","2.1.0","1411268","F=YES, J=NO","1ke5kk7upe","0","71","57","85","","","","","","","","","","","","","","","",""
"652","
          <p id=""word"" style=""font-size: 40px;"">wrap</p>
          <p style=""font-size: 16px;"">F = YES &nbsp;&nbsp;&nbsp; J = NO</p>
        ","F","html-keyboard-response","135","2.1.0","1411921","F=YES, J=NO","1ke5kk7upe","0","71","57","85","","","","","","","","","wrap","kettle1","filler","filler","f","true","",""
"null","<p style=""font-size: 50px;"">+</p>","null","html-keyboard-response","136","2.1.0","1412224","F=YES, J=NO","1ke5kk7upe","0","71","57","85","","","","","","","","","","","","","","","",""
"null","audio/beep-329314.mp3","null","audio-keyboard-response","137","2.1.0","1413758","F=YES, J=NO","1ke5kk7upe","0","71","57","85","","","","","","","","","","","","","","","",""
"null","audio/novel.wav","null","audio-keyboard-response","138","2.1.0","1414308","F=YES, J=NO","1ke5kk7upe","0","71","57","85","","","","","","","","","","","","","","","",""
"624","
          <p id=""word"" style=""font-size: 40px;"">type</p>
          <p style=""font-size: 16px;"">F = YES &nbsp;&nbsp;&nbsp; J = NO</p>
        ","F","html-keyboard-response","139","2.1.0","1414933","F=YES, J=NO","1ke5kk7upe","0","71","57","85","","","","","","","","","type","novel","filler","filler","f","true","",""
"null","<p style=""font-size: 50px;"">+</p>","null","html-keyboard-response","140","2.1.0","1415248","F=YES, J=NO","1ke5kk7upe","0","71","57","85","","","","","","","","","","","","","","","",""
"null","audio/beep-329314.mp3","null","audio-keyboard-response","141","2.1.0","1416779","F=YES, J=NO","1ke5kk7upe","0","71","57","85","","","","","","","","","","","","","","","",""
"null","audio/bottle.wav","null","audio-keyboard-response","142","2.1.0","1417429","F=YES, J=NO","1ke5kk7upe","0","71","57","85","","","","","","","","","","","","","","","",""
"645","
          <p id=""word"" style=""font-size: 40px;"">watch</p>
          <p style=""font-size: 16px;"">F = YES &nbsp;&nbsp;&nbsp; J = NO</p>
        ","F","html-keyboard-response","143","2.1.0","1418075","F=YES, J=NO","1ke5kk7upe","0","71","57","85","","","","","","","","","watch","bottle","filler","filler","f","true","",""
"null","<p style=""font-size: 50px;"">+</p>","null","html-keyboard-response","144","2.1.0","1418377","F=YES, J=NO","1ke5kk7upe","0","71","57","85","","","","","","","","","","","","","","","",""
"null","audio/beep-329314.mp3","null","audio-keyboard-response","145","2.1.0","1419899","F=YES, J=NO","1ke5kk7upe","0","71","57","85","","","","","","","","","","","","","","","",""
"null","audio/cancer1.wav","null","audio-keyboard-response","146","2.1.0","1420509","F=YES, J=NO","1ke5kk7upe","0","71","57","85","","","","","","","","","","","","","","","",""
"530","
          <p id=""word"" style=""font-size: 40px;"">draw</p>
          <p style=""font-size: 16px;"">F = YES &nbsp;&nbsp;&nbsp; J = NO</p>
        ","F","html-keyboard-response","147","2.1.0","1421039","F=YES, J=NO","1ke5kk7upe","0","71","57","85","","","","","","","","","draw","cancer1","filler","filler","f","true","",""
"null","<p style=""font-size: 50px;"">+</p>","null","html-keyboard-response","148","2.1.0","1421353","F=YES, J=NO","1ke5kk7upe","0","71","57","85","","","","","","","","","","","","","","","",""
"null","audio/beep-329314.mp3","null","audio-keyboard-response","149","2.1.0","1422880","F=YES, J=NO","1ke5kk7upe","0","71","57","85","","","","","","","","","","","","","","","",""
"null","audio/belief.wav","null","audio-keyboard-response","150","2.1.0","1423690","F=YES, J=NO","1ke5kk7upe","0","71","57","85","","","","","","","","","","","","","","","",""
"478","
          <p id=""word"" style=""font-size: 40px;"">read</p>
          <p style=""font-size: 16px;"">F = YES &nbsp;&nbsp;&nbsp; J = NO</p>
        ","F","html-keyboard-response","151","2.1.0","1424169","F=YES, J=NO","1ke5kk7upe","0","71","57","85","","","","","","","","","read","belief","filler","filler","f","true","",""
"null","<p style=""font-size: 50px;"">+</p>","null","html-keyboard-response","152","2.1.0","1424474","F=YES, J=NO","1ke5kk7upe","0","71","57","85","","","","","","","","","","","","","","","",""
"null","audio/beep-329314.mp3","null","audio-keyboard-response","153","2.1.0","1426000","F=YES, J=NO","1ke5kk7upe","0","71","57","85","","","","","","","","","","","","","","","",""
"null","audio/menu.wav","null","audio-keyboard-response","154","2.1.0","1426750","F=YES, J=NO","1ke5kk7upe","0","71","57","85","","","","","","","","","","","","","","","",""
"808","
          <p id=""word"" style=""font-size: 40px;"">slice</p>
          <p style=""font-size: 16px;"">F = YES &nbsp;&nbsp;&nbsp; J = NO</p>
        ","F","html-keyboard-response","155","2.1.0","1427559","F=YES, J=NO","1ke5kk7upe","0","71","57","85","","","","","","","","","slice","menu","filler","filler","f","true","",""
"null","<p style=""font-size: 50px;"">+</p>","null","html-keyboard-response","156","2.1.0","1427860","F=YES, J=NO","1ke5kk7upe","0","71","57","85","","","","","","","","","","","","","","","",""
"null","audio/beep-329314.mp3","null","audio-keyboard-response","157","2.1.0","1429401","F=YES, J=NO","1ke5kk7upe","0","71","57","85","","","","","","","","","","","","","","","",""
"null","audio/life1.wav","null","audio-keyboard-response","158","2.1.0","1430030","F=YES, J=NO","1ke5kk7upe","0","71","57","85","","","","","","","","","","","","","","","",""
"657","
          <p id=""word"" style=""font-size: 40px;"">flimch</p>
          <p style=""font-size: 16px;"">F = YES &nbsp;&nbsp;&nbsp; J = NO</p>
        ","J","html-keyboard-response","159","2.1.0","1430688","F=YES, J=NO","1ke5kk7upe","0","71","57","85","","","","","","","","","flimch","life1","pseudoword","pseudoword","j","true","",""
"null","<p style=""font-size: 50px;"">+</p>","null","html-keyboard-response","160","2.1.0","1431001","F=YES, J=NO","1ke5kk7upe","0","71","57","85","","","","","","","","","","","","","","","",""
"null","audio/beep-329314.mp3","null","audio-keyboard-response","161","2.1.0","1432541","F=YES, J=NO","1ke5kk7upe","0","71","57","85","","","","","","","","","","","","","","","",""
"null","audio/ankle1.wav","null","audio-keyboard-response","162","2.1.0","1433071","F=YES, J=NO","1ke5kk7upe","0","71","57","85","","","","","","","","","","","","","","","",""
"588","
          <p id=""word"" style=""font-size: 40px;"">kick</p>
          <p style=""font-size: 16px;"">F = YES &nbsp;&nbsp;&nbsp; J = NO</p>
        ","F","html-keyboard-response","163","2.1.0","1433661","F=YES, J=NO","1ke5kk7upe","0","71","57","85","","","","","","","","","kick","ankle1","filler","filler","f","true","",""
"6675","
    <div style=""max-width: 800px; margin: auto; text-align: left;"">
      <h2>Part 2: Main Trials</h2>
      <p>Great job on the practice trials!</p>
      <p>You will now begin the <strong>main set of trials</strong>.</p>
      <p>Remember your key assignments:</p>
      <ul>
        <li><strong>F</strong> = YES (real English word)</li>
        <li><strong>J</strong> = NO (not a real English word)</li>
      </ul>
      <p>Try to respond as <strong>quickly and accurately</strong> as possible.</p>
      <p style=""margin-top: 2em;"">Press any key to begin the main trials.</p>
    </div>
  "," ","html-keyboard-response","164","2.1.0","1440337","F=YES, J=NO","1ke5kk7upe","0","71","57","85","","","","","","","","","","","","","","","",""
"1662","<p>Starting main block 1 of 8. Press any key to continue.</p>"," ","html-keyboard-response","165","2.1.0","1441999","F=YES, J=NO","1ke5kk7upe","0","71","57","85","","","","","","","","","","","","","","","",""
"null","<p style=""font-size: 50px;"">+</p>","null","html-keyboard-response","166","2.1.0","1442301","F=YES, J=NO","1ke5kk7upe","0","71","57","85","","","","","","","","","","","","","","","",""
"null","audio/beep-329314.mp3","null","audio-keyboard-response","167","2.1.0","1443842","F=YES, J=NO","1ke5kk7upe","0","71","57","85","","","","","","","","","","","","","","","",""
"null","audio/theory1.wav","null","audio-keyboard-response","168","2.1.0","1444462","F=YES, J=NO","1ke5kk7upe","0","71","57","85","","","","","","","","","","","","","","","",""
"858","
          <p id=""word"" style=""font-size: 40px;"">scolve</p>
          <p style=""font-size: 16px;"">F = YES &nbsp;&nbsp;&nbsp; J = NO</p>
        ","J","html-keyboard-response","169","2.1.0","1445321","F=YES, J=NO","1ke5kk7upe","0","71","57","85","","","","","","","","","scolve","theory1","pseudoword","pseudoword","j","true","",""
"null","<p style=""font-size: 50px;"">+</p>","null","html-keyboard-response","170","2.1.0","1445623","F=YES, J=NO","1ke5kk7upe","0","71","57","85","","","","","","","","","","","","","","","",""
"null","audio/beep-329314.mp3","null","audio-keyboard-response","171","2.1.0","1447163","F=YES, J=NO","1ke5kk7upe","0","71","57","85","","","","","","","","","","","","","","","",""
"null","audio/relief.wav","null","audio-keyboard-response","172","2.1.0","1447803","F=YES, J=NO","1ke5kk7upe","0","71","57","85","","","","","","","","","","","","","","","",""
"675","
          <p id=""word"" style=""font-size: 40px;"">grigg</p>
          <p style=""font-size: 16px;"">F = YES &nbsp;&nbsp;&nbsp; J = NO</p>
        ","J","html-keyboard-response","173","2.1.0","1448479","F=YES, J=NO","1ke5kk7upe","0","71","57","85","","","","","","","","","grigg","relief","pseudoword","pseudoword","j","true","",""
"null","<p style=""font-size: 50px;"">+</p>","null","html-keyboard-response","174","2.1.0","1448792","F=YES, J=NO","1ke5kk7upe","0","71","57","85","","","","","","","","","","","","","","","",""
"null","audio/beep-329314.mp3","null","audio-keyboard-response","175","2.1.0","1450323","F=YES, J=NO","1ke5kk7upe","0","71","57","85","","","","","","","","","","","","","","","",""
"null","audio/corpse1.wav","null","audio-keyboard-response","176","2.1.0","1450943","F=YES, J=NO","1ke5kk7upe","0","71","57","85","","","","","","","","","","","","","","","",""
"554","
          <p id=""word"" style=""font-size: 40px;"">glonet</p>
          <p style=""font-size: 16px;"">F = YES &nbsp;&nbsp;&nbsp; J = NO</p>
        ","J","html-keyboard-response","177","2.1.0","1451497","F=YES, J=NO","1ke5kk7upe","0","71","57","85","","","","","","","","","glonet","corpse1","pseudoword","pseudoword","j","true","",""
"null","<p style=""font-size: 50px;"">+</p>","null","html-keyboard-response","178","2.1.0","1451806","F=YES, J=NO","1ke5kk7upe","0","71","57","85","","","","","","","","","","","","","","","",""
"null","audio/beep-329314.mp3","null","audio-keyboard-response","179","2.1.0","1453344","F=YES, J=NO","1ke5kk7upe","0","71","57","85","","","","","","","","","","","","","","","",""
"null","audio/pain1.wav","null","audio-keyboard-response","180","2.1.0","1453783","F=YES, J=NO","1ke5kk7upe","0","71","57","85","","","","","","","","","","","","","","","",""
"508","
          <p id=""word"" style=""font-size: 40px;"">sell</p>
          <p style=""font-size: 16px;"">F = YES &nbsp;&nbsp;&nbsp; J = NO</p>
        ","F","html-keyboard-response","181","2.1.0","1454292","F=YES, J=NO","1ke5kk7upe","0","71","57","85","","","","","","","","","sell","pain1","unrelated","experimental","f","true","",""
"null","<p style=""font-size: 50px;"">+</p>","null","html-keyboard-response","182","2.1.0","1454600","F=YES, J=NO","1ke5kk7upe","0","71","57","85","","","","","","","","","","","","","","","",""
"null","audio/beep-329314.mp3","null","audio-keyboard-response","183","2.1.0","1456124","F=YES, J=NO","1ke5kk7upe","0","71","57","85","","","","","","","","","","","","","","","",""
"null","audio/tax1.wav","null","audio-keyboard-response","184","2.1.0","1456724","F=YES, J=NO","1ke5kk7upe","0","71","57","85","","","","","","","","","","","","","","","",""
"797","
          <p id=""word"" style=""font-size: 40px;"">scrap</p>
          <p style=""font-size: 16px;"">F = YES &nbsp;&nbsp;&nbsp; J = NO</p>
        ","F","html-keyboard-response","185","2.1.0","1457521","F=YES, J=NO","1ke5kk7upe","0","71","57","85","","","","","","","","","scrap","tax1","metaphor","experimental","f","true","",""
"null","<p style=""font-size: 50px;"">+</p>","null","html-keyboard-response","186","2.1.0","1457838","F=YES, J=NO","1ke5kk7upe","0","71","57","85","","","","","","","","","","","","","","","",""
"null","audio/beep-329314.mp3","null","audio-keyboard-response","187","2.1.0","1459364","F=YES, J=NO","1ke5kk7upe","0","71","57","85","","","","","","","","","","","","","","","",""
"null","audio/revenue1.wav","null","audio-keyboard-response","188","2.1.0","1460024","F=YES, J=NO","1ke5kk7upe","0","71","57","85","","","","","","","","","","","","","","","",""
"859","
          <p id=""word"" style=""font-size: 40px;"">grow</p>
          <p style=""font-size: 16px;"">F = YES &nbsp;&nbsp;&nbsp; J = NO</p>
        ","F","html-keyboard-response","189","2.1.0","1460884","F=YES, J=NO","1ke5kk7upe","0","71","57","85","","","","","","","","","grow","revenue1","metaphor","experimental","f","true","",""
"null","<p style=""font-size: 50px;"">+</p>","null","html-keyboard-response","190","2.1.0","1461188","F=YES, J=NO","1ke5kk7upe","0","71","57","85","","","","","","","","","","","","","","","",""
"null","audio/beep-329314.mp3","null","audio-keyboard-response","191","2.1.0","1462725","F=YES, J=NO","1ke5kk7upe","0","71","57","85","","","","","","","","","","","","","","","",""
"null","audio/floor.wav","null","audio-keyboard-response","192","2.1.0","1463445","F=YES, J=NO","1ke5kk7upe","0","71","57","85","","","","","","","","","","","","","","","",""
"1144","
          <p id=""word"" style=""font-size: 40px;"">mop</p>
          <p style=""font-size: 16px;"">F = YES &nbsp;&nbsp;&nbsp; J = NO</p>
        ","F","html-keyboard-response","193","2.1.0","1464589","F=YES, J=NO","1ke5kk7upe","0","71","57","85","","","","","","","","","mop","floor","filler","filler","f","true","",""
"null","<p style=""font-size: 50px;"">+</p>","null","html-keyboard-response","194","2.1.0","1464899","F=YES, J=NO","1ke5kk7upe","0","71","57","85","","","","","","","","","","","","","","","",""
"null","audio/beep-329314.mp3","null","audio-keyboard-response","195","2.1.0","1466425","F=YES, J=NO","1ke5kk7upe","0","71","57","85","","","","","","","","","","","","","","","",""
"null","audio/key1.wav","null","audio-keyboard-response","196","2.1.0","1466785","F=YES, J=NO","1ke5kk7upe","0","71","57","85","","","","","","","","","","","","","","","",""
"570","
          <p id=""word"" style=""font-size: 40px;"">sminsh</p>
          <p style=""font-size: 16px;"">F = YES &nbsp;&nbsp;&nbsp; J = NO</p>
        ","J","html-keyboard-response","197","2.1.0","1467356","F=YES, J=NO","1ke5kk7upe","0","71","57","85","","","","","","","","","sminsh","key1","pseudoword","pseudoword","j","true","",""
"null","<p style=""font-size: 50px;"">+</p>","null","html-keyboard-response","198","2.1.0","1467658","F=YES, J=NO","1ke5kk7upe","0","71","57","85","","","","","","","","","","","","","","","",""
"null","audio/beep-329314.mp3","null","audio-keyboard-response","199","2.1.0","1469186","F=YES, J=NO","1ke5kk7upe","0","71","57","85","","","","","","","","","","","","","","","",""
"null","audio/burden.wav","null","audio-keyboard-response","200","2.1.0","1469745","F=YES, J=NO","1ke5kk7upe","0","71","57","85","","","","","","","","","","","","","","","",""
"827","
          <p id=""word"" style=""font-size: 40px;"">whotth</p>
          <p style=""font-size: 16px;"">F = YES &nbsp;&nbsp;&nbsp; J = NO</p>
        ","J","html-keyboard-response","201","2.1.0","1470574","F=YES, J=NO","1ke5kk7upe","0","71","57","85","","","","","","","","","whotth","burden","pseudoword","pseudoword","j","true","",""
"null","<p style=""font-size: 50px;"">+</p>","null","html-keyboard-response","202","2.1.0","1470879","F=YES, J=NO","1ke5kk7upe","0","71","57","85","","","","","","","","","","","","","","","",""
"null","audio/beep-329314.mp3","null","audio-keyboard-response","203","2.1.0","1472406","F=YES, J=NO","1ke5kk7upe","0","71","57","85","","","","","","","","","","","","","","","",""
"null","audio/uncle1.wav","null","audio-keyboard-response","204","2.1.0","1472886","F=YES, J=NO","1ke5kk7upe","0","71","57","85","","","","","","","","","","","","","","","",""
"871","
          <p id=""word"" style=""font-size: 40px;"">dramble</p>
          <p style=""font-size: 16px;"">F = YES &nbsp;&nbsp;&nbsp; J = NO</p>
        ","J","html-keyboard-response","205","2.1.0","1473757","F=YES, J=NO","1ke5kk7upe","0","71","57","85","","","","","","","","","dramble","uncle1","pseudoword","pseudoword","j","true","",""
"null","<p style=""font-size: 50px;"">+</p>","null","html-keyboard-response","206","2.1.0","1474071","F=YES, J=NO","1ke5kk7upe","0","71","57","85","","","","","","","","","","","","","","","",""
"null","audio/beep-329314.mp3","null","audio-keyboard-response","207","2.1.0","1475607","F=YES, J=NO","1ke5kk7upe","0","71","57","85","","","","","","","","","","","","","","","",""
"null","audio/noise1.wav","null","audio-keyboard-response","208","2.1.0","1476486","F=YES, J=NO","1ke5kk7upe","0","71","57","85","","","","","","","","","","","","","","","",""
"549","
          <p id=""word"" style=""font-size: 40px;"">build</p>
          <p style=""font-size: 16px;"">F = YES &nbsp;&nbsp;&nbsp; J = NO</p>
        ","F","html-keyboard-response","209","2.1.0","1477036","F=YES, J=NO","1ke5kk7upe","0","71","57","85","","","","","","","","","build","noise1","unrelated","experimental","f","true","",""
"null","<p style=""font-size: 50px;"">+</p>","null","html-keyboard-response","210","2.1.0","1477343","F=YES, J=NO","1ke5kk7upe","0","71","57","85","","","","","","","","","","","","","","","",""
"null","audio/beep-329314.mp3","null","audio-keyboard-response","211","2.1.0","1478867","F=YES, J=NO","1ke5kk7upe","0","71","57","85","","","","","","","","","","","","","","","",""
"null","audio/vehicle1.wav","null","audio-keyboard-response","212","2.1.0","1479567","F=YES, J=NO","1ke5kk7upe","0","71","57","85","","","","","","","","","","","","","","","",""
"800","
          <p id=""word"" style=""font-size: 40px;"">dropt</p>
          <p style=""font-size: 16px;"">F = YES &nbsp;&nbsp;&nbsp; J = NO</p>
        ","J","html-keyboard-response","213","2.1.0","1480369","F=YES, J=NO","1ke5kk7upe","0","71","57","85","","","","","","","","","dropt","vehicle1","pseudoword","pseudoword","j","true","",""
"null","<p style=""font-size: 50px;"">+</p>","null","html-keyboard-response","214","2.1.0","1480678","F=YES, J=NO","1ke5kk7upe","0","71","57","85","","","","","","","","","","","","","","","",""
"null","audio/beep-329314.mp3","null","audio-keyboard-response","215","2.1.0","1482208","F=YES, J=NO","1ke5kk7upe","0","71","57","85","","","","","","","","","","","","","","","",""
"null","audio/pine.wav","null","audio-keyboard-response","216","2.1.0","1482967","F=YES, J=NO","1ke5kk7upe","0","71","57","85","","","","","","","","","","","","","","","",""
"503","
          <p id=""word"" style=""font-size: 40px;"">weave</p>
          <p style=""font-size: 16px;"">F = YES &nbsp;&nbsp;&nbsp; J = NO</p>
        ","F","html-keyboard-response","217","2.1.0","1483472","F=YES, J=NO","1ke5kk7upe","0","71","57","85","","","","","","","","","weave","pine","unrelated","experimental","f","true","",""
"null","<p style=""font-size: 50px;"">+</p>","null","html-keyboard-response","218","2.1.0","1483788","F=YES, J=NO","1ke5kk7upe","0","71","57","85","","","","","","","","","","","","","","","",""
"null","audio/beep-329314.mp3","null","audio-keyboard-response","219","2.1.0","1485328","F=YES, J=NO","1ke5kk7upe","0","71","57","85","","","","","","","","","","","","","","","",""
"null","audio/foe1.wav","null","audio-keyboard-response","220","2.1.0","1485887","F=YES, J=NO","1ke5kk7upe","0","71","57","85","","","","","","","","","","","","","","","",""
"762","
          <p id=""word"" style=""font-size: 40px;"">conquer</p>
          <p style=""font-size: 16px;"">F = YES &nbsp;&nbsp;&nbsp; J = NO</p>
        ","F","html-keyboard-response","221","2.1.0","1486651","F=YES, J=NO","1ke5kk7upe","0","71","57","85","","","","","","","","","conquer","foe1","literal","experimental","f","true","",""
"null","<p style=""font-size: 50px;"">+</p>","null","html-keyboard-response","222","2.1.0","1486965","F=YES, J=NO","1ke5kk7upe","0","71","57","85","","","","","","","","","","","","","","","",""
"null","audio/beep-329314.mp3","null","audio-keyboard-response","223","2.1.0","1488488","F=YES, J=NO","1ke5kk7upe","0","71","57","85","","","","","","","","","","","","","","","",""
"null","audio/stain.wav","null","audio-keyboard-response","224","2.1.0","1489188","F=YES, J=NO","1ke5kk7upe","0","71","57","85","","","","","","","","","","","","","","","",""
"593","
          <p id=""word"" style=""font-size: 40px;"">rumpsied</p>
          <p style=""font-size: 16px;"">F = YES &nbsp;&nbsp;&nbsp; J = NO</p>
        ","J","html-keyboard-response","225","2.1.0","1489782","F=YES, J=NO","1ke5kk7upe","0","71","57","85","","","","","","","","","rumpsied","stain","pseudoword","pseudoword","j","true","",""
"null","<p style=""font-size: 50px;"">+</p>","null","html-keyboard-response","226","2.1.0","1490095","F=YES, J=NO","1ke5kk7upe","0","71","57","85","","","","","","","","","","","","","","","",""
"null","audio/beep-329314.mp3","null","audio-keyboard-response","227","2.1.0","1491628","F=YES, J=NO","1ke5kk7upe","0","71","57","85","","","","","","","","","","","","","","","",""
"null","audio/van1.wav","null","audio-keyboard-response","228","2.1.0","1492289","F=YES, J=NO","1ke5kk7upe","0","71","57","85","","","","","","","","","","","","","","","",""
"591","
          <p id=""word"" style=""font-size: 40px;"">push</p>
          <p style=""font-size: 16px;"">F = YES &nbsp;&nbsp;&nbsp; J = NO</p>
        ","F","html-keyboard-response","229","2.1.0","1492881","F=YES, J=NO","1ke5kk7upe","0","71","57","85","","","","","","","","","push","van1","filler","filler","f","true","",""
"1709","<p>Excellent! You have finished block 1 of 8.</p>
                     <p>Feel free to take a 30 second break.</p>
                     <p>Press any key when you're ready to continue.</p>"," ","html-keyboard-response","230","2.1.0","1494590","F=YES, J=NO","1ke5kk7upe","0","71","57","85","","","","","","","","","","","","","","","",""
"481","<p>Starting main block 2 of 8. Press any key to continue.</p>","F","html-keyboard-response","231","2.1.0","1495072","F=YES, J=NO","1ke5kk7upe","0","71","57","85","","","","","","","","","","","","","","","",""
"null","<p style=""font-size: 50px;"">+</p>","null","html-keyboard-response","232","2.1.0","1495382","F=YES, J=NO","1ke5kk7upe","0","71","57","85","","","","","","","","","","","","","","","",""
"null","audio/beep-329314.mp3","null","audio-keyboard-response","233","2.1.0","1496909","F=YES, J=NO","1ke5kk7upe","0","71","57","85","","","","","","","","","","","","","","","",""
"null","audio/pain1.wav","null","audio-keyboard-response","234","2.1.0","1497349","F=YES, J=NO","1ke5kk7upe","0","71","57","85","","","","","","","","","","","","","","","",""
"711","
          <p id=""word"" style=""font-size: 40px;"">tritted</p>
          <p style=""font-size: 16px;"">F = YES &nbsp;&nbsp;&nbsp; J = NO</p>
        ","J","html-keyboard-response","235","2.1.0","1498060","F=YES, J=NO","1ke5kk7upe","0","71","57","85","","","","","","","","","tritted","pain1","pseudoword","pseudoword","j","true","",""
"null","<p style=""font-size: 50px;"">+</p>","null","html-keyboard-response","236","2.1.0","1498367","F=YES, J=NO","1ke5kk7upe","0","71","57","85","","","","","","","","","","","","","","","",""
"null","audio/beep-329314.mp3","null","audio-keyboard-response","237","2.1.0","1499889","F=YES, J=NO","1ke5kk7upe","0","71","57","85","","","","","","","","","","","","","","","",""
"null","audio/fortune1.wav","null","audio-keyboard-response","238","2.1.0","1500709","F=YES, J=NO","1ke5kk7upe","0","71","57","85","","","","","","","","","","","","","","","",""
"478","
          <p id=""word"" style=""font-size: 40px;"">spend</p>
          <p style=""font-size: 16px;"">F = YES &nbsp;&nbsp;&nbsp; J = NO</p>
        ","F","html-keyboard-response","239","2.1.0","1501188","F=YES, J=NO","1ke5kk7upe","0","71","57","85","","","","","","","","","spend","fortune1","literal","experimental","f","true","",""
"null","<p style=""font-size: 50px;"">+</p>","null","html-keyboard-response","240","2.1.0","1501501","F=YES, J=NO","1ke5kk7upe","0","71","57","85","","","","","","","","","","","","","","","",""
"null","audio/beep-329314.mp3","null","audio-keyboard-response","241","2.1.0","1503030","F=YES, J=NO","1ke5kk7upe","0","71","57","85","","","","","","","","","","","","","","","",""
"null","audio/baby.wav","null","audio-keyboard-response","242","2.1.0","1503670","F=YES, J=NO","1ke5kk7upe","0","71","57","85","","","","","","","","","","","","","","","",""
"712","
          <p id=""word"" style=""font-size: 40px;"">lift</p>
          <p style=""font-size: 16px;"">F = YES &nbsp;&nbsp;&nbsp; J = NO</p>
        ","F","html-keyboard-response","243","2.1.0","1504382","F=YES, J=NO","1ke5kk7upe","0","71","57","85","","","","","","","","","lift","baby","filler","filler","f","true","",""
"null","<p style=""font-size: 50px;"">+</p>","null","html-keyboard-response","244","2.1.0","1504699","F=YES, J=NO","1ke5kk7upe","0","71","57","85","","","","","","","","","","","","","","","",""
"null","audio/beep-329314.mp3","null","audio-keyboard-response","245","2.1.0","1506230","F=YES, J=NO","1ke5kk7upe","0","71","57","85","","","","","","","","","","","","","","","",""
"null","audio/survey1.wav","null","audio-keyboard-response","246","2.1.0","1507010","F=YES, J=NO","1ke5kk7upe","0","71","57","85","","","","","","","","","","","","","","","",""
"651","
          <p id=""word"" style=""font-size: 40px;"">imploth</p>
          <p style=""font-size: 16px;"">F = YES &nbsp;&nbsp;&nbsp; J = NO</p>
        ","J","html-keyboard-response","247","2.1.0","1507663","F=YES, J=NO","1ke5kk7upe","0","71","57","85","","","","","","","","","imploth","survey1","pseudoword","pseudoword","j","true","",""
"null","<p style=""font-size: 50px;"">+</p>","null","html-keyboard-response","248","2.1.0","1507965","F=YES, J=NO","1ke5kk7upe","0","71","57","85","","","","","","","","","","","","","","","",""
"null","audio/beep-329314.mp3","null","audio-keyboard-response","249","2.1.0","1509491","F=YES, J=NO","1ke5kk7upe","0","71","57","85","","","","","","","","","","","","","","","",""
"null","audio/bomb1.wav","null","audio-keyboard-response","250","2.1.0","1509871","F=YES, J=NO","1ke5kk7upe","0","71","57","85","","","","","","","","","","","","","","","",""
"701","
          <p id=""word"" style=""font-size: 40px;"">clean</p>
          <p style=""font-size: 16px;"">F = YES &nbsp;&nbsp;&nbsp; J = NO</p>
        ","F","html-keyboard-response","251","2.1.0","1510573","F=YES, J=NO","1ke5kk7upe","0","71","57","85","","","","","","","","","clean","bomb1","filler","filler","f","true","",""
"null","<p style=""font-size: 50px;"">+</p>","null","html-keyboard-response","252","2.1.0","1510881","F=YES, J=NO","1ke5kk7upe","0","71","57","85","","","","","","","","","","","","","","","",""
"null","audio/beep-329314.mp3","null","audio-keyboard-response","253","2.1.0","1512411","F=YES, J=NO","1ke5kk7upe","0","71","57","85","","","","","","","","","","","","","","","",""
"null","audio/breath.wav","null","audio-keyboard-response","254","2.1.0","1513151","F=YES, J=NO","1ke5kk7upe","0","71","57","85","","","","","","","","","","","","","","","",""
"536","
          <p id=""word"" style=""font-size: 40px;"">pack</p>
          <p style=""font-size: 16px;"">F = YES &nbsp;&nbsp;&nbsp; J = NO</p>
        ","F","html-keyboard-response","255","2.1.0","1513688","F=YES, J=NO","1ke5kk7upe","0","71","57","85","","","","","","","","","pack","breath","filler","filler","f","true","",""
"null","<p style=""font-size: 50px;"">+</p>","null","html-keyboard-response","256","2.1.0","1513990","F=YES, J=NO","1ke5kk7upe","0","71","57","85","","","","","","","","","","","","","","","",""
"null","audio/beep-329314.mp3","null","audio-keyboard-response","257","2.1.0","1515511","F=YES, J=NO","1ke5kk7upe","0","71","57","85","","","","","","","","","","","","","","","",""
"null","audio/fear.wav","null","audio-keyboard-response","258","2.1.0","1516091","F=YES, J=NO","1ke5kk7upe","0","71","57","85","","","","","","","","","","","","","","","",""
"755","
          <p id=""word"" style=""font-size: 40px;"">spread</p>
          <p style=""font-size: 16px;"">F = YES &nbsp;&nbsp;&nbsp; J = NO</p>
        ","F","html-keyboard-response","259","2.1.0","1516847","F=YES, J=NO","1ke5kk7upe","0","71","57","85","","","","","","","","","spread","fear","metaphor","experimental","f","true","",""
"null","<p style=""font-size: 50px;"">+</p>","null","html-keyboard-response","260","2.1.0","1517157","F=YES, J=NO","1ke5kk7upe","0","71","57","85","","","","","","","","","","","","","","","",""
"null","audio/beep-329314.mp3","null","audio-keyboard-response","261","2.1.0","1518692","F=YES, J=NO","1ke5kk7upe","0","71","57","85","","","","","","","","","","","","","","","",""
"null","audio/price.wav","null","audio-keyboard-response","262","2.1.0","1519312","F=YES, J=NO","1ke5kk7upe","0","71","57","85","","","","","","","","","","","","","","","",""
"715","
          <p id=""word"" style=""font-size: 40px;"">drop</p>
          <p style=""font-size: 16px;"">F = YES &nbsp;&nbsp;&nbsp; J = NO</p>
        ","F","html-keyboard-response","263","2.1.0","1520028","F=YES, J=NO","1ke5kk7upe","0","71","57","85","","","","","","","","","drop","price","metaphor","experimental","f","true","",""
"null","<p style=""font-size: 50px;"">+</p>","null","html-keyboard-response","264","2.1.0","1520334","F=YES, J=NO","1ke5kk7upe","0","71","57","85","","","","","","","","","","","","","","","",""
"null","audio/beep-329314.mp3","null","audio-keyboard-response","265","2.1.0","1521872","F=YES, J=NO","1ke5kk7upe","0","71","57","85","","","","","","","","","","","","","","","",""
"null","audio/mind.wav","null","audio-keyboard-response","266","2.1.0","1522492","F=YES, J=NO","1ke5kk7upe","0","71","57","85","","","","","","","","","","","","","","","",""
"962","
          <p id=""word"" style=""font-size: 40px;"">crainate</p>
          <p style=""font-size: 16px;"">F = YES &nbsp;&nbsp;&nbsp; J = NO</p>
        ","J","html-keyboard-response","267","2.1.0","1523455","F=YES, J=NO","1ke5kk7upe","0","71","57","85","","","","","","","","","crainate","mind","pseudoword","pseudoword","j","true","",""
"null","<p style=""font-size: 50px;"">+</p>","null","html-keyboard-response","268","2.1.0","1523758","F=YES, J=NO","1ke5kk7upe","0","71","57","85","","","","","","","","","","","","","","","",""
"null","audio/beep-329314.mp3","null","audio-keyboard-response","269","2.1.0","1525293","F=YES, J=NO","1ke5kk7upe","0","71","57","85","","","","","","","","","","","","","","","",""
"null","audio/test1.wav","null","audio-keyboard-response","270","2.1.0","1525913","F=YES, J=NO","1ke5kk7upe","0","71","57","85","","","","","","","","","","","","","","","",""
"758","
          <p id=""word"" style=""font-size: 40px;"">twopch</p>
          <p style=""font-size: 16px;"">F = YES &nbsp;&nbsp;&nbsp; J = NO</p>
        ","J","html-keyboard-response","271","2.1.0","1526672","F=YES, J=NO","1ke5kk7upe","0","71","57","85","","","","","","","","","twopch","test1","pseudoword","pseudoword","j","true","",""
"null","<p style=""font-size: 50px;"">+</p>","null","html-keyboard-response","272","2.1.0","1526975","F=YES, J=NO","1ke5kk7upe","0","71","57","85","","","","","","","","","","","","","","","",""
"null","audio/beep-329314.mp3","null","audio-keyboard-response","273","2.1.0","1528513","F=YES, J=NO","1ke5kk7upe","0","71","57","85","","","","","","","","","","","","","","","",""
"null","audio/stain.wav","null","audio-keyboard-response","274","2.1.0","1529153","F=YES, J=NO","1ke5kk7upe","0","71","57","85","","","","","","","","","","","","","","","",""
"645","
          <p id=""word"" style=""font-size: 40px;"">wipe</p>
          <p style=""font-size: 16px;"">F = YES &nbsp;&nbsp;&nbsp; J = NO</p>
        ","F","html-keyboard-response","275","2.1.0","1529799","F=YES, J=NO","1ke5kk7upe","0","71","57","85","","","","","","","","","wipe","stain","literal","experimental","f","true","",""
"null","<p style=""font-size: 50px;"">+</p>","null","html-keyboard-response","276","2.1.0","1530109","F=YES, J=NO","1ke5kk7upe","0","71","57","85","","","","","","","","","","","","","","","",""
"null","audio/beep-329314.mp3","null","audio-keyboard-response","277","2.1.0","1531633","F=YES, J=NO","1ke5kk7upe","0","71","57","85","","","","","","","","","","","","","","","",""
"null","audio/sugar1.wav","null","audio-keyboard-response","278","2.1.0","1532313","F=YES, J=NO","1ke5kk7upe","0","71","57","85","","","","","","","","","","","","","","","",""
"600","
          <p id=""word"" style=""font-size: 40px;"">glung</p>
          <p style=""font-size: 16px;"">F = YES &nbsp;&nbsp;&nbsp; J = NO</p>
        ","J","html-keyboard-response","279","2.1.0","1532914","F=YES, J=NO","1ke5kk7upe","0","71","57","85","","","","","","","","","glung","sugar1","pseudoword","pseudoword","j","true","",""
"null","<p style=""font-size: 50px;"">+</p>","null","html-keyboard-response","280","2.1.0","1533219","F=YES, J=NO","1ke5kk7upe","0","71","57","85","","","","","","","","","","","","","","","",""
"null","audio/beep-329314.mp3","null","audio-keyboard-response","281","2.1.0","1534754","F=YES, J=NO","1ke5kk7upe","0","71","57","85","","","","","","","","","","","","","","","",""
"null","audio/pig.wav","null","audio-keyboard-response","282","2.1.0","1535134","F=YES, J=NO","1ke5kk7upe","0","71","57","85","","","","","","","","","","","","","","","",""
"655","
          <p id=""word"" style=""font-size: 40px;"">feed</p>
          <p style=""font-size: 16px;"">F = YES &nbsp;&nbsp;&nbsp; J = NO</p>
        ","F","html-keyboard-response","283","2.1.0","1535790","F=YES, J=NO","1ke5kk7upe","0","71","57","85","","","","","","","","","feed","pig","literal","experimental","f","true","",""
"null","<p style=""font-size: 50px;"">+</p>","null","html-keyboard-response","284","2.1.0","1536102","F=YES, J=NO","1ke5kk7upe","0","71","57","85","","","","","","","","","","","","","","","",""
"null","audio/beep-329314.mp3","null","audio-keyboard-response","285","2.1.0","1537634","F=YES, J=NO","1ke5kk7upe","0","71","57","85","","","","","","","","","","","","","","","",""
"null","audio/strength.wav","null","audio-keyboard-response","286","2.1.0","1538415","F=YES, J=NO","1ke5kk7upe","0","71","57","85","","","","","","","","","","","","","","","",""
"636","
          <p id=""word"" style=""font-size: 40px;"">possess</p>
          <p style=""font-size: 16px;"">F = YES &nbsp;&nbsp;&nbsp; J = NO</p>
        ","J","html-keyboard-response","287","2.1.0","1539053","F=YES, J=NO","1ke5kk7upe","0","71","57","85","","","","","","","","","possess","strength","metaphor","experimental","f","false","",""
"null","<p style=""font-size: 50px;"">+</p>","null","html-keyboard-response","288","2.1.0","1539356","F=YES, J=NO","1ke5kk7upe","0","71","57","85","","","","","","","","","","","","","","","",""
"null","audio/beep-329314.mp3","null","audio-keyboard-response","289","2.1.0","1540895","F=YES, J=NO","1ke5kk7upe","0","71","57","85","","","","","","","","","","","","","","","",""
"null","audio/arm.wav","null","audio-keyboard-response","290","2.1.0","1541635","F=YES, J=NO","1ke5kk7upe","0","71","57","85","","","","","","","","","","","","","","","",""
"608","
          <p id=""word"" style=""font-size: 40px;"">pigne</p>
          <p style=""font-size: 16px;"">F = YES &nbsp;&nbsp;&nbsp; J = NO</p>
        ","J","html-keyboard-response","291","2.1.0","1542243","F=YES, J=NO","1ke5kk7upe","0","71","57","85","","","","","","","","","pigne","arm","pseudoword","pseudoword","j","true","",""
"null","<p style=""font-size: 50px;"">+</p>","null","html-keyboard-response","292","2.1.0","1542557","F=YES, J=NO","1ke5kk7upe","0","71","57","85","","","","","","","","","","","","","","","",""
"null","audio/beep-329314.mp3","null","audio-keyboard-response","293","2.1.0","1544095","F=YES, J=NO","1ke5kk7upe","0","71","57","85","","","","","","","","","","","","","","","",""
"null","audio/chance.wav","null","audio-keyboard-response","294","2.1.0","1544915","F=YES, J=NO","1ke5kk7upe","0","71","57","85","","","","","","","","","","","","","","","",""
"1187","
          <p id=""word"" style=""font-size: 40px;"">seize</p>
          <p style=""font-size: 16px;"">F = YES &nbsp;&nbsp;&nbsp; J = NO</p>
        ","F","html-keyboard-response","295","2.1.0","1546103","F=YES, J=NO","1ke5kk7upe","0","71","57","85","","","","","","","","","seize","chance","metaphor","experimental","f","true","",""
"770","<p>Excellent! You have finished block 2 of 8.</p>
                     <p>Feel free to take a 30 second break.</p>
                     <p>Press any key when you're ready to continue.</p>","F","html-keyboard-response","296","2.1.0","1546874","F=YES, J=NO","1ke5kk7upe","0","71","57","85","","","","","","","","","","","","","","","",""
"301","<p>Starting main block 3 of 8. Press any key to continue.</p>","F","html-keyboard-response","297","2.1.0","1547176","F=YES, J=NO","1ke5kk7upe","0","71","57","85","","","","","","","","","","","","","","","",""
"null","<p style=""font-size: 50px;"">+</p>","null","html-keyboard-response","298","2.1.0","1547478","F=YES, J=NO","1ke5kk7upe","0","71","57","85","","","","","","","","","","","","","","","",""
"null","audio/beep-329314.mp3","null","audio-keyboard-response","299","2.1.0","1549015","F=YES, J=NO","1ke5kk7upe","0","71","57","85","","","","","","","","","","","","","","","",""
"null","audio/baby.wav","null","audio-keyboard-response","300","2.1.0","1549475","F=YES, J=NO","1ke5kk7upe","0","71","57","85","","","","","","","","","","","","","","","",""
"637","
          <p id=""word"" style=""font-size: 40px;"">hold</p>
          <p style=""font-size: 16px;"">F = YES &nbsp;&nbsp;&nbsp; J = NO</p>
        ","F","html-keyboard-response","301","2.1.0","1550113","F=YES, J=NO","1ke5kk7upe","0","71","57","85","","","","","","","","","hold","baby","literal","experimental","f","true","",""
"null","<p style=""font-size: 50px;"">+</p>","null","html-keyboard-response","302","2.1.0","1550418","F=YES, J=NO","1ke5kk7upe","0","71","57","85","","","","","","","","","","","","","","","",""
"null","audio/beep-329314.mp3","null","audio-keyboard-response","303","2.1.0","1551956","F=YES, J=NO","1ke5kk7upe","0","71","57","85","","","","","","","","","","","","","","","",""
"null","audio/beach1.wav","null","audio-keyboard-response","304","2.1.0","1552716","F=YES, J=NO","1ke5kk7upe","0","71","57","85","","","","","","","","","","","","","","","",""
"577","
          <p id=""word"" style=""font-size: 40px;"">cut</p>
          <p style=""font-size: 16px;"">F = YES &nbsp;&nbsp;&nbsp; J = NO</p>
        ","F","html-keyboard-response","305","2.1.0","1553294","F=YES, J=NO","1ke5kk7upe","0","71","57","85","","","","","","","","","cut","beach1","unrelated","experimental","f","true","",""
"null","<p style=""font-size: 50px;"">+</p>","null","html-keyboard-response","306","2.1.0","1553608","F=YES, J=NO","1ke5kk7upe","0","71","57","85","","","","","","","","","","","","","","","",""
"null","audio/beep-329314.mp3","null","audio-keyboard-response","307","2.1.0","1555136","F=YES, J=NO","1ke5kk7upe","0","71","57","85","","","","","","","","","","","","","","","",""
"null","audio/weapon.wav","null","audio-keyboard-response","308","2.1.0","1555697","F=YES, J=NO","1ke5kk7upe","0","71","57","85","","","","","","","","","","","","","","","",""
"670","
          <p id=""word"" style=""font-size: 40px;"">carry</p>
          <p style=""font-size: 16px;"">F = YES &nbsp;&nbsp;&nbsp; J = NO</p>
        ","F","html-keyboard-response","309","2.1.0","1556368","F=YES, J=NO","1ke5kk7upe","0","71","57","85","","","","","","","","","carry","weapon","literal","experimental","f","true","",""
"null","<p style=""font-size: 50px;"">+</p>","null","html-keyboard-response","310","2.1.0","1556681","F=YES, J=NO","1ke5kk7upe","0","71","57","85","","","","","","","","","","","","","","","",""
"null","audio/beep-329314.mp3","null","audio-keyboard-response","311","2.1.0","1558217","F=YES, J=NO","1ke5kk7upe","0","71","57","85","","","","","","","","","","","","","","","",""
"null","audio/cloud1.wav","null","audio-keyboard-response","312","2.1.0","1558937","F=YES, J=NO","1ke5kk7upe","0","71","57","85","","","","","","","","","","","","","","","",""
"802","
          <p id=""word"" style=""font-size: 40px;"">brotant</p>
          <p style=""font-size: 16px;"">F = YES &nbsp;&nbsp;&nbsp; J = NO</p>
        ","J","html-keyboard-response","313","2.1.0","1559740","F=YES, J=NO","1ke5kk7upe","0","71","57","85","","","","","","","","","brotant","cloud1","pseudoword","pseudoword","j","true","",""
"null","<p style=""font-size: 50px;"">+</p>","null","html-keyboard-response","314","2.1.0","1560056","F=YES, J=NO","1ke5kk7upe","0","71","57","85","","","","","","","","","","","","","","","",""
"null","audio/beep-329314.mp3","null","audio-keyboard-response","315","2.1.0","1561597","F=YES, J=NO","1ke5kk7upe","0","71","57","85","","","","","","","","","","","","","","","",""
"null","audio/radio1.wav","null","audio-keyboard-response","316","2.1.0","1562237","F=YES, J=NO","1ke5kk7upe","0","71","57","85","","","","","","","","","","","","","","","",""
"1129","
          <p id=""word"" style=""font-size: 40px;"">blanter</p>
          <p style=""font-size: 16px;"">F = YES &nbsp;&nbsp;&nbsp; J = NO</p>
        ","J","html-keyboard-response","317","2.1.0","1563367","F=YES, J=NO","1ke5kk7upe","0","71","57","85","","","","","","","","","blanter","radio1","pseudoword","pseudoword","j","true","",""
"null","<p style=""font-size: 50px;"">+</p>","null","html-keyboard-response","318","2.1.0","1563677","F=YES, J=NO","1ke5kk7upe","0","71","57","85","","","","","","","","","","","","","","","",""
"null","audio/beep-329314.mp3","null","audio-keyboard-response","319","2.1.0","1565218","F=YES, J=NO","1ke5kk7upe","0","71","57","85","","","","","","","","","","","","","","","",""
"null","audio/van1.wav","null","audio-keyboard-response","320","2.1.0","1565698","F=YES, J=NO","1ke5kk7upe","0","71","57","85","","","","","","","","","","","","","","","",""
"565","
          <p id=""word"" style=""font-size: 40px;"">support</p>
          <p style=""font-size: 16px;"">F = YES &nbsp;&nbsp;&nbsp; J = NO</p>
        ","F","html-keyboard-response","321","2.1.0","1566264","F=YES, J=NO","1ke5kk7upe","0","71","57","85","","","","","","","","","support","van1","unrelated","experimental","f","true","",""
"null","<p style=""font-size: 50px;"">+</p>","null","html-keyboard-response","322","2.1.0","1566567","F=YES, J=NO","1ke5kk7upe","0","71","57","85","","","","","","","","","","","","","","","",""
"null","audio/beep-329314.mp3","null","audio-keyboard-response","323","2.1.0","1568098","F=YES, J=NO","1ke5kk7upe","0","71","57","85","","","","","","","","","","","","","","","",""
"null","audio/battle1.wav","null","audio-keyboard-response","324","2.1.0","1568558","F=YES, J=NO","1ke5kk7upe","0","71","57","85","","","","","","","","","","","","","","","",""
"767","
          <p id=""word"" style=""font-size: 40px;"">fight</p>
          <p style=""font-size: 16px;"">F = YES &nbsp;&nbsp;&nbsp; J = NO</p>
        ","F","html-keyboard-response","325","2.1.0","1569326","F=YES, J=NO","1ke5kk7upe","0","71","57","85","","","","","","","","","fight","battle1","literal","experimental","f","true","",""
"null","<p style=""font-size: 50px;"">+</p>","null","html-keyboard-response","326","2.1.0","1569642","F=YES, J=NO","1ke5kk7upe","0","71","57","85","","","","","","","","","","","","","","","",""
"null","audio/beep-329314.mp3","null","audio-keyboard-response","327","2.1.0","1571178","F=YES, J=NO","1ke5kk7upe","0","71","57","85","","","","","","","","","","","","","","","",""
"null","audio/ankle1.wav","null","audio-keyboard-response","328","2.1.0","1571699","F=YES, J=NO","1ke5kk7upe","0","71","57","85","","","","","","","","","","","","","","","",""
"895","
          <p id=""word"" style=""font-size: 40px;"">switm</p>
          <p style=""font-size: 16px;"">F = YES &nbsp;&nbsp;&nbsp; J = NO</p>
        ","J","html-keyboard-response","329","2.1.0","1572594","F=YES, J=NO","1ke5kk7upe","0","71","57","85","","","","","","","","","switm","ankle1","pseudoword","pseudoword","j","true","",""
"null","<p style=""font-size: 50px;"">+</p>","null","html-keyboard-response","330","2.1.0","1572900","F=YES, J=NO","1ke5kk7upe","0","71","57","85","","","","","","","","","","","","","","","",""
"null","audio/beep-329314.mp3","null","audio-keyboard-response","331","2.1.0","1574439","F=YES, J=NO","1ke5kk7upe","0","71","57","85","","","","","","","","","","","","","","","",""
"null","audio/account1.wav","null","audio-keyboard-response","332","2.1.0","1575399","F=YES, J=NO","1ke5kk7upe","0","71","57","85","","","","","","","","","","","","","","","",""
"622","
          <p id=""word"" style=""font-size: 40px;"">paint</p>
          <p style=""font-size: 16px;"">F = YES &nbsp;&nbsp;&nbsp; J = NO</p>
        ","F","html-keyboard-response","333","2.1.0","1576021","F=YES, J=NO","1ke5kk7upe","0","71","57","85","","","","","","","","","paint","account1","filler","filler","f","true","",""
"null","<p style=""font-size: 50px;"">+</p>","null","html-keyboard-response","334","2.1.0","1576329","F=YES, J=NO","1ke5kk7upe","0","71","57","85","","","","","","","","","","","","","","","",""
"null","audio/beep-329314.mp3","null","audio-keyboard-response","335","2.1.0","1577860","F=YES, J=NO","1ke5kk7upe","0","71","57","85","","","","","","","","","","","","","","","",""
"null","audio/dollar.wav","null","audio-keyboard-response","336","2.1.0","1578239","F=YES, J=NO","1ke5kk7upe","0","71","57","85","","","","","","","","","","","","","","","",""
"561","
          <p id=""word"" style=""font-size: 40px;"">save</p>
          <p style=""font-size: 16px;"">F = YES &nbsp;&nbsp;&nbsp; J = NO</p>
        ","F","html-keyboard-response","337","2.1.0","1578801","F=YES, J=NO","1ke5kk7upe","0","71","57","85","","","","","","","","","save","dollar","literal","experimental","f","true","",""
"null","<p style=""font-size: 50px;"">+</p>","null","html-keyboard-response","338","2.1.0","1579115","F=YES, J=NO","1ke5kk7upe","0","71","57","85","","","","","","","","","","","","","","","",""
"null","audio/beep-329314.mp3","null","audio-keyboard-response","339","2.1.0","1580640","F=YES, J=NO","1ke5kk7upe","0","71","57","85","","","","","","","","","","","","","","","",""
"null","audio/effort.wav","null","audio-keyboard-response","340","2.1.0","1581220","F=YES, J=NO","1ke5kk7upe","0","71","57","85","","","","","","","","","","","","","","","",""
"593","
          <p id=""word"" style=""font-size: 40px;"">whonk</p>
          <p style=""font-size: 16px;"">F = YES &nbsp;&nbsp;&nbsp; J = NO</p>
        ","J","html-keyboard-response","341","2.1.0","1581814","F=YES, J=NO","1ke5kk7upe","0","71","57","85","","","","","","","","","whonk","effort","pseudoword","pseudoword","j","true","",""
"null","<p style=""font-size: 50px;"">+</p>","null","html-keyboard-response","342","2.1.0","1582127","F=YES, J=NO","1ke5kk7upe","0","71","57","85","","","","","","","","","","","","","","","",""
"null","audio/beep-329314.mp3","null","audio-keyboard-response","343","2.1.0","1583660","F=YES, J=NO","1ke5kk7upe","0","71","57","85","","","","","","","","","","","","","","","",""
"null","audio/window1.wav","null","audio-keyboard-response","344","2.1.0","1584320","F=YES, J=NO","1ke5kk7upe","0","71","57","85","","","","","","","","","","","","","","","",""
"776","
          <p id=""word"" style=""font-size: 40px;"">toss</p>
          <p style=""font-size: 16px;"">F = YES &nbsp;&nbsp;&nbsp; J = NO</p>
        ","F","html-keyboard-response","345","2.1.0","1585097","F=YES, J=NO","1ke5kk7upe","0","71","57","85","","","","","","","","","toss","window1","filler","filler","f","true","",""
"null","<p style=""font-size: 50px;"">+</p>","null","html-keyboard-response","346","2.1.0","1585398","F=YES, J=NO","1ke5kk7upe","0","71","57","85","","","","","","","","","","","","","","","",""
"null","audio/beep-329314.mp3","null","audio-keyboard-response","347","2.1.0","1586920","F=YES, J=NO","1ke5kk7upe","0","71","57","85","","","","","","","","","","","","","","","",""
"null","audio/relief.wav","null","audio-keyboard-response","348","2.1.0","1587561","F=YES, J=NO","1ke5kk7upe","0","71","57","85","","","","","","","","","","","","","","","",""
"849","
          <p id=""word"" style=""font-size: 40px;"">bring</p>
          <p style=""font-size: 16px;"">F = YES &nbsp;&nbsp;&nbsp; J = NO</p>
        ","F","html-keyboard-response","349","2.1.0","1588411","F=YES, J=NO","1ke5kk7upe","0","71","57","85","","","","","","","","","bring","relief","metaphor","experimental","f","true","",""
"null","<p style=""font-size: 50px;"">+</p>","null","html-keyboard-response","350","2.1.0","1588726","F=YES, J=NO","1ke5kk7upe","0","71","57","85","","","","","","","","","","","","","","","",""
"null","audio/beep-329314.mp3","null","audio-keyboard-response","351","2.1.0","1590261","F=YES, J=NO","1ke5kk7upe","0","71","57","85","","","","","","","","","","","","","","","",""
"null","audio/mood1.wav","null","audio-keyboard-response","352","2.1.0","1590781","F=YES, J=NO","1ke5kk7upe","0","71","57","85","","","","","","","","","","","","","","","",""
"603","
          <p id=""word"" style=""font-size: 40px;"">give</p>
          <p style=""font-size: 16px;"">F = YES &nbsp;&nbsp;&nbsp; J = NO</p>
        ","F","html-keyboard-response","353","2.1.0","1591384","F=YES, J=NO","1ke5kk7upe","0","71","57","85","","","","","","","","","give","mood1","unrelated","experimental","f","true","",""
"null","<p style=""font-size: 50px;"">+</p>","null","html-keyboard-response","354","2.1.0","1591686","F=YES, J=NO","1ke5kk7upe","0","71","57","85","","","","","","","","","","","","","","","",""
"null","audio/beep-329314.mp3","null","audio-keyboard-response","355","2.1.0","1593222","F=YES, J=NO","1ke5kk7upe","0","71","57","85","","","","","","","","","","","","","","","",""
"null","audio/desire.wav","null","audio-keyboard-response","356","2.1.0","1593841","F=YES, J=NO","1ke5kk7upe","0","71","57","85","","","","","","","","","","","","","","","",""
"954","
          <p id=""word"" style=""font-size: 40px;"">open</p>
          <p style=""font-size: 16px;"">F = YES &nbsp;&nbsp;&nbsp; J = NO</p>
        ","F","html-keyboard-response","357","2.1.0","1594796","F=YES, J=NO","1ke5kk7upe","0","71","57","85","","","","","","","","","open","desire","unrelated","experimental","f","true","",""
"null","<p style=""font-size: 50px;"">+</p>","null","html-keyboard-response","358","2.1.0","1595105","F=YES, J=NO","1ke5kk7upe","0","71","57","85","","","","","","","","","","","","","","","",""
"null","audio/beep-329314.mp3","null","audio-keyboard-response","359","2.1.0","1596642","F=YES, J=NO","1ke5kk7upe","0","71","57","85","","","","","","","","","","","","","","","",""
"null","audio/flaw.wav","null","audio-keyboard-response","360","2.1.0","1597322","F=YES, J=NO","1ke5kk7upe","0","71","57","85","","","","","","","","","","","","","","","",""
"598","
          <p id=""word"" style=""font-size: 40px;"">thwool</p>
          <p style=""font-size: 16px;"">F = YES &nbsp;&nbsp;&nbsp; J = NO</p>
        ","J","html-keyboard-response","361","2.1.0","1597920","F=YES, J=NO","1ke5kk7upe","0","71","57","85","","","","","","","","","thwool","flaw","pseudoword","pseudoword","j","true","",""
"44956","<p>Excellent! You have finished block 3 of 8.</p>
                     <p>Feel free to take a 30 second break.</p>
                     <p>Press any key when you're ready to continue.</p>"," ","html-keyboard-response","362","2.1.0","1642877","F=YES, J=NO","1ke5kk7upe","0","71","57","85","","","","","","","","","","","","","","","",""
"1723","<p>Starting main block 4 of 8. Press any key to continue.</p>"," ","html-keyboard-response","363","2.1.0","1644601","F=YES, J=NO","1ke5kk7upe","0","71","57","85","","","","","","","","","","","","","","","",""
"null","<p style=""font-size: 50px;"">+</p>","null","html-keyboard-response","364","2.1.0","1644916","F=YES, J=NO","1ke5kk7upe","0","71","57","85","","","","","","","","","","","","","","","",""
"null","audio/beep-329314.mp3","null","audio-keyboard-response","365","2.1.0","1646428","F=YES, J=NO","1ke5kk7upe","0","71","57","85","","","","","","","","","","","","","","","",""
"null","audio/scar.wav","null","audio-keyboard-response","366","2.1.0","1647188","F=YES, J=NO","1ke5kk7upe","0","71","57","85","","","","","","","","","","","","","","","",""
"565","
          <p id=""word"" style=""font-size: 40px;"">adelineate</p>
          <p style=""font-size: 16px;"">F = YES &nbsp;&nbsp;&nbsp; J = NO</p>
        ","j","html-keyboard-response","367","2.1.0","1647754","F=YES, J=NO","1ke5kk7upe","0","71","57","85","","","","","","","","","adelineate","scar","pseudoword","pseudoword","j","true","",""
"null","<p style=""font-size: 50px;"">+</p>","null","html-keyboard-response","368","2.1.0","1648058","F=YES, J=NO","1ke5kk7upe","0","71","57","85","","","","","","","","","","","","","","","",""
"null","audio/beep-329314.mp3","null","audio-keyboard-response","369","2.1.0","1649588","F=YES, J=NO","1ke5kk7upe","0","71","57","85","","","","","","","","","","","","","","","",""
"null","audio/alarm1.wav","null","audio-keyboard-response","370","2.1.0","1650368","F=YES, J=NO","1ke5kk7upe","0","71","57","85","","","","","","","","","","","","","","","",""
"470","
          <p id=""word"" style=""font-size: 40px;"">lock</p>
          <p style=""font-size: 16px;"">F = YES &nbsp;&nbsp;&nbsp; J = NO</p>
        ","f","html-keyboard-response","371","2.1.0","1650839","F=YES, J=NO","1ke5kk7upe","0","71","57","85","","","","","","","","","lock","alarm1","filler","filler","f","true","",""
"null","<p style=""font-size: 50px;"">+</p>","null","html-keyboard-response","372","2.1.0","1651149","F=YES, J=NO","1ke5kk7upe","0","71","57","85","","","","","","","","","","","","","","","",""
"null","audio/beep-329314.mp3","null","audio-keyboard-response","373","2.1.0","1652689","F=YES, J=NO","1ke5kk7upe","0","71","57","85","","","","","","","","","","","","","","","",""
"null","audio/vehicle1.wav","null","audio-keyboard-response","374","2.1.0","1653329","F=YES, J=NO","1ke5kk7upe","0","71","57","85","","","","","","","","","","","","","","","",""
"856","
          <p id=""word"" style=""font-size: 40px;"">approach</p>
          <p style=""font-size: 16px;"">F = YES &nbsp;&nbsp;&nbsp; J = NO</p>
        ","f","html-keyboard-response","375","2.1.0","1654186","F=YES, J=NO","1ke5kk7upe","0","71","57","85","","","","","","","","","approach","vehicle1","literal","experimental","f","true","",""
"null","<p style=""font-size: 50px;"">+</p>","null","html-keyboard-response","376","2.1.0","1654492","F=YES, J=NO","1ke5kk7upe","0","71","57","85","","","","","","","","","","","","","","","",""
"null","audio/beep-329314.mp3","null","audio-keyboard-response","377","2.1.0","1656030","F=YES, J=NO","1ke5kk7upe","0","71","57","85","","","","","","","","","","","","","","","",""
"null","audio/bush1.wav","null","audio-keyboard-response","378","2.1.0","1656549","F=YES, J=NO","1ke5kk7upe","0","71","57","85","","","","","","","","","","","","","","","",""
"822","
          <p id=""word"" style=""font-size: 40px;"">platined</p>
          <p style=""font-size: 16px;"">F = YES &nbsp;&nbsp;&nbsp; J = NO</p>
        ","j","html-keyboard-response","379","2.1.0","1657372","F=YES, J=NO","1ke5kk7upe","0","71","57","85","","","","","","","","","platined","bush1","pseudoword","pseudoword","j","true","",""
"null","<p style=""font-size: 50px;"">+</p>","null","html-keyboard-response","380","2.1.0","1657679","F=YES, J=NO","1ke5kk7upe","0","71","57","85","","","","","","","","","","","","","","","",""
"null","audio/beep-329314.mp3","null","audio-keyboard-response","381","2.1.0","1659210","F=YES, J=NO","1ke5kk7upe","0","71","57","85","","","","","","","","","","","","","","","",""
"null","audio/prisoner.wav","null","audio-keyboard-response","382","2.1.0","1659769","F=YES, J=NO","1ke5kk7upe","0","71","57","85","","","","","","","","","","","","","","","",""
"455","
          <p id=""word"" style=""font-size: 40px;"">release</p>
          <p style=""font-size: 16px;"">F = YES &nbsp;&nbsp;&nbsp; J = NO</p>
        ","f","html-keyboard-response","383","2.1.0","1660226","F=YES, J=NO","1ke5kk7upe","0","71","57","85","","","","","","","","","release","prisoner","literal","experimental","f","true","",""
"null","<p style=""font-size: 50px;"">+</p>","null","html-keyboard-response","384","2.1.0","1660531","F=YES, J=NO","1ke5kk7upe","0","71","57","85","","","","","","","","","","","","","","","",""
"null","audio/beep-329314.mp3","null","audio-keyboard-response","385","2.1.0","1662070","F=YES, J=NO","1ke5kk7upe","0","71","57","85","","","","","","","","","","","","","","","",""
"null","audio/brain.wav","null","audio-keyboard-response","386","2.1.0","1662550","F=YES, J=NO","1ke5kk7upe","0","71","57","85","","","","","","","","","","","","","","","",""
"544","
          <p id=""word"" style=""font-size: 40px;"">flood</p>
          <p style=""font-size: 16px;"">F = YES &nbsp;&nbsp;&nbsp; J = NO</p>
        ","f","html-keyboard-response","387","2.1.0","1663095","F=YES, J=NO","1ke5kk7upe","0","71","57","85","","","","","","","","","flood","brain","metaphor","experimental","f","true","",""
"null","<p style=""font-size: 50px;"">+</p>","null","html-keyboard-response","388","2.1.0","1663408","F=YES, J=NO","1ke5kk7upe","0","71","57","85","","","","","","","","","","","","","","","",""
"null","audio/beep-329314.mp3","null","audio-keyboard-response","389","2.1.0","1664930","F=YES, J=NO","1ke5kk7upe","0","71","57","85","","","","","","","","","","","","","","","",""
