"rt","stimulus","response","trial_type","trial_index","plugin_version","time_elapsed","response_mapping","subject_id","list_index","lextale_score","lextale_word_score","lextale_nonword_score","success","timeout","failed_images","failed_audio","failed_video","task","isWord","isDummy","target","prime","prime_type","stimulus_type","correct_response","correct","section","question_order"
"27351","
    <div style=""max-width: 800px; margin: auto; text-align: left;"">
      <h2>STANFORD UNIVERSITY</h2>
      <h3>Research Information Sheet</h3>
      <p><strong>Protocol Director:</strong> Robert Hawkins<br>
      <strong>Protocol Title:</strong> Communication and social cognition in natural audiovisual contexts<br>
      <strong>IRB#:</strong> 77226</p>

      <p><strong>DESCRIPTION:</strong> You are invited to participate in a research study about language and communication. The purpose of the research is to understand how you interact and communicate with other people in naturalistic settings as a fluent English speaker. This research will be conducted through the Prolific platform, including participants from the US, UK, and Canada. If you decide to participate in this research, you will play a communication game in a group with one or more partners.</p>

      <p><strong>TIME INVOLVEMENT:</strong> The task will last the amount of time advertised on Prolific. You are free to withdraw from the study at any time.</p>

      <p><strong>RISKS AND BENEFITS:</strong> You may become frustrated if your partner gets distracted, or experience discomfort if other participants in your group send text that is inappropriate for the task. We ask you to please be respectful of other participants you might be interacting with to mitigate these risks. You may also experience discomfort when being asked to discuss or challenge emotionally salient political beliefs. Study data will be stored securely, in compliance with Stanford University standards, minimizing the risk of confidentiality breach. This study advances our scientific understanding of how people communicate and collaborate in naturalistic settings. This study may lead to further insights about what can go wrong in teamwork, suggest potential interventions to overcome these barriers, and help to develop assistive technologies that collaborate with human partners. We cannot and do not guarantee or promise that you will receive any benefits from this study.</p>

      <p><strong>PAYMENTS:</strong> You will receive payment in the amount advertised on Prolific. If you do not complete this study, you will receive prorated payment based on the time that you have spent. Additionally, you may be eligible for bonus payments as described in the instructions.</p>

      <p><strong>PARTICIPANT’S RIGHTS:</strong> If you have read this form and have decided to participate in this project, please understand your participation is voluntary and you have the right to withdraw your consent or discontinue participation at any time without penalty or loss of benefits to which you are otherwise entitled. The alternative is not to participate. You have the right to refuse to answer particular questions. The results of this research study may be presented at scientific or professional meetings or published in scientific journals. Your individual privacy will be maintained in all published and written data resulting from the study. In accordance with scientific norms, the data from this study may be used or shared with other researchers for future research (after removing personally identifying information) without additional consent from you.</p>

      <p><strong>CONTACT INFORMATION:</strong><br>
      Questions: If you have any questions, concerns or complaints about this research, its procedures, risks and benefits, contact the Protocol Director, Robert Hawkins (<a href=""mailto:rdhawkins@stanford.edu"">rdhawkins@stanford.edu</a>, 217-549-6923).<br>
      Independent Contact: If you are not satisfied with how this study is being conducted, or if you have any concerns, complaints, or general questions about the research or your rights as a participant, please contact the Stanford Institutional Review Board (IRB) to speak to someone independent of the research team at 650-723-2480 or toll free at 1-866-680-2906, or email at <a href=""mailto:irbnon-med@stanford.edu"">irbnon-med@stanford.edu</a>. You can also write to the Stanford IRB, Stanford University, 1705 El Camino Real, Palo Alto, CA 94306.</p>

      <p><strong>Please save or print a copy of this page for your records.</strong></p>
      <p>If you agree to participate in this research, click ""Continue"" below.</p>
    </div>
  ","0","html-button-response","0","2.1.0","27371","J=YES, F=NO","1lvwzk9nda","2","76","83","70","","","","","","","","","","","","","","","",""
"8443","
    <div style=""max-width: 800px; margin: auto; text-align: left;"">
      <h2>Welcome!</h2>
      <p>Thank you for participating in this study. The experiment consists of three parts:</p>
      <ol>
        <li>An English vocabulary test</li>
        <li>A main task in which you will hear and see words, and decide whether the written word is a real English word</li>
        <li>A brief survey about your background</li>
      </ol>
      <p>Each part will be introduced before it begins.</p>
      <p>Please make sure you are in a quiet environment and can hear audio clearly for the final task.</p>
      <p style=""margin-top: 2em;"">Press any key to begin.</p>
    </div>
  "," ","html-keyboard-response","1","2.1.0","35822","J=YES, F=NO","1lvwzk9nda","2","76","83","70","","","","","","","","","","","","","","","",""
"","","","preload","2","2.1.0","37979","J=YES, F=NO","1lvwzk9nda","2","76","83","70","true","false","[]","[]","[]","","","","","","","","","","",""
"19942","
    <div style=""max-width: 800px; margin: auto; text-align: left;"">
      <h2>Part 1: Vocabulary Test</h2>
      <p>You will now complete the first part of the study: a short English vocabulary test.</p>
      <p>This test is called <strong>LexTALE</strong> and helps us get a general sense of your English proficiency.</p>
      <p style=""margin-top: 2em;"">Press any key to continue.</p>
    </div>
  "," ","html-keyboard-response","3","2.1.0","57921","J=YES, F=NO","1lvwzk9nda","2","76","83","70","","","","","","","","","","","","","","","",""
"4661","
    <div style=""max-width: 800px; margin: auto; text-align: left;"">
      <h2>LexTALE Vocabulary Test</h2>
      <p>In this test, you will see a series of letter strings—one at a time.</p>
      <p>Your task is to decide whether each string is a real English word.</p>
      <p><strong>Key responses:</strong></p>
      <ul>
        <li><strong>J</strong> = YES (real English word)</li>
        <li><strong>F</strong> = NO (not a real English word)</li>
      </ul>
      <p>There is no time limit, but please try to be accurate.</p>
      <p style=""margin-top: 2em;"">Press any key to begin.</p>
    </div>
  "," ","html-keyboard-response","4","2.1.0","62585","J=YES, F=NO","1lvwzk9nda","2","76","83","70","","","","","","","","","","","","","","","",""
"13495","
  <p style=""font-size: 40px;"">platery</p>
  <p style=""font-size: 16px;"">J = YES &nbsp;&nbsp;&nbsp; F = NO</p>
","f","html-keyboard-response","5","2.1.0","76083","J=YES, F=NO","1lvwzk9nda","2","76","83","70","","","","","","lextale","false","true","","","","","","","",""
"9301","
  <p style=""font-size: 40px;"">denial</p>
  <p style=""font-size: 16px;"">J = YES &nbsp;&nbsp;&nbsp; F = NO</p>
","j","html-keyboard-response","6","2.1.0","85386","J=YES, F=NO","1lvwzk9nda","2","76","83","70","","","","","","lextale","true","true","","","","","","","",""
"8763","
  <p style=""font-size: 40px;"">marrit</p>
  <p style=""font-size: 16px;"">J = YES &nbsp;&nbsp;&nbsp; F = NO</p>
","f","html-keyboard-response","7","2.1.0","94153","J=YES, F=NO","1lvwzk9nda","2","76","83","70","","","","","","lextale","false","true","","","","","","","",""
"2500","
  <p style=""font-size: 40px;"">bottle</p>
  <p style=""font-size: 16px;"">J = YES &nbsp;&nbsp;&nbsp; F = NO</p>
","j","html-keyboard-response","8","2.1.0","96655","J=YES, F=NO","1lvwzk9nda","2","76","83","70","","","","","","lextale","true","false","","","","","","","",""
"8978","
  <p style=""font-size: 40px;"">birst</p>
  <p style=""font-size: 16px;"">J = YES &nbsp;&nbsp;&nbsp; F = NO</p>
","f","html-keyboard-response","9","2.1.0","105635","J=YES, F=NO","1lvwzk9nda","2","76","83","70","","","","","","lextale","false","false","","","","","","","",""
"1545","
  <p style=""font-size: 40px;"">envy</p>
  <p style=""font-size: 16px;"">J = YES &nbsp;&nbsp;&nbsp; F = NO</p>
","j","html-keyboard-response","10","2.1.0","107182","J=YES, F=NO","1lvwzk9nda","2","76","83","70","","","","","","lextale","true","false","","","","","","","",""
"6747","
  <p style=""font-size: 40px;"">brang</p>
  <p style=""font-size: 16px;"">J = YES &nbsp;&nbsp;&nbsp; F = NO</p>
","f","html-keyboard-response","11","2.1.0","113931","J=YES, F=NO","1lvwzk9nda","2","76","83","70","","","","","","lextale","false","false","","","","","","","",""
"3998","
  <p style=""font-size: 40px;"">huge</p>
  <p style=""font-size: 16px;"">J = YES &nbsp;&nbsp;&nbsp; F = NO</p>
","j","html-keyboard-response","12","2.1.0","117931","J=YES, F=NO","1lvwzk9nda","2","76","83","70","","","","","","lextale","true","false","","","","","","","",""
"14753","
  <p style=""font-size: 40px;"">plove</p>
  <p style=""font-size: 16px;"">J = YES &nbsp;&nbsp;&nbsp; F = NO</p>
","f","html-keyboard-response","13","2.1.0","132686","J=YES, F=NO","1lvwzk9nda","2","76","83","70","","","","","","lextale","false","false","","","","","","","",""
"1800","
  <p style=""font-size: 40px;"">border</p>
  <p style=""font-size: 16px;"">J = YES &nbsp;&nbsp;&nbsp; F = NO</p>
","j","html-keyboard-response","14","2.1.0","134487","J=YES, F=NO","1lvwzk9nda","2","76","83","70","","","","","","lextale","true","false","","","","","","","",""
"2656","
  <p style=""font-size: 40px;"">flimsy</p>
  <p style=""font-size: 16px;"">J = YES &nbsp;&nbsp;&nbsp; F = NO</p>
","f","html-keyboard-response","15","2.1.0","137146","J=YES, F=NO","1lvwzk9nda","2","76","83","70","","","","","","lextale","true","false","","","","","","","",""
"6136","
  <p style=""font-size: 40px;"">drain</p>
  <p style=""font-size: 16px;"">J = YES &nbsp;&nbsp;&nbsp; F = NO</p>
","j","html-keyboard-response","16","2.1.0","143285","J=YES, F=NO","1lvwzk9nda","2","76","83","70","","","","","","lextale","true","false","","","","","","","",""
"8913","
  <p style=""font-size: 40px;"">twindle</p>
  <p style=""font-size: 16px;"">J = YES &nbsp;&nbsp;&nbsp; F = NO</p>
","f","html-keyboard-response","17","2.1.0","152200","J=YES, F=NO","1lvwzk9nda","2","76","83","70","","","","","","lextale","false","false","","","","","","","",""
"1797","
  <p style=""font-size: 40px;"">propose</p>
  <p style=""font-size: 16px;"">J = YES &nbsp;&nbsp;&nbsp; F = NO</p>
","j","html-keyboard-response","18","2.1.0","153998","J=YES, F=NO","1lvwzk9nda","2","76","83","70","","","","","","lextale","true","false","","","","","","","",""
"10243","
  <p style=""font-size: 40px;"">forlay</p>
  <p style=""font-size: 16px;"">J = YES &nbsp;&nbsp;&nbsp; F = NO</p>
","f","html-keyboard-response","19","2.1.0","164244","J=YES, F=NO","1lvwzk9nda","2","76","83","70","","","","","","lextale","false","false","","","","","","","",""
"9146","
  <p style=""font-size: 40px;"">tenant</p>
  <p style=""font-size: 16px;"">J = YES &nbsp;&nbsp;&nbsp; F = NO</p>
","j","html-keyboard-response","20","2.1.0","173392","J=YES, F=NO","1lvwzk9nda","2","76","83","70","","","","","","lextale","true","false","","","","","","","",""
"1588","
  <p style=""font-size: 40px;"">strain</p>
  <p style=""font-size: 16px;"">J = YES &nbsp;&nbsp;&nbsp; F = NO</p>
","j","html-keyboard-response","21","2.1.0","174981","J=YES, F=NO","1lvwzk9nda","2","76","83","70","","","","","","lextale","true","false","","","","","","","",""
"8129","
  <p style=""font-size: 40px;"">holster</p>
  <p style=""font-size: 16px;"">J = YES &nbsp;&nbsp;&nbsp; F = NO</p>
","j","html-keyboard-response","22","2.1.0","183111","J=YES, F=NO","1lvwzk9nda","2","76","83","70","","","","","","lextale","true","false","","","","","","","",""
"7285","
  <p style=""font-size: 40px;"">hinder</p>
  <p style=""font-size: 16px;"">J = YES &nbsp;&nbsp;&nbsp; F = NO</p>
","j","html-keyboard-response","23","2.1.0","190398","J=YES, F=NO","1lvwzk9nda","2","76","83","70","","","","","","lextale","true","false","","","","","","","",""
"6224","
  <p style=""font-size: 40px;"">swindle</p>
  <p style=""font-size: 16px;"">J = YES &nbsp;&nbsp;&nbsp; F = NO</p>
","j","html-keyboard-response","24","2.1.0","196624","J=YES, F=NO","1lvwzk9nda","2","76","83","70","","","","","","lextale","true","false","","","","","","","",""
"7305","
  <p style=""font-size: 40px;"">nuder</p>
  <p style=""font-size: 16px;"">J = YES &nbsp;&nbsp;&nbsp; F = NO</p>
","f","html-keyboard-response","25","2.1.0","203932","J=YES, F=NO","1lvwzk9nda","2","76","83","70","","","","","","lextale","false","false","","","","","","","",""
"1118","
  <p style=""font-size: 40px;"">pillow</p>
  <p style=""font-size: 16px;"">J = YES &nbsp;&nbsp;&nbsp; F = NO</p>
","j","html-keyboard-response","26","2.1.0","205052","J=YES, F=NO","1lvwzk9nda","2","76","83","70","","","","","","lextale","true","false","","","","","","","",""
"6526","
  <p style=""font-size: 40px;"">shumble</p>
  <p style=""font-size: 16px;"">J = YES &nbsp;&nbsp;&nbsp; F = NO</p>
","f","html-keyboard-response","27","2.1.0","211580","J=YES, F=NO","1lvwzk9nda","2","76","83","70","","","","","","lextale","false","false","","","","","","","",""
"1618","
  <p style=""font-size: 40px;"">thirst</p>
  <p style=""font-size: 16px;"">J = YES &nbsp;&nbsp;&nbsp; F = NO</p>
","j","html-keyboard-response","28","2.1.0","213199","J=YES, F=NO","1lvwzk9nda","2","76","83","70","","","","","","lextale","true","false","","","","","","","",""
"6090","
  <p style=""font-size: 40px;"">unsail</p>
  <p style=""font-size: 16px;"">J = YES &nbsp;&nbsp;&nbsp; F = NO</p>
","f","html-keyboard-response","29","2.1.0","219292","J=YES, F=NO","1lvwzk9nda","2","76","83","70","","","","","","lextale","false","false","","","","","","","",""
"6727","
  <p style=""font-size: 40px;"">rifle</p>
  <p style=""font-size: 16px;"">J = YES &nbsp;&nbsp;&nbsp; F = NO</p>
","j","html-keyboard-response","30","2.1.0","226021","J=YES, F=NO","1lvwzk9nda","2","76","83","70","","","","","","lextale","true","false","","","","","","","",""
"4771","
  <p style=""font-size: 40px;"">mush</p>
  <p style=""font-size: 16px;"">J = YES &nbsp;&nbsp;&nbsp; F = NO</p>
","j","html-keyboard-response","31","2.1.0","230793","J=YES, F=NO","1lvwzk9nda","2","76","83","70","","","","","","lextale","false","false","","","","","","","",""
"6002","
  <p style=""font-size: 40px;"">drench</p>
  <p style=""font-size: 16px;"">J = YES &nbsp;&nbsp;&nbsp; F = NO</p>
","j","html-keyboard-response","32","2.1.0","236797","J=YES, F=NO","1lvwzk9nda","2","76","83","70","","","","","","lextale","true","false","","","","","","","",""
"7239","
  <p style=""font-size: 40px;"">snirt</p>
  <p style=""font-size: 16px;"">J = YES &nbsp;&nbsp;&nbsp; F = NO</p>
","f","html-keyboard-response","33","2.1.0","244037","J=YES, F=NO","1lvwzk9nda","2","76","83","70","","","","","","lextale","false","false","","","","","","","",""
"1375","
  <p style=""font-size: 40px;"">bitter</p>
  <p style=""font-size: 16px;"">J = YES &nbsp;&nbsp;&nbsp; F = NO</p>
","j","html-keyboard-response","34","2.1.0","245413","J=YES, F=NO","1lvwzk9nda","2","76","83","70","","","","","","lextale","true","false","","","","","","","",""
"5753","
  <p style=""font-size: 40px;"">pliff</p>
  <p style=""font-size: 16px;"">J = YES &nbsp;&nbsp;&nbsp; F = NO</p>
","f","html-keyboard-response","35","2.1.0","251168","J=YES, F=NO","1lvwzk9nda","2","76","83","70","","","","","","lextale","false","false","","","","","","","",""
"2249","
  <p style=""font-size: 40px;"">tablet</p>
  <p style=""font-size: 16px;"">J = YES &nbsp;&nbsp;&nbsp; F = NO</p>
","j","html-keyboard-response","36","2.1.0","253419","J=YES, F=NO","1lvwzk9nda","2","76","83","70","","","","","","lextale","true","false","","","","","","","",""
"6352","
  <p style=""font-size: 40px;"">glimmer</p>
  <p style=""font-size: 16px;"">J = YES &nbsp;&nbsp;&nbsp; F = NO</p>
","j","html-keyboard-response","37","2.1.0","259773","J=YES, F=NO","1lvwzk9nda","2","76","83","70","","","","","","lextale","true","false","","","","","","","",""
"6660","
  <p style=""font-size: 40px;"">slink</p>
  <p style=""font-size: 16px;"">J = YES &nbsp;&nbsp;&nbsp; F = NO</p>
","j","html-keyboard-response","38","2.1.0","266434","J=YES, F=NO","1lvwzk9nda","2","76","83","70","","","","","","lextale","true","false","","","","","","","",""
"937","
  <p style=""font-size: 40px;"">clever</p>
  <p style=""font-size: 16px;"">J = YES &nbsp;&nbsp;&nbsp; F = NO</p>
","j","html-keyboard-response","39","2.1.0","267373","J=YES, F=NO","1lvwzk9nda","2","76","83","70","","","","","","lextale","true","false","","","","","","","",""
"6073","
  <p style=""font-size: 40px;"">grum</p>
  <p style=""font-size: 16px;"">J = YES &nbsp;&nbsp;&nbsp; F = NO</p>
","j","html-keyboard-response","40","2.1.0","273448","J=YES, F=NO","1lvwzk9nda","2","76","83","70","","","","","","lextale","false","false","","","","","","","",""
"2366","
  <p style=""font-size: 40px;"">string</p>
  <p style=""font-size: 16px;"">J = YES &nbsp;&nbsp;&nbsp; F = NO</p>
","j","html-keyboard-response","41","2.1.0","275816","J=YES, F=NO","1lvwzk9nda","2","76","83","70","","","","","","lextale","true","false","","","","","","","",""
"7451","
  <p style=""font-size: 40px;"">plim</p>
  <p style=""font-size: 16px;"">J = YES &nbsp;&nbsp;&nbsp; F = NO</p>
","f","html-keyboard-response","42","2.1.0","283268","J=YES, F=NO","1lvwzk9nda","2","76","83","70","","","","","","lextale","false","false","","","","","","","",""
"1810","
  <p style=""font-size: 40px;"">cable</p>
  <p style=""font-size: 16px;"">J = YES &nbsp;&nbsp;&nbsp; F = NO</p>
","j","html-keyboard-response","43","2.1.0","285080","J=YES, F=NO","1lvwzk9nda","2","76","83","70","","","","","","lextale","true","false","","","","","","","",""
"7876","
  <p style=""font-size: 40px;"">shrivel</p>
  <p style=""font-size: 16px;"">J = YES &nbsp;&nbsp;&nbsp; F = NO</p>
","j","html-keyboard-response","44","2.1.0","292958","J=YES, F=NO","1lvwzk9nda","2","76","83","70","","","","","","lextale","true","false","","","","","","","",""
"6490","
  <p style=""font-size: 40px;"">tarnish</p>
  <p style=""font-size: 16px;"">J = YES &nbsp;&nbsp;&nbsp; F = NO</p>
","j","html-keyboard-response","45","2.1.0","299450","J=YES, F=NO","1lvwzk9nda","2","76","83","70","","","","","","lextale","true","false","","","","","","","",""
"7471","
  <p style=""font-size: 40px;"">blim</p>
  <p style=""font-size: 16px;"">J = YES &nbsp;&nbsp;&nbsp; F = NO</p>
","f","html-keyboard-response","46","2.1.0","306923","J=YES, F=NO","1lvwzk9nda","2","76","83","70","","","","","","lextale","false","false","","","","","","","",""
"6730","
  <p style=""font-size: 40px;"">stifle</p>
  <p style=""font-size: 16px;"">J = YES &nbsp;&nbsp;&nbsp; F = NO</p>
","j","html-keyboard-response","47","2.1.0","313654","J=YES, F=NO","1lvwzk9nda","2","76","83","70","","","","","","lextale","true","false","","","","","","","",""
"5929","
  <p style=""font-size: 40px;"">bint</p>
  <p style=""font-size: 16px;"">J = YES &nbsp;&nbsp;&nbsp; F = NO</p>
","j","html-keyboard-response","48","2.1.0","319584","J=YES, F=NO","1lvwzk9nda","2","76","83","70","","","","","","lextale","false","false","","","","","","","",""
"759","
  <p style=""font-size: 40px;"">purple</p>
  <p style=""font-size: 16px;"">J = YES &nbsp;&nbsp;&nbsp; F = NO</p>
","j","html-keyboard-response","49","2.1.0","320345","J=YES, F=NO","1lvwzk9nda","2","76","83","70","","","","","","lextale","true","false","","","","","","","",""
"2283","
  <p style=""font-size: 40px;"">wriggle</p>
  <p style=""font-size: 16px;"">J = YES &nbsp;&nbsp;&nbsp; F = NO</p>
","j","html-keyboard-response","50","2.1.0","322630","J=YES, F=NO","1lvwzk9nda","2","76","83","70","","","","","","lextale","true","false","","","","","","","",""
"5077","
  <p style=""font-size: 40px;"">mangle</p>
  <p style=""font-size: 16px;"">J = YES &nbsp;&nbsp;&nbsp; F = NO</p>
","j","html-keyboard-response","51","2.1.0","327708","J=YES, F=NO","1lvwzk9nda","2","76","83","70","","","","","","lextale","true","false","","","","","","","",""
"2216","
  <p style=""font-size: 40px;"">shramp</p>
  <p style=""font-size: 16px;"">J = YES &nbsp;&nbsp;&nbsp; F = NO</p>
","j","html-keyboard-response","52","2.1.0","329926","J=YES, F=NO","1lvwzk9nda","2","76","83","70","","","","","","lextale","false","false","","","","","","","",""
"761","
  <p style=""font-size: 40px;"">flirt</p>
  <p style=""font-size: 16px;"">J = YES &nbsp;&nbsp;&nbsp; F = NO</p>
","j","html-keyboard-response","53","2.1.0","330689","J=YES, F=NO","1lvwzk9nda","2","76","83","70","","","","","","lextale","true","false","","","","","","","",""
"7269","
  <p style=""font-size: 40px;"">frip</p>
  <p style=""font-size: 16px;"">J = YES &nbsp;&nbsp;&nbsp; F = NO</p>
","f","html-keyboard-response","54","2.1.0","337959","J=YES, F=NO","1lvwzk9nda","2","76","83","70","","","","","","lextale","false","false","","","","","","","",""
"1587","
  <p style=""font-size: 40px;"">tangle</p>
  <p style=""font-size: 16px;"">J = YES &nbsp;&nbsp;&nbsp; F = NO</p>
","j","html-keyboard-response","55","2.1.0","339548","J=YES, F=NO","1lvwzk9nda","2","76","83","70","","","","","","lextale","true","false","","","","","","","",""
"1152","
  <p style=""font-size: 40px;"">crumble</p>
  <p style=""font-size: 16px;"">J = YES &nbsp;&nbsp;&nbsp; F = NO</p>
","j","html-keyboard-response","56","2.1.0","340701","J=YES, F=NO","1lvwzk9nda","2","76","83","70","","","","","","lextale","true","false","","","","","","","",""
"1220","
  <p style=""font-size: 40px;"">wrinkle</p>
  <p style=""font-size: 16px;"">J = YES &nbsp;&nbsp;&nbsp; F = NO</p>
","j","html-keyboard-response","57","2.1.0","341923","J=YES, F=NO","1lvwzk9nda","2","76","83","70","","","","","","lextale","true","false","","","","","","","",""
"11499","
  <p style=""font-size: 40px;"">slumb</p>
  <p style=""font-size: 16px;"">J = YES &nbsp;&nbsp;&nbsp; F = NO</p>
","f","html-keyboard-response","58","2.1.0","353423","J=YES, F=NO","1lvwzk9nda","2","76","83","70","","","","","","lextale","false","false","","","","","","","",""
"1782","
  <p style=""font-size: 40px;"">jungle</p>
  <p style=""font-size: 16px;"">J = YES &nbsp;&nbsp;&nbsp; F = NO</p>
","j","html-keyboard-response","59","2.1.0","355206","J=YES, F=NO","1lvwzk9nda","2","76","83","70","","","","","","lextale","true","false","","","","","","","",""
"8322","
  <p style=""font-size: 40px;"">frolick</p>
  <p style=""font-size: 16px;"">J = YES &nbsp;&nbsp;&nbsp; F = NO</p>
","j","html-keyboard-response","60","2.1.0","363529","J=YES, F=NO","1lvwzk9nda","2","76","83","70","","","","","","lextale","false","false","","","","","","","",""
"4063","
      <h2>LexTALE Test Completed</h2>
      <p>Your LexTALE vocabulary score is: <strong>76%</strong></p>
      <p>Press any key to continue.</p>
    "," ","html-keyboard-response","61","2.1.0","367594","J=YES, F=NO","1lvwzk9nda","2","76","83","70","","","","","","","","","","","","","","","",""
"6401","
    <div style=""max-width: 800px; margin: auto; text-align: left;"">
      <h2>Break Time</h2>
      <p>You have completed the first part of the study.</p>
      <p>You may take a short <strong>30-second break</strong> before continuing.</p>
      <p>When you’re ready, press any key to continue to the final task.</p>
    </div>
  "," ","html-keyboard-response","62","2.1.0","373996","J=YES, F=NO","1lvwzk9nda","2","76","83","70","","","","","","","","","","","","","","","",""
"4071","
    <div style=""max-width: 800px; margin: auto; text-align: left;"">
      <h2>Part 2: Lexical Decision Task</h2>
      <p>You will now begin the second part of the study.</p>
      <p>Each trial will follow this sequence:</p>
      <ul>
        <li>A fixation cross (+) appears at the center of the screen.</li>
        <li>You will hear a short beep followed by a spoken word.</li>
        <li>A written word will appear briefly on the screen.</li>
      </ul>
      <p>Your task is to judge whether the <strong>written word</strong> is a real English word.</p>
      <p style=""margin-top: 1em;""><strong>Key responses:</strong></p>
      <ul>
        <li><strong>J</strong> = YES (real English word)</li>
        <li><strong>F</strong> = NO (not a real English word)</li>
      </ul>
      <p>Please respond as quickly and accurately as you can.</p>
      <p style=""margin-top: 2em;"">Press any key to continue.</p>
    </div>
  "," ","html-keyboard-response","63","2.1.0","378068","J=YES, F=NO","1lvwzk9nda","2","76","83","70","","","","","","","","","","","","","","","",""
"1470","
    <div style=""max-width: 800px; margin: auto; text-align: left;"">
      <h2>Before You Begin</h2>
      <p>Make sure your sound is turned on.</p>
      <p>You will hear audio during each trial, but your decision should be based only on the <strong>written word</strong> you see on the screen.</p>
      <p><strong>Reminder:</strong></p>
      <ul>
        <li><strong>J</strong> = YES (real English word)</li>
        <li><strong>F</strong> = NO (not a real English word)</li>
      </ul>
      <p style=""margin-top: 2em;"">Press any key when you are ready to begin.</p>
    </div>
  "," ","html-keyboard-response","64","2.1.0","379539","J=YES, F=NO","1lvwzk9nda","2","76","83","70","","","","","","","","","","","","","","","",""
"3504","
    <div style=""max-width: 800px; margin: auto; text-align: left;"">
      <h2>Part 2: Practice Trials</h2>
      <p>You will now complete a few <strong>practice trials</strong> to get familiar with the task.</p>
      <p>These trials are <strong>not scored</strong> and are only to help you get used to the format.</p>
      <p style=""margin-top: 2em;"">Press any key to begin.</p>
    </div>
  "," ","html-keyboard-response","65","2.1.0","383045","J=YES, F=NO","1lvwzk9nda","2","76","83","70","","","","","","","","","","","","","","","",""
"3390","<p>Starting practice block 1 of 2. Press any key to continue.</p>"," ","html-keyboard-response","66","2.1.0","386436","J=YES, F=NO","1lvwzk9nda","2","76","83","70","","","","","","","","","","","","","","","",""
"null","<p style=""font-size: 50px;"">+</p>","null","html-keyboard-response","67","2.1.0","386739","J=YES, F=NO","1lvwzk9nda","2","76","83","70","","","","","","","","","","","","","","","",""
"null","audio/beep-329314.mp3","null","audio-keyboard-response","68","2.1.0","389208","J=YES, F=NO","1lvwzk9nda","2","76","83","70","","","","","","","","","","","","","","","",""
"null","audio/belief.wav","null","audio-keyboard-response","69","2.1.0","389957","J=YES, F=NO","1lvwzk9nda","2","76","83","70","","","","","","","","","","","","","","","",""
"null","
          <p id=""word"" style=""font-size: 40px;"">read</p>
          <p style=""font-size: 16px;"">J = YES &nbsp;&nbsp;&nbsp; F = NO</p>
        ","null","html-keyboard-response","70","2.1.0","391464","J=YES, F=NO","1lvwzk9nda","2","76","83","70","","","","","","","","","read","belief","filler","filler","j","false","",""
"null","<p style=""font-size: 50px;"">+</p>","null","html-keyboard-response","71","2.1.0","391767","J=YES, F=NO","1lvwzk9nda","2","76","83","70","","","","","","","","","","","","","","","",""
"null","audio/beep-329314.mp3","null","audio-keyboard-response","72","2.1.0","393308","J=YES, F=NO","1lvwzk9nda","2","76","83","70","","","","","","","","","","","","","","","",""
"null","audio/ankle1.wav","null","audio-keyboard-response","73","2.1.0","393857","J=YES, F=NO","1lvwzk9nda","2","76","83","70","","","","","","","","","","","","","","","",""
"null","
          <p id=""word"" style=""font-size: 40px;"">kick</p>
          <p style=""font-size: 16px;"">J = YES &nbsp;&nbsp;&nbsp; F = NO</p>
        ","null","html-keyboard-response","74","2.1.0","395371","J=YES, F=NO","1lvwzk9nda","2","76","83","70","","","","","","","","","kick","ankle1","filler","filler","j","false","",""
"null","<p style=""font-size: 50px;"">+</p>","null","html-keyboard-response","75","2.1.0","395681","J=YES, F=NO","1lvwzk9nda","2","76","83","70","","","","","","","","","","","","","","","",""
"null","audio/beep-329314.mp3","null","audio-keyboard-response","76","2.1.0","397208","J=YES, F=NO","1lvwzk9nda","2","76","83","70","","","","","","","","","","","","","","","",""
"null","audio/dome.wav","null","audio-keyboard-response","77","2.1.0","397737","J=YES, F=NO","1lvwzk9nda","2","76","83","70","","","","","","","","","","","","","","","",""
"null","
          <p id=""word"" style=""font-size: 40px;"">scrupliness</p>
          <p style=""font-size: 16px;"">J = YES &nbsp;&nbsp;&nbsp; F = NO</p>
        ","null","html-keyboard-response","78","2.1.0","399252","J=YES, F=NO","1lvwzk9nda","2","76","83","70","","","","","","","","","scrupliness","dome","pseudoword","pseudoword","f","false","",""
"null","<p style=""font-size: 50px;"">+</p>","null","html-keyboard-response","79","2.1.0","399566","J=YES, F=NO","1lvwzk9nda","2","76","83","70","","","","","","","","","","","","","","","",""
"null","audio/beep-329314.mp3","null","audio-keyboard-response","80","2.1.0","401108","J=YES, F=NO","1lvwzk9nda","2","76","83","70","","","","","","","","","","","","","","","",""
"null","audio/bomb1.wav","null","audio-keyboard-response","81","2.1.0","401498","J=YES, F=NO","1lvwzk9nda","2","76","83","70","","","","","","","","","","","","","","","",""
"null","
          <p id=""word"" style=""font-size: 40px;"">clean</p>
          <p style=""font-size: 16px;"">J = YES &nbsp;&nbsp;&nbsp; F = NO</p>
        ","null","html-keyboard-response","82","2.1.0","403004","J=YES, F=NO","1lvwzk9nda","2","76","83","70","","","","","","","","","clean","bomb1","filler","filler","j","false","",""
"null","<p style=""font-size: 50px;"">+</p>","null","html-keyboard-response","83","2.1.0","403318","J=YES, F=NO","1lvwzk9nda","2","76","83","70","","","","","","","","","","","","","","","",""
"null","audio/beep-329314.mp3","null","audio-keyboard-response","84","2.1.0","404847","J=YES, F=NO","1lvwzk9nda","2","76","83","70","","","","","","","","","","","","","","","",""
"null","audio/dollar.wav","null","audio-keyboard-response","85","2.1.0","405298","J=YES, F=NO","1lvwzk9nda","2","76","83","70","","","","","","","","","","","","","","","",""
"null","
          <p id=""word"" style=""font-size: 40px;"">gliptism</p>
          <p style=""font-size: 16px;"">J = YES &nbsp;&nbsp;&nbsp; F = NO</p>
        ","null","html-keyboard-response","86","2.1.0","406811","J=YES, F=NO","1lvwzk9nda","2","76","83","70","","","","","","","","","gliptism","dollar","pseudoword","pseudoword","f","false","",""
"null","<p style=""font-size: 50px;"">+</p>","null","html-keyboard-response","87","2.1.0","407115","J=YES, F=NO","1lvwzk9nda","2","76","83","70","","","","","","","","","","","","","","","",""
"null","audio/beep-329314.mp3","null","audio-keyboard-response","88","2.1.0","408648","J=YES, F=NO","1lvwzk9nda","2","76","83","70","","","","","","","","","","","","","","","",""
"null","audio/mouth1.wav","null","audio-keyboard-response","89","2.1.0","409397","J=YES, F=NO","1lvwzk9nda","2","76","83","70","","","","","","","","","","","","","","","",""
"null","
          <p id=""word"" style=""font-size: 40px;"">spolial</p>
          <p style=""font-size: 16px;"">J = YES &nbsp;&nbsp;&nbsp; F = NO</p>
        ","null","html-keyboard-response","90","2.1.0","410912","J=YES, F=NO","1lvwzk9nda","2","76","83","70","","","","","","","","","spolial","mouth1","pseudoword","pseudoword","f","false","",""
"null","<p style=""font-size: 50px;"">+</p>","null","html-keyboard-response","91","2.1.0","411227","J=YES, F=NO","1lvwzk9nda","2","76","83","70","","","","","","","","","","","","","","","",""
"null","audio/beep-329314.mp3","null","audio-keyboard-response","92","2.1.0","412768","J=YES, F=NO","1lvwzk9nda","2","76","83","70","","","","","","","","","","","","","","","",""
"null","audio/age1.wav","null","audio-keyboard-response","93","2.1.0","413337","J=YES, F=NO","1lvwzk9nda","2","76","83","70","","","","","","","","","","","","","","","",""
"null","
          <p id=""word"" style=""font-size: 40px;"">bake</p>
          <p style=""font-size: 16px;"">J = YES &nbsp;&nbsp;&nbsp; F = NO</p>
        ","null","html-keyboard-response","94","2.1.0","414843","J=YES, F=NO","1lvwzk9nda","2","76","83","70","","","","","","","","","bake","age1","filler","filler","j","false","",""
"null","<p style=""font-size: 50px;"">+</p>","null","html-keyboard-response","95","2.1.0","415156","J=YES, F=NO","1lvwzk9nda","2","76","83","70","","","","","","","","","","","","","","","",""
"null","audio/beep-329314.mp3","null","audio-keyboard-response","96","2.1.0","416687","J=YES, F=NO","1lvwzk9nda","2","76","83","70","","","","","","","","","","","","","","","",""
"null","audio/arm.wav","null","audio-keyboard-response","97","2.1.0","417257","J=YES, F=NO","1lvwzk9nda","2","76","83","70","","","","","","","","","","","","","","","",""
"null","
          <p id=""word"" style=""font-size: 40px;"">fold</p>
          <p style=""font-size: 16px;"">J = YES &nbsp;&nbsp;&nbsp; F = NO</p>
        ","null","html-keyboard-response","98","2.1.0","418762","J=YES, F=NO","1lvwzk9nda","2","76","83","70","","","","","","","","","fold","arm","filler","filler","j","false","",""
"null","<p style=""font-size: 50px;"">+</p>","null","html-keyboard-response","99","2.1.0","419074","J=YES, F=NO","1lvwzk9nda","2","76","83","70","","","","","","","","","","","","","","","",""
"null","audio/beep-329314.mp3","null","audio-keyboard-response","100","2.1.0","420608","J=YES, F=NO","1lvwzk9nda","2","76","83","70","","","","","","","","","","","","","","","",""
"null","audio/scar.wav","null","audio-keyboard-response","101","2.1.0","421277","J=YES, F=NO","1lvwzk9nda","2","76","83","70","","","","","","","","","","","","","","","",""
"null","
          <p id=""word"" style=""font-size: 40px;"">adelineate</p>
          <p style=""font-size: 16px;"">J = YES &nbsp;&nbsp;&nbsp; F = NO</p>
        ","null","html-keyboard-response","102","2.1.0","422785","J=YES, F=NO","1lvwzk9nda","2","76","83","70","","","","","","","","","adelineate","scar","pseudoword","pseudoword","f","false","",""
"null","<p style=""font-size: 50px;"">+</p>","null","html-keyboard-response","103","2.1.0","423094","J=YES, F=NO","1lvwzk9nda","2","76","83","70","","","","","","","","","","","","","","","",""
"null","audio/beep-329314.mp3","null","audio-keyboard-response","104","2.1.0","424628","J=YES, F=NO","1lvwzk9nda","2","76","83","70","","","","","","","","","","","","","","","",""
"null","audio/pattern.wav","null","audio-keyboard-response","105","2.1.0","425237","J=YES, F=NO","1lvwzk9nda","2","76","83","70","","","","","","","","","","","","","","","",""
"null","
          <p id=""word"" style=""font-size: 40px;"">tug</p>
          <p style=""font-size: 16px;"">J = YES &nbsp;&nbsp;&nbsp; F = NO</p>
        ","null","html-keyboard-response","106","2.1.0","426744","J=YES, F=NO","1lvwzk9nda","2","76","83","70","","","","","","","","","tug","pattern","filler","filler","j","false","",""
"null","<p style=""font-size: 50px;"">+</p>","null","html-keyboard-response","107","2.1.0","427061","J=YES, F=NO","1lvwzk9nda","2","76","83","70","","","","","","","","","","","","","","","",""
"null","audio/beep-329314.mp3","null","audio-keyboard-response","108","2.1.0","428587","J=YES, F=NO","1lvwzk9nda","2","76","83","70","","","","","","","","","","","","","","","",""
"null","audio/fence.wav","null","audio-keyboard-response","109","2.1.0","429317","J=YES, F=NO","1lvwzk9nda","2","76","83","70","","","","","","","","","","","","","","","",""
"null","
          <p id=""word"" style=""font-size: 40px;"">trim</p>
          <p style=""font-size: 16px;"">J = YES &nbsp;&nbsp;&nbsp; F = NO</p>
        ","null","html-keyboard-response","110","2.1.0","430820","J=YES, F=NO","1lvwzk9nda","2","76","83","70","","","","","","","","","trim","fence","filler","filler","j","false","",""
"null","<p style=""font-size: 50px;"">+</p>","null","html-keyboard-response","111","2.1.0","431124","J=YES, F=NO","1lvwzk9nda","2","76","83","70","","","","","","","","","","","","","","","",""
"null","audio/beep-329314.mp3","null","audio-keyboard-response","112","2.1.0","432647","J=YES, F=NO","1lvwzk9nda","2","76","83","70","","","","","","","","","","","","","","","",""
"null","audio/purpose.wav","null","audio-keyboard-response","113","2.1.0","433397","J=YES, F=NO","1lvwzk9nda","2","76","83","70","","","","","","","","","","","","","","","",""
"null","
          <p id=""word"" style=""font-size: 40px;"">whigm</p>
          <p style=""font-size: 16px;"">J = YES &nbsp;&nbsp;&nbsp; F = NO</p>
        ","null","html-keyboard-response","114","2.1.0","434912","J=YES, F=NO","1lvwzk9nda","2","76","83","70","","","","","","","","","whigm","purpose","pseudoword","pseudoword","f","false","",""
"5436","<p>Starting practice block 2 of 2. Press any key to continue.</p>"," ","html-keyboard-response","115","2.1.0","440349","J=YES, F=NO","1lvwzk9nda","2","76","83","70","","","","","","","","","","","","","","","",""
"null","<p style=""font-size: 50px;"">+</p>","null","html-keyboard-response","116","2.1.0","440651","J=YES, F=NO","1lvwzk9nda","2","76","83","70","","","","","","","","","","","","","","","",""
"null","audio/beep-329314.mp3","null","audio-keyboard-response","117","2.1.0","442188","J=YES, F=NO","1lvwzk9nda","2","76","83","70","","","","","","","","","","","","","","","",""
"null","audio/road.wav","null","audio-keyboard-response","118","2.1.0","442697","J=YES, F=NO","1lvwzk9nda","2","76","83","70","","","","","","","","","","","","","","","",""
"624","
          <p id=""word"" style=""font-size: 40px;"">wappings</p>
          <p style=""font-size: 16px;"">J = YES &nbsp;&nbsp;&nbsp; F = NO</p>
        ","f","html-keyboard-response","119","2.1.0","443324","J=YES, F=NO","1lvwzk9nda","2","76","83","70","","","","","","","","","wappings","road","pseudoword","pseudoword","f","true","",""
"null","<p style=""font-size: 50px;"">+</p>","null","html-keyboard-response","120","2.1.0","443628","J=YES, F=NO","1lvwzk9nda","2","76","83","70","","","","","","","","","","","","","","","",""
"null","audio/beep-329314.mp3","null","audio-keyboard-response","121","2.1.0","445167","J=YES, F=NO","1lvwzk9nda","2","76","83","70","","","","","","","","","","","","","","","",""
"null","audio/desire.wav","null","audio-keyboard-response","122","2.1.0","445877","J=YES, F=NO","1lvwzk9nda","2","76","83","70","","","","","","","","","","","","","","","",""
"null","
          <p id=""word"" style=""font-size: 40px;"">nophed</p>
          <p style=""font-size: 16px;"">J = YES &nbsp;&nbsp;&nbsp; F = NO</p>
        ","null","html-keyboard-response","123","2.1.0","447382","J=YES, F=NO","1lvwzk9nda","2","76","83","70","","","","","","","","","nophed","desire","pseudoword","pseudoword","f","false","",""
"null","<p style=""font-size: 50px;"">+</p>","null","html-keyboard-response","124","2.1.0","447699","J=YES, F=NO","1lvwzk9nda","2","76","83","70","","","","","","","","","","","","","","","",""
"null","audio/beep-329314.mp3","null","audio-keyboard-response","125","2.1.0","449228","J=YES, F=NO","1lvwzk9nda","2","76","83","70","","","","","","","","","","","","","","","",""
"null","audio/van1.wav","null","audio-keyboard-response","126","2.1.0","449738","J=YES, F=NO","1lvwzk9nda","2","76","83","70","","","","","","","","","","","","","","","",""
"null","
          <p id=""word"" style=""font-size: 40px;"">push</p>
          <p style=""font-size: 16px;"">J = YES &nbsp;&nbsp;&nbsp; F = NO</p>
        ","null","html-keyboard-response","127","2.1.0","451247","J=YES, F=NO","1lvwzk9nda","2","76","83","70","","","","","","","","","push","van1","filler","filler","j","false","",""
"null","<p style=""font-size: 50px;"">+</p>","null","html-keyboard-response","128","2.1.0","451561","J=YES, F=NO","1lvwzk9nda","2","76","83","70","","","","","","","","","","","","","","","",""
"null","audio/beep-329314.mp3","null","audio-keyboard-response","129","2.1.0","453088","J=YES, F=NO","1lvwzk9nda","2","76","83","70","","","","","","","","","","","","","","","",""
"null","audio/winter.wav","null","audio-keyboard-response","130","2.1.0","453737","J=YES, F=NO","1lvwzk9nda","2","76","83","70","","","","","","","","","","","","","","","",""
"826","
          <p id=""word"" style=""font-size: 40px;"">straven</p>
          <p style=""font-size: 16px;"">J = YES &nbsp;&nbsp;&nbsp; F = NO</p>
        ","j","html-keyboard-response","131","2.1.0","454565","J=YES, F=NO","1lvwzk9nda","2","76","83","70","","","","","","","","","straven","winter","pseudoword","pseudoword","f","false","",""
"null","<p style=""font-size: 50px;"">+</p>","null","html-keyboard-response","132","2.1.0","454875","J=YES, F=NO","1lvwzk9nda","2","76","83","70","","","","","","","","","","","","","","","",""
"null","audio/beep-329314.mp3","null","audio-keyboard-response","133","2.1.0","456408","J=YES, F=NO","1lvwzk9nda","2","76","83","70","","","","","","","","","","","","","","","",""
"null","audio/window1.wav","null","audio-keyboard-response","134","2.1.0","457158","J=YES, F=NO","1lvwzk9nda","2","76","83","70","","","","","","","","","","","","","","","",""
"579","
          <p id=""word"" style=""font-size: 40px;"">toss</p>
          <p style=""font-size: 16px;"">J = YES &nbsp;&nbsp;&nbsp; F = NO</p>
        ","f","html-keyboard-response","135","2.1.0","457738","J=YES, F=NO","1lvwzk9nda","2","76","83","70","","","","","","","","","toss","window1","filler","filler","j","false","",""
"null","<p style=""font-size: 50px;"">+</p>","null","html-keyboard-response","136","2.1.0","458044","J=YES, F=NO","1lvwzk9nda","2","76","83","70","","","","","","","","","","","","","","","",""
"null","audio/beep-329314.mp3","null","audio-keyboard-response","137","2.1.0","459588","J=YES, F=NO","1lvwzk9nda","2","76","83","70","","","","","","","","","","","","","","","",""
"null","audio/smirk1.wav","null","audio-keyboard-response","138","2.1.0","460337","J=YES, F=NO","1lvwzk9nda","2","76","83","70","","","","","","","","","","","","","","","",""
"583","
          <p id=""word"" style=""font-size: 40px;"">snopt</p>
          <p style=""font-size: 16px;"">J = YES &nbsp;&nbsp;&nbsp; F = NO</p>
        ","f","html-keyboard-response","139","2.1.0","460922","J=YES, F=NO","1lvwzk9nda","2","76","83","70","","","","","","","","","snopt","smirk1","pseudoword","pseudoword","f","true","",""
"null","<p style=""font-size: 50px;"">+</p>","null","html-keyboard-response","140","2.1.0","461224","J=YES, F=NO","1lvwzk9nda","2","76","83","70","","","","","","","","","","","","","","","",""
"null","audio/beep-329314.mp3","null","audio-keyboard-response","141","2.1.0","462747","J=YES, F=NO","1lvwzk9nda","2","76","83","70","","","","","","","","","","","","","","","",""
"null","audio/floor.wav","null","audio-keyboard-response","142","2.1.0","463317","J=YES, F=NO","1lvwzk9nda","2","76","83","70","","","","","","","","","","","","","","","",""
"620","
          <p id=""word"" style=""font-size: 40px;"">mop</p>
          <p style=""font-size: 16px;"">J = YES &nbsp;&nbsp;&nbsp; F = NO</p>
        ","j","html-keyboard-response","143","2.1.0","463939","J=YES, F=NO","1lvwzk9nda","2","76","83","70","","","","","","","","","mop","floor","filler","filler","j","true","",""
"null","<p style=""font-size: 50px;"">+</p>","null","html-keyboard-response","144","2.1.0","464255","J=YES, F=NO","1lvwzk9nda","2","76","83","70","","","","","","","","","","","","","","","",""
"null","audio/beep-329314.mp3","null","audio-keyboard-response","145","2.1.0","465787","J=YES, F=NO","1lvwzk9nda","2","76","83","70","","","","","","","","","","","","","","","",""
"null","audio/ankle1.wav","null","audio-keyboard-response","146","2.1.0","466297","J=YES, F=NO","1lvwzk9nda","2","76","83","70","","","","","","","","","","","","","","","",""
"693","
          <p id=""word"" style=""font-size: 40px;"">switm</p>
          <p style=""font-size: 16px;"">J = YES &nbsp;&nbsp;&nbsp; F = NO</p>
        ","f","html-keyboard-response","147","2.1.0","466992","J=YES, F=NO","1lvwzk9nda","2","76","83","70","","","","","","","","","switm","ankle1","pseudoword","pseudoword","f","true","",""
"null","<p style=""font-size: 50px;"">+</p>","null","html-keyboard-response","148","2.1.0","467300","J=YES, F=NO","1lvwzk9nda","2","76","83","70","","","","","","","","","","","","","","","",""
"null","audio/beep-329314.mp3","null","audio-keyboard-response","149","2.1.0","468828","J=YES, F=NO","1lvwzk9nda","2","76","83","70","","","","","","","","","","","","","","","",""
"null","audio/alarm1.wav","null","audio-keyboard-response","150","2.1.0","469598","J=YES, F=NO","1lvwzk9nda","2","76","83","70","","","","","","","","","","","","","","","",""
"null","
          <p id=""word"" style=""font-size: 40px;"">swetp</p>
          <p style=""font-size: 16px;"">J = YES &nbsp;&nbsp;&nbsp; F = NO</p>
        ","null","html-keyboard-response","151","2.1.0","471106","J=YES, F=NO","1lvwzk9nda","2","76","83","70","","","","","","","","","swetp","alarm1","pseudoword","pseudoword","f","false","",""
"null","<p style=""font-size: 50px;"">+</p>","null","html-keyboard-response","152","2.1.0","471419","J=YES, F=NO","1lvwzk9nda","2","76","83","70","","","","","","","","","","","","","","","",""
"null","audio/beep-329314.mp3","null","audio-keyboard-response","153","2.1.0","472948","J=YES, F=NO","1lvwzk9nda","2","76","83","70","","","","","","","","","","","","","","","",""
"null","audio/bridge.wav","null","audio-keyboard-response","154","2.1.0","473737","J=YES, F=NO","1lvwzk9nda","2","76","83","70","","","","","","","","","","","","","","","",""
"1477","
          <p id=""word"" style=""font-size: 40px;"">crack</p>
          <p style=""font-size: 16px;"">J = YES &nbsp;&nbsp;&nbsp; F = NO</p>
        ","j","html-keyboard-response","155","2.1.0","475216","J=YES, F=NO","1lvwzk9nda","2","76","83","70","","","","","","","","","crack","bridge","filler","filler","j","true","",""
"null","<p style=""font-size: 50px;"">+</p>","null","html-keyboard-response","156","2.1.0","475530","J=YES, F=NO","1lvwzk9nda","2","76","83","70","","","","","","","","","","","","","","","",""
"null","audio/beep-329314.mp3","null","audio-keyboard-response","157","2.1.0","477067","J=YES, F=NO","1lvwzk9nda","2","76","83","70","","","","","","","","","","","","","","","",""
"null","audio/trust.wav","null","audio-keyboard-response","158","2.1.0","477977","J=YES, F=NO","1lvwzk9nda","2","76","83","70","","","","","","","","","","","","","","","",""
"1100","
          <p id=""word"" style=""font-size: 40px;"">swint</p>
          <p style=""font-size: 16px;"">J = YES &nbsp;&nbsp;&nbsp; F = NO</p>
        ","f","html-keyboard-response","159","2.1.0","479079","J=YES, F=NO","1lvwzk9nda","2","76","83","70","","","","","","","","","swint","trust","pseudoword","pseudoword","f","true","",""
"null","<p style=""font-size: 50px;"">+</p>","null","html-keyboard-response","160","2.1.0","479394","J=YES, F=NO","1lvwzk9nda","2","76","83","70","","","","","","","","","","","","","","","",""
"null","audio/beep-329314.mp3","null","audio-keyboard-response","161","2.1.0","480928","J=YES, F=NO","1lvwzk9nda","2","76","83","70","","","","","","","","","","","","","","","",""
"null","audio/beach1.wav","null","audio-keyboard-response","162","2.1.0","481737","J=YES, F=NO","1lvwzk9nda","2","76","83","70","","","","","","","","","","","","","","","",""
"884","
          <p id=""word"" style=""font-size: 40px;"">drive</p>
          <p style=""font-size: 16px;"">J = YES &nbsp;&nbsp;&nbsp; F = NO</p>
        ","j","html-keyboard-response","163","2.1.0","482623","J=YES, F=NO","1lvwzk9nda","2","76","83","70","","","","","","","","","drive","beach1","filler","filler","j","true","",""
"4876","
    <div style=""max-width: 800px; margin: auto; text-align: left;"">
      <h2>Part 2: Main Trials</h2>
      <p>Great job on the practice trials!</p>
      <p>You will now begin the <strong>main set of trials</strong>.</p>
      <p>Remember your key assignments:</p>
      <ul>
        <li><strong>J</strong> = YES (real English word)</li>
        <li><strong>F</strong> = NO (not a real English word)</li>
      </ul>
      <p>Try to respond as <strong>quickly and accurately</strong> as possible.</p>
      <p style=""margin-top: 2em;"">Press any key to begin the main trials.</p>
    </div>
  "," ","html-keyboard-response","164","2.1.0","487500","J=YES, F=NO","1lvwzk9nda","2","76","83","70","","","","","","","","","","","","","","","",""
"2362","<p>Starting main block 1 of 8. Press any key to continue.</p>"," ","html-keyboard-response","165","2.1.0","489864","J=YES, F=NO","1lvwzk9nda","2","76","83","70","","","","","","","","","","","","","","","",""
"null","<p style=""font-size: 50px;"">+</p>","null","html-keyboard-response","166","2.1.0","490169","J=YES, F=NO","1lvwzk9nda","2","76","83","70","","","","","","","","","","","","","","","",""
"null","audio/beep-329314.mp3","null","audio-keyboard-response","167","2.1.0","491707","J=YES, F=NO","1lvwzk9nda","2","76","83","70","","","","","","","","","","","","","","","",""
"null","audio/key1.wav","null","audio-keyboard-response","168","2.1.0","492077","J=YES, F=NO","1lvwzk9nda","2","76","83","70","","","","","","","","","","","","","","","",""
"1201","
          <p id=""word"" style=""font-size: 40px;"">sminsh</p>
          <p style=""font-size: 16px;"">J = YES &nbsp;&nbsp;&nbsp; F = NO</p>
        ","f","html-keyboard-response","169","2.1.0","493280","J=YES, F=NO","1lvwzk9nda","2","76","83","70","","","","","","","","","sminsh","key1","pseudoword","pseudoword","f","true","",""
"null","<p style=""font-size: 50px;"">+</p>","null","html-keyboard-response","170","2.1.0","493591","J=YES, F=NO","1lvwzk9nda","2","76","83","70","","","","","","","","","","","","","","","",""
"null","audio/beep-329314.mp3","null","audio-keyboard-response","171","2.1.0","495127","J=YES, F=NO","1lvwzk9nda","2","76","83","70","","","","","","","","","","","","","","","",""
"null","audio/pizza1.wav","null","audio-keyboard-response","172","2.1.0","495717","J=YES, F=NO","1lvwzk9nda","2","76","83","70","","","","","","","","","","","","","","","",""
"891","
          <p id=""word"" style=""font-size: 40px;"">devour</p>
          <p style=""font-size: 16px;"">J = YES &nbsp;&nbsp;&nbsp; F = NO</p>
        ","f","html-keyboard-response","173","2.1.0","496609","J=YES, F=NO","1lvwzk9nda","2","76","83","70","","","","","","","","","devour","pizza1","literal","experimental","j","false","",""
"null","<p style=""font-size: 50px;"">+</p>","null","html-keyboard-response","174","2.1.0","496913","J=YES, F=NO","1lvwzk9nda","2","76","83","70","","","","","","","","","","","","","","","",""
"null","audio/beep-329314.mp3","null","audio-keyboard-response","175","2.1.0","498448","J=YES, F=NO","1lvwzk9nda","2","76","83","70","","","","","","","","","","","","","","","",""
"null","audio/ship.wav","null","audio-keyboard-response","176","2.1.0","499017","J=YES, F=NO","1lvwzk9nda","2","76","83","70","","","","","","","","","","","","","","","",""
"969","
          <p id=""word"" style=""font-size: 40px;"">scrap</p>
          <p style=""font-size: 16px;"">J = YES &nbsp;&nbsp;&nbsp; F = NO</p>
        ","f","html-keyboard-response","177","2.1.0","499988","J=YES, F=NO","1lvwzk9nda","2","76","83","70","","","","","","","","","scrap","ship","literal","experimental","j","false","",""
"null","<p style=""font-size: 50px;"">+</p>","null","html-keyboard-response","178","2.1.0","500293","J=YES, F=NO","1lvwzk9nda","2","76","83","70","","","","","","","","","","","","","","","",""
"null","audio/beep-329314.mp3","null","audio-keyboard-response","179","2.1.0","501828","J=YES, F=NO","1lvwzk9nda","2","76","83","70","","","","","","","","","","","","","","","",""
"null","audio/ankle1.wav","null","audio-keyboard-response","180","2.1.0","502337","J=YES, F=NO","1lvwzk9nda","2","76","83","70","","","","","","","","","","","","","","","",""
"584","
          <p id=""word"" style=""font-size: 40px;"">hurt</p>
          <p style=""font-size: 16px;"">J = YES &nbsp;&nbsp;&nbsp; F = NO</p>
        ","j","html-keyboard-response","181","2.1.0","502923","J=YES, F=NO","1lvwzk9nda","2","76","83","70","","","","","","","","","hurt","ankle1","literal","experimental","j","true","",""
"null","<p style=""font-size: 50px;"">+</p>","null","html-keyboard-response","182","2.1.0","503232","J=YES, F=NO","1lvwzk9nda","2","76","83","70","","","","","","","","","","","","","","","",""
"null","audio/beep-329314.mp3","null","audio-keyboard-response","183","2.1.0","504767","J=YES, F=NO","1lvwzk9nda","2","76","83","70","","","","","","","","","","","","","","","",""
"null","audio/planet1.wav","null","audio-keyboard-response","184","2.1.0","505537","J=YES, F=NO","1lvwzk9nda","2","76","83","70","","","","","","","","","","","","","","","",""
"887","
          <p id=""word"" style=""font-size: 40px;"">save</p>
          <p style=""font-size: 16px;"">J = YES &nbsp;&nbsp;&nbsp; F = NO</p>
        ","j","html-keyboard-response","185","2.1.0","506426","J=YES, F=NO","1lvwzk9nda","2","76","83","70","","","","","","","","","save","planet1","metaphor","experimental","j","true","",""
"null","<p style=""font-size: 50px;"">+</p>","null","html-keyboard-response","186","2.1.0","506743","J=YES, F=NO","1lvwzk9nda","2","76","83","70","","","","","","","","","","","","","","","",""
"null","audio/beep-329314.mp3","null","audio-keyboard-response","187","2.1.0","508267","J=YES, F=NO","1lvwzk9nda","2","76","83","70","","","","","","","","","","","","","","","",""
"null","audio/lion1.wav","null","audio-keyboard-response","188","2.1.0","508837","J=YES, F=NO","1lvwzk9nda","2","76","83","70","","","","","","","","","","","","","","","",""
"574","
          <p id=""word"" style=""font-size: 40px;"">wrestle</p>
          <p style=""font-size: 16px;"">J = YES &nbsp;&nbsp;&nbsp; F = NO</p>
        ","f","html-keyboard-response","189","2.1.0","509413","J=YES, F=NO","1lvwzk9nda","2","76","83","70","","","","","","","","","wrestle","lion1","literal","experimental","j","false","",""
"null","<p style=""font-size: 50px;"">+</p>","null","html-keyboard-response","190","2.1.0","509723","J=YES, F=NO","1lvwzk9nda","2","76","83","70","","","","","","","","","","","","","","","",""
"null","audio/beep-329314.mp3","null","audio-keyboard-response","191","2.1.0","511247","J=YES, F=NO","1lvwzk9nda","2","76","83","70","","","","","","","","","","","","","","","",""
"null","audio/emotion.wav","null","audio-keyboard-response","192","2.1.0","511918","J=YES, F=NO","1lvwzk9nda","2","76","83","70","","","","","","","","","","","","","","","",""
"864","
          <p id=""word"" style=""font-size: 40px;"">devering</p>
          <p style=""font-size: 16px;"">J = YES &nbsp;&nbsp;&nbsp; F = NO</p>
        ","j","html-keyboard-response","193","2.1.0","512784","J=YES, F=NO","1lvwzk9nda","2","76","83","70","","","","","","","","","devering","emotion","pseudoword","pseudoword","f","false","",""
"null","<p style=""font-size: 50px;"">+</p>","null","html-keyboard-response","194","2.1.0","513093","J=YES, F=NO","1lvwzk9nda","2","76","83","70","","","","","","","","","","","","","","","",""
"null","audio/beep-329314.mp3","null","audio-keyboard-response","195","2.1.0","514628","J=YES, F=NO","1lvwzk9nda","2","76","83","70","","","","","","","","","","","","","","","",""
"null","audio/survey1.wav","null","audio-keyboard-response","196","2.1.0","515638","J=YES, F=NO","1lvwzk9nda","2","76","83","70","","","","","","","","","","","","","","","",""
"null","
          <p id=""word"" style=""font-size: 40px;"">imploth</p>
          <p style=""font-size: 16px;"">J = YES &nbsp;&nbsp;&nbsp; F = NO</p>
        ","null","html-keyboard-response","197","2.1.0","517145","J=YES, F=NO","1lvwzk9nda","2","76","83","70","","","","","","","","","imploth","survey1","pseudoword","pseudoword","f","false","",""
"null","<p style=""font-size: 50px;"">+</p>","null","html-keyboard-response","198","2.1.0","517449","J=YES, F=NO","1lvwzk9nda","2","76","83","70","","","","","","","","","","","","","","","",""
"null","audio/beep-329314.mp3","null","audio-keyboard-response","199","2.1.0","518988","J=YES, F=NO","1lvwzk9nda","2","76","83","70","","","","","","","","","","","","","","","",""
"null","audio/neck.wav","null","audio-keyboard-response","200","2.1.0","519757","J=YES, F=NO","1lvwzk9nda","2","76","83","70","","","","","","","","","","","","","","","",""
"455","
          <p id=""word"" style=""font-size: 40px;"">werling</p>
          <p style=""font-size: 16px;"">J = YES &nbsp;&nbsp;&nbsp; F = NO</p>
        ","j","html-keyboard-response","201","2.1.0","520215","J=YES, F=NO","1lvwzk9nda","2","76","83","70","","","","","","","","","werling","neck","pseudoword","pseudoword","f","false","",""
"null","<p style=""font-size: 50px;"">+</p>","null","html-keyboard-response","202","2.1.0","520527","J=YES, F=NO","1lvwzk9nda","2","76","83","70","","","","","","","","","","","","","","","",""
"null","audio/beep-329314.mp3","null","audio-keyboard-response","203","2.1.0","522068","J=YES, F=NO","1lvwzk9nda","2","76","83","70","","","","","","","","","","","","","","","",""
"null","audio/pain1.wav","null","audio-keyboard-response","204","2.1.0","522518","J=YES, F=NO","1lvwzk9nda","2","76","83","70","","","","","","","","","","","","","","","",""
"783","
          <p id=""word"" style=""font-size: 40px;"">sell</p>
          <p style=""font-size: 16px;"">J = YES &nbsp;&nbsp;&nbsp; F = NO</p>
        ","f","html-keyboard-response","205","2.1.0","523303","J=YES, F=NO","1lvwzk9nda","2","76","83","70","","","","","","","","","sell","pain1","unrelated","experimental","j","false","",""
"null","<p style=""font-size: 50px;"">+</p>","null","html-keyboard-response","206","2.1.0","523606","J=YES, F=NO","1lvwzk9nda","2","76","83","70","","","","","","","","","","","","","","","",""
"null","audio/beep-329314.mp3","null","audio-keyboard-response","207","2.1.0","525148","J=YES, F=NO","1lvwzk9nda","2","76","83","70","","","","","","","","","","","","","","","",""
"null","audio/heart1.wav","null","audio-keyboard-response","208","2.1.0","525858","J=YES, F=NO","1lvwzk9nda","2","76","83","70","","","","","","","","","","","","","","","",""
"1175","
          <p id=""word"" style=""font-size: 40px;"">touch</p>
          <p style=""font-size: 16px;"">J = YES &nbsp;&nbsp;&nbsp; F = NO</p>
        ","j","html-keyboard-response","209","2.1.0","527035","J=YES, F=NO","1lvwzk9nda","2","76","83","70","","","","","","","","","touch","heart1","metaphor","experimental","j","true","",""
"null","<p style=""font-size: 50px;"">+</p>","null","html-keyboard-response","210","2.1.0","527345","J=YES, F=NO","1lvwzk9nda","2","76","83","70","","","","","","","","","","","","","","","",""
"null","audio/beep-329314.mp3","null","audio-keyboard-response","211","2.1.0","528888","J=YES, F=NO","1lvwzk9nda","2","76","83","70","","","","","","","","","","","","","","","",""
"null","audio/baby.wav","null","audio-keyboard-response","212","2.1.0","529377","J=YES, F=NO","1lvwzk9nda","2","76","83","70","","","","","","","","","","","","","","","",""
"861","
          <p id=""word"" style=""font-size: 40px;"">lift</p>
          <p style=""font-size: 16px;"">J = YES &nbsp;&nbsp;&nbsp; F = NO</p>
        ","f","html-keyboard-response","213","2.1.0","530239","J=YES, F=NO","1lvwzk9nda","2","76","83","70","","","","","","","","","lift","baby","filler","filler","j","false","",""
"null","<p style=""font-size: 50px;"">+</p>","null","html-keyboard-response","214","2.1.0","530543","J=YES, F=NO","1lvwzk9nda","2","76","83","70","","","","","","","","","","","","","","","",""
"null","audio/beep-329314.mp3","null","audio-keyboard-response","215","2.1.0","532068","J=YES, F=NO","1lvwzk9nda","2","76","83","70","","","","","","","","","","","","","","","",""
"null","audio/enemy1.wav","null","audio-keyboard-response","216","2.1.0","532577","J=YES, F=NO","1lvwzk9nda","2","76","83","70","","","","","","","","","","","","","","","",""
"1237","
          <p id=""word"" style=""font-size: 40px;"">defeat</p>
          <p style=""font-size: 16px;"">J = YES &nbsp;&nbsp;&nbsp; F = NO</p>
        ","j","html-keyboard-response","217","2.1.0","533815","J=YES, F=NO","1lvwzk9nda","2","76","83","70","","","","","","","","","defeat","enemy1","literal","experimental","j","true","",""
"null","<p style=""font-size: 50px;"">+</p>","null","html-keyboard-response","218","2.1.0","534124","J=YES, F=NO","1lvwzk9nda","2","76","83","70","","","","","","","","","","","","","","","",""
"null","audio/beep-329314.mp3","null","audio-keyboard-response","219","2.1.0","535648","J=YES, F=NO","1lvwzk9nda","2","76","83","70","","","","","","","","","","","","","","","",""
"null","audio/life1.wav","null","audio-keyboard-response","220","2.1.0","536277","J=YES, F=NO","1lvwzk9nda","2","76","83","70","","","","","","","","","","","","","","","",""
"1026","
          <p id=""word"" style=""font-size: 40px;"">flimch</p>
          <p style=""font-size: 16px;"">J = YES &nbsp;&nbsp;&nbsp; F = NO</p>
        ","j","html-keyboard-response","221","2.1.0","537304","J=YES, F=NO","1lvwzk9nda","2","76","83","70","","","","","","","","","flimch","life1","pseudoword","pseudoword","f","false","",""
"null","<p style=""font-size: 50px;"">+</p>","null","html-keyboard-response","222","2.1.0","537615","J=YES, F=NO","1lvwzk9nda","2","76","83","70","","","","","","","","","","","","","","","",""
"null","audio/beep-329314.mp3","null","audio-keyboard-response","223","2.1.0","539147","J=YES, F=NO","1lvwzk9nda","2","76","83","70","","","","","","","","","","","","","","","",""
"null","audio/age1.wav","null","audio-keyboard-response","224","2.1.0","539677","J=YES, F=NO","1lvwzk9nda","2","76","83","70","","","","","","","","","","","","","","","",""
"581","
          <p id=""word"" style=""font-size: 40px;"">lachry</p>
          <p style=""font-size: 16px;"">J = YES &nbsp;&nbsp;&nbsp; F = NO</p>
        ","f","html-keyboard-response","225","2.1.0","540259","J=YES, F=NO","1lvwzk9nda","2","76","83","70","","","","","","","","","lachry","age1","pseudoword","pseudoword","f","true","",""
"null","<p style=""font-size: 50px;"">+</p>","null","html-keyboard-response","226","2.1.0","540577","J=YES, F=NO","1lvwzk9nda","2","76","83","70","","","","","","","","","","","","","","","",""
"null","audio/beep-329314.mp3","null","audio-keyboard-response","227","2.1.0","542107","J=YES, F=NO","1lvwzk9nda","2","76","83","70","","","","","","","","","","","","","","","",""
"null","audio/menu.wav","null","audio-keyboard-response","228","2.1.0","542697","J=YES, F=NO","1lvwzk9nda","2","76","83","70","","","","","","","","","","","","","","","",""
"536","
          <p id=""word"" style=""font-size: 40px;"">slice</p>
          <p style=""font-size: 16px;"">J = YES &nbsp;&nbsp;&nbsp; F = NO</p>
        ","j","html-keyboard-response","229","2.1.0","543235","J=YES, F=NO","1lvwzk9nda","2","76","83","70","","","","","","","","","slice","menu","filler","filler","j","true","",""
"4452","<p>Excellent! You have finished block 1 of 8.</p>
                     <p>Feel free to take a 30 second break.</p>
                     <p>Press any key when you're ready to continue.</p>"," ","html-keyboard-response","230","2.1.0","547690","J=YES, F=NO","1lvwzk9nda","2","76","83","70","","","","","","","","","","","","","","","",""
"7104","<p>Starting main block 2 of 8. Press any key to continue.</p>"," ","html-keyboard-response","231","2.1.0","554795","J=YES, F=NO","1lvwzk9nda","2","76","83","70","","","","","","","","","","","","","","","",""
"null","<p style=""font-size: 50px;"">+</p>","null","html-keyboard-response","232","2.1.0","555107","J=YES, F=NO","1lvwzk9nda","2","76","83","70","","","","","","","","","","","","","","","",""
"null","audio/beep-329314.mp3","null","audio-keyboard-response","233","2.1.0","556609","J=YES, F=NO","1lvwzk9nda","2","76","83","70","","","","","","","","","","","","","","","",""
"null","audio/uncle1.wav","null","audio-keyboard-response","234","2.1.0","557128","J=YES, F=NO","1lvwzk9nda","2","76","83","70","","","","","","","","","","","","","","","",""
"1121","
          <p id=""word"" style=""font-size: 40px;"">break</p>
          <p style=""font-size: 16px;"">J = YES &nbsp;&nbsp;&nbsp; F = NO</p>
        ","j","html-keyboard-response","235","2.1.0","558249","J=YES, F=NO","1lvwzk9nda","2","76","83","70","","","","","","","","","break","uncle1","unrelated","experimental","j","true","",""
"null","<p style=""font-size: 50px;"">+</p>","null","html-keyboard-response","236","2.1.0","558565","J=YES, F=NO","1lvwzk9nda","2","76","83","70","","","","","","","","","","","","","","","",""
"null","audio/beep-329314.mp3","null","audio-keyboard-response","237","2.1.0","560089","J=YES, F=NO","1lvwzk9nda","2","76","83","70","","","","","","","","","","","","","","","",""
"null","audio/card1.wav","null","audio-keyboard-response","238","2.1.0","560649","J=YES, F=NO","1lvwzk9nda","2","76","83","70","","","","","","","","","","","","","","","",""
"618","
          <p id=""word"" style=""font-size: 40px;"">land</p>
          <p style=""font-size: 16px;"">J = YES &nbsp;&nbsp;&nbsp; F = NO</p>
        ","j","html-keyboard-response","239","2.1.0","561268","J=YES, F=NO","1lvwzk9nda","2","76","83","70","","","","","","","","","land","card1","unrelated","experimental","j","true","",""
"null","<p style=""font-size: 50px;"">+</p>","null","html-keyboard-response","240","2.1.0","561575","J=YES, F=NO","1lvwzk9nda","2","76","83","70","","","","","","","","","","","","","","","",""
"null","audio/beep-329314.mp3","null","audio-keyboard-response","241","2.1.0","563109","J=YES, F=NO","1lvwzk9nda","2","76","83","70","","","","","","","","","","","","","","","",""
"null","audio/bomb1.wav","null","audio-keyboard-response","242","2.1.0","563489","J=YES, F=NO","1lvwzk9nda","2","76","83","70","","","","","","","","","","","","","","","",""
"858","
          <p id=""word"" style=""font-size: 40px;"">drop</p>
          <p style=""font-size: 16px;"">J = YES &nbsp;&nbsp;&nbsp; F = NO</p>
        ","j","html-keyboard-response","243","2.1.0","564349","J=YES, F=NO","1lvwzk9nda","2","76","83","70","","","","","","","","","drop","bomb1","literal","experimental","j","true","",""
"null","<p style=""font-size: 50px;"">+</p>","null","html-keyboard-response","244","2.1.0","564665","J=YES, F=NO","1lvwzk9nda","2","76","83","70","","","","","","","","","","","","","","","",""
"null","audio/beep-329314.mp3","null","audio-keyboard-response","245","2.1.0","566189","J=YES, F=NO","1lvwzk9nda","2","76","83","70","","","","","","","","","","","","","","","",""
"null","audio/tomato.wav","null","audio-keyboard-response","246","2.1.0","566928","J=YES, F=NO","1lvwzk9nda","2","76","83","70","","","","","","","","","","","","","","","",""
"583","
          <p id=""word"" style=""font-size: 40px;"">grow</p>
          <p style=""font-size: 16px;"">J = YES &nbsp;&nbsp;&nbsp; F = NO</p>
        ","j","html-keyboard-response","247","2.1.0","567513","J=YES, F=NO","1lvwzk9nda","2","76","83","70","","","","","","","","","grow","tomato","literal","experimental","j","true","",""
"null","<p style=""font-size: 50px;"">+</p>","null","html-keyboard-response","248","2.1.0","567818","J=YES, F=NO","1lvwzk9nda","2","76","83","70","","","","","","","","","","","","","","","",""
"null","audio/beep-329314.mp3","null","audio-keyboard-response","249","2.1.0","569349","J=YES, F=NO","1lvwzk9nda","2","76","83","70","","","","","","","","","","","","","","","",""
"null","audio/plot1.wav","null","audio-keyboard-response","250","2.1.0","569989","J=YES, F=NO","1lvwzk9nda","2","76","83","70","","","","","","","","","","","","","","","",""
"625","
          <p id=""word"" style=""font-size: 40px;"">glenter</p>
          <p style=""font-size: 16px;"">J = YES &nbsp;&nbsp;&nbsp; F = NO</p>
        ","f","html-keyboard-response","251","2.1.0","570616","J=YES, F=NO","1lvwzk9nda","2","76","83","70","","","","","","","","","glenter","plot1","pseudoword","pseudoword","f","true","",""
"null","<p style=""font-size: 50px;"">+</p>","null","html-keyboard-response","252","2.1.0","570921","J=YES, F=NO","1lvwzk9nda","2","76","83","70","","","","","","","","","","","","","","","",""
"null","audio/beep-329314.mp3","null","audio-keyboard-response","253","2.1.0","572449","J=YES, F=NO","1lvwzk9nda","2","76","83","70","","","","","","","","","","","","","","","",""
"null","audio/effort.wav","null","audio-keyboard-response","254","2.1.0","573089","J=YES, F=NO","1lvwzk9nda","2","76","83","70","","","","","","","","","","","","","","","",""
"645","
          <p id=""word"" style=""font-size: 40px;"">whonk</p>
          <p style=""font-size: 16px;"">J = YES &nbsp;&nbsp;&nbsp; F = NO</p>
        ","f","html-keyboard-response","255","2.1.0","573735","J=YES, F=NO","1lvwzk9nda","2","76","83","70","","","","","","","","","whonk","effort","pseudoword","pseudoword","f","true","",""
"null","<p style=""font-size: 50px;"">+</p>","null","html-keyboard-response","256","2.1.0","574046","J=YES, F=NO","1lvwzk9nda","2","76","83","70","","","","","","","","","","","","","","","",""
"null","audio/beep-329314.mp3","null","audio-keyboard-response","257","2.1.0","575570","J=YES, F=NO","1lvwzk9nda","2","76","83","70","","","","","","","","","","","","","","","",""
"null","audio/floor.wav","null","audio-keyboard-response","258","2.1.0","576109","J=YES, F=NO","1lvwzk9nda","2","76","83","70","","","","","","","","","","","","","","","",""
"445","
          <p id=""word"" style=""font-size: 40px;"">cover</p>
          <p style=""font-size: 16px;"">J = YES &nbsp;&nbsp;&nbsp; F = NO</p>
        ","j","html-keyboard-response","259","2.1.0","576556","J=YES, F=NO","1lvwzk9nda","2","76","83","70","","","","","","","","","cover","floor","literal","experimental","j","true","",""
"null","<p style=""font-size: 50px;"">+</p>","null","html-keyboard-response","260","2.1.0","576862","J=YES, F=NO","1lvwzk9nda","2","76","83","70","","","","","","","","","","","","","","","",""
"null","audio/beep-329314.mp3","null","audio-keyboard-response","261","2.1.0","578389","J=YES, F=NO","1lvwzk9nda","2","76","83","70","","","","","","","","","","","","","","","",""
"null","audio/mirror1.wav","null","audio-keyboard-response","262","2.1.0","578829","J=YES, F=NO","1lvwzk9nda","2","76","83","70","","","","","","","","","","","","","","","",""
"780","
          <p id=""word"" style=""font-size: 40px;"">fight</p>
          <p style=""font-size: 16px;"">J = YES &nbsp;&nbsp;&nbsp; F = NO</p>
        ","f","html-keyboard-response","263","2.1.0","579610","J=YES, F=NO","1lvwzk9nda","2","76","83","70","","","","","","","","","fight","mirror1","unrelated","experimental","j","false","",""
"null","<p style=""font-size: 50px;"">+</p>","null","html-keyboard-response","264","2.1.0","579915","J=YES, F=NO","1lvwzk9nda","2","76","83","70","","","","","","","","","","","","","","","",""
"null","audio/beep-329314.mp3","null","audio-keyboard-response","265","2.1.0","581449","J=YES, F=NO","1lvwzk9nda","2","76","83","70","","","","","","","","","","","","","","","",""
"null","audio/brain.wav","null","audio-keyboard-response","266","2.1.0","581988","J=YES, F=NO","1lvwzk9nda","2","76","83","70","","","","","","","","","","","","","","","",""
"892","
          <p id=""word"" style=""font-size: 40px;"">flood</p>
          <p style=""font-size: 16px;"">J = YES &nbsp;&nbsp;&nbsp; F = NO</p>
        ","j","html-keyboard-response","267","2.1.0","582881","J=YES, F=NO","1lvwzk9nda","2","76","83","70","","","","","","","","","flood","brain","metaphor","experimental","j","true","",""
"null","<p style=""font-size: 50px;"">+</p>","null","html-keyboard-response","268","2.1.0","583190","J=YES, F=NO","1lvwzk9nda","2","76","83","70","","","","","","","","","","","","","","","",""
"null","audio/beep-329314.mp3","null","audio-keyboard-response","269","2.1.0","584729","J=YES, F=NO","1lvwzk9nda","2","76","83","70","","","","","","","","","","","","","","","",""
"null","audio/breath.wav","null","audio-keyboard-response","270","2.1.0","585349","J=YES, F=NO","1lvwzk9nda","2","76","83","70","","","","","","","","","","","","","","","",""
"502","
          <p id=""word"" style=""font-size: 40px;"">pack</p>
          <p style=""font-size: 16px;"">J = YES &nbsp;&nbsp;&nbsp; F = NO</p>
        ","f","html-keyboard-response","271","2.1.0","585853","J=YES, F=NO","1lvwzk9nda","2","76","83","70","","","","","","","","","pack","breath","filler","filler","j","false","",""
"null","<p style=""font-size: 50px;"">+</p>","null","html-keyboard-response","272","2.1.0","586170","J=YES, F=NO","1lvwzk9nda","2","76","83","70","","","","","","","","","","","","","","","",""
"null","audio/beep-329314.mp3","null","audio-keyboard-response","273","2.1.0","587709","J=YES, F=NO","1lvwzk9nda","2","76","83","70","","","","","","","","","","","","","","","",""
"null","audio/ego.wav","null","audio-keyboard-response","274","2.1.0","588269","J=YES, F=NO","1lvwzk9nda","2","76","83","70","","","","","","","","","","","","","","","",""
"1050","
          <p id=""word"" style=""font-size: 40px;"">feed</p>
          <p style=""font-size: 16px;"">J = YES &nbsp;&nbsp;&nbsp; F = NO</p>
        ","j","html-keyboard-response","275","2.1.0","589321","J=YES, F=NO","1lvwzk9nda","2","76","83","70","","","","","","","","","feed","ego","metaphor","experimental","j","true","",""
"null","<p style=""font-size: 50px;"">+</p>","null","html-keyboard-response","276","2.1.0","589635","J=YES, F=NO","1lvwzk9nda","2","76","83","70","","","","","","","","","","","","","","","",""
"null","audio/beep-329314.mp3","null","audio-keyboard-response","277","2.1.0","591169","J=YES, F=NO","1lvwzk9nda","2","76","83","70","","","","","","","","","","","","","","","",""
"null","audio/cave1.wav","null","audio-keyboard-response","278","2.1.0","591769","J=YES, F=NO","1lvwzk9nda","2","76","83","70","","","","","","","","","","","","","","","",""
"1072","
          <p id=""word"" style=""font-size: 40px;"">blacket</p>
          <p style=""font-size: 16px;"">J = YES &nbsp;&nbsp;&nbsp; F = NO</p>
        ","f","html-keyboard-response","279","2.1.0","592843","J=YES, F=NO","1lvwzk9nda","2","76","83","70","","","","","","","","","blacket","cave1","pseudoword","pseudoword","f","true","",""
"null","<p style=""font-size: 50px;"">+</p>","null","html-keyboard-response","280","2.1.0","593154","J=YES, F=NO","1lvwzk9nda","2","76","83","70","","","","","","","","","","","","","","","",""
"null","audio/beep-329314.mp3","null","audio-keyboard-response","281","2.1.0","594689","J=YES, F=NO","1lvwzk9nda","2","76","83","70","","","","","","","","","","","","","","","",""
"null","audio/alarm1.wav","null","audio-keyboard-response","282","2.1.0","595268","J=YES, F=NO","1lvwzk9nda","2","76","83","70","","","","","","","","","","","","","","","",""
"455","
          <p id=""word"" style=""font-size: 40px;"">lock</p>
          <p style=""font-size: 16px;"">J = YES &nbsp;&nbsp;&nbsp; F = NO</p>
        ","j","html-keyboard-response","283","2.1.0","595725","J=YES, F=NO","1lvwzk9nda","2","76","83","70","","","","","","","","","lock","alarm1","filler","filler","j","true","",""
"null","<p style=""font-size: 50px;"">+</p>","null","html-keyboard-response","284","2.1.0","596037","J=YES, F=NO","1lvwzk9nda","2","76","83","70","","","","","","","","","","","","","","","",""
"null","audio/beep-329314.mp3","null","audio-keyboard-response","285","2.1.0","597569","J=YES, F=NO","1lvwzk9nda","2","76","83","70","","","","","","","","","","","","","","","",""
"null","audio/terrain.wav","null","audio-keyboard-response","286","2.1.0","598208","J=YES, F=NO","1lvwzk9nda","2","76","83","70","","","","","","","","","","","","","","","",""
"824","
          <p id=""word"" style=""font-size: 40px;"">twist</p>
          <p style=""font-size: 16px;"">J = YES &nbsp;&nbsp;&nbsp; F = NO</p>
        ","f","html-keyboard-response","287","2.1.0","599034","J=YES, F=NO","1lvwzk9nda","2","76","83","70","","","","","","","","","twist","terrain","filler","filler","j","false","",""
"null","<p style=""font-size: 50px;"">+</p>","null","html-keyboard-response","288","2.1.0","599347","J=YES, F=NO","1lvwzk9nda","2","76","83","70","","","","","","","","","","","","","","","",""
"null","audio/beep-329314.mp3","null","audio-keyboard-response","289","2.1.0","600889","J=YES, F=NO","1lvwzk9nda","2","76","83","70","","","","","","","","","","","","","","","",""
"null","audio/table1.wav","null","audio-keyboard-response","290","2.1.0","601429","J=YES, F=NO","1lvwzk9nda","2","76","83","70","","","","","","","","","","","","","","","",""
"669","
          <p id=""word"" style=""font-size: 40px;"">stimb</p>
          <p style=""font-size: 16px;"">J = YES &nbsp;&nbsp;&nbsp; F = NO</p>
        ","f","html-keyboard-response","291","2.1.0","602099","J=YES, F=NO","1lvwzk9nda","2","76","83","70","","","","","","","","","stimb","table1","pseudoword","pseudoword","f","true","",""
"null","<p style=""font-size: 50px;"">+</p>","null","html-keyboard-response","292","2.1.0","602416","J=YES, F=NO","1lvwzk9nda","2","76","83","70","","","","","","","","","","","","","","","",""
"null","audio/beep-329314.mp3","null","audio-keyboard-response","293","2.1.0","603949","J=YES, F=NO","1lvwzk9nda","2","76","83","70","","","","","","","","","","","","","","","",""
"null","audio/pine.wav","null","audio-keyboard-response","294","2.1.0","604489","J=YES, F=NO","1lvwzk9nda","2","76","83","70","","","","","","","","","","","","","","","",""
"493","
          <p id=""word"" style=""font-size: 40px;"">crebble</p>
          <p style=""font-size: 16px;"">J = YES &nbsp;&nbsp;&nbsp; F = NO</p>
        ","j","html-keyboard-response","295","2.1.0","604983","J=YES, F=NO","1lvwzk9nda","2","76","83","70","","","","","","","","","crebble","pine","pseudoword","pseudoword","f","false","",""
"1436","<p>Excellent! You have finished block 2 of 8.</p>
                     <p>Feel free to take a 30 second break.</p>
                     <p>Press any key when you're ready to continue.</p>"," ","html-keyboard-response","296","2.1.0","606421","J=YES, F=NO","1lvwzk9nda","2","76","83","70","","","","","","","","","","","","","","","",""
"332","<p>Starting main block 3 of 8. Press any key to continue.</p>"," ","html-keyboard-response","297","2.1.0","606754","J=YES, F=NO","1lvwzk9nda","2","76","83","70","","","","","","","","","","","","","","","",""
"null","<p style=""font-size: 50px;"">+</p>","null","html-keyboard-response","298","2.1.0","607062","J=YES, F=NO","1lvwzk9nda","2","76","83","70","","","","","","","","","","","","","","","",""
"null","audio/beep-329314.mp3","null","audio-keyboard-response","299","2.1.0","608588","J=YES, F=NO","1lvwzk9nda","2","76","83","70","","","","","","","","","","","","","","","",""
"null","audio/brain.wav","null","audio-keyboard-response","300","2.1.0","609068","J=YES, F=NO","1lvwzk9nda","2","76","83","70","","","","","","","","","","","","","","","",""
"962","
          <p id=""word"" style=""font-size: 40px;"">throw</p>
          <p style=""font-size: 16px;"">J = YES &nbsp;&nbsp;&nbsp; F = NO</p>
        ","j","html-keyboard-response","301","2.1.0","610032","J=YES, F=NO","1lvwzk9nda","2","76","83","70","","","","","","","","","throw","brain","filler","filler","j","true","",""
"null","<p style=""font-size: 50px;"">+</p>","null","html-keyboard-response","302","2.1.0","610346","J=YES, F=NO","1lvwzk9nda","2","76","83","70","","","","","","","","","","","","","","","",""
"null","audio/beep-329314.mp3","null","audio-keyboard-response","303","2.1.0","611869","J=YES, F=NO","1lvwzk9nda","2","76","83","70","","","","","","","","","","","","","","","",""
"null","audio/bottle.wav","null","audio-keyboard-response","304","2.1.0","612529","J=YES, F=NO","1lvwzk9nda","2","76","83","70","","","","","","","","","","","","","","","",""
"514","
          <p id=""word"" style=""font-size: 40px;"">open</p>
          <p style=""font-size: 16px;"">J = YES &nbsp;&nbsp;&nbsp; F = NO</p>
        ","j","html-keyboard-response","305","2.1.0","613045","J=YES, F=NO","1lvwzk9nda","2","76","83","70","","","","","","","","","open","bottle","literal","experimental","j","true","",""
"null","<p style=""font-size: 50px;"">+</p>","null","html-keyboard-response","306","2.1.0","613350","J=YES, F=NO","1lvwzk9nda","2","76","83","70","","","","","","","","","","","","","","","",""
"null","audio/beep-329314.mp3","null","audio-keyboard-response","307","2.1.0","614888","J=YES, F=NO","1lvwzk9nda","2","76","83","70","","","","","","","","","","","","","","","",""
"null","audio/gossip1.wav","null","audio-keyboard-response","308","2.1.0","615789","J=YES, F=NO","1lvwzk9nda","2","76","83","70","","","","","","","","","","","","","","","",""
"393","
          <p id=""word"" style=""font-size: 40px;"">camerish</p>
          <p style=""font-size: 16px;"">J = YES &nbsp;&nbsp;&nbsp; F = NO</p>
        ","f","html-keyboard-response","309","2.1.0","616184","J=YES, F=NO","1lvwzk9nda","2","76","83","70","","","","","","","","","camerish","gossip1","pseudoword","pseudoword","f","true","",""
"null","<p style=""font-size: 50px;"">+</p>","null","html-keyboard-response","310","2.1.0","616496","J=YES, F=NO","1lvwzk9nda","2","76","83","70","","","","","","","","","","","","","","","",""
"null","audio/beep-329314.mp3","null","audio-keyboard-response","311","2.1.0","618029","J=YES, F=NO","1lvwzk9nda","2","76","83","70","","","","","","","","","","","","","","","",""
"null","audio/budget1.wav","null","audio-keyboard-response","312","2.1.0","618688","J=YES, F=NO","1lvwzk9nda","2","76","83","70","","","","","","","","","","","","","","","",""
"319","
          <p id=""word"" style=""font-size: 40px;"">sulist</p>
          <p style=""font-size: 16px;"">J = YES &nbsp;&nbsp;&nbsp; F = NO</p>
        ","j","html-keyboard-response","313","2.1.0","619009","J=YES, F=NO","1lvwzk9nda","2","76","83","70","","","","","","","","","sulist","budget1","pseudoword","pseudoword","f","false","",""
"null","<p style=""font-size: 50px;"">+</p>","null","html-keyboard-response","314","2.1.0","619326","J=YES, F=NO","1lvwzk9nda","2","76","83","70","","","","","","","","","","","","","","","",""
"null","audio/beep-329314.mp3","null","audio-keyboard-response","315","2.1.0","620869","J=YES, F=NO","1lvwzk9nda","2","76","83","70","","","","","","","","","","","","","","","",""
"null","audio/street.wav","null","audio-keyboard-response","316","2.1.0","621569","J=YES, F=NO","1lvwzk9nda","2","76","83","70","","","","","","","","","","","","","","","",""
"748","
          <p id=""word"" style=""font-size: 40px;"">hold</p>
          <p style=""font-size: 16px;"">J = YES &nbsp;&nbsp;&nbsp; F = NO</p>
        ","j","html-keyboard-response","317","2.1.0","622318","J=YES, F=NO","1lvwzk9nda","2","76","83","70","","","","","","","","","hold","street","unrelated","experimental","j","true","",""
"null","<p style=""font-size: 50px;"">+</p>","null","html-keyboard-response","318","2.1.0","622632","J=YES, F=NO","1lvwzk9nda","2","76","83","70","","","","","","","","","","","","","","","",""
"null","audio/beep-329314.mp3","null","audio-keyboard-response","319","2.1.0","624169","J=YES, F=NO","1lvwzk9nda","2","76","83","70","","","","","","","","","","","","","","","",""
"null","audio/hawk1.wav","null","audio-keyboard-response","320","2.1.0","624969","J=YES, F=NO","1lvwzk9nda","2","76","83","70","","","","","","","","","","","","","","","",""
"626","
          <p id=""word"" style=""font-size: 40px;"">ostach</p>
          <p style=""font-size: 16px;"">J = YES &nbsp;&nbsp;&nbsp; F = NO</p>
        ","f","html-keyboard-response","321","2.1.0","625597","J=YES, F=NO","1lvwzk9nda","2","76","83","70","","","","","","","","","ostach","hawk1","pseudoword","pseudoword","f","true","",""
"null","<p style=""font-size: 50px;"">+</p>","null","html-keyboard-response","322","2.1.0","625899","J=YES, F=NO","1lvwzk9nda","2","76","83","70","","","","","","","","","","","","","","","",""
"null","audio/beep-329314.mp3","null","audio-keyboard-response","323","2.1.0","627429","J=YES, F=NO","1lvwzk9nda","2","76","83","70","","","","","","","","","","","","","","","",""
"null","audio/fortune1.wav","null","audio-keyboard-response","324","2.1.0","628429","J=YES, F=NO","1lvwzk9nda","2","76","83","70","","","","","","","","","","","","","","","",""
"700","
          <p id=""word"" style=""font-size: 40px;"">spend</p>
          <p style=""font-size: 16px;"">J = YES &nbsp;&nbsp;&nbsp; F = NO</p>
        ","j","html-keyboard-response","325","2.1.0","629130","J=YES, F=NO","1lvwzk9nda","2","76","83","70","","","","","","","","","spend","fortune1","literal","experimental","j","true","",""
"null","<p style=""font-size: 50px;"">+</p>","null","html-keyboard-response","326","2.1.0","629445","J=YES, F=NO","1lvwzk9nda","2","76","83","70","","","","","","","","","","","","","","","",""
"null","audio/beep-329314.mp3","null","audio-keyboard-response","327","2.1.0","630969","J=YES, F=NO","1lvwzk9nda","2","76","83","70","","","","","","","","","","","","","","","",""
"null","audio/mile1.wav","null","audio-keyboard-response","328","2.1.0","631528","J=YES, F=NO","1lvwzk9nda","2","76","83","70","","","","","","","","","","","","","","","",""
"798","
          <p id=""word"" style=""font-size: 40px;"">writch</p>
          <p style=""font-size: 16px;"">J = YES &nbsp;&nbsp;&nbsp; F = NO</p>
        ","f","html-keyboard-response","329","2.1.0","632328","J=YES, F=NO","1lvwzk9nda","2","76","83","70","","","","","","","","","writch","mile1","pseudoword","pseudoword","f","true","",""
"null","<p style=""font-size: 50px;"">+</p>","null","html-keyboard-response","330","2.1.0","632632","J=YES, F=NO","1lvwzk9nda","2","76","83","70","","","","","","","","","","","","","","","",""
"null","audio/beep-329314.mp3","null","audio-keyboard-response","331","2.1.0","634169","J=YES, F=NO","1lvwzk9nda","2","76","83","70","","","","","","","","","","","","","","","",""
"null","audio/empire.wav","null","audio-keyboard-response","332","2.1.0","634809","J=YES, F=NO","1lvwzk9nda","2","76","83","70","","","","","","","","","","","","","","","",""
"443","
          <p id=""word"" style=""font-size: 40px;"">bring</p>
          <p style=""font-size: 16px;"">J = YES &nbsp;&nbsp;&nbsp; F = NO</p>
        ","j","html-keyboard-response","333","2.1.0","635253","J=YES, F=NO","1lvwzk9nda","2","76","83","70","","","","","","","","","bring","empire","unrelated","experimental","j","true","",""
"null","<p style=""font-size: 50px;"">+</p>","null","html-keyboard-response","334","2.1.0","635568","J=YES, F=NO","1lvwzk9nda","2","76","83","70","","","","","","","","","","","","","","","",""
"null","audio/beep-329314.mp3","null","audio-keyboard-response","335","2.1.0","637109","J=YES, F=NO","1lvwzk9nda","2","76","83","70","","","","","","","","","","","","","","","",""
"null","audio/breath.wav","null","audio-keyboard-response","336","2.1.0","637668","J=YES, F=NO","1lvwzk9nda","2","76","83","70","","","","","","","","","","","","","","","",""
"945","
          <p id=""word"" style=""font-size: 40px;"">construct</p>
          <p style=""font-size: 16px;"">J = YES &nbsp;&nbsp;&nbsp; F = NO</p>
        ","j","html-keyboard-response","337","2.1.0","638615","J=YES, F=NO","1lvwzk9nda","2","76","83","70","","","","","","","","","construct","breath","unrelated","experimental","j","true","",""
"null","<p style=""font-size: 50px;"">+</p>","null","html-keyboard-response","338","2.1.0","638919","J=YES, F=NO","1lvwzk9nda","2","76","83","70","","","","","","","","","","","","","","","",""
"null","audio/beep-329314.mp3","null","audio-keyboard-response","339","2.1.0","640449","J=YES, F=NO","1lvwzk9nda","2","76","83","70","","","","","","","","","","","","","","","",""
"null","audio/topic.wav","null","audio-keyboard-response","340","2.1.0","641069","J=YES, F=NO","1lvwzk9nda","2","76","83","70","","","","","","","","","","","","","","","",""
"722","
          <p id=""word"" style=""font-size: 40px;"">infortuitist</p>
          <p style=""font-size: 16px;"">J = YES &nbsp;&nbsp;&nbsp; F = NO</p>
        ","j","html-keyboard-response","341","2.1.0","641792","J=YES, F=NO","1lvwzk9nda","2","76","83","70","","","","","","","","","infortuitist","topic","pseudoword","pseudoword","f","false","",""
"null","<p style=""font-size: 50px;"">+</p>","null","html-keyboard-response","342","2.1.0","642110","J=YES, F=NO","1lvwzk9nda","2","76","83","70","","","","","","","","","","","","","","","",""
"null","audio/beep-329314.mp3","null","audio-keyboard-response","343","2.1.0","643648","J=YES, F=NO","1lvwzk9nda","2","76","83","70","","","","","","","","","","","","","","","",""
"null","audio/test1.wav","null","audio-keyboard-response","344","2.1.0","644288","J=YES, F=NO","1lvwzk9nda","2","76","83","70","","","","","","","","","","","","","","","",""
"363","
          <p id=""word"" style=""font-size: 40px;"">twopch</p>
          <p style=""font-size: 16px;"">J = YES &nbsp;&nbsp;&nbsp; F = NO</p>
        ","j","html-keyboard-response","345","2.1.0","644654","J=YES, F=NO","1lvwzk9nda","2","76","83","70","","","","","","","","","twopch","test1","pseudoword","pseudoword","f","false","",""
"null","<p style=""font-size: 50px;"">+</p>","null","html-keyboard-response","346","2.1.0","644965","J=YES, F=NO","1lvwzk9nda","2","76","83","70","","","","","","","","","","","","","","","",""
"null","audio/beep-329314.mp3","null","audio-keyboard-response","347","2.1.0","646489","J=YES, F=NO","1lvwzk9nda","2","76","83","70","","","","","","","","","","","","","","","",""
"null","audio/menu.wav","null","audio-keyboard-response","348","2.1.0","647049","J=YES, F=NO","1lvwzk9nda","2","76","83","70","","","","","","","","","","","","","","","",""
"338","
          <p id=""word"" style=""font-size: 40px;"">navigate</p>
          <p style=""font-size: 16px;"">J = YES &nbsp;&nbsp;&nbsp; F = NO</p>
        ","j","html-keyboard-response","349","2.1.0","647388","J=YES, F=NO","1lvwzk9nda","2","76","83","70","","","","","","","","","navigate","menu","metaphor","experimental","j","true","",""
"null","<p style=""font-size: 50px;"">+</p>","null","html-keyboard-response","350","2.1.0","647695","J=YES, F=NO","1lvwzk9nda","2","76","83","70","","","","","","","","","","","","","","","",""
"null","audio/beep-329314.mp3","null","audio-keyboard-response","351","2.1.0","649229","J=YES, F=NO","1lvwzk9nda","2","76","83","70","","","","","","","","","","","","","","","",""
"null","audio/golf1.wav","null","audio-keyboard-response","352","2.1.0","649848","J=YES, F=NO","1lvwzk9nda","2","76","83","70","","","","","","","","","","","","","","","",""
"317","
          <p id=""word"" style=""font-size: 40px;"">bury</p>
          <p style=""font-size: 16px;"">J = YES &nbsp;&nbsp;&nbsp; F = NO</p>
        ","j","html-keyboard-response","353","2.1.0","650167","J=YES, F=NO","1lvwzk9nda","2","76","83","70","","","","","","","","","bury","golf1","unrelated","experimental","j","true","",""
"null","<p style=""font-size: 50px;"">+</p>","null","html-keyboard-response","354","2.1.0","650470","J=YES, F=NO","1lvwzk9nda","2","76","83","70","","","","","","","","","","","","","","","",""
"null","audio/beep-329314.mp3","null","audio-keyboard-response","355","2.1.0","652009","J=YES, F=NO","1lvwzk9nda","2","76","83","70","","","","","","","","","","","","","","","",""
"null","audio/prisoner.wav","null","audio-keyboard-response","356","2.1.0","652569","J=YES, F=NO","1lvwzk9nda","2","76","83","70","","","","","","","","","","","","","","","",""
"362","
          <p id=""word"" style=""font-size: 40px;"">egotian</p>
          <p style=""font-size: 16px;"">J = YES &nbsp;&nbsp;&nbsp; F = NO</p>
        ","f","html-keyboard-response","357","2.1.0","652932","J=YES, F=NO","1lvwzk9nda","2","76","83","70","","","","","","","","","egotian","prisoner","pseudoword","pseudoword","f","true","",""
"null","<p style=""font-size: 50px;"">+</p>","null","html-keyboard-response","358","2.1.0","653246","J=YES, F=NO","1lvwzk9nda","2","76","83","70","","","","","","","","","","","","","","","",""
"null","audio/beep-329314.mp3","null","audio-keyboard-response","359","2.1.0","654788","J=YES, F=NO","1lvwzk9nda","2","76","83","70","","","","","","","","","","","","","","","",""
"null","audio/vehicle1.wav","null","audio-keyboard-response","360","2.1.0","655489","J=YES, F=NO","1lvwzk9nda","2","76","83","70","","","","","","","","","","","","","","","",""
"396","
          <p id=""word"" style=""font-size: 40px;"">dropt</p>
          <p style=""font-size: 16px;"">J = YES &nbsp;&nbsp;&nbsp; F = NO</p>
        ","f","html-keyboard-response","361","2.1.0","655886","J=YES, F=NO","1lvwzk9nda","2","76","83","70","","","","","","","","","dropt","vehicle1","pseudoword","pseudoword","f","true","",""
"977","<p>Excellent! You have finished block 3 of 8.</p>
                     <p>Feel free to take a 30 second break.</p>
                     <p>Press any key when you're ready to continue.</p>"," ","html-keyboard-response","362","2.1.0","656865","J=YES, F=NO","1lvwzk9nda","2","76","83","70","","","","","","","","","","","","","","","",""
"337","<p>Starting main block 4 of 8. Press any key to continue.</p>"," ","html-keyboard-response","363","2.1.0","657203","J=YES, F=NO","1lvwzk9nda","2","76","83","70","","","","","","","","","","","","","","","",""
"null","<p style=""font-size: 50px;"">+</p>","null","html-keyboard-response","364","2.1.0","657506","J=YES, F=NO","1lvwzk9nda","2","76","83","70","","","","","","","","","","","","","","","",""
"null","audio/beep-329314.mp3","null","audio-keyboard-response","365","2.1.0","659049","J=YES, F=NO","1lvwzk9nda","2","76","83","70","","","","","","","","","","","","","","","",""
"null","audio/pig.wav","null","audio-keyboard-response","366","2.1.0","659449","J=YES, F=NO","1lvwzk9nda","2","76","83","70","","","","","","","","","","","","","","","",""
"552","
          <p id=""word"" style=""font-size: 40px;"">tirlike</p>
          <p style=""font-size: 16px;"">J = YES &nbsp;&nbsp;&nbsp; F = NO</p>
        ","j","html-keyboard-response","367","2.1.0","660003","J=YES, F=NO","1lvwzk9nda","2","76","83","70","","","","","","","","","tirlike","pig","pseudoword","pseudoword","f","false","",""
"null","<p style=""font-size: 50px;"">+</p>","null","html-keyboard-response","368","2.1.0","660311","J=YES, F=NO","1lvwzk9nda","2","76","83","70","","","","","","","","","","","","","","","",""
"null","audio/beep-329314.mp3","null","audio-keyboard-response","369","2.1.0","661849","J=YES, F=NO","1lvwzk9nda","2","76","83","70","","","","","","","","","","","","","","","",""
"null","audio/wool1.wav","null","audio-keyboard-response","370","2.1.0","662228","J=YES, F=NO","1lvwzk9nda","2","76","83","70","","","","","","","","","","","","","","","",""
"675","
          <p id=""word"" style=""font-size: 40px;"">weave</p>
          <p style=""font-size: 16px;"">J = YES &nbsp;&nbsp;&nbsp; F = NO</p>
        ","f","html-keyboard-response","371","2.1.0","662905","J=YES, F=NO","1lvwzk9nda","2","76","83","70","","","","","","","","","weave","wool1","literal","experimental","j","false","",""
"null","<p style=""font-size: 50px;"">+</p>","null","html-keyboard-response","372","2.1.0","663218","J=YES, F=NO","1lvwzk9nda","2","76","83","70","","","","","","","","","","","","","","","",""
"null","audio/beep-329314.mp3","null","audio-keyboard-response","373","2.1.0","664749","J=YES, F=NO","1lvwzk9nda","2","76","83","70","","","","","","","","","","","","","","","",""
"null","audio/breath.wav","null","audio-keyboard-response","374","2.1.0","665308","J=YES, F=NO","1lvwzk9nda","2","76","83","70","","","","","","","","","","","","","","","",""
"306","
          <p id=""word"" style=""font-size: 40px;"">twets</p>
          <p style=""font-size: 16px;"">J = YES &nbsp;&nbsp;&nbsp; F = NO</p>
        ","f","html-keyboard-response","375","2.1.0","665616","J=YES, F=NO","1lvwzk9nda","2","76","83","70","","","","","","","","","twets","breath","pseudoword","pseudoword","f","true","",""
"null","<p style=""font-size: 50px;"">+</p>","null","html-keyboard-response","376","2.1.0","665925","J=YES, F=NO","1lvwzk9nda","2","76","83","70","","","","","","","","","","","","","","","",""
"null","audio/beep-329314.mp3","null","audio-keyboard-response","377","2.1.0","667449","J=YES, F=NO","1lvwzk9nda","2","76","83","70","","","","","","","","","","","","","","","",""
"null","audio/news.wav","null","audio-keyboard-response","378","2.1.0","668147","J=YES, F=NO","1lvwzk9nda","2","76","83","70","","","","","","","","","","","","","","","",""
"310","
          <p id=""word"" style=""font-size: 40px;"">digest</p>
          <p style=""font-size: 16px;"">J = YES &nbsp;&nbsp;&nbsp; F = NO</p>
        ","f","html-keyboard-response","379","2.1.0","668458","J=YES, F=NO","1lvwzk9nda","2","76","83","70","","","","","","","","","digest","news","metaphor","experimental","j","false","",""
"null","<p style=""font-size: 50px;"">+</p>","null","html-keyboard-response","380","2.1.0","668772","J=YES, F=NO","1lvwzk9nda","2","76","83","70","","","","","","","","","","","","","","","",""
"null","audio/beep-329314.mp3","null","audio-keyboard-response","381","2.1.0","670309","J=YES, F=NO","1lvwzk9nda","2","76","83","70","","","","","","","","","","","","","","","",""
"null","audio/garden1.wav","null","audio-keyboard-response","382","2.1.0","671089","J=YES, F=NO","1lvwzk9nda","2","76","83","70","","","","","","","","","","","","","","","",""
"454","
          <p id=""word"" style=""font-size: 40px;"">invest</p>
          <p style=""font-size: 16px;"">J = YES &nbsp;&nbsp;&nbsp; F = NO</p>
        ","j","html-keyboard-response","383","2.1.0","671545","J=YES, F=NO","1lvwzk9nda","2","76","83","70","","","","","","","","","invest","garden1","unrelated","experimental","j","true","",""
"null","<p style=""font-size: 50px;"">+</p>","null","html-keyboard-response","384","2.1.0","671847","J=YES, F=NO","1lvwzk9nda","2","76","83","70","","","","","","","","","","","","","","","",""
"null","audio/beep-329314.mp3","null","audio-keyboard-response","385","2.1.0","673389","J=YES, F=NO","1lvwzk9nda","2","76","83","70","","","","","","","","","","","","","","","",""
"null","audio/foe1.wav","null","audio-keyboard-response","386","2.1.0","673949","J=YES, F=NO","1lvwzk9nda","2","76","83","70","","","","","","","","","","","","","","","",""
"616","
          <p id=""word"" style=""font-size: 40px;"">creth</p>
          <p style=""font-size: 16px;"">J = YES &nbsp;&nbsp;&nbsp; F = NO</p>
        ","f","html-keyboard-response","387","2.1.0","674566","J=YES, F=NO","1lvwzk9nda","2","76","83","70","","","","","","","","","creth","foe1","pseudoword","pseudoword","f","true","",""
"null","<p style=""font-size: 50px;"">+</p>","null","html-keyboard-response","388","2.1.0","674873","J=YES, F=NO","1lvwzk9nda","2","76","83","70","","","","","","","","","","","","","","","",""
"null","audio/beep-329314.mp3","null","audio-keyboard-response","389","2.1.0","676409","J=YES, F=NO","1lvwzk9nda","2","76","83","70","","","","","","","","","","","","","","","",""
"null","audio/cancer1.wav","null","audio-keyboard-response","390","2.1.0","677249","J=YES, F=NO","1lvwzk9nda","2","76","83","70","","","","","","","","","","","","","","","",""
"730","
          <p id=""word"" style=""font-size: 40px;"">draw</p>
          <p style=""font-size: 16px;"">J = YES &nbsp;&nbsp;&nbsp; F = NO</p>
