"rt","stimulus","response","trial_type","trial_index","plugin_version","time_elapsed","response_mapping","subject_id","list_index","lextale_score","lextale_word_score","lextale_nonword_score","success","timeout","failed_images","failed_audio","failed_video","task","isWord","isDummy","target","prime","prime_type","stimulus_type","correct_response","correct","section","question_order"
"3772","
    <div style=""max-width: 800px; margin: auto; text-align: left;"">
      <h2>STANFORD UNIVERSITY</h2>
      <h3>Research Information Sheet</h3>
      <p><strong>Protocol Director:</strong> Robert Hawkins<br>
      <strong>Protocol Title:</strong> Communication and social cognition in natural audiovisual contexts<br>
      <strong>IRB#:</strong> 77226</p>

      <p><strong>DESCRIPTION:</strong> You are invited to participate in a research study about language and communication. The purpose of the research is to understand how you interact and communicate with other people in naturalistic settings as a fluent English speaker. This research will be conducted through the Prolific platform, including participants from the US, UK, and Canada. If you decide to participate in this research, you will play a communication game in a group with one or more partners.</p>

      <p><strong>TIME INVOLVEMENT:</strong> The task will last the amount of time advertised on Prolific. You are free to withdraw from the study at any time.</p>

      <p><strong>RISKS AND BENEFITS:</strong> You may become frustrated if your partner gets distracted, or experience discomfort if other participants in your group send text that is inappropriate for the task. We ask you to please be respectful of other participants you might be interacting with to mitigate these risks. You may also experience discomfort when being asked to discuss or challenge emotionally salient political beliefs. Study data will be stored securely, in compliance with Stanford University standards, minimizing the risk of confidentiality breach. This study advances our scientific understanding of how people communicate and collaborate in naturalistic settings. This study may lead to further insights about what can go wrong in teamwork, suggest potential interventions to overcome these barriers, and help to develop assistive technologies that collaborate with human partners. We cannot and do not guarantee or promise that you will receive any benefits from this study.</p>

      <p><strong>PAYMENTS:</strong> You will receive payment in the amount advertised on Prolific. If you do not complete this study, you will receive prorated payment based on the time that you have spent. Additionally, you may be eligible for bonus payments as described in the instructions.</p>

      <p><strong>PARTICIPANT’S RIGHTS:</strong> If you have read this form and have decided to participate in this project, please understand your participation is voluntary and you have the right to withdraw your consent or discontinue participation at any time without penalty or loss of benefits to which you are otherwise entitled. The alternative is not to participate. You have the right to refuse to answer particular questions. The results of this research study may be presented at scientific or professional meetings or published in scientific journals. Your individual privacy will be maintained in all published and written data resulting from the study. In accordance with scientific norms, the data from this study may be used or shared with other researchers for future research (after removing personally identifying information) without additional consent from you.</p>

      <p><strong>CONTACT INFORMATION:</strong><br>
      Questions: If you have any questions, concerns or complaints about this research, its procedures, risks and benefits, contact the Protocol Director, Robert Hawkins (<a href=""mailto:rdhawkins@stanford.edu"">rdhawkins@stanford.edu</a>, 217-549-6923).<br>
      Independent Contact: If you are not satisfied with how this study is being conducted, or if you have any concerns, complaints, or general questions about the research or your rights as a participant, please contact the Stanford Institutional Review Board (IRB) to speak to someone independent of the research team at 650-723-2480 or toll free at 1-866-680-2906, or email at <a href=""mailto:irbnon-med@stanford.edu"">irbnon-med@stanford.edu</a>. You can also write to the Stanford IRB, Stanford University, 1705 El Camino Real, Palo Alto, CA 94306.</p>

      <p><strong>Please save or print a copy of this page for your records.</strong></p>
      <p>If you agree to participate in this research, click ""Continue"" below.</p>
    </div>
  ","0","html-button-response","0","2.1.0","3781","F=YES, J=NO","278nn44v0k","0","78","85","70","","","","","","","","","","","","","","","",""
"4568","
    <div style=""max-width: 800px; margin: auto; text-align: left;"">
      <h2>Welcome!</h2>
      <p>Thank you for participating in this study. The experiment consists of three parts:</p>
      <ol>
        <li>An English vocabulary test</li>
        <li>A main task in which you will hear and see words, and decide whether the written word is a real English word</li>
        <li>A brief survey about your background</li>
      </ol>
      <p>Each part will be introduced before it begins.</p>
      <p>Please make sure you are in a quiet environment and can hear audio clearly for the final task.</p>
      <p style=""margin-top: 2em;"">Press any key to begin.</p>
    </div>
  ","n","html-keyboard-response","1","2.1.0","8351","F=YES, J=NO","278nn44v0k","0","78","85","70","","","","","","","","","","","","","","","",""
"","","","preload","2","2.1.0","12576","F=YES, J=NO","278nn44v0k","0","78","85","70","true","false","[]","[]","[]","","","","","","","","","","",""
"4069","
    <div style=""max-width: 800px; margin: auto; text-align: left;"">
      <h2>Part 1: Vocabulary Test</h2>
      <p>You will now complete the first part of the study: a short English vocabulary test.</p>
      <p>This test is called <strong>LexTALE</strong> and helps us get a general sense of your English proficiency.</p>
      <p style=""margin-top: 2em;"">Press any key to continue.</p>
    </div>
  "," ","html-keyboard-response","3","2.1.0","16646","F=YES, J=NO","278nn44v0k","0","78","85","70","","","","","","","","","","","","","","","",""
"13854","
    <div style=""max-width: 800px; margin: auto; text-align: left;"">
      <h2>LexTALE Vocabulary Test</h2>
      <p>In this test, you will see a series of letter strings—one at a time.</p>
      <p>Your task is to decide whether each string is a real English word.</p>
      <p><strong>Key responses:</strong></p>
      <ul>
        <li><strong>F</strong> = YES (real English word)</li>
        <li><strong>J</strong> = NO (not a real English word)</li>
      </ul>
      <p>There is no time limit, but please try to be accurate.</p>
      <p style=""margin-top: 2em;"">Press any key to begin.</p>
    </div>
  ","f","html-keyboard-response","4","2.1.0","30502","F=YES, J=NO","278nn44v0k","0","78","85","70","","","","","","","","","","","","","","","",""
"1533","
  <p style=""font-size: 40px;"">platery</p>
  <p style=""font-size: 16px;"">F = YES &nbsp;&nbsp;&nbsp; J = NO</p>
","f","html-keyboard-response","5","2.1.0","32038","F=YES, J=NO","278nn44v0k","0","78","85","70","","","","","","lextale","false","true","","","","","","","",""
"774","
  <p style=""font-size: 40px;"">denial</p>
  <p style=""font-size: 16px;"">F = YES &nbsp;&nbsp;&nbsp; J = NO</p>
","f","html-keyboard-response","6","2.1.0","32814","F=YES, J=NO","278nn44v0k","0","78","85","70","","","","","","lextale","true","true","","","","","","","",""
"926","
  <p style=""font-size: 40px;"">marrit</p>
  <p style=""font-size: 16px;"">F = YES &nbsp;&nbsp;&nbsp; J = NO</p>
","j","html-keyboard-response","7","2.1.0","33742","F=YES, J=NO","278nn44v0k","0","78","85","70","","","","","","lextale","false","true","","","","","","","",""
"902","
  <p style=""font-size: 40px;"">bottle</p>
  <p style=""font-size: 16px;"">F = YES &nbsp;&nbsp;&nbsp; J = NO</p>
","f","html-keyboard-response","8","2.1.0","34646","F=YES, J=NO","278nn44v0k","0","78","85","70","","","","","","lextale","true","false","","","","","","","",""
"1342","
  <p style=""font-size: 40px;"">birst</p>
  <p style=""font-size: 16px;"">F = YES &nbsp;&nbsp;&nbsp; J = NO</p>
","j","html-keyboard-response","9","2.1.0","35989","F=YES, J=NO","278nn44v0k","0","78","85","70","","","","","","lextale","false","false","","","","","","","",""
"694","
  <p style=""font-size: 40px;"">envy</p>
  <p style=""font-size: 16px;"">F = YES &nbsp;&nbsp;&nbsp; J = NO</p>
","f","html-keyboard-response","10","2.1.0","36685","F=YES, J=NO","278nn44v0k","0","78","85","70","","","","","","lextale","true","false","","","","","","","",""
"814","
  <p style=""font-size: 40px;"">brang</p>
  <p style=""font-size: 16px;"">F = YES &nbsp;&nbsp;&nbsp; J = NO</p>
","j","html-keyboard-response","11","2.1.0","37501","F=YES, J=NO","278nn44v0k","0","78","85","70","","","","","","lextale","false","false","","","","","","","",""
"799","
  <p style=""font-size: 40px;"">huge</p>
  <p style=""font-size: 16px;"">F = YES &nbsp;&nbsp;&nbsp; J = NO</p>
","f","html-keyboard-response","12","2.1.0","38302","F=YES, J=NO","278nn44v0k","0","78","85","70","","","","","","lextale","true","false","","","","","","","",""
"3319","
  <p style=""font-size: 40px;"">plove</p>
  <p style=""font-size: 16px;"">F = YES &nbsp;&nbsp;&nbsp; J = NO</p>
","f","html-keyboard-response","13","2.1.0","41622","F=YES, J=NO","278nn44v0k","0","78","85","70","","","","","","lextale","false","false","","","","","","","",""
"678","
  <p style=""font-size: 40px;"">border</p>
  <p style=""font-size: 16px;"">F = YES &nbsp;&nbsp;&nbsp; J = NO</p>
","f","html-keyboard-response","14","2.1.0","42301","F=YES, J=NO","278nn44v0k","0","78","85","70","","","","","","lextale","true","false","","","","","","","",""
"846","
  <p style=""font-size: 40px;"">flimsy</p>
  <p style=""font-size: 16px;"">F = YES &nbsp;&nbsp;&nbsp; J = NO</p>
","f","html-keyboard-response","15","2.1.0","43149","F=YES, J=NO","278nn44v0k","0","78","85","70","","","","","","lextale","true","false","","","","","","","",""
"726","
  <p style=""font-size: 40px;"">drain</p>
  <p style=""font-size: 16px;"">F = YES &nbsp;&nbsp;&nbsp; J = NO</p>
","f","html-keyboard-response","16","2.1.0","43877","F=YES, J=NO","278nn44v0k","0","78","85","70","","","","","","lextale","true","false","","","","","","","",""
"799","
  <p style=""font-size: 40px;"">twindle</p>
  <p style=""font-size: 16px;"">F = YES &nbsp;&nbsp;&nbsp; J = NO</p>
","f","html-keyboard-response","17","2.1.0","44677","F=YES, J=NO","278nn44v0k","0","78","85","70","","","","","","lextale","false","false","","","","","","","",""
"638","
  <p style=""font-size: 40px;"">propose</p>
  <p style=""font-size: 16px;"">F = YES &nbsp;&nbsp;&nbsp; J = NO</p>
","f","html-keyboard-response","18","2.1.0","45317","F=YES, J=NO","278nn44v0k","0","78","85","70","","","","","","lextale","true","false","","","","","","","",""
"3270","
  <p style=""font-size: 40px;"">forlay</p>
  <p style=""font-size: 16px;"">F = YES &nbsp;&nbsp;&nbsp; J = NO</p>
","f","html-keyboard-response","19","2.1.0","48589","F=YES, J=NO","278nn44v0k","0","78","85","70","","","","","","lextale","false","false","","","","","","","",""
"1359","
  <p style=""font-size: 40px;"">tenant</p>
  <p style=""font-size: 16px;"">F = YES &nbsp;&nbsp;&nbsp; J = NO</p>
","f","html-keyboard-response","20","2.1.0","49949","F=YES, J=NO","278nn44v0k","0","78","85","70","","","","","","lextale","true","false","","","","","","","",""
"646","
  <p style=""font-size: 40px;"">strain</p>
  <p style=""font-size: 16px;"">F = YES &nbsp;&nbsp;&nbsp; J = NO</p>
","f","html-keyboard-response","21","2.1.0","50597","F=YES, J=NO","278nn44v0k","0","78","85","70","","","","","","lextale","true","false","","","","","","","",""
"702","
  <p style=""font-size: 40px;"">holster</p>
  <p style=""font-size: 16px;"">F = YES &nbsp;&nbsp;&nbsp; J = NO</p>
","f","html-keyboard-response","22","2.1.0","51301","F=YES, J=NO","278nn44v0k","0","78","85","70","","","","","","lextale","true","false","","","","","","","",""
"727","
  <p style=""font-size: 40px;"">hinder</p>
  <p style=""font-size: 16px;"">F = YES &nbsp;&nbsp;&nbsp; J = NO</p>
","f","html-keyboard-response","23","2.1.0","52030","F=YES, J=NO","278nn44v0k","0","78","85","70","","","","","","lextale","true","false","","","","","","","",""
"606","
  <p style=""font-size: 40px;"">swindle</p>
  <p style=""font-size: 16px;"">F = YES &nbsp;&nbsp;&nbsp; J = NO</p>
","f","html-keyboard-response","24","2.1.0","52638","F=YES, J=NO","278nn44v0k","0","78","85","70","","","","","","lextale","true","false","","","","","","","",""
"862","
  <p style=""font-size: 40px;"">nuder</p>
  <p style=""font-size: 16px;"">F = YES &nbsp;&nbsp;&nbsp; J = NO</p>
","j","html-keyboard-response","25","2.1.0","53501","F=YES, J=NO","278nn44v0k","0","78","85","70","","","","","","lextale","false","false","","","","","","","",""
"734","
  <p style=""font-size: 40px;"">pillow</p>
  <p style=""font-size: 16px;"">F = YES &nbsp;&nbsp;&nbsp; J = NO</p>
","f","html-keyboard-response","26","2.1.0","54237","F=YES, J=NO","278nn44v0k","0","78","85","70","","","","","","lextale","true","false","","","","","","","",""
"998","
  <p style=""font-size: 40px;"">shumble</p>
  <p style=""font-size: 16px;"">F = YES &nbsp;&nbsp;&nbsp; J = NO</p>
","j","html-keyboard-response","27","2.1.0","55238","F=YES, J=NO","278nn44v0k","0","78","85","70","","","","","","lextale","false","false","","","","","","","",""
"670","
  <p style=""font-size: 40px;"">thirst</p>
  <p style=""font-size: 16px;"">F = YES &nbsp;&nbsp;&nbsp; J = NO</p>
","f","html-keyboard-response","28","2.1.0","55909","F=YES, J=NO","278nn44v0k","0","78","85","70","","","","","","lextale","true","false","","","","","","","",""
"1102","
  <p style=""font-size: 40px;"">unsail</p>
  <p style=""font-size: 16px;"">F = YES &nbsp;&nbsp;&nbsp; J = NO</p>
","j","html-keyboard-response","29","2.1.0","57013","F=YES, J=NO","278nn44v0k","0","78","85","70","","","","","","lextale","false","false","","","","","","","",""
"727","
  <p style=""font-size: 40px;"">rifle</p>
  <p style=""font-size: 16px;"">F = YES &nbsp;&nbsp;&nbsp; J = NO</p>
","f","html-keyboard-response","30","2.1.0","57741","F=YES, J=NO","278nn44v0k","0","78","85","70","","","","","","lextale","true","false","","","","","","","",""
"982","
  <p style=""font-size: 40px;"">mush</p>
  <p style=""font-size: 16px;"">F = YES &nbsp;&nbsp;&nbsp; J = NO</p>
","f","html-keyboard-response","31","2.1.0","58724","F=YES, J=NO","278nn44v0k","0","78","85","70","","","","","","lextale","false","false","","","","","","","",""
"785","
  <p style=""font-size: 40px;"">drench</p>
  <p style=""font-size: 16px;"">F = YES &nbsp;&nbsp;&nbsp; J = NO</p>
","f","html-keyboard-response","32","2.1.0","59509","F=YES, J=NO","278nn44v0k","0","78","85","70","","","","","","lextale","true","false","","","","","","","",""
"814","
  <p style=""font-size: 40px;"">snirt</p>
  <p style=""font-size: 16px;"">F = YES &nbsp;&nbsp;&nbsp; J = NO</p>
","j","html-keyboard-response","33","2.1.0","60325","F=YES, J=NO","278nn44v0k","0","78","85","70","","","","","","lextale","false","false","","","","","","","",""
"695","
  <p style=""font-size: 40px;"">bitter</p>
  <p style=""font-size: 16px;"">F = YES &nbsp;&nbsp;&nbsp; J = NO</p>
","f","html-keyboard-response","34","2.1.0","61021","F=YES, J=NO","278nn44v0k","0","78","85","70","","","","","","lextale","true","false","","","","","","","",""
"926","
  <p style=""font-size: 40px;"">pliff</p>
  <p style=""font-size: 16px;"">F = YES &nbsp;&nbsp;&nbsp; J = NO</p>
","j","html-keyboard-response","35","2.1.0","61950","F=YES, J=NO","278nn44v0k","0","78","85","70","","","","","","lextale","false","false","","","","","","","",""
"695","
  <p style=""font-size: 40px;"">tablet</p>
  <p style=""font-size: 16px;"">F = YES &nbsp;&nbsp;&nbsp; J = NO</p>
","f","html-keyboard-response","36","2.1.0","62646","F=YES, J=NO","278nn44v0k","0","78","85","70","","","","","","lextale","true","false","","","","","","","",""
"702","
  <p style=""font-size: 40px;"">glimmer</p>
  <p style=""font-size: 16px;"">F = YES &nbsp;&nbsp;&nbsp; J = NO</p>
","f","html-keyboard-response","37","2.1.0","63350","F=YES, J=NO","278nn44v0k","0","78","85","70","","","","","","lextale","true","false","","","","","","","",""
"990","
  <p style=""font-size: 40px;"">slink</p>
  <p style=""font-size: 16px;"">F = YES &nbsp;&nbsp;&nbsp; J = NO</p>
","f","html-keyboard-response","38","2.1.0","64341","F=YES, J=NO","278nn44v0k","0","78","85","70","","","","","","lextale","true","false","","","","","","","",""
"631","
  <p style=""font-size: 40px;"">clever</p>
  <p style=""font-size: 16px;"">F = YES &nbsp;&nbsp;&nbsp; J = NO</p>
","f","html-keyboard-response","39","2.1.0","64973","F=YES, J=NO","278nn44v0k","0","78","85","70","","","","","","lextale","true","false","","","","","","","",""
"871","
  <p style=""font-size: 40px;"">grum</p>
  <p style=""font-size: 16px;"">F = YES &nbsp;&nbsp;&nbsp; J = NO</p>
","j","html-keyboard-response","40","2.1.0","65845","F=YES, J=NO","278nn44v0k","0","78","85","70","","","","","","lextale","false","false","","","","","","","",""
"782","
  <p style=""font-size: 40px;"">string</p>
  <p style=""font-size: 16px;"">F = YES &nbsp;&nbsp;&nbsp; J = NO</p>
","f","html-keyboard-response","41","2.1.0","66629","F=YES, J=NO","278nn44v0k","0","78","85","70","","","","","","lextale","true","false","","","","","","","",""
"823","
  <p style=""font-size: 40px;"">plim</p>
  <p style=""font-size: 16px;"">F = YES &nbsp;&nbsp;&nbsp; J = NO</p>
","j","html-keyboard-response","42","2.1.0","67453","F=YES, J=NO","278nn44v0k","0","78","85","70","","","","","","lextale","false","false","","","","","","","",""
"670","
  <p style=""font-size: 40px;"">cable</p>
  <p style=""font-size: 16px;"">F = YES &nbsp;&nbsp;&nbsp; J = NO</p>
","f","html-keyboard-response","43","2.1.0","68124","F=YES, J=NO","278nn44v0k","0","78","85","70","","","","","","lextale","true","false","","","","","","","",""
"873","
  <p style=""font-size: 40px;"">shrivel</p>
  <p style=""font-size: 16px;"">F = YES &nbsp;&nbsp;&nbsp; J = NO</p>
","f","html-keyboard-response","44","2.1.0","68998","F=YES, J=NO","278nn44v0k","0","78","85","70","","","","","","lextale","true","false","","","","","","","",""
"686","
  <p style=""font-size: 40px;"">tarnish</p>
  <p style=""font-size: 16px;"">F = YES &nbsp;&nbsp;&nbsp; J = NO</p>
","f","html-keyboard-response","45","2.1.0","69685","F=YES, J=NO","278nn44v0k","0","78","85","70","","","","","","lextale","true","false","","","","","","","",""
"2687","
  <p style=""font-size: 40px;"">blim</p>
  <p style=""font-size: 16px;"">F = YES &nbsp;&nbsp;&nbsp; J = NO</p>
","j","html-keyboard-response","46","2.1.0","72373","F=YES, J=NO","278nn44v0k","0","78","85","70","","","","","","lextale","false","false","","","","","","","",""
"1159","
  <p style=""font-size: 40px;"">stifle</p>
  <p style=""font-size: 16px;"">F = YES &nbsp;&nbsp;&nbsp; J = NO</p>
","f","html-keyboard-response","47","2.1.0","73534","F=YES, J=NO","278nn44v0k","0","78","85","70","","","","","","lextale","true","false","","","","","","","",""
"766","
  <p style=""font-size: 40px;"">bint</p>
  <p style=""font-size: 16px;"">F = YES &nbsp;&nbsp;&nbsp; J = NO</p>
","j","html-keyboard-response","48","2.1.0","74300","F=YES, J=NO","278nn44v0k","0","78","85","70","","","","","","lextale","false","false","","","","","","","",""
"640","
  <p style=""font-size: 40px;"">purple</p>
  <p style=""font-size: 16px;"">F = YES &nbsp;&nbsp;&nbsp; J = NO</p>
","f","html-keyboard-response","49","2.1.0","74941","F=YES, J=NO","278nn44v0k","0","78","85","70","","","","","","lextale","true","false","","","","","","","",""
"647","
  <p style=""font-size: 40px;"">wriggle</p>
  <p style=""font-size: 16px;"">F = YES &nbsp;&nbsp;&nbsp; J = NO</p>
","f","html-keyboard-response","50","2.1.0","75589","F=YES, J=NO","278nn44v0k","0","78","85","70","","","","","","lextale","true","false","","","","","","","",""
"1022","
  <p style=""font-size: 40px;"">mangle</p>
  <p style=""font-size: 16px;"">F = YES &nbsp;&nbsp;&nbsp; J = NO</p>
","f","html-keyboard-response","51","2.1.0","76613","F=YES, J=NO","278nn44v0k","0","78","85","70","","","","","","lextale","true","false","","","","","","","",""
"1615","
  <p style=""font-size: 40px;"">shramp</p>
  <p style=""font-size: 16px;"">F = YES &nbsp;&nbsp;&nbsp; J = NO</p>
","j","html-keyboard-response","52","2.1.0","78230","F=YES, J=NO","278nn44v0k","0","78","85","70","","","","","","lextale","false","false","","","","","","","",""
"718","
  <p style=""font-size: 40px;"">flirt</p>
  <p style=""font-size: 16px;"">F = YES &nbsp;&nbsp;&nbsp; J = NO</p>
","f","html-keyboard-response","53","2.1.0","78949","F=YES, J=NO","278nn44v0k","0","78","85","70","","","","","","lextale","true","false","","","","","","","",""
"855","
  <p style=""font-size: 40px;"">frip</p>
  <p style=""font-size: 16px;"">F = YES &nbsp;&nbsp;&nbsp; J = NO</p>
","j","html-keyboard-response","54","2.1.0","79805","F=YES, J=NO","278nn44v0k","0","78","85","70","","","","","","lextale","false","false","","","","","","","",""
"831","
  <p style=""font-size: 40px;"">tangle</p>
  <p style=""font-size: 16px;"">F = YES &nbsp;&nbsp;&nbsp; J = NO</p>
","f","html-keyboard-response","55","2.1.0","80637","F=YES, J=NO","278nn44v0k","0","78","85","70","","","","","","lextale","true","false","","","","","","","",""
"615","
  <p style=""font-size: 40px;"">crumble</p>
  <p style=""font-size: 16px;"">F = YES &nbsp;&nbsp;&nbsp; J = NO</p>
","f","html-keyboard-response","56","2.1.0","81253","F=YES, J=NO","278nn44v0k","0","78","85","70","","","","","","lextale","true","false","","","","","","","",""
"615","
  <p style=""font-size: 40px;"">wrinkle</p>
  <p style=""font-size: 16px;"">F = YES &nbsp;&nbsp;&nbsp; J = NO</p>
","f","html-keyboard-response","57","2.1.0","81869","F=YES, J=NO","278nn44v0k","0","78","85","70","","","","","","lextale","true","false","","","","","","","",""
"783","
  <p style=""font-size: 40px;"">slumb</p>
  <p style=""font-size: 16px;"">F = YES &nbsp;&nbsp;&nbsp; J = NO</p>
","j","html-keyboard-response","58","2.1.0","82653","F=YES, J=NO","278nn44v0k","0","78","85","70","","","","","","lextale","false","false","","","","","","","",""
"574","
  <p style=""font-size: 40px;"">jungle</p>
  <p style=""font-size: 16px;"">F = YES &nbsp;&nbsp;&nbsp; J = NO</p>
","f","html-keyboard-response","59","2.1.0","83228","F=YES, J=NO","278nn44v0k","0","78","85","70","","","","","","lextale","true","false","","","","","","","",""
"865","
  <p style=""font-size: 40px;"">frolick</p>
  <p style=""font-size: 16px;"">F = YES &nbsp;&nbsp;&nbsp; J = NO</p>
","f","html-keyboard-response","60","2.1.0","84094","F=YES, J=NO","278nn44v0k","0","78","85","70","","","","","","lextale","false","false","","","","","","","",""
"1988","
      <h2>LexTALE Test Completed</h2>
      <p>Your LexTALE vocabulary score is: <strong>78%</strong></p>
      <p>Press any key to continue.</p>
    ","f","html-keyboard-response","61","2.1.0","86085","F=YES, J=NO","278nn44v0k","0","78","85","70","","","","","","","","","","","","","","","",""
"23791","
    <div style=""max-width: 800px; margin: auto; text-align: left;"">
      <h2>Break Time</h2>
      <p>You have completed the first part of the study.</p>
      <p>You may take a short <strong>30-second break</strong> before continuing.</p>
      <p>When you’re ready, press any key to continue to the final task.</p>
    </div>
  "," ","html-keyboard-response","62","2.1.0","109878","F=YES, J=NO","278nn44v0k","0","78","85","70","","","","","","","","","","","","","","","",""
"25918","
    <div style=""max-width: 800px; margin: auto; text-align: left;"">
      <h2>Part 2: Lexical Decision Task</h2>
      <p>You will now begin the second part of the study.</p>
      <p>Each trial will follow this sequence:</p>
      <ul>
        <li>A fixation cross (+) appears at the center of the screen.</li>
        <li>You will hear a short beep followed by a spoken word.</li>
        <li>A written word will appear briefly on the screen.</li>
      </ul>
      <p>Your task is to judge whether the <strong>written word</strong> is a real English word.</p>
      <p style=""margin-top: 1em;""><strong>Key responses:</strong></p>
      <ul>
        <li><strong>F</strong> = YES (real English word)</li>
        <li><strong>J</strong> = NO (not a real English word)</li>
      </ul>
      <p>Please respond as quickly and accurately as you can.</p>
      <p style=""margin-top: 2em;"">Press any key to continue.</p>
    </div>
  ","f","html-keyboard-response","63","2.1.0","135798","F=YES, J=NO","278nn44v0k","0","78","85","70","","","","","","","","","","","","","","","",""
"5270","
    <div style=""max-width: 800px; margin: auto; text-align: left;"">
      <h2>Before You Begin</h2>
      <p>Make sure your sound is turned on.</p>
      <p>You will hear audio during each trial, but your decision should be based only on the <strong>written word</strong> you see on the screen.</p>
      <p><strong>Reminder:</strong></p>
      <ul>
        <li><strong>F</strong> = YES (real English word)</li>
        <li><strong>J</strong> = NO (not a real English word)</li>
      </ul>
      <p style=""margin-top: 2em;"">Press any key when you are ready to begin.</p>
    </div>
  ","f","html-keyboard-response","64","2.1.0","141069","F=YES, J=NO","278nn44v0k","0","78","85","70","","","","","","","","","","","","","","","",""
"2751","
    <div style=""max-width: 800px; margin: auto; text-align: left;"">
      <h2>Part 2: Practice Trials</h2>
      <p>You will now complete a few <strong>practice trials</strong> to get familiar with the task.</p>
      <p>These trials are <strong>not scored</strong> and are only to help you get used to the format.</p>
      <p style=""margin-top: 2em;"">Press any key to begin.</p>
    </div>
  ","f","html-keyboard-response","65","2.1.0","143821","F=YES, J=NO","278nn44v0k","0","78","85","70","","","","","","","","","","","","","","","",""
"1631","<p>Starting practice block 1 of 2. Press any key to continue.</p>","f","html-keyboard-response","66","2.1.0","145453","F=YES, J=NO","278nn44v0k","0","78","85","70","","","","","","","","","","","","","","","",""
"null","<p style=""font-size: 50px;"">+</p>","null","html-keyboard-response","67","2.1.0","145756","F=YES, J=NO","278nn44v0k","0","78","85","70","","","","","","","","","","","","","","","",""
"null","audio/beep-329314.mp3","null","audio-keyboard-response","68","2.1.0","147314","F=YES, J=NO","278nn44v0k","0","78","85","70","","","","","","","","","","","","","","","",""
"null","audio/planet1.wav","null","audio-keyboard-response","69","2.1.0","147893","F=YES, J=NO","278nn44v0k","0","78","85","70","","","","","","","","","","","","","","","",""
"null","
          <p id=""word"" style=""font-size: 40px;"">cratched</p>
          <p style=""font-size: 16px;"">F = YES &nbsp;&nbsp;&nbsp; J = NO</p>
        ","null","html-keyboard-response","70","2.1.0","149405","F=YES, J=NO","278nn44v0k","0","78","85","70","","","","","","","","","cratched","planet1","pseudoword","pseudoword","j","false","",""
"null","<p style=""font-size: 50px;"">+</p>","null","html-keyboard-response","71","2.1.0","149721","F=YES, J=NO","278nn44v0k","0","78","85","70","","","","","","","","","","","","","","","",""
"null","audio/beep-329314.mp3","null","audio-keyboard-response","72","2.1.0","151253","F=YES, J=NO","278nn44v0k","0","78","85","70","","","","","","","","","","","","","","","",""
"null","audio/corpse1.wav","null","audio-keyboard-response","73","2.1.0","151953","F=YES, J=NO","278nn44v0k","0","78","85","70","","","","","","","","","","","","","","","",""
"643","
          <p id=""word"" style=""font-size: 40px;"">glonet</p>
          <p style=""font-size: 16px;"">F = YES &nbsp;&nbsp;&nbsp; J = NO</p>
        ","j","html-keyboard-response","74","2.1.0","152598","F=YES, J=NO","278nn44v0k","0","78","85","70","","","","","","","","","glonet","corpse1","pseudoword","pseudoword","j","true","",""
"null","<p style=""font-size: 50px;"">+</p>","null","html-keyboard-response","75","2.1.0","152903","F=YES, J=NO","278nn44v0k","0","78","85","70","","","","","","","","","","","","","","","",""
"null","audio/beep-329314.mp3","null","audio-keyboard-response","76","2.1.0","154434","F=YES, J=NO","278nn44v0k","0","78","85","70","","","","","","","","","","","","","","","",""
"null","audio/hotel1.wav","null","audio-keyboard-response","77","2.1.0","155113","F=YES, J=NO","278nn44v0k","0","78","85","70","","","","","","","","","","","","","","","",""
"683","
          <p id=""word"" style=""font-size: 40px;"">flanter</p>
          <p style=""font-size: 16px;"">F = YES &nbsp;&nbsp;&nbsp; J = NO</p>
        ","j","html-keyboard-response","78","2.1.0","155797","F=YES, J=NO","278nn44v0k","0","78","85","70","","","","","","","","","flanter","hotel1","pseudoword","pseudoword","j","true","",""
"null","<p style=""font-size: 50px;"">+</p>","null","html-keyboard-response","79","2.1.0","156101","F=YES, J=NO","278nn44v0k","0","78","85","70","","","","","","","","","","","","","","","",""
"null","audio/beep-329314.mp3","null","audio-keyboard-response","80","2.1.0","157633","F=YES, J=NO","278nn44v0k","0","78","85","70","","","","","","","","","","","","","","","",""
"null","audio/bishop1.wav","null","audio-keyboard-response","81","2.1.0","158273","F=YES, J=NO","278nn44v0k","0","78","85","70","","","","","","","","","","","","","","","",""
"555","
          <p id=""word"" style=""font-size: 40px;"">play</p>
          <p style=""font-size: 16px;"">F = YES &nbsp;&nbsp;&nbsp; J = NO</p>
        ","f","html-keyboard-response","82","2.1.0","158829","F=YES, J=NO","278nn44v0k","0","78","85","70","","","","","","","","","play","bishop1","filler","filler","f","true","",""
"null","<p style=""font-size: 50px;"">+</p>","null","html-keyboard-response","83","2.1.0","159135","F=YES, J=NO","278nn44v0k","0","78","85","70","","","","","","","","","","","","","","","",""
"null","audio/beep-329314.mp3","null","audio-keyboard-response","84","2.1.0","160673","F=YES, J=NO","278nn44v0k","0","78","85","70","","","","","","","","","","","","","","","",""
"null","audio/account1.wav","null","audio-keyboard-response","85","2.1.0","161373","F=YES, J=NO","278nn44v0k","0","78","85","70","","","","","","","","","","","","","","","",""
"479","
          <p id=""word"" style=""font-size: 40px;"">paint</p>
          <p style=""font-size: 16px;"">F = YES &nbsp;&nbsp;&nbsp; J = NO</p>
        ","f","html-keyboard-response","86","2.1.0","161853","F=YES, J=NO","278nn44v0k","0","78","85","70","","","","","","","","","paint","account1","filler","filler","f","true","",""
"null","<p style=""font-size: 50px;"">+</p>","null","html-keyboard-response","87","2.1.0","162167","F=YES, J=NO","278nn44v0k","0","78","85","70","","","","","","","","","","","","","","","",""
"null","audio/beep-329314.mp3","null","audio-keyboard-response","88","2.1.0","163693","F=YES, J=NO","278nn44v0k","0","78","85","70","","","","","","","","","","","","","","","",""
"null","audio/ankle1.wav","null","audio-keyboard-response","89","2.1.0","164213","F=YES, J=NO","278nn44v0k","0","78","85","70","","","","","","","","","","","","","","","",""
"511","
          <p id=""word"" style=""font-size: 40px;"">kick</p>
          <p style=""font-size: 16px;"">F = YES &nbsp;&nbsp;&nbsp; J = NO</p>
        ","f","html-keyboard-response","90","2.1.0","164726","F=YES, J=NO","278nn44v0k","0","78","85","70","","","","","","","","","kick","ankle1","filler","filler","f","true","",""
"null","<p style=""font-size: 50px;"">+</p>","null","html-keyboard-response","91","2.1.0","165033","F=YES, J=NO","278nn44v0k","0","78","85","70","","","","","","","","","","","","","","","",""
"null","audio/beep-329314.mp3","null","audio-keyboard-response","92","2.1.0","166573","F=YES, J=NO","278nn44v0k","0","78","85","70","","","","","","","","","","","","","","","",""
"null","audio/grass.wav","null","audio-keyboard-response","93","2.1.0","167313","F=YES, J=NO","278nn44v0k","0","78","85","70","","","","","","","","","","","","","","","",""
"603","
          <p id=""word"" style=""font-size: 40px;"">milames</p>
          <p style=""font-size: 16px;"">F = YES &nbsp;&nbsp;&nbsp; J = NO</p>
        ","j","html-keyboard-response","94","2.1.0","167917","F=YES, J=NO","278nn44v0k","0","78","85","70","","","","","","","","","milames","grass","pseudoword","pseudoword","j","true","",""
"null","<p style=""font-size: 50px;"">+</p>","null","html-keyboard-response","95","2.1.0","168221","F=YES, J=NO","278nn44v0k","0","78","85","70","","","","","","","","","","","","","","","",""
"null","audio/beep-329314.mp3","null","audio-keyboard-response","96","2.1.0","169753","F=YES, J=NO","278nn44v0k","0","78","85","70","","","","","","","","","","","","","","","",""
"null","audio/bridge.wav","null","audio-keyboard-response","97","2.1.0","170473","F=YES, J=NO","278nn44v0k","0","78","85","70","","","","","","","","","","","","","","","",""
"523","
          <p id=""word"" style=""font-size: 40px;"">crack</p>
          <p style=""font-size: 16px;"">F = YES &nbsp;&nbsp;&nbsp; J = NO</p>
        ","f","html-keyboard-response","98","2.1.0","170998","F=YES, J=NO","278nn44v0k","0","78","85","70","","","","","","","","","crack","bridge","filler","filler","f","true","",""
"null","<p style=""font-size: 50px;"">+</p>","null","html-keyboard-response","99","2.1.0","171314","F=YES, J=NO","278nn44v0k","0","78","85","70","","","","","","","","","","","","","","","",""
"null","audio/beep-329314.mp3","null","audio-keyboard-response","100","2.1.0","172853","F=YES, J=NO","278nn44v0k","0","78","85","70","","","","","","","","","","","","","","","",""
"null","audio/key1.wav","null","audio-keyboard-response","101","2.1.0","173293","F=YES, J=NO","278nn44v0k","0","78","85","70","","","","","","","","","","","","","","","",""
"535","
          <p id=""word"" style=""font-size: 40px;"">sminsh</p>
          <p style=""font-size: 16px;"">F = YES &nbsp;&nbsp;&nbsp; J = NO</p>
        ","j","html-keyboard-response","102","2.1.0","173830","F=YES, J=NO","278nn44v0k","0","78","85","70","","","","","","","","","sminsh","key1","pseudoword","pseudoword","j","true","",""
"null","<p style=""font-size: 50px;"">+</p>","null","html-keyboard-response","103","2.1.0","174147","F=YES, J=NO","278nn44v0k","0","78","85","70","","","","","","","","","","","","","","","",""
"null","audio/beep-329314.mp3","null","audio-keyboard-response","104","2.1.0","175673","F=YES, J=NO","278nn44v0k","0","78","85","70","","","","","","","","","","","","","","","",""
"null","audio/battle1.wav","null","audio-keyboard-response","105","2.1.0","176173","F=YES, J=NO","278nn44v0k","0","78","85","70","","","","","","","","","","","","","","","",""
"527","
          <p id=""word"" style=""font-size: 40px;"">boil</p>
          <p style=""font-size: 16px;"">F = YES &nbsp;&nbsp;&nbsp; J = NO</p>
        ","j","html-keyboard-response","106","2.1.0","176702","F=YES, J=NO","278nn44v0k","0","78","85","70","","","","","","","","","boil","battle1","filler","filler","f","false","",""
"null","<p style=""font-size: 50px;"">+</p>","null","html-keyboard-response","107","2.1.0","177011","F=YES, J=NO","278nn44v0k","0","78","85","70","","","","","","","","","","","","","","","",""
"null","audio/beep-329314.mp3","null","audio-keyboard-response","108","2.1.0","178553","F=YES, J=NO","278nn44v0k","0","78","85","70","","","","","","","","","","","","","","","",""
"null","audio/client1.wav","null","audio-keyboard-response","109","2.1.0","179273","F=YES, J=NO","278nn44v0k","0","78","85","70","","","","","","","","","","","","","","","",""
"659","
          <p id=""word"" style=""font-size: 40px;"">droothe</p>
          <p style=""font-size: 16px;"">F = YES &nbsp;&nbsp;&nbsp; J = NO</p>
        ","j","html-keyboard-response","110","2.1.0","179933","F=YES, J=NO","278nn44v0k","0","78","85","70","","","","","","","","","droothe","client1","pseudoword","pseudoword","j","true","",""
"null","<p style=""font-size: 50px;"">+</p>","null","html-keyboard-response","111","2.1.0","180245","F=YES, J=NO","278nn44v0k","0","78","85","70","","","","","","","","","","","","","","","",""
"null","audio/beep-329314.mp3","null","audio-keyboard-response","112","2.1.0","181773","F=YES, J=NO","278nn44v0k","0","78","85","70","","","","","","","","","","","","","","","",""
"null","audio/window1.wav","null","audio-keyboard-response","113","2.1.0","182453","F=YES, J=NO","278nn44v0k","0","78","85","70","","","","","","","","","","","","","","","",""
"599","
          <p id=""word"" style=""font-size: 40px;"">toss</p>
          <p style=""font-size: 16px;"">F = YES &nbsp;&nbsp;&nbsp; J = NO</p>
        ","f","html-keyboard-response","114","2.1.0","183053","F=YES, J=NO","278nn44v0k","0","78","85","70","","","","","","","","","toss","window1","filler","filler","f","true","",""
"1415","<p>Starting practice block 2 of 2. Press any key to continue.</p>"," ","html-keyboard-response","115","2.1.0","184469","F=YES, J=NO","278nn44v0k","0","78","85","70","","","","","","","","","","","","","","","",""
"null","<p style=""font-size: 50px;"">+</p>","null","html-keyboard-response","116","2.1.0","184777","F=YES, J=NO","278nn44v0k","0","78","85","70","","","","","","","","","","","","","","","",""
"null","audio/beep-329314.mp3","null","audio-keyboard-response","117","2.1.0","186313","F=YES, J=NO","278nn44v0k","0","78","85","70","","","","","","","","","","","","","","","",""
"null","audio/novel.wav","null","audio-keyboard-response","118","2.1.0","186813","F=YES, J=NO","278nn44v0k","0","78","85","70","","","","","","","","","","","","","","","",""
"487","
          <p id=""word"" style=""font-size: 40px;"">type</p>
          <p style=""font-size: 16px;"">F = YES &nbsp;&nbsp;&nbsp; J = NO</p>
        ","f","html-keyboard-response","119","2.1.0","187301","F=YES, J=NO","278nn44v0k","0","78","85","70","","","","","","","","","type","novel","filler","filler","f","true","",""
"null","<p style=""font-size: 50px;"">+</p>","null","html-keyboard-response","120","2.1.0","187609","F=YES, J=NO","278nn44v0k","0","78","85","70","","","","","","","","","","","","","","","",""
"null","audio/beep-329314.mp3","null","audio-keyboard-response","121","2.1.0","189133","F=YES, J=NO","278nn44v0k","0","78","85","70","","","","","","","","","","","","","","","",""
"null","audio/birth1.wav","null","audio-keyboard-response","122","2.1.0","189693","F=YES, J=NO","278nn44v0k","0","78","85","70","","","","","","","","","","","","","","","",""
"463","
          <p id=""word"" style=""font-size: 40px;"">peel</p>
          <p style=""font-size: 16px;"">F = YES &nbsp;&nbsp;&nbsp; J = NO</p>
        ","f","html-keyboard-response","123","2.1.0","190157","F=YES, J=NO","278nn44v0k","0","78","85","70","","","","","","","","","peel","birth1","filler","filler","f","true","",""
"null","<p style=""font-size: 50px;"">+</p>","null","html-keyboard-response","124","2.1.0","190475","F=YES, J=NO","278nn44v0k","0","78","85","70","","","","","","","","","","","","","","","",""
"null","audio/beep-329314.mp3","null","audio-keyboard-response","125","2.1.0","192012","F=YES, J=NO","278nn44v0k","0","78","85","70","","","","","","","","","","","","","","","",""
"null","audio/scar.wav","null","audio-keyboard-response","126","2.1.0","192672","F=YES, J=NO","278nn44v0k","0","78","85","70","","","","","","","","","","","","","","","",""
"668","
          <p id=""word"" style=""font-size: 40px;"">adelineate</p>
          <p style=""font-size: 16px;"">F = YES &nbsp;&nbsp;&nbsp; J = NO</p>
        ","j","html-keyboard-response","127","2.1.0","193341","F=YES, J=NO","278nn44v0k","0","78","85","70","","","","","","","","","adelineate","scar","pseudoword","pseudoword","j","true","",""
"null","<p style=""font-size: 50px;"">+</p>","null","html-keyboard-response","128","2.1.0","193657","F=YES, J=NO","278nn44v0k","0","78","85","70","","","","","","","","","","","","","","","",""
"null","audio/beep-329314.mp3","null","audio-keyboard-response","129","2.1.0","195193","F=YES, J=NO","278nn44v0k","0","78","85","70","","","","","","","","","","","","","","","",""
"null","audio/cancer1.wav","null","audio-keyboard-response","130","2.1.0","195773","F=YES, J=NO","278nn44v0k","0","78","85","70","","","","","","","","","","","","","","","",""
"518","
          <p id=""word"" style=""font-size: 40px;"">draw</p>
          <p style=""font-size: 16px;"">F = YES &nbsp;&nbsp;&nbsp; J = NO</p>
        ","f","html-keyboard-response","131","2.1.0","196293","F=YES, J=NO","278nn44v0k","0","78","85","70","","","","","","","","","draw","cancer1","filler","filler","f","true","",""
"null","<p style=""font-size: 50px;"">+</p>","null","html-keyboard-response","132","2.1.0","196606","F=YES, J=NO","278nn44v0k","0","78","85","70","","","","","","","","","","","","","","","",""
"null","audio/beep-329314.mp3","null","audio-keyboard-response","133","2.1.0","198133","F=YES, J=NO","278nn44v0k","0","78","85","70","","","","","","","","","","","","","","","",""
"null","audio/bomb1.wav","null","audio-keyboard-response","134","2.1.0","198513","F=YES, J=NO","278nn44v0k","0","78","85","70","","","","","","","","","","","","","","","",""
"419","
          <p id=""word"" style=""font-size: 40px;"">clean</p>
          <p style=""font-size: 16px;"">F = YES &nbsp;&nbsp;&nbsp; J = NO</p>
        ","f","html-keyboard-response","135","2.1.0","198934","F=YES, J=NO","278nn44v0k","0","78","85","70","","","","","","","","","clean","bomb1","filler","filler","f","true","",""
"null","<p style=""font-size: 50px;"">+</p>","null","html-keyboard-response","136","2.1.0","199238","F=YES, J=NO","278nn44v0k","0","78","85","70","","","","","","","","","","","","","","","",""
"null","audio/beep-329314.mp3","null","audio-keyboard-response","137","2.1.0","200773","F=YES, J=NO","278nn44v0k","0","78","85","70","","","","","","","","","","","","","","","",""
"null","audio/radio1.wav","null","audio-keyboard-response","138","2.1.0","201393","F=YES, J=NO","278nn44v0k","0","78","85","70","","","","","","","","","","","","","","","",""
"499","
          <p id=""word"" style=""font-size: 40px;"">blanter</p>
          <p style=""font-size: 16px;"">F = YES &nbsp;&nbsp;&nbsp; J = NO</p>
        ","j","html-keyboard-response","139","2.1.0","201893","F=YES, J=NO","278nn44v0k","0","78","85","70","","","","","","","","","blanter","radio1","pseudoword","pseudoword","j","true","",""
"null","<p style=""font-size: 50px;"">+</p>","null","html-keyboard-response","140","2.1.0","202204","F=YES, J=NO","278nn44v0k","0","78","85","70","","","","","","","","","","","","","","","",""
"null","audio/beep-329314.mp3","null","audio-keyboard-response","141","2.1.0","203732","F=YES, J=NO","278nn44v0k","0","78","85","70","","","","","","","","","","","","","","","",""
"null","audio/handle.wav","null","audio-keyboard-response","142","2.1.0","204353","F=YES, J=NO","278nn44v0k","0","78","85","70","","","","","","","","","","","","","","","",""
"667","
          <p id=""word"" style=""font-size: 40px;"">moutes</p>
          <p style=""font-size: 16px;"">F = YES &nbsp;&nbsp;&nbsp; J = NO</p>
        ","j","html-keyboard-response","143","2.1.0","205021","F=YES, J=NO","278nn44v0k","0","78","85","70","","","","","","","","","moutes","handle","pseudoword","pseudoword","j","true","",""
"null","<p style=""font-size: 50px;"">+</p>","null","html-keyboard-response","144","2.1.0","205336","F=YES, J=NO","278nn44v0k","0","78","85","70","","","","","","","","","","","","","","","",""
"null","audio/beep-329314.mp3","null","audio-keyboard-response","145","2.1.0","206872","F=YES, J=NO","278nn44v0k","0","78","85","70","","","","","","","","","","","","","","","",""
"null","audio/alarm1.wav","null","audio-keyboard-response","146","2.1.0","207513","F=YES, J=NO","278nn44v0k","0","78","85","70","","","","","","","","","","","","","","","",""
"499","
          <p id=""word"" style=""font-size: 40px;"">lock</p>
          <p style=""font-size: 16px;"">F = YES &nbsp;&nbsp;&nbsp; J = NO</p>
        ","f","html-keyboard-response","147","2.1.0","208013","F=YES, J=NO","278nn44v0k","0","78","85","70","","","","","","","","","lock","alarm1","filler","filler","f","true","",""
"null","<p style=""font-size: 50px;"">+</p>","null","html-keyboard-response","148","2.1.0","208319","F=YES, J=NO","278nn44v0k","0","78","85","70","","","","","","","","","","","","","","","",""
"null","audio/beep-329314.mp3","null","audio-keyboard-response","149","2.1.0","209853","F=YES, J=NO","278nn44v0k","0","78","85","70","","","","","","","","","","","","","","","",""
"null","audio/bottle.wav","null","audio-keyboard-response","150","2.1.0","210353","F=YES, J=NO","278nn44v0k","0","78","85","70","","","","","","","","","","","","","","","",""
"403","
          <p id=""word"" style=""font-size: 40px;"">watch</p>
          <p style=""font-size: 16px;"">F = YES &nbsp;&nbsp;&nbsp; J = NO</p>
        ","f","html-keyboard-response","151","2.1.0","210757","F=YES, J=NO","278nn44v0k","0","78","85","70","","","","","","","","","watch","bottle","filler","filler","f","true","",""
"null","<p style=""font-size: 50px;"">+</p>","null","html-keyboard-response","152","2.1.0","211068","F=YES, J=NO","278nn44v0k","0","78","85","70","","","","","","","","","","","","","","","",""
"null","audio/beep-329314.mp3","null","audio-keyboard-response","153","2.1.0","212593","F=YES, J=NO","278nn44v0k","0","78","85","70","","","","","","","","","","","","","","","",""
"null","audio/desire.wav","null","audio-keyboard-response","154","2.1.0","213213","F=YES, J=NO","278nn44v0k","0","78","85","70","","","","","","","","","","","","","","","",""
"559","
          <p id=""word"" style=""font-size: 40px;"">nophed</p>
          <p style=""font-size: 16px;"">F = YES &nbsp;&nbsp;&nbsp; J = NO</p>
        ","j","html-keyboard-response","155","2.1.0","213773","F=YES, J=NO","278nn44v0k","0","78","85","70","","","","","","","","","nophed","desire","pseudoword","pseudoword","j","true","",""
"null","<p style=""font-size: 50px;"">+</p>","null","html-keyboard-response","156","2.1.0","214083","F=YES, J=NO","278nn44v0k","0","78","85","70","","","","","","","","","","","","","","","",""
"null","audio/beep-329314.mp3","null","audio-keyboard-response","157","2.1.0","215613","F=YES, J=NO","278nn44v0k","0","78","85","70","","","","","","","","","","","","","","","",""
"null","audio/holiday1.wav","null","audio-keyboard-response","158","2.1.0","216333","F=YES, J=NO","278nn44v0k","0","78","85","70","","","","","","","","","","","","","","","",""
"687","
          <p id=""word"" style=""font-size: 40px;"">drivets</p>
          <p style=""font-size: 16px;"">F = YES &nbsp;&nbsp;&nbsp; J = NO</p>
        ","j","html-keyboard-response","159","2.1.0","217021","F=YES, J=NO","278nn44v0k","0","78","85","70","","","","","","","","","drivets","holiday1","pseudoword","pseudoword","j","true","",""
"null","<p style=""font-size: 50px;"">+</p>","null","html-keyboard-response","160","2.1.0","217331","F=YES, J=NO","278nn44v0k","0","78","85","70","","","","","","","","","","","","","","","",""
"null","audio/beep-329314.mp3","null","audio-keyboard-response","161","2.1.0","218873","F=YES, J=NO","278nn44v0k","0","78","85","70","","","","","","","","","","","","","","","",""
"null","audio/effort.wav","null","audio-keyboard-response","162","2.1.0","219493","F=YES, J=NO","278nn44v0k","0","78","85","70","","","","","","","","","","","","","","","",""
"583","
          <p id=""word"" style=""font-size: 40px;"">whonk</p>
          <p style=""font-size: 16px;"">F = YES &nbsp;&nbsp;&nbsp; J = NO</p>
        ","j","html-keyboard-response","163","2.1.0","220077","F=YES, J=NO","278nn44v0k","0","78","85","70","","","","","","","","","whonk","effort","pseudoword","pseudoword","j","true","",""
"3479","
    <div style=""max-width: 800px; margin: auto; text-align: left;"">
      <h2>Part 2: Main Trials</h2>
      <p>Great job on the practice trials!</p>
      <p>You will now begin the <strong>main set of trials</strong>.</p>
      <p>Remember your key assignments:</p>
      <ul>
        <li><strong>F</strong> = YES (real English word)</li>
        <li><strong>J</strong> = NO (not a real English word)</li>
      </ul>
      <p>Try to respond as <strong>quickly and accurately</strong> as possible.</p>
      <p style=""margin-top: 2em;"">Press any key to begin the main trials.</p>
    </div>
  "," ","html-keyboard-response","164","2.1.0","223557","F=YES, J=NO","278nn44v0k","0","78","85","70","","","","","","","","","","","","","","","",""
"950","<p>Starting main block 1 of 8. Press any key to continue.</p>"," ","html-keyboard-response","165","2.1.0","224509","F=YES, J=NO","278nn44v0k","0","78","85","70","","","","","","","","","","","","","","","",""
"null","<p style=""font-size: 50px;"">+</p>","null","html-keyboard-response","166","2.1.0","224811","F=YES, J=NO","278nn44v0k","0","78","85","70","","","","","","","","","","","","","","","",""
"null","audio/beep-329314.mp3","null","audio-keyboard-response","167","2.1.0","226353","F=YES, J=NO","278nn44v0k","0","78","85","70","","","","","","","","","","","","","","","",""
"null","audio/meal.wav","null","audio-keyboard-response","168","2.1.0","226793","F=YES, J=NO","278nn44v0k","0","78","85","70","","","","","","","","","","","","","","","",""
"602","
          <p id=""word"" style=""font-size: 40px;"">gallite</p>
          <p style=""font-size: 16px;"">F = YES &nbsp;&nbsp;&nbsp; J = NO</p>
        ","j","html-keyboard-response","169","2.1.0","227396","F=YES, J=NO","278nn44v0k","0","78","85","70","","","","","","","","","gallite","meal","pseudoword","pseudoword","j","true","",""
"null","<p style=""font-size: 50px;"">+</p>","null","html-keyboard-response","170","2.1.0","227711","F=YES, J=NO","278nn44v0k","0","78","85","70","","","","","","","","","","","","","","","",""
"null","audio/beep-329314.mp3","null","audio-keyboard-response","171","2.1.0","229253","F=YES, J=NO","278nn44v0k","0","78","85","70","","","","","","","","","","","","","","","",""
"null","audio/kettle1.wav","null","audio-keyboard-response","172","2.1.0","229713","F=YES, J=NO","278nn44v0k","0","78","85","70","","","","","","","","","","","","","","","",""
"443","
          <p id=""word"" style=""font-size: 40px;"">wrap</p>
          <p style=""font-size: 16px;"">F = YES &nbsp;&nbsp;&nbsp; J = NO</p>
        ","f","html-keyboard-response","173","2.1.0","230157","F=YES, J=NO","278nn44v0k","0","78","85","70","","","","","","","","","wrap","kettle1","filler","filler","f","true","",""
"null","<p style=""font-size: 50px;"">+</p>","null","html-keyboard-response","174","2.1.0","230461","F=YES, J=NO","278nn44v0k","0","78","85","70","","","","","","","","","","","","","","","",""
"null","audio/beep-329314.mp3","null","audio-keyboard-response","175","2.1.0","231993","F=YES, J=NO","278nn44v0k","0","78","85","70","","","","","","","","","","","","","","","",""
"null","audio/mind.wav","null","audio-keyboard-response","176","2.1.0","232553","F=YES, J=NO","278nn44v0k","0","78","85","70","","","","","","","","","","","","","","","",""
"803","
          <p id=""word"" style=""font-size: 40px;"">crainate</p>
          <p style=""font-size: 16px;"">F = YES &nbsp;&nbsp;&nbsp; J = NO</p>
        ","j","html-keyboard-response","177","2.1.0","233357","F=YES, J=NO","278nn44v0k","0","78","85","70","","","","","","","","","crainate","mind","pseudoword","pseudoword","j","true","",""
"null","<p style=""font-size: 50px;"">+</p>","null","html-keyboard-response","178","2.1.0","233660","F=YES, J=NO","278nn44v0k","0","78","85","70","","","","","","","","","","","","","","","",""
"null","audio/beep-329314.mp3","null","audio-keyboard-response","179","2.1.0","235193","F=YES, J=NO","278nn44v0k","0","78","85","70","","","","","","","","","","","","","","","",""
"null","audio/hawk1.wav","null","audio-keyboard-response","180","2.1.0","235832","F=YES, J=NO","278nn44v0k","0","78","85","70","","","","","","","","","","","","","","","",""
"604","
          <p id=""word"" style=""font-size: 40px;"">ostach</p>
          <p style=""font-size: 16px;"">F = YES &nbsp;&nbsp;&nbsp; J = NO</p>
        ","j","html-keyboard-response","181","2.1.0","236437","F=YES, J=NO","278nn44v0k","0","78","85","70","","","","","","","","","ostach","hawk1","pseudoword","pseudoword","j","true","",""
"null","<p style=""font-size: 50px;"">+</p>","null","html-keyboard-response","182","2.1.0","236741","F=YES, J=NO","278nn44v0k","0","78","85","70","","","","","","","","","","","","","","","",""
"null","audio/beep-329314.mp3","null","audio-keyboard-response","183","2.1.0","238273","F=YES, J=NO","278nn44v0k","0","78","85","70","","","","","","","","","","","","","","","",""
"null","audio/belief.wav","null","audio-keyboard-response","184","2.1.0","238893","F=YES, J=NO","278nn44v0k","0","78","85","70","","","","","","","","","","","","","","","",""
"535","
          <p id=""word"" style=""font-size: 40px;"">read</p>
          <p style=""font-size: 16px;"">F = YES &nbsp;&nbsp;&nbsp; J = NO</p>
        ","f","html-keyboard-response","185","2.1.0","239429","F=YES, J=NO","278nn44v0k","0","78","85","70","","","","","","","","","read","belief","filler","filler","f","true","",""
"null","<p style=""font-size: 50px;"">+</p>","null","html-keyboard-response","186","2.1.0","239741","F=YES, J=NO","278nn44v0k","0","78","85","70","","","","","","","","","","","","","","","",""
"null","audio/beep-329314.mp3","null","audio-keyboard-response","187","2.1.0","241273","F=YES, J=NO","278nn44v0k","0","78","85","70","","","","","","","","","","","","","","","",""
"null","audio/dome.wav","null","audio-keyboard-response","188","2.1.0","241693","F=YES, J=NO","278nn44v0k","0","78","85","70","","","","","","","","","","","","","","","",""
"647","
          <p id=""word"" style=""font-size: 40px;"">scrupliness</p>
          <p style=""font-size: 16px;"">F = YES &nbsp;&nbsp;&nbsp; J = NO</p>
        ","j","html-keyboard-response","189","2.1.0","242341","F=YES, J=NO","278nn44v0k","0","78","85","70","","","","","","","","","scrupliness","dome","pseudoword","pseudoword","j","true","",""
"null","<p style=""font-size: 50px;"">+</p>","null","html-keyboard-response","190","2.1.0","242657","F=YES, J=NO","278nn44v0k","0","78","85","70","","","","","","","","","","","","","","","",""
"null","audio/beep-329314.mp3","null","audio-keyboard-response","191","2.1.0","244192","F=YES, J=NO","278nn44v0k","0","78","85","70","","","","","","","","","","","","","","","",""
"null","audio/tomato.wav","null","audio-keyboard-response","192","2.1.0","244853","F=YES, J=NO","278nn44v0k","0","78","85","70","","","","","","","","","","","","","","","",""
"663","
          <p id=""word"" style=""font-size: 40px;"">gladies</p>
          <p style=""font-size: 16px;"">F = YES &nbsp;&nbsp;&nbsp; J = NO</p>
        ","j","html-keyboard-response","193","2.1.0","245517","F=YES, J=NO","278nn44v0k","0","78","85","70","","","","","","","","","gladies","tomato","pseudoword","pseudoword","j","true","",""
"null","<p style=""font-size: 50px;"">+</p>","null","html-keyboard-response","194","2.1.0","245821","F=YES, J=NO","278nn44v0k","0","78","85","70","","","","","","","","","","","","","","","",""
"null","audio/beep-329314.mp3","null","audio-keyboard-response","195","2.1.0","247353","F=YES, J=NO","278nn44v0k","0","78","85","70","","","","","","","","","","","","","","","",""
"null","audio/neck.wav","null","audio-keyboard-response","196","2.1.0","247893","F=YES, J=NO","278nn44v0k","0","78","85","70","","","","","","","","","","","","","","","",""
"590","
          <p id=""word"" style=""font-size: 40px;"">werling</p>
          <p style=""font-size: 16px;"">F = YES &nbsp;&nbsp;&nbsp; J = NO</p>
        ","j","html-keyboard-response","197","2.1.0","248484","F=YES, J=NO","278nn44v0k","0","78","85","70","","","","","","","","","werling","neck","pseudoword","pseudoword","j","true","",""
"null","<p style=""font-size: 50px;"">+</p>","null","html-keyboard-response","198","2.1.0","248788","F=YES, J=NO","278nn44v0k","0","78","85","70","","","","","","","","","","","","","","","",""
"null","audio/beep-329314.mp3","null","audio-keyboard-response","199","2.1.0","250313","F=YES, J=NO","278nn44v0k","0","78","85","70","","","","","","","","","","","","","","","",""
"null","audio/weapon.wav","null","audio-keyboard-response","200","2.1.0","250873","F=YES, J=NO","278nn44v0k","0","78","85","70","","","","","","","","","","","","","","","",""
"435","
          <p id=""word"" style=""font-size: 40px;"">carry</p>
          <p style=""font-size: 16px;"">F = YES &nbsp;&nbsp;&nbsp; J = NO</p>
        ","f","html-keyboard-response","201","2.1.0","251309","F=YES, J=NO","278nn44v0k","0","78","85","70","","","","","","","","","carry","weapon","literal","experimental","f","true","",""
"null","<p style=""font-size: 50px;"">+</p>","null","html-keyboard-response","202","2.1.0","251621","F=YES, J=NO","278nn44v0k","0","78","85","70","","","","","","","","","","","","","","","",""
"null","audio/beep-329314.mp3","null","audio-keyboard-response","203","2.1.0","253153","F=YES, J=NO","278nn44v0k","0","78","85","70","","","","","","","","","","","","","","","",""
"null","audio/pain1.wav","null","audio-keyboard-response","204","2.1.0","253593","F=YES, J=NO","278nn44v0k","0","78","85","70","","","","","","","","","","","","","","","",""
"475","
          <p id=""word"" style=""font-size: 40px;"">sell</p>
          <p style=""font-size: 16px;"">F = YES &nbsp;&nbsp;&nbsp; J = NO</p>
        ","f","html-keyboard-response","205","2.1.0","254069","F=YES, J=NO","278nn44v0k","0","78","85","70","","","","","","","","","sell","pain1","unrelated","experimental","f","true","",""
"null","<p style=""font-size: 50px;"">+</p>","null","html-keyboard-response","206","2.1.0","254387","F=YES, J=NO","278nn44v0k","0","78","85","70","","","","","","","","","","","","","","","",""
"null","audio/beep-329314.mp3","null","audio-keyboard-response","207","2.1.0","255913","F=YES, J=NO","278nn44v0k","0","78","85","70","","","","","","","","","","","","","","","",""
"null","audio/trust.wav","null","audio-keyboard-response","208","2.1.0","256533","F=YES, J=NO","278nn44v0k","0","78","85","70","","","","","","","","","","","","","","","",""
"447","
          <p id=""word"" style=""font-size: 40px;"">build</p>
          <p style=""font-size: 16px;"">F = YES &nbsp;&nbsp;&nbsp; J = NO</p>
        ","f","html-keyboard-response","209","2.1.0","256981","F=YES, J=NO","278nn44v0k","0","78","85","70","","","","","","","","","build","trust","metaphor","experimental","f","true","",""
"null","<p style=""font-size: 50px;"">+</p>","null","html-keyboard-response","210","2.1.0","257286","F=YES, J=NO","278nn44v0k","0","78","85","70","","","","","","","","","","","","","","","",""
"null","audio/beep-329314.mp3","null","audio-keyboard-response","211","2.1.0","258813","F=YES, J=NO","278nn44v0k","0","78","85","70","","","","","","","","","","","","","","","",""
"null","audio/pig.wav","null","audio-keyboard-response","212","2.1.0","259193","F=YES, J=NO","278nn44v0k","0","78","85","70","","","","","","","","","","","","","","","",""
"682","
          <p id=""word"" style=""font-size: 40px;"">tirlike</p>
          <p style=""font-size: 16px;"">F = YES &nbsp;&nbsp;&nbsp; J = NO</p>
        ","j","html-keyboard-response","213","2.1.0","259876","F=YES, J=NO","278nn44v0k","0","78","85","70","","","","","","","","","tirlike","pig","pseudoword","pseudoword","j","true","",""
"null","<p style=""font-size: 50px;"">+</p>","null","html-keyboard-response","214","2.1.0","260185","F=YES, J=NO","278nn44v0k","0","78","85","70","","","","","","","","","","","","","","","",""
"null","audio/beep-329314.mp3","null","audio-keyboard-response","215","2.1.0","261713","F=YES, J=NO","278nn44v0k","0","78","85","70","","","","","","","","","","","","","","","",""
"null","audio/butter1.wav","null","audio-keyboard-response","216","2.1.0","262173","F=YES, J=NO","278nn44v0k","0","78","85","70","","","","","","","","","","","","","","","",""
"519","
          <p id=""word"" style=""font-size: 40px;"">spread</p>
          <p style=""font-size: 16px;"">F = YES &nbsp;&nbsp;&nbsp; J = NO</p>
        ","f","html-keyboard-response","217","2.1.0","262693","F=YES, J=NO","278nn44v0k","0","78","85","70","","","","","","","","","spread","butter1","literal","experimental","f","true","",""
"null","<p style=""font-size: 50px;"">+</p>","null","html-keyboard-response","218","2.1.0","263000","F=YES, J=NO","278nn44v0k","0","78","85","70","","","","","","","","","","","","","","","",""
"null","audio/beep-329314.mp3","null","audio-keyboard-response","219","2.1.0","264534","F=YES, J=NO","278nn44v0k","0","78","85","70","","","","","","","","","","","","","","","",""
"null","audio/handle.wav","null","audio-keyboard-response","220","2.1.0","265153","F=YES, J=NO","278nn44v0k","0","78","85","70","","","","","","","","","","","","","","","",""
"451","
          <p id=""word"" style=""font-size: 40px;"">grasp</p>
          <p style=""font-size: 16px;"">F = YES &nbsp;&nbsp;&nbsp; J = NO</p>
        ","f","html-keyboard-response","221","2.1.0","265605","F=YES, J=NO","278nn44v0k","0","78","85","70","","","","","","","","","grasp","handle","literal","experimental","f","true","",""
"null","<p style=""font-size: 50px;"">+</p>","null","html-keyboard-response","222","2.1.0","265917","F=YES, J=NO","278nn44v0k","0","78","85","70","","","","","","","","","","","","","","","",""
"null","audio/beep-329314.mp3","null","audio-keyboard-response","223","2.1.0","267453","F=YES, J=NO","278nn44v0k","0","78","85","70","","","","","","","","","","","","","","","",""
"null","audio/arm.wav","null","audio-keyboard-response","224","2.1.0","267992","F=YES, J=NO","278nn44v0k","0","78","85","70","","","","","","","","","","","","","","","",""
"435","
          <p id=""word"" style=""font-size: 40px;"">fold</p>
          <p style=""font-size: 16px;"">F = YES &nbsp;&nbsp;&nbsp; J = NO</p>
        ","f","html-keyboard-response","225","2.1.0","268428","F=YES, J=NO","278nn44v0k","0","78","85","70","","","","","","","","","fold","arm","filler","filler","f","true","",""
"null","<p style=""font-size: 50px;"">+</p>","null","html-keyboard-response","226","2.1.0","268731","F=YES, J=NO","278nn44v0k","0","78","85","70","","","","","","","","","","","","","","","",""
"null","audio/beep-329314.mp3","null","audio-keyboard-response","227","2.1.0","270273","F=YES, J=NO","278nn44v0k","0","78","85","70","","","","","","","","","","","","","","","",""
"null","audio/purpose.wav","null","audio-keyboard-response","228","2.1.0","270932","F=YES, J=NO","278nn44v0k","0","78","85","70","","","","","","","","","","","","","","","",""
"504","
          <p id=""word"" style=""font-size: 40px;"">defeat</p>
          <p style=""font-size: 16px;"">F = YES &nbsp;&nbsp;&nbsp; J = NO</p>
        ","f","html-keyboard-response","229","2.1.0","271437","F=YES, J=NO","278nn44v0k","0","78","85","70","","","","","","","","","defeat","purpose","metaphor","experimental","f","true","",""
"2614","<p>Excellent! You have finished block 1 of 8.</p>
                     <p>Feel free to take a 30 second break.</p>
                     <p>Press any key when you're ready to continue.</p>"," ","html-keyboard-response","230","2.1.0","274053","F=YES, J=NO","278nn44v0k","0","78","85","70","","","","","","","","","","","","","","","",""
"510","<p>Starting main block 2 of 8. Press any key to continue.</p>"," ","html-keyboard-response","231","2.1.0","274565","F=YES, J=NO","278nn44v0k","0","78","85","70","","","","","","","","","","","","","","","",""
"null","<p style=""font-size: 50px;"">+</p>","null","html-keyboard-response","232","2.1.0","274880","F=YES, J=NO","278nn44v0k","0","78","85","70","","","","","","","","","","","","","","","",""
"null","audio/beep-329314.mp3","null","audio-keyboard-response","233","2.1.0","276413","F=YES, J=NO","278nn44v0k","0","78","85","70","","","","","","","","","","","","","","","",""
"null","audio/pattern.wav","null","audio-keyboard-response","234","2.1.0","276913","F=YES, J=NO","278nn44v0k","0","78","85","70","","","","","","","","","","","","","","","",""
"483","
          <p id=""word"" style=""font-size: 40px;"">tug</p>
          <p style=""font-size: 16px;"">F = YES &nbsp;&nbsp;&nbsp; J = NO</p>
        ","f","html-keyboard-response","235","2.1.0","277397","F=YES, J=NO","278nn44v0k","0","78","85","70","","","","","","","","","tug","pattern","filler","filler","f","true","",""
"null","<p style=""font-size: 50px;"">+</p>","null","html-keyboard-response","236","2.1.0","277711","F=YES, J=NO","278nn44v0k","0","78","85","70","","","","","","","","","","","","","","","",""
"null","audio/beep-329314.mp3","null","audio-keyboard-response","237","2.1.0","279253","F=YES, J=NO","278nn44v0k","0","78","85","70","","","","","","","","","","","","","","","",""
"null","audio/purpose.wav","null","audio-keyboard-response","238","2.1.0","279913","F=YES, J=NO","278nn44v0k","0","78","85","70","","","","","","","","","","","","","","","",""
"667","
          <p id=""word"" style=""font-size: 40px;"">whigm</p>
          <p style=""font-size: 16px;"">F = YES &nbsp;&nbsp;&nbsp; J = NO</p>
        ","j","html-keyboard-response","239","2.1.0","280581","F=YES, J=NO","278nn44v0k","0","78","85","70","","","","","","","","","whigm","purpose","pseudoword","pseudoword","j","true","",""
"null","<p style=""font-size: 50px;"">+</p>","null","html-keyboard-response","240","2.1.0","280895","F=YES, J=NO","278nn44v0k","0","78","85","70","","","","","","","","","","","","","","","",""
"null","audio/beep-329314.mp3","null","audio-keyboard-response","241","2.1.0","282433","F=YES, J=NO","278nn44v0k","0","78","85","70","","","","","","","","","","","","","","","",""
"null","audio/milk.wav","null","audio-keyboard-response","242","2.1.0","282993","F=YES, J=NO","278nn44v0k","0","78","85","70","","","","","","","","","","","","","","","",""
"579","
          <p id=""word"" style=""font-size: 40px;"">digest</p>
          <p style=""font-size: 16px;"">F = YES &nbsp;&nbsp;&nbsp; J = NO</p>
        ","f","html-keyboard-response","243","2.1.0","283573","F=YES, J=NO","278nn44v0k","0","78","85","70","","","","","","","","","digest","milk","literal","experimental","f","true","",""
"null","<p style=""font-size: 50px;"">+</p>","null","html-keyboard-response","244","2.1.0","283877","F=YES, J=NO","278nn44v0k","0","78","85","70","","","","","","","","","","","","","","","",""
"null","audio/beep-329314.mp3","null","audio-keyboard-response","245","2.1.0","285413","F=YES, J=NO","278nn44v0k","0","78","85","70","","","","","","","","","","","","","","","",""
"null","audio/arm.wav","null","audio-keyboard-response","246","2.1.0","285953","F=YES, J=NO","278nn44v0k","0","78","85","70","","","","","","","","","","","","","","","",""
"643","
          <p id=""word"" style=""font-size: 40px;"">pigne</p>
          <p style=""font-size: 16px;"">F = YES &nbsp;&nbsp;&nbsp; J = NO</p>
        ","j","html-keyboard-response","247","2.1.0","286597","F=YES, J=NO","278nn44v0k","0","78","85","70","","","","","","","","","pigne","arm","pseudoword","pseudoword","j","true","",""
"null","<p style=""font-size: 50px;"">+</p>","null","html-keyboard-response","248","2.1.0","286909","F=YES, J=NO","278nn44v0k","0","78","85","70","","","","","","","","","","","","","","","",""
"null","audio/beep-329314.mp3","null","audio-keyboard-response","249","2.1.0","288433","F=YES, J=NO","278nn44v0k","0","78","85","70","","","","","","","","","","","","","","","",""
"null","audio/desire.wav","null","audio-keyboard-response","250","2.1.0","289053","F=YES, J=NO","278nn44v0k","0","78","85","70","","","","","","","","","","","","","","","",""
"535","
          <p id=""word"" style=""font-size: 40px;"">open</p>
          <p style=""font-size: 16px;"">F = YES &nbsp;&nbsp;&nbsp; J = NO</p>
        ","f","html-keyboard-response","251","2.1.0","289589","F=YES, J=NO","278nn44v0k","0","78","85","70","","","","","","","","","open","desire","unrelated","experimental","f","true","",""
"null","<p style=""font-size: 50px;"">+</p>","null","html-keyboard-response","252","2.1.0","289891","F=YES, J=NO","278nn44v0k","0","78","85","70","","","","","","","","","","","","","","","",""
"null","audio/beep-329314.mp3","null","audio-keyboard-response","253","2.1.0","291433","F=YES, J=NO","278nn44v0k","0","78","85","70","","","","","","","","","","","","","","","",""
"null","audio/mouth1.wav","null","audio-keyboard-response","254","2.1.0","291993","F=YES, J=NO","278nn44v0k","0","78","85","70","","","","","","","","","","","","","","","",""
"699","
          <p id=""word"" style=""font-size: 40px;"">spolial</p>
          <p style=""font-size: 16px;"">F = YES &nbsp;&nbsp;&nbsp; J = NO</p>
        ","j","html-keyboard-response","255","2.1.0","292693","F=YES, J=NO","278nn44v0k","0","78","85","70","","","","","","","","","spolial","mouth1","pseudoword","pseudoword","j","true","",""
"null","<p style=""font-size: 50px;"">+</p>","null","html-keyboard-response","256","2.1.0","293007","F=YES, J=NO","278nn44v0k","0","78","85","70","","","","","","","","","","","","","","","",""
"null","audio/beep-329314.mp3","null","audio-keyboard-response","257","2.1.0","294533","F=YES, J=NO","278nn44v0k","0","78","85","70","","","","","","","","","","","","","","","",""
"null","audio/mouth1.wav","null","audio-keyboard-response","258","2.1.0","295092","F=YES, J=NO","278nn44v0k","0","78","85","70","","","","","","","","","","","","","","","",""
"496","
          <p id=""word"" style=""font-size: 40px;"">close</p>
          <p style=""font-size: 16px;"">F = YES &nbsp;&nbsp;&nbsp; J = NO</p>
        ","f","html-keyboard-response","259","2.1.0","295590","F=YES, J=NO","278nn44v0k","0","78","85","70","","","","","","","","","close","mouth1","literal","experimental","f","true","",""
"null","<p style=""font-size: 50px;"">+</p>","null","html-keyboard-response","260","2.1.0","295906","F=YES, J=NO","278nn44v0k","0","78","85","70","","","","","","","","","","","","","","","",""
"null","audio/beep-329314.mp3","null","audio-keyboard-response","261","2.1.0","297433","F=YES, J=NO","278nn44v0k","0","78","85","70","","","","","","","","","","","","","","","",""
"null","audio/trout1.wav","null","audio-keyboard-response","262","2.1.0","298013","F=YES, J=NO","278nn44v0k","0","78","85","70","","","","","","","","","","","","","","","",""
"535","
          <p id=""word"" style=""font-size: 40px;"">spimt</p>
          <p style=""font-size: 16px;"">F = YES &nbsp;&nbsp;&nbsp; J = NO</p>
        ","j","html-keyboard-response","263","2.1.0","298549","F=YES, J=NO","278nn44v0k","0","78","85","70","","","","","","","","","spimt","trout1","pseudoword","pseudoword","j","true","",""
"null","<p style=""font-size: 50px;"">+</p>","null","html-keyboard-response","264","2.1.0","298855","F=YES, J=NO","278nn44v0k","0","78","85","70","","","","","","","","","","","","","","","",""
"null","audio/beep-329314.mp3","null","audio-keyboard-response","265","2.1.0","300393","F=YES, J=NO","278nn44v0k","0","78","85","70","","","","","","","","","","","","","","","",""
"null","audio/sugar1.wav","null","audio-keyboard-response","266","2.1.0","300873","F=YES, J=NO","278nn44v0k","0","78","85","70","","","","","","","","","","","","","","","",""
"587","
          <p id=""word"" style=""font-size: 40px;"">glung</p>
          <p style=""font-size: 16px;"">F = YES &nbsp;&nbsp;&nbsp; J = NO</p>
        ","j","html-keyboard-response","267","2.1.0","301461","F=YES, J=NO","278nn44v0k","0","78","85","70","","","","","","","","","glung","sugar1","pseudoword","pseudoword","j","true","",""
"null","<p style=""font-size: 50px;"">+</p>","null","html-keyboard-response","268","2.1.0","301771","F=YES, J=NO","278nn44v0k","0","78","85","70","","","","","","","","","","","","","","","",""
"null","audio/beep-329314.mp3","null","audio-keyboard-response","269","2.1.0","303313","F=YES, J=NO","278nn44v0k","0","78","85","70","","","","","","","","","","","","","","","",""
"null","audio/foe1.wav","null","audio-keyboard-response","270","2.1.0","303813","F=YES, J=NO","278nn44v0k","0","78","85","70","","","","","","","","","","","","","","","",""
"607","
          <p id=""word"" style=""font-size: 40px;"">creth</p>
          <p style=""font-size: 16px;"">F = YES &nbsp;&nbsp;&nbsp; J = NO</p>
        ","j","html-keyboard-response","271","2.1.0","304421","F=YES, J=NO","278nn44v0k","0","78","85","70","","","","","","","","","creth","foe1","pseudoword","pseudoword","j","true","",""
"null","<p style=""font-size: 50px;"">+</p>","null","html-keyboard-response","272","2.1.0","304737","F=YES, J=NO","278nn44v0k","0","78","85","70","","","","","","","","","","","","","","","",""
"null","audio/beep-329314.mp3","null","audio-keyboard-response","273","2.1.0","306273","F=YES, J=NO","278nn44v0k","0","78","85","70","","","","","","","","","","","","","","","",""
"null","audio/relief.wav","null","audio-keyboard-response","274","2.1.0","306913","F=YES, J=NO","278nn44v0k","0","78","85","70","","","","","","","","","","","","","","","",""
"587","
          <p id=""word"" style=""font-size: 40px;"">bring</p>
          <p style=""font-size: 16px;"">F = YES &nbsp;&nbsp;&nbsp; J = NO</p>
        ","f","html-keyboard-response","275","2.1.0","307502","F=YES, J=NO","278nn44v0k","0","78","85","70","","","","","","","","","bring","relief","metaphor","experimental","f","true","",""
"null","<p style=""font-size: 50px;"">+</p>","null","html-keyboard-response","276","2.1.0","307819","F=YES, J=NO","278nn44v0k","0","78","85","70","","","","","","","","","","","","","","","",""
"null","audio/beep-329314.mp3","null","audio-keyboard-response","277","2.1.0","309353","F=YES, J=NO","278nn44v0k","0","78","85","70","","","","","","","","","","","","","","","",""
"null","audio/age1.wav","null","audio-keyboard-response","278","2.1.0","309892","F=YES, J=NO","278nn44v0k","0","78","85","70","","","","","","","","","","","","","","","",""
"615","
          <p id=""word"" style=""font-size: 40px;"">seize</p>
          <p style=""font-size: 16px;"">F = YES &nbsp;&nbsp;&nbsp; J = NO</p>
        ","f","html-keyboard-response","279","2.1.0","310509","F=YES, J=NO","278nn44v0k","0","78","85","70","","","","","","","","","seize","age1","unrelated","experimental","f","true","",""
"null","<p style=""font-size: 50px;"">+</p>","null","html-keyboard-response","280","2.1.0","310811","F=YES, J=NO","278nn44v0k","0","78","85","70","","","","","","","","","","","","","","","",""
"null","audio/beep-329314.mp3","null","audio-keyboard-response","281","2.1.0","312353","F=YES, J=NO","278nn44v0k","0","78","85","70","","","","","","","","","","","","","","","",""
"null","audio/inch1.wav","null","audio-keyboard-response","282","2.1.0","312933","F=YES, J=NO","278nn44v0k","0","78","85","70","","","","","","","","","","","","","","","",""
"494","
          <p id=""word"" style=""font-size: 40px;"">lose</p>
          <p style=""font-size: 16px;"">F = YES &nbsp;&nbsp;&nbsp; J = NO</p>
        ","f","html-keyboard-response","283","2.1.0","313429","F=YES, J=NO","278nn44v0k","0","78","85","70","","","","","","","","","lose","inch1","metaphor","experimental","f","true","",""
"null","<p style=""font-size: 50px;"">+</p>","null","html-keyboard-response","284","2.1.0","313734","F=YES, J=NO","278nn44v0k","0","78","85","70","","","","","","","","","","","","","","","",""
"null","audio/beep-329314.mp3","null","audio-keyboard-response","285","2.1.0","315272","F=YES, J=NO","278nn44v0k","0","78","85","70","","","","","","","","","","","","","","","",""
"null","audio/strength.wav","null","audio-keyboard-response","286","2.1.0","315993","F=YES, J=NO","278nn44v0k","0","78","85","70","","","","","","","","","","","","","","","",""
"595","
          <p id=""word"" style=""font-size: 40px;"">plabet</p>
          <p style=""font-size: 16px;"">F = YES &nbsp;&nbsp;&nbsp; J = NO</p>
        ","j","html-keyboard-response","287","2.1.0","316589","F=YES, J=NO","278nn44v0k","0","78","85","70","","","","","","","","","plabet","strength","pseudoword","pseudoword","j","true","",""
"null","<p style=""font-size: 50px;"">+</p>","null","html-keyboard-response","288","2.1.0","316899","F=YES, J=NO","278nn44v0k","0","78","85","70","","","","","","","","","","","","","","","",""
"null","audio/beep-329314.mp3","null","audio-keyboard-response","289","2.1.0","318432","F=YES, J=NO","278nn44v0k","0","78","85","70","","","","","","","","","","","","","","","",""
"null","audio/butter1.wav","null","audio-keyboard-response","290","2.1.0","318873","F=YES, J=NO","278nn44v0k","0","78","85","70","","","","","","","","","","","","","","","",""
"563","
          <p id=""word"" style=""font-size: 40px;"">chew</p>
          <p style=""font-size: 16px;"">F = YES &nbsp;&nbsp;&nbsp; J = NO</p>
        ","f","html-keyboard-response","291","2.1.0","319437","F=YES, J=NO","278nn44v0k","0","78","85","70","","","","","","","","","chew","butter1","filler","filler","f","true","",""
"null","<p style=""font-size: 50px;"">+</p>","null","html-keyboard-response","292","2.1.0","319749","F=YES, J=NO","278nn44v0k","0","78","85","70","","","","","","","","","","","","","","","",""
"null","audio/beep-329314.mp3","null","audio-keyboard-response","293","2.1.0","321273","F=YES, J=NO","278nn44v0k","0","78","85","70","","","","","","","","","","","","","","","",""
"null","audio/brain.wav","null","audio-keyboard-response","294","2.1.0","321753","F=YES, J=NO","278nn44v0k","0","78","85","70","","","","","","","","","","","","","","","",""
"443","
          <p id=""word"" style=""font-size: 40px;"">throw</p>
          <p style=""font-size: 16px;"">F = YES &nbsp;&nbsp;&nbsp; J = NO</p>
        ","f","html-keyboard-response","295","2.1.0","322197","F=YES, J=NO","278nn44v0k","0","78","85","70","","","","","","","","","throw","brain","filler","filler","f","true","",""
"1022","<p>Excellent! You have finished block 2 of 8.</p>
                     <p>Feel free to take a 30 second break.</p>
                     <p>Press any key when you're ready to continue.</p>"," ","html-keyboard-response","296","2.1.0","323220","F=YES, J=NO","278nn44v0k","0","78","85","70","","","","","","","","","","","","","","","",""
"505","<p>Starting main block 3 of 8. Press any key to continue.</p>"," ","html-keyboard-response","297","2.1.0","323726","F=YES, J=NO","278nn44v0k","0","78","85","70","","","","","","","","","","","","","","","",""
"null","<p style=""font-size: 50px;"">+</p>","null","html-keyboard-response","298","2.1.0","324030","F=YES, J=NO","278nn44v0k","0","78","85","70","","","","","","","","","","","","","","","",""
"null","audio/beep-329314.mp3","null","audio-keyboard-response","299","2.1.0","325573","F=YES, J=NO","278nn44v0k","0","78","85","70","","","","","","","","","","","","","","","",""
"null","audio/show.wav","null","audio-keyboard-response","300","2.1.0","326112","F=YES, J=NO","278nn44v0k","0","78","85","70","","","","","","","","","","","","","","","",""
"412","
          <p id=""word"" style=""font-size: 40px;"">smark</p>
          <p style=""font-size: 16px;"">F = YES &nbsp;&nbsp;&nbsp; J = NO</p>
        ","f","html-keyboard-response","301","2.1.0","326525","F=YES, J=NO","278nn44v0k","0","78","85","70","","","","","","","","","smark","show","pseudoword","pseudoword","j","false","",""
"null","<p style=""font-size: 50px;"">+</p>","null","html-keyboard-response","302","2.1.0","326829","F=YES, J=NO","278nn44v0k","0","78","85","70","","","","","","","","","","","","","","","",""
"null","audio/beep-329314.mp3","null","audio-keyboard-response","303","2.1.0","328353","F=YES, J=NO","278nn44v0k","0","78","85","70","","","","","","","","","","","","","","","",""
"null","audio/gossip1.wav","null","audio-keyboard-response","304","2.1.0","328972","F=YES, J=NO","278nn44v0k","0","78","85","70","","","","","","","","","","","","","","","",""
"464","
          <p id=""word"" style=""font-size: 40px;"">wrestle</p>
          <p style=""font-size: 16px;"">F = YES &nbsp;&nbsp;&nbsp; J = NO</p>
        ","f","html-keyboard-response","305","2.1.0","329437","F=YES, J=NO","278nn44v0k","0","78","85","70","","","","","","","","","wrestle","gossip1","unrelated","experimental","f","true","",""
"null","<p style=""font-size: 50px;"">+</p>","null","html-keyboard-response","306","2.1.0","329745","F=YES, J=NO","278nn44v0k","0","78","85","70","","","","","","","","","","","","","","","",""
"null","audio/beep-329314.mp3","null","audio-keyboard-response","307","2.1.0","331273","F=YES, J=NO","278nn44v0k","0","78","85","70","","","","","","","","","","","","","","","",""
"null","audio/cave1.wav","null","audio-keyboard-response","308","2.1.0","331812","F=YES, J=NO","278nn44v0k","0","78","85","70","","","","","","","","","","","","","","","",""
"512","
          <p id=""word"" style=""font-size: 40px;"">blacket</p>
          <p style=""font-size: 16px;"">F = YES &nbsp;&nbsp;&nbsp; J = NO</p>
        ","f","html-keyboard-response","309","2.1.0","332325","F=YES, J=NO","278nn44v0k","0","78","85","70","","","","","","","","","blacket","cave1","pseudoword","pseudoword","j","false","",""
"null","<p style=""font-size: 50px;"">+</p>","null","html-keyboard-response","310","2.1.0","332628","F=YES, J=NO","278nn44v0k","0","78","85","70","","","","","","","","","","","","","","","",""
"null","audio/beep-329314.mp3","null","audio-keyboard-response","311","2.1.0","334153","F=YES, J=NO","278nn44v0k","0","78","85","70","","","","","","","","","","","","","","","",""
"null","audio/foot1.wav","null","audio-keyboard-response","312","2.1.0","334913","F=YES, J=NO","278nn44v0k","0","78","85","70","","","","","","","","","","","","","","","",""
"723","
          <p id=""word"" style=""font-size: 40px;"">thrutt</p>
          <p style=""font-size: 16px;"">F = YES &nbsp;&nbsp;&nbsp; J = NO</p>
        ","j","html-keyboard-response","313","2.1.0","335637","F=YES, J=NO","278nn44v0k","0","78","85","70","","","","","","","","","thrutt","foot1","pseudoword","pseudoword","j","true","",""
"null","<p style=""font-size: 50px;"">+</p>","null","html-keyboard-response","314","2.1.0","335943","F=YES, J=NO","278nn44v0k","0","78","85","70","","","","","","","","","","","","","","","",""
"null","audio/beep-329314.mp3","null","audio-keyboard-response","315","2.1.0","337473","F=YES, J=NO","278nn44v0k","0","78","85","70","","","","","","","","","","","","","","","",""
"null","audio/survey1.wav","null","audio-keyboard-response","316","2.1.0","338193","F=YES, J=NO","278nn44v0k","0","78","85","70","","","","","","","","","","","","","","","",""
"563","
          <p id=""word"" style=""font-size: 40px;"">imploth</p>
          <p style=""font-size: 16px;"">F = YES &nbsp;&nbsp;&nbsp; J = NO</p>
        ","j","html-keyboard-response","317","2.1.0","338757","F=YES, J=NO","278nn44v0k","0","78","85","70","","","","","","","","","imploth","survey1","pseudoword","pseudoword","j","true","",""
"null","<p style=""font-size: 50px;"">+</p>","null","html-keyboard-response","318","2.1.0","339059","F=YES, J=NO","278nn44v0k","0","78","85","70","","","","","","","","","","","","","","","",""
"null","audio/beep-329314.mp3","null","audio-keyboard-response","319","2.1.0","340593","F=YES, J=NO","278nn44v0k","0","78","85","70","","","","","","","","","","","","","","","",""
"null","audio/relief.wav","null","audio-keyboard-response","320","2.1.0","341232","F=YES, J=NO","278nn44v0k","0","78","85","70","","","","","","","","","","","","","","","",""
"563","
          <p id=""word"" style=""font-size: 40px;"">grigg</p>
          <p style=""font-size: 16px;"">F = YES &nbsp;&nbsp;&nbsp; J = NO</p>
        ","j","html-keyboard-response","321","2.1.0","341797","F=YES, J=NO","278nn44v0k","0","78","85","70","","","","","","","","","grigg","relief","pseudoword","pseudoword","j","true","",""
"null","<p style=""font-size: 50px;"">+</p>","null","html-keyboard-response","322","2.1.0","342108","F=YES, J=NO","278nn44v0k","0","78","85","70","","","","","","","","","","","","","","","",""
"null","audio/beep-329314.mp3","null","audio-keyboard-response","323","2.1.0","343633","F=YES, J=NO","278nn44v0k","0","78","85","70","","","","","","","","","","","","","","","",""
"null","audio/pain1.wav","null","audio-keyboard-response","324","2.1.0","344073","F=YES, J=NO","278nn44v0k","0","78","85","70","","","","","","","","","","","","","","","",""
"690","
          <p id=""word"" style=""font-size: 40px;"">tritted</p>
          <p style=""font-size: 16px;"">F = YES &nbsp;&nbsp;&nbsp; J = NO</p>
        ","j","html-keyboard-response","325","2.1.0","344764","F=YES, J=NO","278nn44v0k","0","78","85","70","","","","","","","","","tritted","pain1","pseudoword","pseudoword","j","true","",""
"null","<p style=""font-size: 50px;"">+</p>","null","html-keyboard-response","326","2.1.0","345073","F=YES, J=NO","278nn44v0k","0","78","85","70","","","","","","","","","","","","","","","",""
"null","audio/beep-329314.mp3","null","audio-keyboard-response","327","2.1.0","346613","F=YES, J=NO","278nn44v0k","0","78","85","70","","","","","","","","","","","","","","","",""
"null","audio/alarm1.wav","null","audio-keyboard-response","328","2.1.0","347192","F=YES, J=NO","278nn44v0k","0","78","85","70","","","","","","","","","","","","","","","",""
"555","
          <p id=""word"" style=""font-size: 40px;"">swetp</p>
          <p style=""font-size: 16px;"">F = YES &nbsp;&nbsp;&nbsp; J = NO</p>
        ","j","html-keyboard-response","329","2.1.0","347749","F=YES, J=NO","278nn44v0k","0","78","85","70","","","","","","","","","swetp","alarm1","pseudoword","pseudoword","j","true","",""
"null","<p style=""font-size: 50px;"">+</p>","null","html-keyboard-response","330","2.1.0","348056","F=YES, J=NO","278nn44v0k","0","78","85","70","","","","","","","","","","","","","","","",""
"null","audio/beep-329314.mp3","null","audio-keyboard-response","331","2.1.0","349593","F=YES, J=NO","278nn44v0k","0","78","85","70","","","","","","","","","","","","","","","",""
"null","audio/bomb1.wav","null","audio-keyboard-response","332","2.1.0","349973","F=YES, J=NO","278nn44v0k","0","78","85","70","","","","","","","","","","","","","","","",""
"487","
          <p id=""word"" style=""font-size: 40px;"">drop</p>
          <p style=""font-size: 16px;"">F = YES &nbsp;&nbsp;&nbsp; J = NO</p>
        ","f","html-keyboard-response","333","2.1.0","350461","F=YES, J=NO","278nn44v0k","0","78","85","70","","","","","","","","","drop","bomb1","literal","experimental","f","true","",""
"null","<p style=""font-size: 50px;"">+</p>","null","html-keyboard-response","334","2.1.0","350771","F=YES, J=NO","278nn44v0k","0","78","85","70","","","","","","","","","","","","","","","",""
"null","audio/beep-329314.mp3","null","audio-keyboard-response","335","2.1.0","352313","F=YES, J=NO","278nn44v0k","0","78","85","70","","","","","","","","","","","","","","","",""
"null","audio/cottage1.wav","null","audio-keyboard-response","336","2.1.0","352953","F=YES, J=NO","278nn44v0k","0","78","85","70","","","","","","","","","","","","","","","",""
"499","
          <p id=""word"" style=""font-size: 40px;"">release</p>
          <p style=""font-size: 16px;"">F = YES &nbsp;&nbsp;&nbsp; J = NO</p>
        ","f","html-keyboard-response","337","2.1.0","353453","F=YES, J=NO","278nn44v0k","0","78","85","70","","","","","","","","","release","cottage1","unrelated","experimental","f","true","",""
"null","<p style=""font-size: 50px;"">+</p>","null","html-keyboard-response","338","2.1.0","353771","F=YES, J=NO","278nn44v0k","0","78","85","70","","","","","","","","","","","","","","","",""
"null","audio/beep-329314.mp3","null","audio-keyboard-response","339","2.1.0","355292","F=YES, J=NO","278nn44v0k","0","78","85","70","","","","","","","","","","","","","","","",""
"null","audio/emotion.wav","null","audio-keyboard-response","340","2.1.0","355932","F=YES, J=NO","278nn44v0k","0","78","85","70","","","","","","","","","","","","","","","",""
"527","
          <p id=""word"" style=""font-size: 40px;"">bury</p>
          <p style=""font-size: 16px;"">F = YES &nbsp;&nbsp;&nbsp; J = NO</p>
        ","f","html-keyboard-response","341","2.1.0","356461","F=YES, J=NO","278nn44v0k","0","78","85","70","","","","","","","","","bury","emotion","metaphor","experimental","f","true","",""
"null","<p style=""font-size: 50px;"">+</p>","null","html-keyboard-response","342","2.1.0","356769","F=YES, J=NO","278nn44v0k","0","78","85","70","","","","","","","","","","","","","","","",""
"null","audio/beep-329314.mp3","null","audio-keyboard-response","343","2.1.0","358293","F=YES, J=NO","278nn44v0k","0","78","85","70","","","","","","","","","","","","","","","",""
"null","audio/flaw.wav","null","audio-keyboard-response","344","2.1.0","359093","F=YES, J=NO","278nn44v0k","0","78","85","70","","","","","","","","","","","","","","","",""
"575","
          <p id=""word"" style=""font-size: 40px;"">thwool</p>
          <p style=""font-size: 16px;"">F = YES &nbsp;&nbsp;&nbsp; J = NO</p>
        ","j","html-keyboard-response","345","2.1.0","359669","F=YES, J=NO","278nn44v0k","0","78","85","70","","","","","","","","","thwool","flaw","pseudoword","pseudoword","j","true","",""
"null","<p style=""font-size: 50px;"">+</p>","null","html-keyboard-response","346","2.1.0","359985","F=YES, J=NO","278nn44v0k","0","78","85","70","","","","","","","","","","","","","","","",""
"null","audio/beep-329314.mp3","null","audio-keyboard-response","347","2.1.0","361513","F=YES, J=NO","278nn44v0k","0","78","85","70","","","","","","","","","","","","","","","",""
"null","audio/ego.wav","null","audio-keyboard-response","348","2.1.0","362052","F=YES, J=NO","278nn44v0k","0","78","85","70","","","","","","","","","","","","","","","",""
"607","
          <p id=""word"" style=""font-size: 40px;"">bruite</p>
          <p style=""font-size: 16px;"">F = YES &nbsp;&nbsp;&nbsp; J = NO</p>
        ","j","html-keyboard-response","349","2.1.0","362661","F=YES, J=NO","278nn44v0k","0","78","85","70","","","","","","","","","bruite","ego","pseudoword","pseudoword","j","true","",""
"null","<p style=""font-size: 50px;"">+</p>","null","html-keyboard-response","350","2.1.0","362968","F=YES, J=NO","278nn44v0k","0","78","85","70","","","","","","","","","","","","","","","",""
"null","audio/beep-329314.mp3","null","audio-keyboard-response","351","2.1.0","364493","F=YES, J=NO","278nn44v0k","0","78","85","70","","","","","","","","","","","","","","","",""
"null","audio/dollar.wav","null","audio-keyboard-response","352","2.1.0","364873","F=YES, J=NO","278nn44v0k","0","78","85","70","","","","","","","","","","","","","","","",""
"691","
          <p id=""word"" style=""font-size: 40px;"">gliptism</p>
          <p style=""font-size: 16px;"">F = YES &nbsp;&nbsp;&nbsp; J = NO</p>
        ","j","html-keyboard-response","353","2.1.0","365565","F=YES, J=NO","278nn44v0k","0","78","85","70","","","","","","","","","gliptism","dollar","pseudoword","pseudoword","j","true","",""
"null","<p style=""font-size: 50px;"">+</p>","null","html-keyboard-response","354","2.1.0","365883","F=YES, J=NO","278nn44v0k","0","78","85","70","","","","","","","","","","","","","","","",""
"null","audio/beep-329314.mp3","null","audio-keyboard-response","355","2.1.0","367413","F=YES, J=NO","278nn44v0k","0","78","85","70","","","","","","","","","","","","","","","",""
"null","audio/wool1.wav","null","audio-keyboard-response","356","2.1.0","367772","F=YES, J=NO","278nn44v0k","0","78","85","70","","","","","","","","","","","","","","","",""
"599","
          <p id=""word"" style=""font-size: 40px;"">weave</p>
          <p style=""font-size: 16px;"">F = YES &nbsp;&nbsp;&nbsp; J = NO</p>
        ","f","html-keyboard-response","357","2.1.0","368373","F=YES, J=NO","278nn44v0k","0","78","85","70","","","","","","","","","weave","wool1","literal","experimental","f","true","",""
"null","<p style=""font-size: 50px;"">+</p>","null","html-keyboard-response","358","2.1.0","368681","F=YES, J=NO","278nn44v0k","0","78","85","70","","","","","","","","","","","","","","","",""
"null","audio/beep-329314.mp3","null","audio-keyboard-response","359","2.1.0","370213","F=YES, J=NO","278nn44v0k","0","78","85","70","","","","","","","","","","","","","","","",""
"null","audio/roof1.wav","null","audio-keyboard-response","360","2.1.0","370753","F=YES, J=NO","278nn44v0k","0","78","85","70","","","","","","","","","","","","","","","",""
"443","
          <p id=""word"" style=""font-size: 40px;"">construct</p>
          <p style=""font-size: 16px;"">F = YES &nbsp;&nbsp;&nbsp; J = NO</p>
        ","f","html-keyboard-response","361","2.1.0","371197","F=YES, J=NO","278nn44v0k","0","78","85","70","","","","","","","","","construct","roof1","literal","experimental","f","true","",""
"1262","<p>Excellent! You have finished block 3 of 8.</p>
                     <p>Feel free to take a 30 second break.</p>
                     <p>Press any key when you're ready to continue.</p>"," ","html-keyboard-response","362","2.1.0","372461","F=YES, J=NO","278nn44v0k","0","78","85","70","","","","","","","","","","","","","","","",""
"527","<p>Starting main block 4 of 8. Press any key to continue.</p>"," ","html-keyboard-response","363","2.1.0","372989","F=YES, J=NO","278nn44v0k","0","78","85","70","","","","","","","","","","","","","","","",""
"null","<p style=""font-size: 50px;"">+</p>","null","html-keyboard-response","364","2.1.0","373294","F=YES, J=NO","278nn44v0k","0","78","85","70","","","","","","","","","","","","","","","",""
"null","audio/beep-329314.mp3","null","audio-keyboard-response","365","2.1.0","374833","F=YES, J=NO","278nn44v0k","0","78","85","70","","","","","","","","","","","","","","","",""
"null","audio/emotion.wav","null","audio-keyboard-response","366","2.1.0","375473","F=YES, J=NO","278nn44v0k","0","78","85","70","","","","","","","","","","","","","","","",""
"443","
          <p id=""word"" style=""font-size: 40px;"">devering</p>
          <p style=""font-size: 16px;"">F = YES &nbsp;&nbsp;&nbsp; J = NO</p>
        ","f","html-keyboard-response","367","2.1.0","375917","F=YES, J=NO","278nn44v0k","0","78","85","70","","","","","","","","","devering","emotion","pseudoword","pseudoword","j","false","",""
"null","<p style=""font-size: 50px;"">+</p>","null","html-keyboard-response","368","2.1.0","376230","F=YES, J=NO","278nn44v0k","0","78","85","70","","","","","","","","","","","","","","","",""
"null","audio/beep-329314.mp3","null","audio-keyboard-response","369","2.1.0","377753","F=YES, J=NO","278nn44v0k","0","78","85","70","","","","","","","","","","","","","","","",""
"null","audio/camera1.wav","null","audio-keyboard-response","370","2.1.0","378232","F=YES, J=NO","278nn44v0k","0","78","85","70","","","","","","","","","","","","","","","",""
"580","
          <p id=""word"" style=""font-size: 40px;"">stir</p>
          <p style=""font-size: 16px;"">F = YES &nbsp;&nbsp;&nbsp; J = NO</p>
        ","f","html-keyboard-response","371","2.1.0","378813","F=YES, J=NO","278nn44v0k","0","78","85","70","","","","","","","","","stir","camera1","filler","filler","f","true","",""
"null","<p style=""font-size: 50px;"">+</p>","null","html-keyboard-response","372","2.1.0","379129","F=YES, J=NO","278nn44v0k","0","78","85","70","","","","","","","","","","","","","","","",""
"null","audio/beep-329314.mp3","null","audio-keyboard-response","373","2.1.0","380653","F=YES, J=NO","278nn44v0k","0","78","85","70","","","","","","","","","","","","","","","",""
"null","audio/budget1.wav","null","audio-keyboard-response","374","2.1.0","381252","F=YES, J=NO","278nn44v0k","0","78","85","70","","","","","","","","","","","","","","","",""
"583","
          <p id=""word"" style=""font-size: 40px;"">sulist</p>
          <p style=""font-size: 16px;"">F = YES &nbsp;&nbsp;&nbsp; J = NO</p>
        ","j","html-keyboard-response","375","2.1.0","381837","F=YES, J=NO","278nn44v0k","0","78","85","70","","","","","","","","","sulist","budget1","pseudoword","pseudoword","j","true","",""
"null","<p style=""font-size: 50px;"">+</p>","null","html-keyboard-response","376","2.1.0","382145","F=YES, J=NO","278nn44v0k","0","78","85","70","","","","","","","","","","","","","","","",""
"null","audio/beep-329314.mp3","null","audio-keyboard-response","377","2.1.0","383673","F=YES, J=NO","278nn44v0k","0","78","85","70","","","","","","","","","","","","","","","",""
"null","audio/flaw.wav","null","audio-keyboard-response","378","2.1.0","384292","F=YES, J=NO","278nn44v0k","0","78","85","70","","","","","","","","","","","","","","","",""
"463","
          <p id=""word"" style=""font-size: 40px;"">hide</p>
          <p style=""font-size: 16px;"">F = YES &nbsp;&nbsp;&nbsp; J = NO</p>
        ","f","html-keyboard-response","379","2.1.0","384757","F=YES, J=NO","278nn44v0k","0","78","85","70","","","","","","","","","hide","flaw","metaphor","experimental","f","true","",""
"null","<p style=""font-size: 50px;"">+</p>","null","html-keyboard-response","380","2.1.0","385060","F=YES, J=NO","278nn44v0k","0","78","85","70","","","","","","","","","","","","","","","",""
"null","audio/beep-329314.mp3","null","audio-keyboard-response","381","2.1.0","386593","F=YES, J=NO","278nn44v0k","0","78","85","70","","","","","","","","","","","","","","","",""
"null","audio/noise1.wav","null","audio-keyboard-response","382","2.1.0","387253","F=YES, J=NO","278nn44v0k","0","78","85","70","","","","","","","","","","","","","","","",""
"703","
          <p id=""word"" style=""font-size: 40px;"">slintered</p>
          <p style=""font-size: 16px;"">F = YES &nbsp;&nbsp;&nbsp; J = NO</p>
        ","j","html-keyboard-response","383","2.1.0","387957","F=YES, J=NO","278nn44v0k","0","78","85","70","","","","","","","","","slintered","noise1","pseudoword","pseudoword","j","true","",""
"null","<p style=""font-size: 50px;"">+</p>","null","html-keyboard-response","384","2.1.0","388276","F=YES, J=NO","278nn44v0k","0","78","85","70","","","","","","","","","","","","","","","",""
"null","audio/beep-329314.mp3","null","audio-keyboard-response","385","2.1.0","389813","F=YES, J=NO","278nn44v0k","0","78","85","70","","","","","","","","","","","","","","","",""
"null","audio/cash1.wav","null","audio-keyboard-response","386","2.1.0","390512","F=YES, J=NO","278nn44v0k","0","78","85","70","","","","","","","","","","","","","","","",""
"652","
          <p id=""word"" style=""font-size: 40px;"">splear</p>
          <p style=""font-size: 16px;"">F = YES &nbsp;&nbsp;&nbsp; J = NO</p>
        ","j","html-keyboard-response","387","2.1.0","391165","F=YES, J=NO","278nn44v0k","0","78","85","70","","","","","","","","","splear","cash1","pseudoword","pseudoword","j","true","",""
"null","<p style=""font-size: 50px;"">+</p>","null","html-keyboard-response","388","2.1.0","391475","F=YES, J=NO","278nn44v0k","0","78","85","70","","","","","","","","","","","","","","","",""
"null","audio/beep-329314.mp3","null","audio-keyboard-response","389","2.1.0","393013","F=YES, J=NO","278nn44v0k","0","78","85","70","","","","","","","","","","","","","","","",""
"null","audio/van1.wav","null","audio-keyboard-response","390","2.1.0","393492","F=YES, J=NO","278nn44v0k","0","78","85","70","","","","","","","","","","","","","","","",""
"519","
          <p id=""word"" style=""font-size: 40px;"">push</p>
          <p style=""font-size: 16px;"">F = YES &nbsp;&nbsp;&nbsp; J = NO</p>
        ","f","html-keyboard-response","391","2.1.0","394013","F=YES, J=NO","278nn44v0k","0","78","85","70","","","","","","","","","push","van1","filler","filler","f","true","",""
