"rt","stimulus","response","trial_type","trial_index","plugin_version","time_elapsed","response_mapping","subject_id","list_index","lextale_score","lextale_word_score","lextale_nonword_score","success","timeout","failed_images","failed_audio","failed_video","task","isWord","isDummy","target","prime","prime_type","stimulus_type","correct_response","correct","section","question_order"
"15276","
    <div style=""max-width: 800px; margin: auto; text-align: left;"">
      <h2>STANFORD UNIVERSITY</h2>
      <h3>Research Information Sheet</h3>
      <p><strong>Protocol Director:</strong> Robert Hawkins<br>
      <strong>Protocol Title:</strong> Communication and social cognition in natural audiovisual contexts<br>
      <strong>IRB#:</strong> 77226</p>

      <p><strong>DESCRIPTION:</strong> You are invited to participate in a research study about language and communication. The purpose of the research is to understand how you interact and communicate with other people in naturalistic settings as a fluent English speaker. This research will be conducted through the Prolific platform, including participants from the US, UK, and Canada. If you decide to participate in this research, you will play a communication game in a group with one or more partners.</p>

      <p><strong>TIME INVOLVEMENT:</strong> The task will last the amount of time advertised on Prolific. You are free to withdraw from the study at any time.</p>

      <p><strong>RISKS AND BENEFITS:</strong> You may become frustrated if your partner gets distracted, or experience discomfort if other participants in your group send text that is inappropriate for the task. We ask you to please be respectful of other participants you might be interacting with to mitigate these risks. You may also experience discomfort when being asked to discuss or challenge emotionally salient political beliefs. Study data will be stored securely, in compliance with Stanford University standards, minimizing the risk of confidentiality breach. This study advances our scientific understanding of how people communicate and collaborate in naturalistic settings. This study may lead to further insights about what can go wrong in teamwork, suggest potential interventions to overcome these barriers, and help to develop assistive technologies that collaborate with human partners. We cannot and do not guarantee or promise that you will receive any benefits from this study.</p>

      <p><strong>PAYMENTS:</strong> You will receive payment in the amount advertised on Prolific. If you do not complete this study, you will receive prorated payment based on the time that you have spent. Additionally, you may be eligible for bonus payments as described in the instructions.</p>

      <p><strong>PARTICIPANT’S RIGHTS:</strong> If you have read this form and have decided to participate in this project, please understand your participation is voluntary and you have the right to withdraw your consent or discontinue participation at any time without penalty or loss of benefits to which you are otherwise entitled. The alternative is not to participate. You have the right to refuse to answer particular questions. The results of this research study may be presented at scientific or professional meetings or published in scientific journals. Your individual privacy will be maintained in all published and written data resulting from the study. In accordance with scientific norms, the data from this study may be used or shared with other researchers for future research (after removing personally identifying information) without additional consent from you.</p>

      <p><strong>CONTACT INFORMATION:</strong><br>
      Questions: If you have any questions, concerns or complaints about this research, its procedures, risks and benefits, contact the Protocol Director, Robert Hawkins (<a href=""mailto:rdhawkins@stanford.edu"">rdhawkins@stanford.edu</a>, 217-549-6923).<br>
      Independent Contact: If you are not satisfied with how this study is being conducted, or if you have any concerns, complaints, or general questions about the research or your rights as a participant, please contact the Stanford Institutional Review Board (IRB) to speak to someone independent of the research team at 650-723-2480 or toll free at 1-866-680-2906, or email at <a href=""mailto:irbnon-med@stanford.edu"">irbnon-med@stanford.edu</a>. You can also write to the Stanford IRB, Stanford University, 1705 El Camino Real, Palo Alto, CA 94306.</p>

      <p><strong>Please save or print a copy of this page for your records.</strong></p>
      <p>If you agree to participate in this research, click ""Continue"" below.</p>
    </div>
  ","0","html-button-response","0","2.1.0","15285","F=YES, J=NO","29d5na0yq5","1","79","73","85","","","","","","","","","","","","","","","",""
"9992","
    <div style=""max-width: 800px; margin: auto; text-align: left;"">
      <h2>Welcome!</h2>
      <p>Thank you for participating in this study. The experiment consists of three parts:</p>
      <ol>
        <li>An English vocabulary test</li>
        <li>A main task in which you will hear and see words, and decide whether the written word is a real English word</li>
        <li>A brief survey about your background</li>
      </ol>
      <p>Each part will be introduced before it begins.</p>
      <p>Please make sure you are in a quiet environment and can hear audio clearly for the final task.</p>
      <p style=""margin-top: 2em;"">Press any key to begin.</p>
    </div>
  ","Enter","html-keyboard-response","1","2.1.0","25280","F=YES, J=NO","29d5na0yq5","1","79","73","85","","","","","","","","","","","","","","","",""
"","","","preload","2","2.1.0","27096","F=YES, J=NO","29d5na0yq5","1","79","73","85","true","false","[]","[]","[]","","","","","","","","","","",""
"2520","
    <div style=""max-width: 800px; margin: auto; text-align: left;"">
      <h2>Part 1: Vocabulary Test</h2>
      <p>You will now complete the first part of the study: a short English vocabulary test.</p>
      <p>This test is called <strong>LexTALE</strong> and helps us get a general sense of your English proficiency.</p>
      <p style=""margin-top: 2em;"">Press any key to continue.</p>
    </div>
  ","Enter","html-keyboard-response","3","2.1.0","29617","F=YES, J=NO","29d5na0yq5","1","79","73","85","","","","","","","","","","","","","","","",""
"7939","
    <div style=""max-width: 800px; margin: auto; text-align: left;"">
      <h2>LexTALE Vocabulary Test</h2>
      <p>In this test, you will see a series of letter strings—one at a time.</p>
      <p>Your task is to decide whether each string is a real English word.</p>
      <p><strong>Key responses:</strong></p>
      <ul>
        <li><strong>F</strong> = YES (real English word)</li>
        <li><strong>J</strong> = NO (not a real English word)</li>
      </ul>
      <p>There is no time limit, but please try to be accurate.</p>
      <p style=""margin-top: 2em;"">Press any key to begin.</p>
    </div>
  ","f","html-keyboard-response","4","2.1.0","37557","F=YES, J=NO","29d5na0yq5","1","79","73","85","","","","","","","","","","","","","","","",""
"1503","
  <p style=""font-size: 40px;"">platery</p>
  <p style=""font-size: 16px;"">F = YES &nbsp;&nbsp;&nbsp; J = NO</p>
","f","html-keyboard-response","5","2.1.0","39060","F=YES, J=NO","29d5na0yq5","1","79","73","85","","","","","","lextale","false","true","","","","","","","",""
"718","
  <p style=""font-size: 40px;"">denial</p>
  <p style=""font-size: 16px;"">F = YES &nbsp;&nbsp;&nbsp; J = NO</p>
","f","html-keyboard-response","6","2.1.0","39778","F=YES, J=NO","29d5na0yq5","1","79","73","85","","","","","","lextale","true","true","","","","","","","",""
"807","
  <p style=""font-size: 40px;"">marrit</p>
  <p style=""font-size: 16px;"">F = YES &nbsp;&nbsp;&nbsp; J = NO</p>
","j","html-keyboard-response","7","2.1.0","40586","F=YES, J=NO","29d5na0yq5","1","79","73","85","","","","","","lextale","false","true","","","","","","","",""
"633","
  <p style=""font-size: 40px;"">bottle</p>
  <p style=""font-size: 16px;"">F = YES &nbsp;&nbsp;&nbsp; J = NO</p>
","f","html-keyboard-response","8","2.1.0","41220","F=YES, J=NO","29d5na0yq5","1","79","73","85","","","","","","lextale","true","false","","","","","","","",""
"1519","
  <p style=""font-size: 40px;"">birst</p>
  <p style=""font-size: 16px;"">F = YES &nbsp;&nbsp;&nbsp; J = NO</p>
","j","html-keyboard-response","9","2.1.0","42740","F=YES, J=NO","29d5na0yq5","1","79","73","85","","","","","","lextale","false","false","","","","","","","",""
"658","
  <p style=""font-size: 40px;"">envy</p>
  <p style=""font-size: 16px;"">F = YES &nbsp;&nbsp;&nbsp; J = NO</p>
","f","html-keyboard-response","10","2.1.0","43399","F=YES, J=NO","29d5na0yq5","1","79","73","85","","","","","","lextale","true","false","","","","","","","",""
"1402","
  <p style=""font-size: 40px;"">brang</p>
  <p style=""font-size: 16px;"">F = YES &nbsp;&nbsp;&nbsp; J = NO</p>
","j","html-keyboard-response","11","2.1.0","44802","F=YES, J=NO","29d5na0yq5","1","79","73","85","","","","","","lextale","false","false","","","","","","","",""
"602","
  <p style=""font-size: 40px;"">huge</p>
  <p style=""font-size: 16px;"">F = YES &nbsp;&nbsp;&nbsp; J = NO</p>
","f","html-keyboard-response","12","2.1.0","45405","F=YES, J=NO","29d5na0yq5","1","79","73","85","","","","","","lextale","true","false","","","","","","","",""
"740","
  <p style=""font-size: 40px;"">plove</p>
  <p style=""font-size: 16px;"">F = YES &nbsp;&nbsp;&nbsp; J = NO</p>
","j","html-keyboard-response","13","2.1.0","46145","F=YES, J=NO","29d5na0yq5","1","79","73","85","","","","","","lextale","false","false","","","","","","","",""
"580","
  <p style=""font-size: 40px;"">border</p>
  <p style=""font-size: 16px;"">F = YES &nbsp;&nbsp;&nbsp; J = NO</p>
","f","html-keyboard-response","14","2.1.0","46725","F=YES, J=NO","29d5na0yq5","1","79","73","85","","","","","","lextale","true","false","","","","","","","",""
"981","
  <p style=""font-size: 40px;"">flimsy</p>
  <p style=""font-size: 16px;"">F = YES &nbsp;&nbsp;&nbsp; J = NO</p>
","f","html-keyboard-response","15","2.1.0","47707","F=YES, J=NO","29d5na0yq5","1","79","73","85","","","","","","lextale","true","false","","","","","","","",""
"722","
  <p style=""font-size: 40px;"">drain</p>
  <p style=""font-size: 16px;"">F = YES &nbsp;&nbsp;&nbsp; J = NO</p>
","f","html-keyboard-response","16","2.1.0","48430","F=YES, J=NO","29d5na0yq5","1","79","73","85","","","","","","lextale","true","false","","","","","","","",""
"1005","
  <p style=""font-size: 40px;"">twindle</p>
  <p style=""font-size: 16px;"">F = YES &nbsp;&nbsp;&nbsp; J = NO</p>
","j","html-keyboard-response","17","2.1.0","49436","F=YES, J=NO","29d5na0yq5","1","79","73","85","","","","","","lextale","false","false","","","","","","","",""
"632","
  <p style=""font-size: 40px;"">propose</p>
  <p style=""font-size: 16px;"">F = YES &nbsp;&nbsp;&nbsp; J = NO</p>
","f","html-keyboard-response","18","2.1.0","50068","F=YES, J=NO","29d5na0yq5","1","79","73","85","","","","","","lextale","true","false","","","","","","","",""
"853","
  <p style=""font-size: 40px;"">forlay</p>
  <p style=""font-size: 16px;"">F = YES &nbsp;&nbsp;&nbsp; J = NO</p>
","j","html-keyboard-response","19","2.1.0","50922","F=YES, J=NO","29d5na0yq5","1","79","73","85","","","","","","lextale","false","false","","","","","","","",""
"940","
  <p style=""font-size: 40px;"">tenant</p>
  <p style=""font-size: 16px;"">F = YES &nbsp;&nbsp;&nbsp; J = NO</p>
","f","html-keyboard-response","20","2.1.0","51862","F=YES, J=NO","29d5na0yq5","1","79","73","85","","","","","","lextale","true","false","","","","","","","",""
"786","
  <p style=""font-size: 40px;"">strain</p>
  <p style=""font-size: 16px;"">F = YES &nbsp;&nbsp;&nbsp; J = NO</p>
","f","html-keyboard-response","21","2.1.0","52649","F=YES, J=NO","29d5na0yq5","1","79","73","85","","","","","","lextale","true","false","","","","","","","",""
"733","
  <p style=""font-size: 40px;"">holster</p>
  <p style=""font-size: 16px;"">F = YES &nbsp;&nbsp;&nbsp; J = NO</p>
","f","html-keyboard-response","22","2.1.0","53383","F=YES, J=NO","29d5na0yq5","1","79","73","85","","","","","","lextale","true","false","","","","","","","",""
"989","
  <p style=""font-size: 40px;"">hinder</p>
  <p style=""font-size: 16px;"">F = YES &nbsp;&nbsp;&nbsp; J = NO</p>
","f","html-keyboard-response","23","2.1.0","54374","F=YES, J=NO","29d5na0yq5","1","79","73","85","","","","","","lextale","true","false","","","","","","","",""
"595","
  <p style=""font-size: 40px;"">swindle</p>
  <p style=""font-size: 16px;"">F = YES &nbsp;&nbsp;&nbsp; J = NO</p>
","f","html-keyboard-response","24","2.1.0","54970","F=YES, J=NO","29d5na0yq5","1","79","73","85","","","","","","lextale","true","false","","","","","","","",""
"1007","
  <p style=""font-size: 40px;"">nuder</p>
  <p style=""font-size: 16px;"">F = YES &nbsp;&nbsp;&nbsp; J = NO</p>
","j","html-keyboard-response","25","2.1.0","55977","F=YES, J=NO","29d5na0yq5","1","79","73","85","","","","","","lextale","false","false","","","","","","","",""
"582","
  <p style=""font-size: 40px;"">pillow</p>
  <p style=""font-size: 16px;"">F = YES &nbsp;&nbsp;&nbsp; J = NO</p>
","f","html-keyboard-response","26","2.1.0","56560","F=YES, J=NO","29d5na0yq5","1","79","73","85","","","","","","lextale","true","false","","","","","","","",""
"868","
  <p style=""font-size: 40px;"">shumble</p>
  <p style=""font-size: 16px;"">F = YES &nbsp;&nbsp;&nbsp; J = NO</p>
","j","html-keyboard-response","27","2.1.0","57429","F=YES, J=NO","29d5na0yq5","1","79","73","85","","","","","","lextale","false","false","","","","","","","",""
"611","
  <p style=""font-size: 40px;"">thirst</p>
  <p style=""font-size: 16px;"">F = YES &nbsp;&nbsp;&nbsp; J = NO</p>
","f","html-keyboard-response","28","2.1.0","58041","F=YES, J=NO","29d5na0yq5","1","79","73","85","","","","","","lextale","true","false","","","","","","","",""
"1126","
  <p style=""font-size: 40px;"">unsail</p>
  <p style=""font-size: 16px;"">F = YES &nbsp;&nbsp;&nbsp; J = NO</p>
","j","html-keyboard-response","29","2.1.0","59168","F=YES, J=NO","29d5na0yq5","1","79","73","85","","","","","","lextale","false","false","","","","","","","",""
"613","
  <p style=""font-size: 40px;"">rifle</p>
  <p style=""font-size: 16px;"">F = YES &nbsp;&nbsp;&nbsp; J = NO</p>
","f","html-keyboard-response","30","2.1.0","59781","F=YES, J=NO","29d5na0yq5","1","79","73","85","","","","","","lextale","true","false","","","","","","","",""
"1064","
  <p style=""font-size: 40px;"">mush</p>
  <p style=""font-size: 16px;"">F = YES &nbsp;&nbsp;&nbsp; J = NO</p>
","f","html-keyboard-response","31","2.1.0","60845","F=YES, J=NO","29d5na0yq5","1","79","73","85","","","","","","lextale","false","false","","","","","","","",""
"1698","
  <p style=""font-size: 40px;"">drench</p>
  <p style=""font-size: 16px;"">F = YES &nbsp;&nbsp;&nbsp; J = NO</p>
","j","html-keyboard-response","32","2.1.0","62544","F=YES, J=NO","29d5na0yq5","1","79","73","85","","","","","","lextale","true","false","","","","","","","",""
"753","
  <p style=""font-size: 40px;"">snirt</p>
  <p style=""font-size: 16px;"">F = YES &nbsp;&nbsp;&nbsp; J = NO</p>
","j","html-keyboard-response","33","2.1.0","63297","F=YES, J=NO","29d5na0yq5","1","79","73","85","","","","","","lextale","false","false","","","","","","","",""
"607","
  <p style=""font-size: 40px;"">bitter</p>
  <p style=""font-size: 16px;"">F = YES &nbsp;&nbsp;&nbsp; J = NO</p>
","f","html-keyboard-response","34","2.1.0","63905","F=YES, J=NO","29d5na0yq5","1","79","73","85","","","","","","lextale","true","false","","","","","","","",""
"816","
  <p style=""font-size: 40px;"">pliff</p>
  <p style=""font-size: 16px;"">F = YES &nbsp;&nbsp;&nbsp; J = NO</p>
","j","html-keyboard-response","35","2.1.0","64722","F=YES, J=NO","29d5na0yq5","1","79","73","85","","","","","","lextale","false","false","","","","","","","",""
"592","
  <p style=""font-size: 40px;"">tablet</p>
  <p style=""font-size: 16px;"">F = YES &nbsp;&nbsp;&nbsp; J = NO</p>
","f","html-keyboard-response","36","2.1.0","65315","F=YES, J=NO","29d5na0yq5","1","79","73","85","","","","","","lextale","true","false","","","","","","","",""
"771","
  <p style=""font-size: 40px;"">glimmer</p>
  <p style=""font-size: 16px;"">F = YES &nbsp;&nbsp;&nbsp; J = NO</p>
","f","html-keyboard-response","37","2.1.0","66086","F=YES, J=NO","29d5na0yq5","1","79","73","85","","","","","","lextale","true","false","","","","","","","",""
"896","
  <p style=""font-size: 40px;"">slink</p>
  <p style=""font-size: 16px;"">F = YES &nbsp;&nbsp;&nbsp; J = NO</p>
","j","html-keyboard-response","38","2.1.0","66983","F=YES, J=NO","29d5na0yq5","1","79","73","85","","","","","","lextale","true","false","","","","","","","",""
"684","
  <p style=""font-size: 40px;"">clever</p>
  <p style=""font-size: 16px;"">F = YES &nbsp;&nbsp;&nbsp; J = NO</p>
","f","html-keyboard-response","39","2.1.0","67668","F=YES, J=NO","29d5na0yq5","1","79","73","85","","","","","","lextale","true","false","","","","","","","",""
"1850","
  <p style=""font-size: 40px;"">grum</p>
  <p style=""font-size: 16px;"">F = YES &nbsp;&nbsp;&nbsp; J = NO</p>
","j","html-keyboard-response","40","2.1.0","69518","F=YES, J=NO","29d5na0yq5","1","79","73","85","","","","","","lextale","false","false","","","","","","","",""
"1087","
  <p style=""font-size: 40px;"">string</p>
  <p style=""font-size: 16px;"">F = YES &nbsp;&nbsp;&nbsp; J = NO</p>
","f","html-keyboard-response","41","2.1.0","70606","F=YES, J=NO","29d5na0yq5","1","79","73","85","","","","","","lextale","true","false","","","","","","","",""
"770","
  <p style=""font-size: 40px;"">plim</p>
  <p style=""font-size: 16px;"">F = YES &nbsp;&nbsp;&nbsp; J = NO</p>
","j","html-keyboard-response","42","2.1.0","71377","F=YES, J=NO","29d5na0yq5","1","79","73","85","","","","","","lextale","false","false","","","","","","","",""
"653","
  <p style=""font-size: 40px;"">cable</p>
  <p style=""font-size: 16px;"">F = YES &nbsp;&nbsp;&nbsp; J = NO</p>
","f","html-keyboard-response","43","2.1.0","72031","F=YES, J=NO","29d5na0yq5","1","79","73","85","","","","","","lextale","true","false","","","","","","","",""
"983","
  <p style=""font-size: 40px;"">shrivel</p>
  <p style=""font-size: 16px;"">F = YES &nbsp;&nbsp;&nbsp; J = NO</p>
","j","html-keyboard-response","44","2.1.0","73014","F=YES, J=NO","29d5na0yq5","1","79","73","85","","","","","","lextale","true","false","","","","","","","",""
"902","
  <p style=""font-size: 40px;"">tarnish</p>
  <p style=""font-size: 16px;"">F = YES &nbsp;&nbsp;&nbsp; J = NO</p>
","f","html-keyboard-response","45","2.1.0","73917","F=YES, J=NO","29d5na0yq5","1","79","73","85","","","","","","lextale","true","false","","","","","","","",""
"1223","
  <p style=""font-size: 40px;"">blim</p>
  <p style=""font-size: 16px;"">F = YES &nbsp;&nbsp;&nbsp; J = NO</p>
","j","html-keyboard-response","46","2.1.0","75140","F=YES, J=NO","29d5na0yq5","1","79","73","85","","","","","","lextale","false","false","","","","","","","",""
"843","
  <p style=""font-size: 40px;"">stifle</p>
  <p style=""font-size: 16px;"">F = YES &nbsp;&nbsp;&nbsp; J = NO</p>
","j","html-keyboard-response","47","2.1.0","75983","F=YES, J=NO","29d5na0yq5","1","79","73","85","","","","","","lextale","true","false","","","","","","","",""
"609","
  <p style=""font-size: 40px;"">bint</p>
  <p style=""font-size: 16px;"">F = YES &nbsp;&nbsp;&nbsp; J = NO</p>
","j","html-keyboard-response","48","2.1.0","76593","F=YES, J=NO","29d5na0yq5","1","79","73","85","","","","","","lextale","false","false","","","","","","","",""
"601","
  <p style=""font-size: 40px;"">purple</p>
  <p style=""font-size: 16px;"">F = YES &nbsp;&nbsp;&nbsp; J = NO</p>
","f","html-keyboard-response","49","2.1.0","77195","F=YES, J=NO","29d5na0yq5","1","79","73","85","","","","","","lextale","true","false","","","","","","","",""
"1532","
  <p style=""font-size: 40px;"">wriggle</p>
  <p style=""font-size: 16px;"">F = YES &nbsp;&nbsp;&nbsp; J = NO</p>
","f","html-keyboard-response","50","2.1.0","78727","F=YES, J=NO","29d5na0yq5","1","79","73","85","","","","","","lextale","true","false","","","","","","","",""
"1308","
  <p style=""font-size: 40px;"">mangle</p>
  <p style=""font-size: 16px;"">F = YES &nbsp;&nbsp;&nbsp; J = NO</p>
","j","html-keyboard-response","51","2.1.0","80035","F=YES, J=NO","29d5na0yq5","1","79","73","85","","","","","","lextale","true","false","","","","","","","",""
"823","
  <p style=""font-size: 40px;"">shramp</p>
  <p style=""font-size: 16px;"">F = YES &nbsp;&nbsp;&nbsp; J = NO</p>
","j","html-keyboard-response","52","2.1.0","80859","F=YES, J=NO","29d5na0yq5","1","79","73","85","","","","","","lextale","false","false","","","","","","","",""
"641","
  <p style=""font-size: 40px;"">flirt</p>
  <p style=""font-size: 16px;"">F = YES &nbsp;&nbsp;&nbsp; J = NO</p>
","f","html-keyboard-response","53","2.1.0","81500","F=YES, J=NO","29d5na0yq5","1","79","73","85","","","","","","lextale","true","false","","","","","","","",""
"840","
  <p style=""font-size: 40px;"">frip</p>
  <p style=""font-size: 16px;"">F = YES &nbsp;&nbsp;&nbsp; J = NO</p>
","j","html-keyboard-response","54","2.1.0","82341","F=YES, J=NO","29d5na0yq5","1","79","73","85","","","","","","lextale","false","false","","","","","","","",""
"767","
  <p style=""font-size: 40px;"">tangle</p>
  <p style=""font-size: 16px;"">F = YES &nbsp;&nbsp;&nbsp; J = NO</p>
","f","html-keyboard-response","55","2.1.0","83108","F=YES, J=NO","29d5na0yq5","1","79","73","85","","","","","","lextale","true","false","","","","","","","",""
"576","
  <p style=""font-size: 40px;"">crumble</p>
  <p style=""font-size: 16px;"">F = YES &nbsp;&nbsp;&nbsp; J = NO</p>
","f","html-keyboard-response","56","2.1.0","83685","F=YES, J=NO","29d5na0yq5","1","79","73","85","","","","","","lextale","true","false","","","","","","","",""
"494","
  <p style=""font-size: 40px;"">wrinkle</p>
  <p style=""font-size: 16px;"">F = YES &nbsp;&nbsp;&nbsp; J = NO</p>
","f","html-keyboard-response","57","2.1.0","84179","F=YES, J=NO","29d5na0yq5","1","79","73","85","","","","","","lextale","true","false","","","","","","","",""
"861","
  <p style=""font-size: 40px;"">slumb</p>
  <p style=""font-size: 16px;"">F = YES &nbsp;&nbsp;&nbsp; J = NO</p>
","j","html-keyboard-response","58","2.1.0","85041","F=YES, J=NO","29d5na0yq5","1","79","73","85","","","","","","lextale","false","false","","","","","","","",""
"565","
  <p style=""font-size: 40px;"">jungle</p>
  <p style=""font-size: 16px;"">F = YES &nbsp;&nbsp;&nbsp; J = NO</p>
","f","html-keyboard-response","59","2.1.0","85607","F=YES, J=NO","29d5na0yq5","1","79","73","85","","","","","","lextale","true","false","","","","","","","",""
"725","
  <p style=""font-size: 40px;"">frolick</p>
  <p style=""font-size: 16px;"">F = YES &nbsp;&nbsp;&nbsp; J = NO</p>
","f","html-keyboard-response","60","2.1.0","86332","F=YES, J=NO","29d5na0yq5","1","79","73","85","","","","","","lextale","false","false","","","","","","","",""
"1518","
      <h2>LexTALE Test Completed</h2>
      <p>Your LexTALE vocabulary score is: <strong>79%</strong></p>
      <p>Press any key to continue.</p>
    ","f","html-keyboard-response","61","2.1.0","87851","F=YES, J=NO","29d5na0yq5","1","79","73","85","","","","","","","","","","","","","","","",""
"2678","
    <div style=""max-width: 800px; margin: auto; text-align: left;"">
      <h2>Break Time</h2>
      <p>You have completed the first part of the study.</p>
      <p>You may take a short <strong>30-second break</strong> before continuing.</p>
      <p>When you’re ready, press any key to continue to the final task.</p>
    </div>
  ","f","html-keyboard-response","62","2.1.0","90530","F=YES, J=NO","29d5na0yq5","1","79","73","85","","","","","","","","","","","","","","","",""
"6475","
    <div style=""max-width: 800px; margin: auto; text-align: left;"">
      <h2>Part 2: Lexical Decision Task</h2>
      <p>You will now begin the second part of the study.</p>
      <p>Each trial will follow this sequence:</p>
      <ul>
        <li>A fixation cross (+) appears at the center of the screen.</li>
        <li>You will hear a short beep followed by a spoken word.</li>
        <li>A written word will appear briefly on the screen.</li>
      </ul>
      <p>Your task is to judge whether the <strong>written word</strong> is a real English word.</p>
      <p style=""margin-top: 1em;""><strong>Key responses:</strong></p>
      <ul>
        <li><strong>F</strong> = YES (real English word)</li>
        <li><strong>J</strong> = NO (not a real English word)</li>
      </ul>
      <p>Please respond as quickly and accurately as you can.</p>
      <p style=""margin-top: 2em;"">Press any key to continue.</p>
    </div>
  ","f","html-keyboard-response","63","2.1.0","97006","F=YES, J=NO","29d5na0yq5","1","79","73","85","","","","","","","","","","","","","","","",""
"3282","
    <div style=""max-width: 800px; margin: auto; text-align: left;"">
      <h2>Before You Begin</h2>
      <p>Make sure your sound is turned on.</p>
      <p>You will hear audio during each trial, but your decision should be based only on the <strong>written word</strong> you see on the screen.</p>
      <p><strong>Reminder:</strong></p>
      <ul>
        <li><strong>F</strong> = YES (real English word)</li>
        <li><strong>J</strong> = NO (not a real English word)</li>
      </ul>
      <p style=""margin-top: 2em;"">Press any key when you are ready to begin.</p>
    </div>
  ","f","html-keyboard-response","64","2.1.0","100289","F=YES, J=NO","29d5na0yq5","1","79","73","85","","","","","","","","","","","","","","","",""
"3960","
    <div style=""max-width: 800px; margin: auto; text-align: left;"">
      <h2>Part 2: Practice Trials</h2>
      <p>You will now complete a few <strong>practice trials</strong> to get familiar with the task.</p>
      <p>These trials are <strong>not scored</strong> and are only to help you get used to the format.</p>
      <p style=""margin-top: 2em;"">Press any key to begin.</p>
    </div>
  ","f","html-keyboard-response","65","2.1.0","104250","F=YES, J=NO","29d5na0yq5","1","79","73","85","","","","","","","","","","","","","","","",""
"2803","<p>Starting practice block 1 of 2. Press any key to continue.</p>","f","html-keyboard-response","66","2.1.0","107053","F=YES, J=NO","29d5na0yq5","1","79","73","85","","","","","","","","","","","","","","","",""
"null","<p style=""font-size: 50px;"">+</p>","null","html-keyboard-response","67","2.1.0","107360","F=YES, J=NO","29d5na0yq5","1","79","73","85","","","","","","","","","","","","","","","",""
"null","audio/beep-329314.mp3","null","audio-keyboard-response","68","2.1.0","108901","F=YES, J=NO","29d5na0yq5","1","79","73","85","","","","","","","","","","","","","","","",""
"null","audio/dollar.wav","null","audio-keyboard-response","69","2.1.0","109429","F=YES, J=NO","29d5na0yq5","1","79","73","85","","","","","","","","","","","","","","","",""
"null","
          <p id=""word"" style=""font-size: 40px;"">gliptism</p>
          <p style=""font-size: 16px;"">F = YES &nbsp;&nbsp;&nbsp; J = NO</p>
        ","null","html-keyboard-response","70","2.1.0","110934","F=YES, J=NO","29d5na0yq5","1","79","73","85","","","","","","","","","gliptism","dollar","pseudoword","pseudoword","j","false","",""
"null","<p style=""font-size: 50px;"">+</p>","null","html-keyboard-response","71","2.1.0","111242","F=YES, J=NO","29d5na0yq5","1","79","73","85","","","","","","","","","","","","","","","",""
"null","audio/beep-329314.mp3","null","audio-keyboard-response","72","2.1.0","112779","F=YES, J=NO","29d5na0yq5","1","79","73","85","","","","","","","","","","","","","","","",""
"null","audio/golf1.wav","null","audio-keyboard-response","73","2.1.0","113350","F=YES, J=NO","29d5na0yq5","1","79","73","85","","","","","","","","","","","","","","","",""
"849","
          <p id=""word"" style=""font-size: 40px;"">drabble</p>
          <p style=""font-size: 16px;"">F = YES &nbsp;&nbsp;&nbsp; J = NO</p>
        ","j","html-keyboard-response","74","2.1.0","114200","F=YES, J=NO","29d5na0yq5","1","79","73","85","","","","","","","","","drabble","golf1","pseudoword","pseudoword","j","true","",""
"null","<p style=""font-size: 50px;"">+</p>","null","html-keyboard-response","75","2.1.0","114510","F=YES, J=NO","29d5na0yq5","1","79","73","85","","","","","","","","","","","","","","","",""
"null","audio/beep-329314.mp3","null","audio-keyboard-response","76","2.1.0","116040","F=YES, J=NO","29d5na0yq5","1","79","73","85","","","","","","","","","","","","","","","",""
"null","audio/life1.wav","null","audio-keyboard-response","77","2.1.0","116610","F=YES, J=NO","29d5na0yq5","1","79","73","85","","","","","","","","","","","","","","","",""
"628","
          <p id=""word"" style=""font-size: 40px;"">flimch</p>
          <p style=""font-size: 16px;"">F = YES &nbsp;&nbsp;&nbsp; J = NO</p>
        ","j","html-keyboard-response","78","2.1.0","117239","F=YES, J=NO","29d5na0yq5","1","79","73","85","","","","","","","","","flimch","life1","pseudoword","pseudoword","j","true","",""
"null","<p style=""font-size: 50px;"">+</p>","null","html-keyboard-response","79","2.1.0","117540","F=YES, J=NO","29d5na0yq5","1","79","73","85","","","","","","","","","","","","","","","",""
"null","audio/beep-329314.mp3","null","audio-keyboard-response","80","2.1.0","119080","F=YES, J=NO","29d5na0yq5","1","79","73","85","","","","","","","","","","","","","","","",""
"null","audio/brain.wav","null","audio-keyboard-response","81","2.1.0","119610","F=YES, J=NO","29d5na0yq5","1","79","73","85","","","","","","","","","","","","","","","",""
"564","
          <p id=""word"" style=""font-size: 40px;"">throw</p>
          <p style=""font-size: 16px;"">F = YES &nbsp;&nbsp;&nbsp; J = NO</p>
        ","f","html-keyboard-response","82","2.1.0","120175","F=YES, J=NO","29d5na0yq5","1","79","73","85","","","","","","","","","throw","brain","filler","filler","f","true","",""
"null","<p style=""font-size: 50px;"">+</p>","null","html-keyboard-response","83","2.1.0","120487","F=YES, J=NO","29d5na0yq5","1","79","73","85","","","","","","","","","","","","","","","",""
"null","audio/beep-329314.mp3","null","audio-keyboard-response","84","2.1.0","122021","F=YES, J=NO","29d5na0yq5","1","79","73","85","","","","","","","","","","","","","","","",""
"null","audio/menu.wav","null","audio-keyboard-response","85","2.1.0","122631","F=YES, J=NO","29d5na0yq5","1","79","73","85","","","","","","","","","","","","","","","",""
"581","
          <p id=""word"" style=""font-size: 40px;"">slice</p>
          <p style=""font-size: 16px;"">F = YES &nbsp;&nbsp;&nbsp; J = NO</p>
        ","f","html-keyboard-response","86","2.1.0","123213","F=YES, J=NO","29d5na0yq5","1","79","73","85","","","","","","","","","slice","menu","filler","filler","f","true","",""
"null","<p style=""font-size: 50px;"">+</p>","null","html-keyboard-response","87","2.1.0","123526","F=YES, J=NO","29d5na0yq5","1","79","73","85","","","","","","","","","","","","","","","",""
"null","audio/beep-329314.mp3","null","audio-keyboard-response","88","2.1.0","125061","F=YES, J=NO","29d5na0yq5","1","79","73","85","","","","","","","","","","","","","","","",""
"null","audio/bomb1.wav","null","audio-keyboard-response","89","2.1.0","125491","F=YES, J=NO","29d5na0yq5","1","79","73","85","","","","","","","","","","","","","","","",""
"583","
          <p id=""word"" style=""font-size: 40px;"">clean</p>
          <p style=""font-size: 16px;"">F = YES &nbsp;&nbsp;&nbsp; J = NO</p>
        ","f","html-keyboard-response","90","2.1.0","126075","F=YES, J=NO","29d5na0yq5","1","79","73","85","","","","","","","","","clean","bomb1","filler","filler","f","true","",""
"null","<p style=""font-size: 50px;"">+</p>","null","html-keyboard-response","91","2.1.0","126389","F=YES, J=NO","29d5na0yq5","1","79","73","85","","","","","","","","","","","","","","","",""
"null","audio/beep-329314.mp3","null","audio-keyboard-response","92","2.1.0","127921","F=YES, J=NO","29d5na0yq5","1","79","73","85","","","","","","","","","","","","","","","",""
"null","audio/cancer1.wav","null","audio-keyboard-response","93","2.1.0","128472","F=YES, J=NO","29d5na0yq5","1","79","73","85","","","","","","","","","","","","","","","",""
"478","
          <p id=""word"" style=""font-size: 40px;"">draw</p>
          <p style=""font-size: 16px;"">F = YES &nbsp;&nbsp;&nbsp; J = NO</p>
        ","f","html-keyboard-response","94","2.1.0","128951","F=YES, J=NO","29d5na0yq5","1","79","73","85","","","","","","","","","draw","cancer1","filler","filler","f","true","",""
"null","<p style=""font-size: 50px;"">+</p>","null","html-keyboard-response","95","2.1.0","129257","F=YES, J=NO","29d5na0yq5","1","79","73","85","","","","","","","","","","","","","","","",""
"null","audio/beep-329314.mp3","null","audio-keyboard-response","96","2.1.0","130782","F=YES, J=NO","29d5na0yq5","1","79","73","85","","","","","","","","","","","","","","","",""
"null","audio/budget1.wav","null","audio-keyboard-response","97","2.1.0","131432","F=YES, J=NO","29d5na0yq5","1","79","73","85","","","","","","","","","","","","","","","",""
"678","
          <p id=""word"" style=""font-size: 40px;"">sulist</p>
          <p style=""font-size: 16px;"">F = YES &nbsp;&nbsp;&nbsp; J = NO</p>
        ","j","html-keyboard-response","98","2.1.0","132111","F=YES, J=NO","29d5na0yq5","1","79","73","85","","","","","","","","","sulist","budget1","pseudoword","pseudoword","j","true","",""
"null","<p style=""font-size: 50px;"">+</p>","null","html-keyboard-response","99","2.1.0","132418","F=YES, J=NO","29d5na0yq5","1","79","73","85","","","","","","","","","","","","","","","",""
"null","audio/beep-329314.mp3","null","audio-keyboard-response","100","2.1.0","133942","F=YES, J=NO","29d5na0yq5","1","79","73","85","","","","","","","","","","","","","","","",""
"null","audio/planet1.wav","null","audio-keyboard-response","101","2.1.0","134572","F=YES, J=NO","29d5na0yq5","1","79","73","85","","","","","","","","","","","","","","","",""
"782","
          <p id=""word"" style=""font-size: 40px;"">cratched</p>
          <p style=""font-size: 16px;"">F = YES &nbsp;&nbsp;&nbsp; J = NO</p>
        ","j","html-keyboard-response","102","2.1.0","135355","F=YES, J=NO","29d5na0yq5","1","79","73","85","","","","","","","","","cratched","planet1","pseudoword","pseudoword","j","true","",""
"null","<p style=""font-size: 50px;"">+</p>","null","html-keyboard-response","103","2.1.0","135663","F=YES, J=NO","29d5na0yq5","1","79","73","85","","","","","","","","","","","","","","","",""
"null","audio/beep-329314.mp3","null","audio-keyboard-response","104","2.1.0","137203","F=YES, J=NO","29d5na0yq5","1","79","73","85","","","","","","","","","","","","","","","",""
"null","audio/meal.wav","null","audio-keyboard-response","105","2.1.0","137693","F=YES, J=NO","29d5na0yq5","1","79","73","85","","","","","","","","","","","","","","","",""
"645","
          <p id=""word"" style=""font-size: 40px;"">gallite</p>
          <p style=""font-size: 16px;"">F = YES &nbsp;&nbsp;&nbsp; J = NO</p>
        ","j","html-keyboard-response","106","2.1.0","138339","F=YES, J=NO","29d5na0yq5","1","79","73","85","","","","","","","","","gallite","meal","pseudoword","pseudoword","j","true","",""
"null","<p style=""font-size: 50px;"">+</p>","null","html-keyboard-response","107","2.1.0","138651","F=YES, J=NO","29d5na0yq5","1","79","73","85","","","","","","","","","","","","","","","",""
"null","audio/beep-329314.mp3","null","audio-keyboard-response","108","2.1.0","140183","F=YES, J=NO","29d5na0yq5","1","79","73","85","","","","","","","","","","","","","","","",""
"null","audio/kettle1.wav","null","audio-keyboard-response","109","2.1.0","140819","F=YES, J=NO","29d5na0yq5","1","79","73","85","","","","","","","","","","","","","","","",""
"518","
          <p id=""word"" style=""font-size: 40px;"">wrap</p>
          <p style=""font-size: 16px;"">F = YES &nbsp;&nbsp;&nbsp; J = NO</p>
        ","f","html-keyboard-response","110","2.1.0","141338","F=YES, J=NO","29d5na0yq5","1","79","73","85","","","","","","","","","wrap","kettle1","filler","filler","f","true","",""
"null","<p style=""font-size: 50px;"">+</p>","null","html-keyboard-response","111","2.1.0","141646","F=YES, J=NO","29d5na0yq5","1","79","73","85","","","","","","","","","","","","","","","",""
"null","audio/beep-329314.mp3","null","audio-keyboard-response","112","2.1.0","143184","F=YES, J=NO","29d5na0yq5","1","79","73","85","","","","","","","","","","","","","","","",""
"null","audio/breath.wav","null","audio-keyboard-response","113","2.1.0","143754","F=YES, J=NO","29d5na0yq5","1","79","73","85","","","","","","","","","","","","","","","",""
"497","
          <p id=""word"" style=""font-size: 40px;"">pack</p>
          <p style=""font-size: 16px;"">F = YES &nbsp;&nbsp;&nbsp; J = NO</p>
        ","f","html-keyboard-response","114","2.1.0","144252","F=YES, J=NO","29d5na0yq5","1","79","73","85","","","","","","","","","pack","breath","filler","filler","f","true","",""
"1031","<p>Starting practice block 2 of 2. Press any key to continue.</p>","f","html-keyboard-response","115","2.1.0","145283","F=YES, J=NO","29d5na0yq5","1","79","73","85","","","","","","","","","","","","","","","",""
"null","<p style=""font-size: 50px;"">+</p>","null","html-keyboard-response","116","2.1.0","145586","F=YES, J=NO","29d5na0yq5","1","79","73","85","","","","","","","","","","","","","","","",""
"null","audio/beep-329314.mp3","null","audio-keyboard-response","117","2.1.0","147124","F=YES, J=NO","29d5na0yq5","1","79","73","85","","","","","","","","","","","","","","","",""
"null","audio/floor.wav","null","audio-keyboard-response","118","2.1.0","147694","F=YES, J=NO","29d5na0yq5","1","79","73","85","","","","","","","","","","","","","","","",""
"536","
          <p id=""word"" style=""font-size: 40px;"">mop</p>
          <p style=""font-size: 16px;"">F = YES &nbsp;&nbsp;&nbsp; J = NO</p>
        ","f","html-keyboard-response","119","2.1.0","148232","F=YES, J=NO","29d5na0yq5","1","79","73","85","","","","","","","","","mop","floor","filler","filler","f","true","",""
"null","<p style=""font-size: 50px;"">+</p>","null","html-keyboard-response","120","2.1.0","148538","F=YES, J=NO","29d5na0yq5","1","79","73","85","","","","","","","","","","","","","","","",""
"null","audio/beep-329314.mp3","null","audio-keyboard-response","121","2.1.0","150065","F=YES, J=NO","29d5na0yq5","1","79","73","85","","","","","","","","","","","","","","","",""
"null","audio/fence.wav","null","audio-keyboard-response","122","2.1.0","150715","F=YES, J=NO","29d5na0yq5","1","79","73","85","","","","","","","","","","","","","","","",""
"462","
          <p id=""word"" style=""font-size: 40px;"">trim</p>
          <p style=""font-size: 16px;"">F = YES &nbsp;&nbsp;&nbsp; J = NO</p>
        ","f","html-keyboard-response","123","2.1.0","151177","F=YES, J=NO","29d5na0yq5","1","79","73","85","","","","","","","","","trim","fence","filler","filler","f","true","",""
"null","<p style=""font-size: 50px;"">+</p>","null","html-keyboard-response","124","2.1.0","151482","F=YES, J=NO","29d5na0yq5","1","79","73","85","","","","","","","","","","","","","","","",""
"null","audio/beep-329314.mp3","null","audio-keyboard-response","125","2.1.0","153005","F=YES, J=NO","29d5na0yq5","1","79","73","85","","","","","","","","","","","","","","","",""
"null","audio/butter1.wav","null","audio-keyboard-response","126","2.1.0","153455","F=YES, J=NO","29d5na0yq5","1","79","73","85","","","","","","","","","","","","","","","",""
"864","
          <p id=""word"" style=""font-size: 40px;"">chew</p>
          <p style=""font-size: 16px;"">F = YES &nbsp;&nbsp;&nbsp; J = NO</p>
        ","f","html-keyboard-response","127","2.1.0","154319","F=YES, J=NO","29d5na0yq5","1","79","73","85","","","","","","","","","chew","butter1","filler","filler","f","true","",""
"null","<p style=""font-size: 50px;"">+</p>","null","html-keyboard-response","128","2.1.0","154631","F=YES, J=NO","29d5na0yq5","1","79","73","85","","","","","","","","","","","","","","","",""
"null","audio/beep-329314.mp3","null","audio-keyboard-response","129","2.1.0","156166","F=YES, J=NO","29d5na0yq5","1","79","73","85","","","","","","","","","","","","","","","",""
"null","audio/flaw.wav","null","audio-keyboard-response","130","2.1.0","156796","F=YES, J=NO","29d5na0yq5","1","79","73","85","","","","","","","","","","","","","","","",""
"651","
          <p id=""word"" style=""font-size: 40px;"">thwool</p>
          <p style=""font-size: 16px;"">F = YES &nbsp;&nbsp;&nbsp; J = NO</p>
        ","j","html-keyboard-response","131","2.1.0","157449","F=YES, J=NO","29d5na0yq5","1","79","73","85","","","","","","","","","thwool","flaw","pseudoword","pseudoword","j","true","",""
"null","<p style=""font-size: 50px;"">+</p>","null","html-keyboard-response","132","2.1.0","157751","F=YES, J=NO","29d5na0yq5","1","79","73","85","","","","","","","","","","","","","","","",""
"null","audio/beep-329314.mp3","null","audio-keyboard-response","133","2.1.0","159286","F=YES, J=NO","29d5na0yq5","1","79","73","85","","","","","","","","","","","","","","","",""
"null","audio/baby.wav","null","audio-keyboard-response","134","2.1.0","159756","F=YES, J=NO","29d5na0yq5","1","79","73","85","","","","","","","","","","","","","","","",""
"716","
          <p id=""word"" style=""font-size: 40px;"">lift</p>
          <p style=""font-size: 16px;"">F = YES &nbsp;&nbsp;&nbsp; J = NO</p>
        ","f","html-keyboard-response","135","2.1.0","160473","F=YES, J=NO","29d5na0yq5","1","79","73","85","","","","","","","","","lift","baby","filler","filler","f","true","",""
"null","<p style=""font-size: 50px;"">+</p>","null","html-keyboard-response","136","2.1.0","160782","F=YES, J=NO","29d5na0yq5","1","79","73","85","","","","","","","","","","","","","","","",""
"null","audio/beep-329314.mp3","null","audio-keyboard-response","137","2.1.0","162306","F=YES, J=NO","29d5na0yq5","1","79","73","85","","","","","","","","","","","","","","","",""
"null","audio/ankle1.wav","null","audio-keyboard-response","138","2.1.0","162837","F=YES, J=NO","29d5na0yq5","1","79","73","85","","","","","","","","","","","","","","","",""
"652","
          <p id=""word"" style=""font-size: 40px;"">switm</p>
          <p style=""font-size: 16px;"">F = YES &nbsp;&nbsp;&nbsp; J = NO</p>
        ","j","html-keyboard-response","139","2.1.0","163490","F=YES, J=NO","29d5na0yq5","1","79","73","85","","","","","","","","","switm","ankle1","pseudoword","pseudoword","j","true","",""
"null","<p style=""font-size: 50px;"">+</p>","null","html-keyboard-response","140","2.1.0","163797","F=YES, J=NO","29d5na0yq5","1","79","73","85","","","","","","","","","","","","","","","",""
"null","audio/beep-329314.mp3","null","audio-keyboard-response","141","2.1.0","165327","F=YES, J=NO","29d5na0yq5","1","79","73","85","","","","","","","","","","","","","","","",""
"null","audio/corpse1.wav","null","audio-keyboard-response","142","2.1.0","165997","F=YES, J=NO","29d5na0yq5","1","79","73","85","","","","","","","","","","","","","","","",""
"642","
          <p id=""word"" style=""font-size: 40px;"">glonet</p>
          <p style=""font-size: 16px;"">F = YES &nbsp;&nbsp;&nbsp; J = NO</p>
        ","j","html-keyboard-response","143","2.1.0","166639","F=YES, J=NO","29d5na0yq5","1","79","73","85","","","","","","","","","glonet","corpse1","pseudoword","pseudoword","j","true","",""
"null","<p style=""font-size: 50px;"">+</p>","null","html-keyboard-response","144","2.1.0","166941","F=YES, J=NO","29d5na0yq5","1","79","73","85","","","","","","","","","","","","","","","",""
"null","audio/beep-329314.mp3","null","audio-keyboard-response","145","2.1.0","168467","F=YES, J=NO","29d5na0yq5","1","79","73","85","","","","","","","","","","","","","","","",""
"null","audio/tax1.wav","null","audio-keyboard-response","146","2.1.0","169117","F=YES, J=NO","29d5na0yq5","1","79","73","85","","","","","","","","","","","","","","","",""
"575","
          <p id=""word"" style=""font-size: 40px;"">snate</p>
          <p style=""font-size: 16px;"">F = YES &nbsp;&nbsp;&nbsp; J = NO</p>
        ","j","html-keyboard-response","147","2.1.0","169692","F=YES, J=NO","29d5na0yq5","1","79","73","85","","","","","","","","","snate","tax1","pseudoword","pseudoword","j","true","",""
"null","<p style=""font-size: 50px;"">+</p>","null","html-keyboard-response","148","2.1.0","170003","F=YES, J=NO","29d5na0yq5","1","79","73","85","","","","","","","","","","","","","","","",""
"null","audio/beep-329314.mp3","null","audio-keyboard-response","149","2.1.0","171528","F=YES, J=NO","29d5na0yq5","1","79","73","85","","","","","","","","","","","","","","","",""
"null","audio/table1.wav","null","audio-keyboard-response","150","2.1.0","172058","F=YES, J=NO","29d5na0yq5","1","79","73","85","","","","","","","","","","","","","","","",""
"564","
          <p id=""word"" style=""font-size: 40px;"">stimb</p>
          <p style=""font-size: 16px;"">F = YES &nbsp;&nbsp;&nbsp; J = NO</p>
        ","j","html-keyboard-response","151","2.1.0","172623","F=YES, J=NO","29d5na0yq5","1","79","73","85","","","","","","","","","stimb","table1","pseudoword","pseudoword","j","true","",""
"null","<p style=""font-size: 50px;"">+</p>","null","html-keyboard-response","152","2.1.0","172924","F=YES, J=NO","29d5na0yq5","1","79","73","85","","","","","","","","","","","","","","","",""
"null","audio/beep-329314.mp3","null","audio-keyboard-response","153","2.1.0","174448","F=YES, J=NO","29d5na0yq5","1","79","73","85","","","","","","","","","","","","","","","",""
"null","audio/mind.wav","null","audio-keyboard-response","154","2.1.0","175058","F=YES, J=NO","29d5na0yq5","1","79","73","85","","","","","","","","","","","","","","","",""
"645","
          <p id=""word"" style=""font-size: 40px;"">crainate</p>
          <p style=""font-size: 16px;"">F = YES &nbsp;&nbsp;&nbsp; J = NO</p>
        ","j","html-keyboard-response","155","2.1.0","175704","F=YES, J=NO","29d5na0yq5","1","79","73","85","","","","","","","","","crainate","mind","pseudoword","pseudoword","j","true","",""
"null","<p style=""font-size: 50px;"">+</p>","null","html-keyboard-response","156","2.1.0","176009","F=YES, J=NO","29d5na0yq5","1","79","73","85","","","","","","","","","","","","","","","",""
"null","audio/beep-329314.mp3","null","audio-keyboard-response","157","2.1.0","177548","F=YES, J=NO","29d5na0yq5","1","79","73","85","","","","","","","","","","","","","","","",""
"null","audio/window1.wav","null","audio-keyboard-response","158","2.1.0","178159","F=YES, J=NO","29d5na0yq5","1","79","73","85","","","","","","","","","","","","","","","",""
"611","
          <p id=""word"" style=""font-size: 40px;"">toss</p>
          <p style=""font-size: 16px;"">F = YES &nbsp;&nbsp;&nbsp; J = NO</p>
        ","f","html-keyboard-response","159","2.1.0","178771","F=YES, J=NO","29d5na0yq5","1","79","73","85","","","","","","","","","toss","window1","filler","filler","f","true","",""
"null","<p style=""font-size: 50px;"">+</p>","null","html-keyboard-response","160","2.1.0","179075","F=YES, J=NO","29d5na0yq5","1","79","73","85","","","","","","","","","","","","","","","",""
"null","audio/beep-329314.mp3","null","audio-keyboard-response","161","2.1.0","180609","F=YES, J=NO","29d5na0yq5","1","79","73","85","","","","","","","","","","","","","","","",""
"null","audio/bishop1.wav","null","audio-keyboard-response","162","2.1.0","181199","F=YES, J=NO","29d5na0yq5","1","79","73","85","","","","","","","","","","","","","","","",""
"491","
          <p id=""word"" style=""font-size: 40px;"">play</p>
          <p style=""font-size: 16px;"">F = YES &nbsp;&nbsp;&nbsp; J = NO</p>
        ","f","html-keyboard-response","163","2.1.0","181691","F=YES, J=NO","29d5na0yq5","1","79","73","85","","","","","","","","","play","bishop1","filler","filler","f","true","",""
"2516","
    <div style=""max-width: 800px; margin: auto; text-align: left;"">
      <h2>Part 2: Main Trials</h2>
      <p>Great job on the practice trials!</p>
      <p>You will now begin the <strong>main set of trials</strong>.</p>
      <p>Remember your key assignments:</p>
      <ul>
        <li><strong>F</strong> = YES (real English word)</li>
        <li><strong>J</strong> = NO (not a real English word)</li>
      </ul>
      <p>Try to respond as <strong>quickly and accurately</strong> as possible.</p>
      <p style=""margin-top: 2em;"">Press any key to begin the main trials.</p>
    </div>
  ","f","html-keyboard-response","164","2.1.0","184207","F=YES, J=NO","29d5na0yq5","1","79","73","85","","","","","","","","","","","","","","","",""
"792","<p>Starting main block 1 of 8. Press any key to continue.</p>","f","html-keyboard-response","165","2.1.0","185000","F=YES, J=NO","29d5na0yq5","1","79","73","85","","","","","","","","","","","","","","","",""
"null","<p style=""font-size: 50px;"">+</p>","null","html-keyboard-response","166","2.1.0","185311","F=YES, J=NO","29d5na0yq5","1","79","73","85","","","","","","","","","","","","","","","",""
"null","audio/beep-329314.mp3","null","audio-keyboard-response","167","2.1.0","186850","F=YES, J=NO","29d5na0yq5","1","79","73","85","","","","","","","","","","","","","","","",""
"null","audio/size1.wav","null","audio-keyboard-response","168","2.1.0","187600","F=YES, J=NO","29d5na0yq5","1","79","73","85","","","","","","","","","","","","","","","",""
"467","
          <p id=""word"" style=""font-size: 40px;"">clear</p>
          <p style=""font-size: 16px;"">F = YES &nbsp;&nbsp;&nbsp; J = NO</p>
        ","f","html-keyboard-response","169","2.1.0","188067","F=YES, J=NO","29d5na0yq5","1","79","73","85","","","","","","","","","clear","size1","unrelated","experimental","f","true","",""
"null","<p style=""font-size: 50px;"">+</p>","null","html-keyboard-response","170","2.1.0","188374","F=YES, J=NO","29d5na0yq5","1","79","73","85","","","","","","","","","","","","","","","",""
"null","audio/beep-329314.mp3","null","audio-keyboard-response","171","2.1.0","189910","F=YES, J=NO","29d5na0yq5","1","79","73","85","","","","","","","","","","","","","","","",""
"null","audio/grass.wav","null","audio-keyboard-response","172","2.1.0","190560","F=YES, J=NO","29d5na0yq5","1","79","73","85","","","","","","","","","","","","","","","",""
"471","
          <p id=""word"" style=""font-size: 40px;"">cut</p>
          <p style=""font-size: 16px;"">F = YES &nbsp;&nbsp;&nbsp; J = NO</p>
        ","f","html-keyboard-response","173","2.1.0","191032","F=YES, J=NO","29d5na0yq5","1","79","73","85","","","","","","","","","cut","grass","literal","experimental","f","true","",""
"null","<p style=""font-size: 50px;"">+</p>","null","html-keyboard-response","174","2.1.0","191344","F=YES, J=NO","29d5na0yq5","1","79","73","85","","","","","","","","","","","","","","","",""
"null","audio/beep-329314.mp3","null","audio-keyboard-response","175","2.1.0","192871","F=YES, J=NO","29d5na0yq5","1","79","73","85","","","","","","","","","","","","","","","",""
"null","audio/golf1.wav","null","audio-keyboard-response","176","2.1.0","193421","F=YES, J=NO","29d5na0yq5","1","79","73","85","","","","","","","","","","","","","","","",""
"484","
          <p id=""word"" style=""font-size: 40px;"">bury</p>
          <p style=""font-size: 16px;"">F = YES &nbsp;&nbsp;&nbsp; J = NO</p>
        ","f","html-keyboard-response","177","2.1.0","193905","F=YES, J=NO","29d5na0yq5","1","79","73","85","","","","","","","","","bury","golf1","unrelated","experimental","f","true","",""
"null","<p style=""font-size: 50px;"">+</p>","null","html-keyboard-response","178","2.1.0","194209","F=YES, J=NO","29d5na0yq5","1","79","73","85","","","","","","","","","","","","","","","",""
"null","audio/beep-329314.mp3","null","audio-keyboard-response","179","2.1.0","195731","F=YES, J=NO","29d5na0yq5","1","79","73","85","","","","","","","","","","","","","","","",""
"null","audio/weight1.wav","null","audio-keyboard-response","180","2.1.0","196261","F=YES, J=NO","29d5na0yq5","1","79","73","85","","","","","","","","","","","","","","","",""
"734","
          <p id=""word"" style=""font-size: 40px;"">crimsh</p>
          <p style=""font-size: 16px;"">F = YES &nbsp;&nbsp;&nbsp; J = NO</p>
        ","j","html-keyboard-response","181","2.1.0","196996","F=YES, J=NO","29d5na0yq5","1","79","73","85","","","","","","","","","crimsh","weight1","pseudoword","pseudoword","j","true","",""
"null","<p style=""font-size: 50px;"">+</p>","null","html-keyboard-response","182","2.1.0","197304","F=YES, J=NO","29d5na0yq5","1","79","73","85","","","","","","","","","","","","","","","",""
"null","audio/beep-329314.mp3","null","audio-keyboard-response","183","2.1.0","198831","F=YES, J=NO","29d5na0yq5","1","79","73","85","","","","","","","","","","","","","","","",""
"null","audio/sand.wav","null","audio-keyboard-response","184","2.1.0","199481","F=YES, J=NO","29d5na0yq5","1","79","73","85","","","","","","","","","","","","","","","",""
"597","
          <p id=""word"" style=""font-size: 40px;"">possess</p>
          <p style=""font-size: 16px;"">F = YES &nbsp;&nbsp;&nbsp; J = NO</p>
        ","f","html-keyboard-response","185","2.1.0","200079","F=YES, J=NO","29d5na0yq5","1","79","73","85","","","","","","","","","possess","sand","unrelated","experimental","f","true","",""
"null","<p style=""font-size: 50px;"">+</p>","null","html-keyboard-response","186","2.1.0","200384","F=YES, J=NO","29d5na0yq5","1","79","73","85","","","","","","","","","","","","","","","",""
"null","audio/beep-329314.mp3","null","audio-keyboard-response","187","2.1.0","201912","F=YES, J=NO","29d5na0yq5","1","79","73","85","","","","","","","","","","","","","","","",""
"null","audio/fence.wav","null","audio-keyboard-response","188","2.1.0","202542","F=YES, J=NO","29d5na0yq5","1","79","73","85","","","","","","","","","","","","","","","",""
"509","
          <p id=""word"" style=""font-size: 40px;"">climb</p>
          <p style=""font-size: 16px;"">F = YES &nbsp;&nbsp;&nbsp; J = NO</p>
        ","f","html-keyboard-response","189","2.1.0","203051","F=YES, J=NO","29d5na0yq5","1","79","73","85","","","","","","","","","climb","fence","literal","experimental","f","true","",""
"null","<p style=""font-size: 50px;"">+</p>","null","html-keyboard-response","190","2.1.0","203358","F=YES, J=NO","29d5na0yq5","1","79","73","85","","","","","","","","","","","","","","","",""
"null","audio/beep-329314.mp3","null","audio-keyboard-response","191","2.1.0","204893","F=YES, J=NO","29d5na0yq5","1","79","73","85","","","","","","","","","","","","","","","",""
"null","audio/scar.wav","null","audio-keyboard-response","192","2.1.0","205482","F=YES, J=NO","29d5na0yq5","1","79","73","85","","","","","","","","","","","","","","","",""
"692","
          <p id=""word"" style=""font-size: 40px;"">adelineate</p>
          <p style=""font-size: 16px;"">F = YES &nbsp;&nbsp;&nbsp; J = NO</p>
        ","j","html-keyboard-response","193","2.1.0","206175","F=YES, J=NO","29d5na0yq5","1","79","73","85","","","","","","","","","adelineate","scar","pseudoword","pseudoword","j","true","",""
"null","<p style=""font-size: 50px;"">+</p>","null","html-keyboard-response","194","2.1.0","206486","F=YES, J=NO","29d5na0yq5","1","79","73","85","","","","","","","","","","","","","","","",""
"null","audio/beep-329314.mp3","null","audio-keyboard-response","195","2.1.0","208013","F=YES, J=NO","29d5na0yq5","1","79","73","85","","","","","","","","","","","","","","","",""
"null","audio/account1.wav","null","audio-keyboard-response","196","2.1.0","208703","F=YES, J=NO","29d5na0yq5","1","79","73","85","","","","","","","","","","","","","","","",""
"591","
          <p id=""word"" style=""font-size: 40px;"">open</p>
          <p style=""font-size: 16px;"">F = YES &nbsp;&nbsp;&nbsp; J = NO</p>
        ","f","html-keyboard-response","197","2.1.0","209294","F=YES, J=NO","29d5na0yq5","1","79","73","85","","","","","","","","","open","account1","metaphor","experimental","f","true","",""
"null","<p style=""font-size: 50px;"">+</p>","null","html-keyboard-response","198","2.1.0","209603","F=YES, J=NO","29d5na0yq5","1","79","73","85","","","","","","","","","","","","","","","",""
"null","audio/beep-329314.mp3","null","audio-keyboard-response","199","2.1.0","211133","F=YES, J=NO","29d5na0yq5","1","79","73","85","","","","","","","","","","","","","","","",""
"null","audio/foot1.wav","null","audio-keyboard-response","200","2.1.0","211703","F=YES, J=NO","29d5na0yq5","1","79","73","85","","","","","","","","","","","","","","","",""
"600","
          <p id=""word"" style=""font-size: 40px;"">thrutt</p>
          <p style=""font-size: 16px;"">F = YES &nbsp;&nbsp;&nbsp; J = NO</p>
        ","j","html-keyboard-response","201","2.1.0","212304","F=YES, J=NO","29d5na0yq5","1","79","73","85","","","","","","","","","thrutt","foot1","pseudoword","pseudoword","j","true","",""
"null","<p style=""font-size: 50px;"">+</p>","null","html-keyboard-response","202","2.1.0","212606","F=YES, J=NO","29d5na0yq5","1","79","73","85","","","","","","","","","","","","","","","",""
"null","audio/beep-329314.mp3","null","audio-keyboard-response","203","2.1.0","214134","F=YES, J=NO","29d5na0yq5","1","79","73","85","","","","","","","","","","","","","","","",""
"null","audio/tomato.wav","null","audio-keyboard-response","204","2.1.0","214803","F=YES, J=NO","29d5na0yq5","1","79","73","85","","","","","","","","","","","","","","","",""
"867","
          <p id=""word"" style=""font-size: 40px;"">gladies</p>
          <p style=""font-size: 16px;"">F = YES &nbsp;&nbsp;&nbsp; J = NO</p>
        ","j","html-keyboard-response","205","2.1.0","215671","F=YES, J=NO","29d5na0yq5","1","79","73","85","","","","","","","","","gladies","tomato","pseudoword","pseudoword","j","true","",""
"null","<p style=""font-size: 50px;"">+</p>","null","html-keyboard-response","206","2.1.0","215981","F=YES, J=NO","29d5na0yq5","1","79","73","85","","","","","","","","","","","","","","","",""
"null","audio/beep-329314.mp3","null","audio-keyboard-response","207","2.1.0","217514","F=YES, J=NO","29d5na0yq5","1","79","73","85","","","","","","","","","","","","","","","",""
"null","audio/purpose.wav","null","audio-keyboard-response","208","2.1.0","218184","F=YES, J=NO","29d5na0yq5","1","79","73","85","","","","","","","","","","","","","","","",""
"551","
          <p id=""word"" style=""font-size: 40px;"">whigm</p>
          <p style=""font-size: 16px;"">F = YES &nbsp;&nbsp;&nbsp; J = NO</p>
        ","j","html-keyboard-response","209","2.1.0","218736","F=YES, J=NO","29d5na0yq5","1","79","73","85","","","","","","","","","whigm","purpose","pseudoword","pseudoword","j","true","",""
"null","<p style=""font-size: 50px;"">+</p>","null","html-keyboard-response","210","2.1.0","219044","F=YES, J=NO","29d5na0yq5","1","79","73","85","","","","","","","","","","","","","","","",""
"null","audio/beep-329314.mp3","null","audio-keyboard-response","211","2.1.0","220574","F=YES, J=NO","29d5na0yq5","1","79","73","85","","","","","","","","","","","","","","","",""
"null","audio/holiday1.wav","null","audio-keyboard-response","212","2.1.0","221204","F=YES, J=NO","29d5na0yq5","1","79","73","85","","","","","","","","","","","","","","","",""
"622","
          <p id=""word"" style=""font-size: 40px;"">drivets</p>
          <p style=""font-size: 16px;"">F = YES &nbsp;&nbsp;&nbsp; J = NO</p>
        ","j","html-keyboard-response","213","2.1.0","221828","F=YES, J=NO","29d5na0yq5","1","79","73","85","","","","","","","","","drivets","holiday1","pseudoword","pseudoword","j","true","",""
"null","<p style=""font-size: 50px;"">+</p>","null","html-keyboard-response","214","2.1.0","222137","F=YES, J=NO","29d5na0yq5","1","79","73","85","","","","","","","","","","","","","","","",""
"null","audio/beep-329314.mp3","null","audio-keyboard-response","215","2.1.0","223675","F=YES, J=NO","29d5na0yq5","1","79","73","85","","","","","","","","","","","","","","","",""
"null","audio/pride1.wav","null","audio-keyboard-response","216","2.1.0","224225","F=YES, J=NO","29d5na0yq5","1","79","73","85","","","","","","","","","","","","","","","",""
"568","
          <p id=""word"" style=""font-size: 40px;"">hurt</p>
          <p style=""font-size: 16px;"">F = YES &nbsp;&nbsp;&nbsp; J = NO</p>
        ","f","html-keyboard-response","217","2.1.0","224793","F=YES, J=NO","29d5na0yq5","1","79","73","85","","","","","","","","","hurt","pride1","metaphor","experimental","f","true","",""
"null","<p style=""font-size: 50px;"">+</p>","null","html-keyboard-response","218","2.1.0","225109","F=YES, J=NO","29d5na0yq5","1","79","73","85","","","","","","","","","","","","","","","",""
"null","audio/beep-329314.mp3","null","audio-keyboard-response","219","2.1.0","226635","F=YES, J=NO","29d5na0yq5","1","79","73","85","","","","","","","","","","","","","","","",""
"null","audio/bottle.wav","null","audio-keyboard-response","220","2.1.0","227105","F=YES, J=NO","29d5na0yq5","1","79","73","85","","","","","","","","","","","","","","","",""
"540","
          <p id=""word"" style=""font-size: 40px;"">watch</p>
          <p style=""font-size: 16px;"">F = YES &nbsp;&nbsp;&nbsp; J = NO</p>
        ","f","html-keyboard-response","221","2.1.0","227646","F=YES, J=NO","29d5na0yq5","1","79","73","85","","","","","","","","","watch","bottle","filler","filler","f","true","",""
"null","<p style=""font-size: 50px;"">+</p>","null","html-keyboard-response","222","2.1.0","227958","F=YES, J=NO","29d5na0yq5","1","79","73","85","","","","","","","","","","","","","","","",""
"null","audio/beep-329314.mp3","null","audio-keyboard-response","223","2.1.0","229496","F=YES, J=NO","29d5na0yq5","1","79","73","85","","","","","","","","","","","","","","","",""
"null","audio/price.wav","null","audio-keyboard-response","224","2.1.0","230127","F=YES, J=NO","29d5na0yq5","1","79","73","85","","","","","","","","","","","","","","","",""
"982","
          <p id=""word"" style=""font-size: 40px;"">drop</p>
          <p style=""font-size: 16px;"">F = YES &nbsp;&nbsp;&nbsp; J = NO</p>
        ","f","html-keyboard-response","225","2.1.0","231110","F=YES, J=NO","29d5na0yq5","1","79","73","85","","","","","","","","","drop","price","metaphor","experimental","f","true","",""
"null","<p style=""font-size: 50px;"">+</p>","null","html-keyboard-response","226","2.1.0","231418","F=YES, J=NO","29d5na0yq5","1","79","73","85","","","","","","","","","","","","","","","",""
"null","audio/beep-329314.mp3","null","audio-keyboard-response","227","2.1.0","232957","F=YES, J=NO","29d5na0yq5","1","79","73","85","","","","","","","","","","","","","","","",""
"null","audio/radio1.wav","null","audio-keyboard-response","228","2.1.0","233546","F=YES, J=NO","29d5na0yq5","1","79","73","85","","","","","","","","","","","","","","","",""
"838","
          <p id=""word"" style=""font-size: 40px;"">blanter</p>
          <p style=""font-size: 16px;"">F = YES &nbsp;&nbsp;&nbsp; J = NO</p>
        ","j","html-keyboard-response","229","2.1.0","234385","F=YES, J=NO","29d5na0yq5","1","79","73","85","","","","","","","","","blanter","radio1","pseudoword","pseudoword","j","true","",""
"1225","<p>Excellent! You have finished block 1 of 8.</p>
                     <p>Feel free to take a 30 second break.</p>
                     <p>Press any key when you're ready to continue.</p>","j","html-keyboard-response","230","2.1.0","235611","F=YES, J=NO","29d5na0yq5","1","79","73","85","","","","","","","","","","","","","","","",""
"717","<p>Starting main block 2 of 8. Press any key to continue.</p>","j","html-keyboard-response","231","2.1.0","236328","F=YES, J=NO","29d5na0yq5","1","79","73","85","","","","","","","","","","","","","","","",""
"null","<p style=""font-size: 50px;"">+</p>","null","html-keyboard-response","232","2.1.0","236632","F=YES, J=NO","29d5na0yq5","1","79","73","85","","","","","","","","","","","","","","","",""
"null","audio/beep-329314.mp3","null","audio-keyboard-response","233","2.1.0","238157","F=YES, J=NO","29d5na0yq5","1","79","73","85","","","","","","","","","","","","","","","",""
"null","audio/bush1.wav","null","audio-keyboard-response","234","2.1.0","238627","F=YES, J=NO","29d5na0yq5","1","79","73","85","","","","","","","","","","","","","","","",""
"964","
          <p id=""word"" style=""font-size: 40px;"">platined</p>
          <p style=""font-size: 16px;"">F = YES &nbsp;&nbsp;&nbsp; J = NO</p>
        ","j","html-keyboard-response","235","2.1.0","239591","F=YES, J=NO","29d5na0yq5","1","79","73","85","","","","","","","","","platined","bush1","pseudoword","pseudoword","j","true","",""
"null","<p style=""font-size: 50px;"">+</p>","null","html-keyboard-response","236","2.1.0","239897","F=YES, J=NO","29d5na0yq5","1","79","73","85","","","","","","","","","","","","","","","",""
"null","audio/beep-329314.mp3","null","audio-keyboard-response","237","2.1.0","241438","F=YES, J=NO","29d5na0yq5","1","79","73","85","","","","","","","","","","","","","","","",""
"null","audio/hawk1.wav","null","audio-keyboard-response","238","2.1.0","242028","F=YES, J=NO","29d5na0yq5","1","79","73","85","","","","","","","","","","","","","","","",""
"692","
          <p id=""word"" style=""font-size: 40px;"">ostach</p>
          <p style=""font-size: 16px;"">F = YES &nbsp;&nbsp;&nbsp; J = NO</p>
        ","j","html-keyboard-response","239","2.1.0","242720","F=YES, J=NO","29d5na0yq5","1","79","73","85","","","","","","","","","ostach","hawk1","pseudoword","pseudoword","j","true","",""
"null","<p style=""font-size: 50px;"">+</p>","null","html-keyboard-response","240","2.1.0","243033","F=YES, J=NO","29d5na0yq5","1","79","73","85","","","","","","","","","","","","","","","",""
"null","audio/beep-329314.mp3","null","audio-keyboard-response","241","2.1.0","244558","F=YES, J=NO","29d5na0yq5","1","79","73","85","","","","","","","","","","","","","","","",""
"null","audio/revenue1.wav","null","audio-keyboard-response","242","2.1.0","245228","F=YES, J=NO","29d5na0yq5","1","79","73","85","","","","","","","","","","","","","","","",""
"548","
          <p id=""word"" style=""font-size: 40px;"">grow</p>
          <p style=""font-size: 16px;"">F = YES &nbsp;&nbsp;&nbsp; J = NO</p>
        ","f","html-keyboard-response","243","2.1.0","245776","F=YES, J=NO","29d5na0yq5","1","79","73","85","","","","","","","","","grow","revenue1","metaphor","experimental","f","true","",""
"null","<p style=""font-size: 50px;"">+</p>","null","html-keyboard-response","244","2.1.0","246085","F=YES, J=NO","29d5na0yq5","1","79","73","85","","","","","","","","","","","","","","","",""
"null","audio/beep-329314.mp3","null","audio-keyboard-response","245","2.1.0","247618","F=YES, J=NO","29d5na0yq5","1","79","73","85","","","","","","","","","","","","","","","",""
"null","audio/grass.wav","null","audio-keyboard-response","246","2.1.0","248249","F=YES, J=NO","29d5na0yq5","1","79","73","85","","","","","","","","","","","","","","","",""
"600","
          <p id=""word"" style=""font-size: 40px;"">milames</p>
          <p style=""font-size: 16px;"">F = YES &nbsp;&nbsp;&nbsp; J = NO</p>
        ","j","html-keyboard-response","247","2.1.0","248850","F=YES, J=NO","29d5na0yq5","1","79","73","85","","","","","","","","","milames","grass","pseudoword","pseudoword","j","true","",""
"null","<p style=""font-size: 50px;"">+</p>","null","html-keyboard-response","248","2.1.0","249160","F=YES, J=NO","29d5na0yq5","1","79","73","85","","","","","","","","","","","","","","","",""
"null","audio/beep-329314.mp3","null","audio-keyboard-response","249","2.1.0","250698","F=YES, J=NO","29d5na0yq5","1","79","73","85","","","","","","","","","","","","","","","",""
"null","audio/butter1.wav","null","audio-keyboard-response","250","2.1.0","251129","F=YES, J=NO","29d5na0yq5","1","79","73","85","","","","","","","","","","","","","","","",""
"546","
          <p id=""word"" style=""font-size: 40px;"">spread</p>
          <p style=""font-size: 16px;"">F = YES &nbsp;&nbsp;&nbsp; J = NO</p>
        ","f","html-keyboard-response","251","2.1.0","251675","F=YES, J=NO","29d5na0yq5","1","79","73","85","","","","","","","","","spread","butter1","literal","experimental","f","true","",""
"null","<p style=""font-size: 50px;"">+</p>","null","html-keyboard-response","252","2.1.0","251979","F=YES, J=NO","29d5na0yq5","1","79","73","85","","","","","","","","","","","","","","","",""
"null","audio/beep-329314.mp3","null","audio-keyboard-response","253","2.1.0","253519","F=YES, J=NO","29d5na0yq5","1","79","73","85","","","","","","","","","","","","","","","",""
"null","audio/emotion.wav","null","audio-keyboard-response","254","2.1.0","254169","F=YES, J=NO","29d5na0yq5","1","79","73","85","","","","","","","","","","","","","","","",""
"546","
          <p id=""word"" style=""font-size: 40px;"">devering</p>
          <p style=""font-size: 16px;"">F = YES &nbsp;&nbsp;&nbsp; J = NO</p>
        ","j","html-keyboard-response","255","2.1.0","254716","F=YES, J=NO","29d5na0yq5","1","79","73","85","","","","","","","","","devering","emotion","pseudoword","pseudoword","j","true","",""
"null","<p style=""font-size: 50px;"">+</p>","null","html-keyboard-response","256","2.1.0","255017","F=YES, J=NO","29d5na0yq5","1","79","73","85","","","","","","","","","","","","","","","",""
"null","audio/beep-329314.mp3","null","audio-keyboard-response","257","2.1.0","256539","F=YES, J=NO","29d5na0yq5","1","79","73","85","","","","","","","","","","","","","","","",""
"null","audio/winter.wav","null","audio-keyboard-response","258","2.1.0","257109","F=YES, J=NO","29d5na0yq5","1","79","73","85","","","","","","","","","","","","","","","",""
"557","
          <p id=""word"" style=""font-size: 40px;"">expose</p>
          <p style=""font-size: 16px;"">F = YES &nbsp;&nbsp;&nbsp; J = NO</p>
        ","f","html-keyboard-response","259","2.1.0","257667","F=YES, J=NO","29d5na0yq5","1","79","73","85","","","","","","","","","expose","winter","unrelated","experimental","f","true","",""
"null","<p style=""font-size: 50px;"">+</p>","null","html-keyboard-response","260","2.1.0","257974","F=YES, J=NO","29d5na0yq5","1","79","73","85","","","","","","","","","","","","","","","",""
"null","audio/beep-329314.mp3","null","audio-keyboard-response","261","2.1.0","259500","F=YES, J=NO","29d5na0yq5","1","79","73","85","","","","","","","","","","","","","","","",""
"null","audio/account1.wav","null","audio-keyboard-response","262","2.1.0","260170","F=YES, J=NO","29d5na0yq5","1","79","73","85","","","","","","","","","","","","","","","",""
"593","
          <p id=""word"" style=""font-size: 40px;"">paint</p>
          <p style=""font-size: 16px;"">F = YES &nbsp;&nbsp;&nbsp; J = NO</p>
        ","j","html-keyboard-response","263","2.1.0","260764","F=YES, J=NO","29d5na0yq5","1","79","73","85","","","","","","","","","paint","account1","filler","filler","f","false","",""
"null","<p style=""font-size: 50px;"">+</p>","null","html-keyboard-response","264","2.1.0","261075","F=YES, J=NO","29d5na0yq5","1","79","73","85","","","","","","","","","","","","","","","",""
"null","audio/beep-329314.mp3","null","audio-keyboard-response","265","2.1.0","262600","F=YES, J=NO","29d5na0yq5","1","79","73","85","","","","","","","","","","","","","","","",""
"null","audio/neck.wav","null","audio-keyboard-response","266","2.1.0","263150","F=YES, J=NO","29d5na0yq5","1","79","73","85","","","","","","","","","","","","","","","",""
"523","
          <p id=""word"" style=""font-size: 40px;"">share</p>
          <p style=""font-size: 16px;"">F = YES &nbsp;&nbsp;&nbsp; J = NO</p>
        ","f","html-keyboard-response","267","2.1.0","263673","F=YES, J=NO","29d5na0yq5","1","79","73","85","","","","","","","","","share","neck","unrelated","experimental","f","true","",""
"null","<p style=""font-size: 50px;"">+</p>","null","html-keyboard-response","268","2.1.0","263988","F=YES, J=NO","29d5na0yq5","1","79","73","85","","","","","","","","","","","","","","","",""
"null","audio/beep-329314.mp3","null","audio-keyboard-response","269","2.1.0","265520","F=YES, J=NO","29d5na0yq5","1","79","73","85","","","","","","","","","","","","","","","",""
"null","audio/trust.wav","null","audio-keyboard-response","270","2.1.0","266151","F=YES, J=NO","29d5na0yq5","1","79","73","85","","","","","","","","","","","","","","","",""
"618","
          <p id=""word"" style=""font-size: 40px;"">swint</p>
          <p style=""font-size: 16px;"">F = YES &nbsp;&nbsp;&nbsp; J = NO</p>
        ","j","html-keyboard-response","271","2.1.0","266769","F=YES, J=NO","29d5na0yq5","1","79","73","85","","","","","","","","","swint","trust","pseudoword","pseudoword","j","true","",""
"null","<p style=""font-size: 50px;"">+</p>","null","html-keyboard-response","272","2.1.0","267080","F=YES, J=NO","29d5na0yq5","1","79","73","85","","","","","","","","","","","","","","","",""
"null","audio/beep-329314.mp3","null","audio-keyboard-response","273","2.1.0","268621","F=YES, J=NO","29d5na0yq5","1","79","73","85","","","","","","","","","","","","","","","",""
"null","audio/roof1.wav","null","audio-keyboard-response","274","2.1.0","269171","F=YES, J=NO","29d5na0yq5","1","79","73","85","","","","","","","","","","","","","","","",""
"578","
          <p id=""word"" style=""font-size: 40px;"">construct</p>
          <p style=""font-size: 16px;"">F = YES &nbsp;&nbsp;&nbsp; J = NO</p>
        ","f","html-keyboard-response","275","2.1.0","269749","F=YES, J=NO","29d5na0yq5","1","79","73","85","","","","","","","","","construct","roof1","literal","experimental","f","true","",""
"null","<p style=""font-size: 50px;"">+</p>","null","html-keyboard-response","276","2.1.0","270050","F=YES, J=NO","29d5na0yq5","1","79","73","85","","","","","","","","","","","","","","","",""
"null","audio/beep-329314.mp3","null","audio-keyboard-response","277","2.1.0","271581","F=YES, J=NO","29d5na0yq5","1","79","73","85","","","","","","","","","","","","","","","",""
"null","audio/heart1.wav","null","audio-keyboard-response","278","2.1.0","272212","F=YES, J=NO","29d5na0yq5","1","79","73","85","","","","","","","","","","","","","","","",""
"581","
          <p id=""word"" style=""font-size: 40px;"">dralm</p>
          <p style=""font-size: 16px;"">F = YES &nbsp;&nbsp;&nbsp; J = NO</p>
        ","j","html-keyboard-response","279","2.1.0","272793","F=YES, J=NO","29d5na0yq5","1","79","73","85","","","","","","","","","dralm","heart1","pseudoword","pseudoword","j","true","",""
"null","<p style=""font-size: 50px;"">+</p>","null","html-keyboard-response","280","2.1.0","273108","F=YES, J=NO","29d5na0yq5","1","79","73","85","","","","","","","","","","","","","","","",""
"null","audio/beep-329314.mp3","null","audio-keyboard-response","281","2.1.0","274642","F=YES, J=NO","29d5na0yq5","1","79","73","85","","","","","","","","","","","","","","","",""
"null","audio/neck.wav","null","audio-keyboard-response","282","2.1.0","275172","F=YES, J=NO","29d5na0yq5","1","79","73","85","","","","","","","","","","","","","","","",""
"672","
          <p id=""word"" style=""font-size: 40px;"">werling</p>
          <p style=""font-size: 16px;"">F = YES &nbsp;&nbsp;&nbsp; J = NO</p>
        ","j","html-keyboard-response","283","2.1.0","275845","F=YES, J=NO","29d5na0yq5","1","79","73","85","","","","","","","","","werling","neck","pseudoword","pseudoword","j","true","",""
"null","<p style=""font-size: 50px;"">+</p>","null","html-keyboard-response","284","2.1.0","276147","F=YES, J=NO","29d5na0yq5","1","79","73","85","","","","","","","","","","","","","","","",""
"null","audio/beep-329314.mp3","null","audio-keyboard-response","285","2.1.0","277683","F=YES, J=NO","29d5na0yq5","1","79","73","85","","","","","","","","","","","","","","","",""
"null","audio/haste1.wav","null","audio-keyboard-response","286","2.1.0","278253","F=YES, J=NO","29d5na0yq5","1","79","73","85","","","","","","","","","","","","","","","",""
"1035","
          <p id=""word"" style=""font-size: 40px;"">coraconate</p>
          <p style=""font-size: 16px;"">F = YES &nbsp;&nbsp;&nbsp; J = NO</p>
        ","j","html-keyboard-response","287","2.1.0","279288","F=YES, J=NO","29d5na0yq5","1","79","73","85","","","","","","","","","coraconate","haste1","pseudoword","pseudoword","j","true","",""
"null","<p style=""font-size: 50px;"">+</p>","null","html-keyboard-response","288","2.1.0","279601","F=YES, J=NO","29d5na0yq5","1","79","73","85","","","","","","","","","","","","","","","",""
"null","audio/beep-329314.mp3","null","audio-keyboard-response","289","2.1.0","281143","F=YES, J=NO","29d5na0yq5","1","79","73","85","","","","","","","","","","","","","","","",""
"null","audio/test1.wav","null","audio-keyboard-response","290","2.1.0","281713","F=YES, J=NO","29d5na0yq5","1","79","73","85","","","","","","","","","","","","","","","",""
"713","
          <p id=""word"" style=""font-size: 40px;"">run</p>
          <p style=""font-size: 16px;"">F = YES &nbsp;&nbsp;&nbsp; J = NO</p>
        ","f","html-keyboard-response","291","2.1.0","282426","F=YES, J=NO","29d5na0yq5","1","79","73","85","","","","","","","","","run","test1","metaphor","experimental","f","true","",""
"null","<p style=""font-size: 50px;"">+</p>","null","html-keyboard-response","292","2.1.0","282738","F=YES, J=NO","29d5na0yq5","1","79","73","85","","","","","","","","","","","","","","","",""
"null","audio/beep-329314.mp3","null","audio-keyboard-response","293","2.1.0","284263","F=YES, J=NO","29d5na0yq5","1","79","73","85","","","","","","","","","","","","","","","",""
"null","audio/key1.wav","null","audio-keyboard-response","294","2.1.0","284633","F=YES, J=NO","29d5na0yq5","1","79","73","85","","","","","","","","","","","","","","","",""
"573","
          <p id=""word"" style=""font-size: 40px;"">sminsh</p>
          <p style=""font-size: 16px;"">F = YES &nbsp;&nbsp;&nbsp; J = NO</p>
        ","j","html-keyboard-response","295","2.1.0","285207","F=YES, J=NO","29d5na0yq5","1","79","73","85","","","","","","","","","sminsh","key1","pseudoword","pseudoword","j","true","",""
"733","<p>Excellent! You have finished block 2 of 8.</p>
                     <p>Feel free to take a 30 second break.</p>
                     <p>Press any key when you're ready to continue.</p>","j","html-keyboard-response","296","2.1.0","285940","F=YES, J=NO","29d5na0yq5","1","79","73","85","","","","","","","","","","","","","","","",""
"968","<p>Starting main block 3 of 8. Press any key to continue.</p>","j","html-keyboard-response","297","2.1.0","286908","F=YES, J=NO","29d5na0yq5","1","79","73","85","","","","","","","","","","","","","","","",""
"null","<p style=""font-size: 50px;"">+</p>","null","html-keyboard-response","298","2.1.0","287210","F=YES, J=NO","29d5na0yq5","1","79","73","85","","","","","","","","","","","","","","","",""
"null","audio/beep-329314.mp3","null","audio-keyboard-response","299","2.1.0","288744","F=YES, J=NO","29d5na0yq5","1","79","73","85","","","","","","","","","","","","","","","",""
"null","audio/pain1.wav","null","audio-keyboard-response","300","2.1.0","289194","F=YES, J=NO","29d5na0yq5","1","79","73","85","","","","","","","","","","","","","","","",""
"601","
          <p id=""word"" style=""font-size: 40px;"">tritted</p>
          <p style=""font-size: 16px;"">F = YES &nbsp;&nbsp;&nbsp; J = NO</p>
        ","j","html-keyboard-response","301","2.1.0","289796","F=YES, J=NO","29d5na0yq5","1","79","73","85","","","","","","","","","tritted","pain1","pseudoword","pseudoword","j","true","",""
"null","<p style=""font-size: 50px;"">+</p>","null","html-keyboard-response","302","2.1.0","290100","F=YES, J=NO","29d5na0yq5","1","79","73","85","","","","","","","","","","","","","","","",""
"null","audio/beep-329314.mp3","null","audio-keyboard-response","303","2.1.0","291624","F=YES, J=NO","29d5na0yq5","1","79","73","85","","","","","","","","","","","","","","","",""
"null","audio/strength.wav","null","audio-keyboard-response","304","2.1.0","292354","F=YES, J=NO","29d5na0yq5","1","79","73","85","","","","","","","","","","","","","","","",""
"539","
          <p id=""word"" style=""font-size: 40px;"">plabet</p>
          <p style=""font-size: 16px;"">F = YES &nbsp;&nbsp;&nbsp; J = NO</p>
        ","j","html-keyboard-response","305","2.1.0","292894","F=YES, J=NO","29d5na0yq5","1","79","73","85","","","","","","","","","plabet","strength","pseudoword","pseudoword","j","true","",""
"null","<p style=""font-size: 50px;"">+</p>","null","html-keyboard-response","306","2.1.0","293195","F=YES, J=NO","29d5na0yq5","1","79","73","85","","","","","","","","","","","","","","","",""
"null","audio/beep-329314.mp3","null","audio-keyboard-response","307","2.1.0","294725","F=YES, J=NO","29d5na0yq5","1","79","73","85","","","","","","","","","","","","","","","",""
"null","audio/topic.wav","null","audio-keyboard-response","308","2.1.0","295295","F=YES, J=NO","29d5na0yq5","1","79","73","85","","","","","","","","","","","","","","","",""
"549","
          <p id=""word"" style=""font-size: 40px;"">infortuitist</p>
          <p style=""font-size: 16px;"">F = YES &nbsp;&nbsp;&nbsp; J = NO</p>
        ","j","html-keyboard-response","309","2.1.0","295845","F=YES, J=NO","29d5na0yq5","1","79","73","85","","","","","","","","","infortuitist","topic","pseudoword","pseudoword","j","true","",""
"null","<p style=""font-size: 50px;"">+</p>","null","html-keyboard-response","310","2.1.0","296156","F=YES, J=NO","29d5na0yq5","1","79","73","85","","","","","","","","","","","","","","","",""
"null","audio/beep-329314.mp3","null","audio-keyboard-response","311","2.1.0","297685","F=YES, J=NO","29d5na0yq5","1","79","73","85","","","","","","","","","","","","","","","",""
"null","audio/breath.wav","null","audio-keyboard-response","312","2.1.0","298235","F=YES, J=NO","29d5na0yq5","1","79","73","85","","","","","","","","","","","","","","","",""
"532","
          <p id=""word"" style=""font-size: 40px;"">twets</p>
          <p style=""font-size: 16px;"">F = YES &nbsp;&nbsp;&nbsp; J = NO</p>
        ","j","html-keyboard-response","313","2.1.0","298767","F=YES, J=NO","29d5na0yq5","1","79","73","85","","","","","","","","","twets","breath","pseudoword","pseudoword","j","true","",""
"null","<p style=""font-size: 50px;"">+</p>","null","html-keyboard-response","314","2.1.0","299081","F=YES, J=NO","29d5na0yq5","1","79","73","85","","","","","","","","","","","","","","","",""
"null","audio/beep-329314.mp3","null","audio-keyboard-response","315","2.1.0","300605","F=YES, J=NO","29d5na0yq5","1","79","73","85","","","","","","","","","","","","","","","",""
"null","audio/burden.wav","null","audio-keyboard-response","316","2.1.0","301116","F=YES, J=NO","29d5na0yq5","1","79","73","85","","","","","","","","","","","","","","","",""
"504","
          <p id=""word"" style=""font-size: 40px;"">whotth</p>
          <p style=""font-size: 16px;"">F = YES &nbsp;&nbsp;&nbsp; J = NO</p>
        ","j","html-keyboard-response","317","2.1.0","301620","F=YES, J=NO","29d5na0yq5","1","79","73","85","","","","","","","","","whotth","burden","pseudoword","pseudoword","j","true","",""
"null","<p style=""font-size: 50px;"">+</p>","null","html-keyboard-response","318","2.1.0","301923","F=YES, J=NO","29d5na0yq5","1","79","73","85","","","","","","","","","","","","","","","",""
"null","audio/beep-329314.mp3","null","audio-keyboard-response","319","2.1.0","303446","F=YES, J=NO","29d5na0yq5","1","79","73","85","","","","","","","","","","","","","","","",""
"null","audio/prisoner.wav","null","audio-keyboard-response","320","2.1.0","303956","F=YES, J=NO","29d5na0yq5","1","79","73","85","","","","","","","","","","","","","","","",""
"433","
          <p id=""word"" style=""font-size: 40px;"">egotian</p>
          <p style=""font-size: 16px;"">F = YES &nbsp;&nbsp;&nbsp; J = NO</p>
        ","j","html-keyboard-response","321","2.1.0","304389","F=YES, J=NO","29d5na0yq5","1","79","73","85","","","","","","","","","egotian","prisoner","pseudoword","pseudoword","j","true","",""
"null","<p style=""font-size: 50px;"">+</p>","null","html-keyboard-response","322","2.1.0","304703","F=YES, J=NO","29d5na0yq5","1","79","73","85","","","","","","","","","","","","","","","",""
"null","audio/beep-329314.mp3","null","audio-keyboard-response","323","2.1.0","306226","F=YES, J=NO","29d5na0yq5","1","79","73","85","","","","","","","","","","","","","","","",""
"null","audio/relief.wav","null","audio-keyboard-response","324","2.1.0","306876","F=YES, J=NO","29d5na0yq5","1","79","73","85","","","","","","","","","","","","","","","",""
"511","
          <p id=""word"" style=""font-size: 40px;"">grigg</p>
          <p style=""font-size: 16px;"">F = YES &nbsp;&nbsp;&nbsp; J = NO</p>
        ","j","html-keyboard-response","325","2.1.0","307388","F=YES, J=NO","29d5na0yq5","1","79","73","85","","","","","","","","","grigg","relief","pseudoword","pseudoword","j","true","",""
"null","<p style=""font-size: 50px;"">+</p>","null","html-keyboard-response","326","2.1.0","307689","F=YES, J=NO","29d5na0yq5","1","79","73","85","","","","","","","","","","","","","","","",""
"null","audio/beep-329314.mp3","null","audio-keyboard-response","327","2.1.0","309226","F=YES, J=NO","29d5na0yq5","1","79","73","85","","","","","","","","","","","","","","","",""
"null","audio/battle1.wav","null","audio-keyboard-response","328","2.1.0","309697","F=YES, J=NO","29d5na0yq5","1","79","73","85","","","","","","","","","","","","","","","",""
"713","
          <p id=""word"" style=""font-size: 40px;"">boil</p>
          <p style=""font-size: 16px;"">F = YES &nbsp;&nbsp;&nbsp; J = NO</p>
        ","f","html-keyboard-response","329","2.1.0","310411","F=YES, J=NO","29d5na0yq5","1","79","73","85","","","","","","","","","boil","battle1","filler","filler","f","true","",""
"null","<p style=""font-size: 50px;"">+</p>","null","html-keyboard-response","330","2.1.0","310721","F=YES, J=NO","29d5na0yq5","1","79","73","85","","","","","","","","","","","","","","","",""
"null","audio/beep-329314.mp3","null","audio-keyboard-response","331","2.1.0","312247","F=YES, J=NO","29d5na0yq5","1","79","73","85","","","","","","","","","","","","","","","",""
"null","audio/window1.wav","null","audio-keyboard-response","332","2.1.0","312837","F=YES, J=NO","29d5na0yq5","1","79","73","85","","","","","","","","","","","","","","","",""
"448","
          <p id=""word"" style=""font-size: 40px;"">break</p>
          <p style=""font-size: 16px;"">F = YES &nbsp;&nbsp;&nbsp; J = NO</p>
        ","f","html-keyboard-response","333","2.1.0","313286","F=YES, J=NO","29d5na0yq5","1","79","73","85","","","","","","","","","break","window1","literal","experimental","f","true","",""
"null","<p style=""font-size: 50px;"">+</p>","null","html-keyboard-response","334","2.1.0","313588","F=YES, J=NO","29d5na0yq5","1","79","73","85","","","","","","","","","","","","","","","",""
"null","audio/beep-329314.mp3","null","audio-keyboard-response","335","2.1.0","315127","F=YES, J=NO","29d5na0yq5","1","79","73","85","","","","","","","","","","","","","","","",""
"null","audio/bridge.wav","null","audio-keyboard-response","336","2.1.0","315677","F=YES, J=NO","29d5na0yq5","1","79","73","85","","","","","","","","","","","","","","","",""
"485","
          <p id=""word"" style=""font-size: 40px;"">crack</p>
          <p style=""font-size: 16px;"">F = YES &nbsp;&nbsp;&nbsp; J = NO</p>
        ","f","html-keyboard-response","337","2.1.0","316163","F=YES, J=NO","29d5na0yq5","1","79","73","85","","","","","","","","","crack","bridge","filler","filler","f","true","",""
"null","<p style=""font-size: 50px;"">+</p>","null","html-keyboard-response","338","2.1.0","316467","F=YES, J=NO","29d5na0yq5","1","79","73","85","","","","","","","","","","","","","","","",""
"null","audio/beep-329314.mp3","null","audio-keyboard-response","339","2.1.0","318008","F=YES, J=NO","29d5na0yq5","1","79","73","85","","","","","","","","","","","","","","","",""
"null","audio/burden.wav","null","audio-keyboard-response","340","2.1.0","318498","F=YES, J=NO","29d5na0yq5","1","79","73","85","","","","","","","","","","","","","","","",""
"488","
          <p id=""word"" style=""font-size: 40px;"">carry</p>
          <p style=""font-size: 16px;"">F = YES &nbsp;&nbsp;&nbsp; J = NO</p>
        ","f","html-keyboard-response","341","2.1.0","318986","F=YES, J=NO","29d5na0yq5","1","79","73","85","","","","","","","","","carry","burden","metaphor","experimental","f","true","",""
"null","<p style=""font-size: 50px;"">+</p>","null","html-keyboard-response","342","2.1.0","319296","F=YES, J=NO","29d5na0yq5","1","79","73","85","","","","","","","","","","","","","","","",""
"null","audio/beep-329314.mp3","null","audio-keyboard-response","343","2.1.0","320828","F=YES, J=NO","29d5na0yq5","1","79","73","85","","","","","","","","","","","","","","","",""
"null","audio/weight1.wav","null","audio-keyboard-response","344","2.1.0","321339","F=YES, J=NO","29d5na0yq5","1","79","73","85","","","","","","","","","","","","","","","",""
"417","
          <p id=""word"" style=""font-size: 40px;"">support</p>
          <p style=""font-size: 16px;"">F = YES &nbsp;&nbsp;&nbsp; J = NO</p>
        ","f","html-keyboard-response","345","2.1.0","321756","F=YES, J=NO","29d5na0yq5","1","79","73","85","","","","","","","","","support","weight1","literal","experimental","f","true","",""
"null","<p style=""font-size: 50px;"">+</p>","null","html-keyboard-response","346","2.1.0","322070","F=YES, J=NO","29d5na0yq5","1","79","73","85","","","","","","","","","","","","","","","",""
"null","audio/beep-329314.mp3","null","audio-keyboard-response","347","2.1.0","323609","F=YES, J=NO","29d5na0yq5","1","79","73","85","","","","","","","","","","","","","","","",""
"null","audio/alarm1.wav","null","audio-keyboard-response","348","2.1.0","324199","F=YES, J=NO","29d5na0yq5","1","79","73","85","","","","","","","","","","","","","","","",""
"469","
          <p id=""word"" style=""font-size: 40px;"">lock</p>
          <p style=""font-size: 16px;"">F = YES &nbsp;&nbsp;&nbsp; J = NO</p>
        ","f","html-keyboard-response","349","2.1.0","324668","F=YES, J=NO","29d5na0yq5","1","79","73","85","","","","","","","","","lock","alarm1","filler","filler","f","true","",""
"null","<p style=""font-size: 50px;"">+</p>","null","html-keyboard-response","350","2.1.0","324974","F=YES, J=NO","29d5na0yq5","1","79","73","85","","","","","","","","","","","","","","","",""
"null","audio/beep-329314.mp3","null","audio-keyboard-response","351","2.1.0","326509","F=YES, J=NO","29d5na0yq5","1","79","73","85","","","","","","","","","","","","","","","",""
"null","audio/cloud1.wav","null","audio-keyboard-response","352","2.1.0","327059","F=YES, J=NO","29d5na0yq5","1","79","73","85","","","","","","","","","","","","","","","",""
"721","
          <p id=""word"" style=""font-size: 40px;"">scrap</p>
          <p style=""font-size: 16px;"">F = YES &nbsp;&nbsp;&nbsp; J = NO</p>
        ","f","html-keyboard-response","353","2.1.0","327780","F=YES, J=NO","29d5na0yq5","1","79","73","85","","","","","","","","","scrap","cloud1","unrelated","experimental","f","true","",""
"null","<p style=""font-size: 50px;"">+</p>","null","html-keyboard-response","354","2.1.0","328086","F=YES, J=NO","29d5na0yq5","1","79","73","85","","","","","","","","","","","","","","","",""
"null","audio/beep-329314.mp3","null","audio-keyboard-response","355","2.1.0","329609","F=YES, J=NO","29d5na0yq5","1","79","73","85","","","","","","","","","","","","","","","",""
"null","audio/pattern.wav","null","audio-keyboard-response","356","2.1.0","330119","F=YES, J=NO","29d5na0yq5","1","79","73","85","","","","","","","","","","","","","","","",""
"465","
          <p id=""word"" style=""font-size: 40px;"">defeat</p>
          <p style=""font-size: 16px;"">F = YES &nbsp;&nbsp;&nbsp; J = NO</p>
        ","f","html-keyboard-response","357","2.1.0","330585","F=YES, J=NO","29d5na0yq5","1","79","73","85","","","","","","","","","defeat","pattern","unrelated","experimental","f","true","",""
"null","<p style=""font-size: 50px;"">+</p>","null","html-keyboard-response","358","2.1.0","330898","F=YES, J=NO","29d5na0yq5","1","79","73","85","","","","","","","","","","","","","","","",""
"null","audio/beep-329314.mp3","null","audio-keyboard-response","359","2.1.0","332430","F=YES, J=NO","29d5na0yq5","1","79","73","85","","","","","","","","","","","","","","","",""
"null","audio/chance.wav","null","audio-keyboard-response","360","2.1.0","333080","F=YES, J=NO","29d5na0yq5","1","79","73","85","","","","","","","","","","","","","","","",""
"555","
          <p id=""word"" style=""font-size: 40px;"">seize</p>
          <p style=""font-size: 16px;"">F = YES &nbsp;&nbsp;&nbsp; J = NO</p>
        ","f","html-keyboard-response","361","2.1.0","333635","F=YES, J=NO","29d5na0yq5","1","79","73","85","","","","","","","","","seize","chance","metaphor","experimental","f","true","",""
"900","<p>Excellent! You have finished block 3 of 8.</p>
                     <p>Feel free to take a 30 second break.</p>
                     <p>Press any key when you're ready to continue.</p>","f","html-keyboard-response","362","2.1.0","334537","F=YES, J=NO","29d5na0yq5","1","79","73","85","","","","","","","","","","","","","","","",""
"514","<p>Starting main block 4 of 8. Press any key to continue.</p>","f","html-keyboard-response","363","2.1.0","335051","F=YES, J=NO","29d5na0yq5","1","79","73","85","","","","","","","","","","","","","","","",""
"null","<p style=""font-size: 50px;"">+</p>","null","html-keyboard-response","364","2.1.0","335357","F=YES, J=NO","29d5na0yq5","1","79","73","85","","","","","","","","","","","","","","","",""
"null","audio/beep-329314.mp3","null","audio-keyboard-response","365","2.1.0","336890","F=YES, J=NO","29d5na0yq5","1","79","73","85","","","","","","","","","","","","","","","",""
"null","audio/uncle1.wav","null","audio-keyboard-response","366","2.1.0","337380","F=YES, J=NO","29d5na0yq5","1","79","73","85","","","","","","","","","","","","","","","",""
"586","
          <p id=""word"" style=""font-size: 40px;"">dramble</p>
          <p style=""font-size: 16px;"">F = YES &nbsp;&nbsp;&nbsp; J = NO</p>
        ","f","html-keyboard-response","367","2.1.0","337966","F=YES, J=NO","29d5na0yq5","1","79","73","85","","","","","","","","","dramble","uncle1","pseudoword","pseudoword","j","false","",""
"null","<p style=""font-size: 50px;"">+</p>","null","html-keyboard-response","368","2.1.0","338268","F=YES, J=NO","29d5na0yq5","1","79","73","85","","","","","","","","","","","","","","","",""
"null","audio/beep-329314.mp3","null","audio-keyboard-response","369","2.1.0","339791","F=YES, J=NO","29d5na0yq5","1","79","73","85","","","","","","","","","","","","","","","",""
"null","audio/pine.wav","null","audio-keyboard-response","370","2.1.0","340281","F=YES, J=NO","29d5na0yq5","1","79","73","85","","","","","","","","","","","","","","","",""
"709","
          <p id=""word"" style=""font-size: 40px;"">crebble</p>
          <p style=""font-size: 16px;"">F = YES &nbsp;&nbsp;&nbsp; J = NO</p>
        ","j","html-keyboard-response","371","2.1.0","340991","F=YES, J=NO","29d5na0yq5","1","79","73","85","","","","","","","","","crebble","pine","pseudoword","pseudoword","j","true","",""
"null","<p style=""font-size: 50px;"">+</p>","null","html-keyboard-response","372","2.1.0","341297","F=YES, J=NO","29d5na0yq5","1","79","73","85","","","","","","","","","","","","","","","",""
"null","audio/beep-329314.mp3","null","audio-keyboard-response","373","2.1.0","342831","F=YES, J=NO","29d5na0yq5","1","79","73","85","","","","","","","","","","","","","","","",""
"null","audio/topic.wav","null","audio-keyboard-response","374","2.1.0","343381","F=YES, J=NO","29d5na0yq5","1","79","73","85","","","","","","","","","","","","","","","",""
"553","
          <p id=""word"" style=""font-size: 40px;"">approach</p>
          <p style=""font-size: 16px;"">F = YES &nbsp;&nbsp;&nbsp; J = NO</p>
        ","f","html-keyboard-response","375","2.1.0","343935","F=YES, J=NO","29d5na0yq5","1","79","73","85","","","","","","","","","approach","topic","metaphor","experimental","f","true","",""
"null","<p style=""font-size: 50px;"">+</p>","null","html-keyboard-response","376","2.1.0","344237","F=YES, J=NO","29d5na0yq5","1","79","73","85","","","","","","","","","","","","","","","",""
"null","audio/beep-329314.mp3","null","audio-keyboard-response","377","2.1.0","345771","F=YES, J=NO","29d5na0yq5","1","79","73","85","","","","","","","","","","","","","","","",""
"null","audio/desire.wav","null","audio-keyboard-response","378","2.1.0","346401","F=YES, J=NO","29d5na0yq5","1","79","73","85","","","","","","","","","","","","","","","",""
"692","
          <p id=""word"" style=""font-size: 40px;"">nophed</p>
          <p style=""font-size: 16px;"">F = YES &nbsp;&nbsp;&nbsp; J = NO</p>
        ","j","html-keyboard-response","379","2.1.0","347094","F=YES, J=NO","29d5na0yq5","1","79","73","85","","","","","","","","","nophed","desire","pseudoword","pseudoword","j","true","",""
"null","<p style=""font-size: 50px;"">+</p>","null","html-keyboard-response","380","2.1.0","347409","F=YES, J=NO","29d5na0yq5","1","79","73","85","","","","","","","","","","","","","","","",""
"null","audio/beep-329314.mp3","null","audio-keyboard-response","381","2.1.0","348932","F=YES, J=NO","29d5na0yq5","1","79","73","85","","","","","","","","","","","","","","","",""
"null","audio/mouth1.wav","null","audio-keyboard-response","382","2.1.0","349502","F=YES, J=NO","29d5na0yq5","1","79","73","85","","","","","","","","","","","","","","","",""
"529","
          <p id=""word"" style=""font-size: 40px;"">spolial</p>
          <p style=""font-size: 16px;"">F = YES &nbsp;&nbsp;&nbsp; J = NO</p>
        ","j","html-keyboard-response","383","2.1.0","350032","F=YES, J=NO","29d5na0yq5","1","79","73","85","","","","","","","","","spolial","mouth1","pseudoword","pseudoword","j","true","",""
"null","<p style=""font-size: 50px;"">+</p>","null","html-keyboard-response","384","2.1.0","350333","F=YES, J=NO","29d5na0yq5","1","79","73","85","","","","","","","","","","","","","","","",""
"null","audio/beep-329314.mp3","null","audio-keyboard-response","385","2.1.0","351872","F=YES, J=NO","29d5na0yq5","1","79","73","85","","","","","","","","","","","","","","","",""
"null","audio/roof1.wav","null","audio-keyboard-response","386","2.1.0","352402","F=YES, J=NO","29d5na0yq5","1","79","73","85","","","","","","","","","","","","","","","",""
"630","
          <p id=""word"" style=""font-size: 40px;"">wronb</p>
          <p style=""font-size: 16px;"">F = YES &nbsp;&nbsp;&nbsp; J = NO</p>
        ","j","html-keyboard-response","387","2.1.0","353033","F=YES, J=NO","29d5na0yq5","1","79","73","85","","","","","","","","","wronb","roof1","pseudoword","pseudoword","j","true","",""
"null","<p style=""font-size: 50px;"">+</p>","null","html-keyboard-response","388","2.1.0","353337","F=YES, J=NO","29d5na0yq5","1","79","73","85","","","","","","","","","","","","","","","",""
"null","audio/beep-329314.mp3","null","audio-keyboard-response","389","2.1.0","354873","F=YES, J=NO","29d5na0yq5","1","79","73","85","","","","","","","","","","","","","","","",""
"null","audio/gossip1.wav","null","audio-keyboard-response","390","2.1.0","355503","F=YES, J=NO","29d5na0yq5","1","79","73","85","","","","","","","","","","","","","","","",""
"641","
          <p id=""word"" style=""font-size: 40px;"">camerish</p>
          <p style=""font-size: 16px;"">F = YES &nbsp;&nbsp;&nbsp; J = NO</p>
        ","j","html-keyboard-response","391","2.1.0","356144","F=YES, J=NO","29d5na0yq5","1","79","73","85","","","","","","","","","camerish","gossip1","pseudoword","pseudoword","j","true","",""
