"rt","stimulus","response","trial_type","trial_index","plugin_version","time_elapsed","response_mapping","subject_id","list_index","lextale_score","lextale_word_score","lextale_nonword_score","success","timeout","failed_images","failed_audio","failed_video","task","isWord","isDummy","target","prime","prime_type","stimulus_type","correct_response","correct","section","question_order"
"3646","
    <div style=""max-width: 800px; margin: auto; text-align: left;"">
      <h2>STANFORD UNIVERSITY</h2>
      <h3>Research Information Sheet</h3>
      <p><strong>Protocol Director:</strong> Robert Hawkins<br>
      <strong>Protocol Title:</strong> Communication and social cognition in natural audiovisual contexts<br>
      <strong>IRB#:</strong> 77226</p>

      <p><strong>DESCRIPTION:</strong> You are invited to participate in a research study about language and communication. The purpose of the research is to understand how you interact and communicate with other people in naturalistic settings as a fluent English speaker. This research will be conducted through the Prolific platform, including participants from the US, UK, and Canada. If you decide to participate in this research, you will play a communication game in a group with one or more partners.</p>

      <p><strong>TIME INVOLVEMENT:</strong> The task will last the amount of time advertised on Prolific. You are free to withdraw from the study at any time.</p>

      <p><strong>RISKS AND BENEFITS:</strong> You may become frustrated if your partner gets distracted, or experience discomfort if other participants in your group send text that is inappropriate for the task. We ask you to please be respectful of other participants you might be interacting with to mitigate these risks. You may also experience discomfort when being asked to discuss or challenge emotionally salient political beliefs. Study data will be stored securely, in compliance with Stanford University standards, minimizing the risk of confidentiality breach. This study advances our scientific understanding of how people communicate and collaborate in naturalistic settings. This study may lead to further insights about what can go wrong in teamwork, suggest potential interventions to overcome these barriers, and help to develop assistive technologies that collaborate with human partners. We cannot and do not guarantee or promise that you will receive any benefits from this study.</p>

      <p><strong>PAYMENTS:</strong> You will receive payment in the amount advertised on Prolific. If you do not complete this study, you will receive prorated payment based on the time that you have spent. Additionally, you may be eligible for bonus payments as described in the instructions.</p>

      <p><strong>PARTICIPANT’S RIGHTS:</strong> If you have read this form and have decided to participate in this project, please understand your participation is voluntary and you have the right to withdraw your consent or discontinue participation at any time without penalty or loss of benefits to which you are otherwise entitled. The alternative is not to participate. You have the right to refuse to answer particular questions. The results of this research study may be presented at scientific or professional meetings or published in scientific journals. Your individual privacy will be maintained in all published and written data resulting from the study. In accordance with scientific norms, the data from this study may be used or shared with other researchers for future research (after removing personally identifying information) without additional consent from you.</p>

      <p><strong>CONTACT INFORMATION:</strong><br>
      Questions: If you have any questions, concerns or complaints about this research, its procedures, risks and benefits, contact the Protocol Director, Robert Hawkins (<a href=""mailto:rdhawkins@stanford.edu"">rdhawkins@stanford.edu</a>, 217-549-6923).<br>
      Independent Contact: If you are not satisfied with how this study is being conducted, or if you have any concerns, complaints, or general questions about the research or your rights as a participant, please contact the Stanford Institutional Review Board (IRB) to speak to someone independent of the research team at 650-723-2480 or toll free at 1-866-680-2906, or email at <a href=""mailto:irbnon-med@stanford.edu"">irbnon-med@stanford.edu</a>. You can also write to the Stanford IRB, Stanford University, 1705 El Camino Real, Palo Alto, CA 94306.</p>

      <p><strong>Please save or print a copy of this page for your records.</strong></p>
      <p>If you agree to participate in this research, click ""Continue"" below.</p>
    </div>
  ","0","html-button-response","0","2.1.0","3664","J=YES, F=NO","2b335lgj5b","2","70","75","65","","","","","","","","","","","","","","","",""
"1044","
    <div style=""max-width: 800px; margin: auto; text-align: left;"">
      <h2>Welcome!</h2>
      <p>Thank you for participating in this study. The experiment consists of three parts:</p>
      <ol>
        <li>An English vocabulary test</li>
        <li>A main task in which you will hear and see words, and decide whether the written word is a real English word</li>
        <li>A brief survey about your background</li>
      </ol>
      <p>Each part will be introduced before it begins.</p>
      <p>Please make sure you are in a quiet environment and can hear audio clearly for the final task.</p>
      <p style=""margin-top: 2em;"">Press any key to begin.</p>
    </div>
  "," ","html-keyboard-response","1","2.1.0","4711","J=YES, F=NO","2b335lgj5b","2","70","75","65","","","","","","","","","","","","","","","",""
"","","","preload","2","2.1.0","5989","J=YES, F=NO","2b335lgj5b","2","70","75","65","true","false","[]","[]","[]","","","","","","","","","","",""
"560","
    <div style=""max-width: 800px; margin: auto; text-align: left;"">
      <h2>Part 1: Vocabulary Test</h2>
      <p>You will now complete the first part of the study: a short English vocabulary test.</p>
      <p>This test is called <strong>LexTALE</strong> and helps us get a general sense of your English proficiency.</p>
      <p style=""margin-top: 2em;"">Press any key to continue.</p>
    </div>
  "," ","html-keyboard-response","3","2.1.0","6551","J=YES, F=NO","2b335lgj5b","2","70","75","65","","","","","","","","","","","","","","","",""
"742","
    <div style=""max-width: 800px; margin: auto; text-align: left;"">
      <h2>LexTALE Vocabulary Test</h2>
      <p>In this test, you will see a series of letter strings—one at a time.</p>
      <p>Your task is to decide whether each string is a real English word.</p>
      <p><strong>Key responses:</strong></p>
      <ul>
        <li><strong>J</strong> = YES (real English word)</li>
        <li><strong>F</strong> = NO (not a real English word)</li>
      </ul>
      <p>There is no time limit, but please try to be accurate.</p>
      <p style=""margin-top: 2em;"">Press any key to begin.</p>
    </div>
  "," ","html-keyboard-response","4","2.1.0","7295","J=YES, F=NO","2b335lgj5b","2","70","75","65","","","","","","","","","","","","","","","",""
"607","
  <p style=""font-size: 40px;"">platery</p>
  <p style=""font-size: 16px;"">J = YES &nbsp;&nbsp;&nbsp; F = NO</p>
","j","html-keyboard-response","5","2.1.0","7903","J=YES, F=NO","2b335lgj5b","2","70","75","65","","","","","","lextale","false","true","","","","","","","",""
"862","
  <p style=""font-size: 40px;"">denial</p>
  <p style=""font-size: 16px;"">J = YES &nbsp;&nbsp;&nbsp; F = NO</p>
","j","html-keyboard-response","6","2.1.0","8767","J=YES, F=NO","2b335lgj5b","2","70","75","65","","","","","","lextale","true","true","","","","","","","",""
"894","
  <p style=""font-size: 40px;"">marrit</p>
  <p style=""font-size: 16px;"">J = YES &nbsp;&nbsp;&nbsp; F = NO</p>
","j","html-keyboard-response","7","2.1.0","9663","J=YES, F=NO","2b335lgj5b","2","70","75","65","","","","","","lextale","false","true","","","","","","","",""
"2678","
  <p style=""font-size: 40px;"">bottle</p>
  <p style=""font-size: 16px;"">J = YES &nbsp;&nbsp;&nbsp; F = NO</p>
","j","html-keyboard-response","8","2.1.0","12343","J=YES, F=NO","2b335lgj5b","2","70","75","65","","","","","","lextale","true","false","","","","","","","",""
"990","
  <p style=""font-size: 40px;"">birst</p>
  <p style=""font-size: 16px;"">J = YES &nbsp;&nbsp;&nbsp; F = NO</p>
","f","html-keyboard-response","9","2.1.0","13335","J=YES, F=NO","2b335lgj5b","2","70","75","65","","","","","","lextale","false","false","","","","","","","",""
"895","
  <p style=""font-size: 40px;"">envy</p>
  <p style=""font-size: 16px;"">J = YES &nbsp;&nbsp;&nbsp; F = NO</p>
","j","html-keyboard-response","10","2.1.0","14231","J=YES, F=NO","2b335lgj5b","2","70","75","65","","","","","","lextale","true","false","","","","","","","",""
"1047","
  <p style=""font-size: 40px;"">brang</p>
  <p style=""font-size: 16px;"">J = YES &nbsp;&nbsp;&nbsp; F = NO</p>
","j","html-keyboard-response","11","2.1.0","15279","J=YES, F=NO","2b335lgj5b","2","70","75","65","","","","","","lextale","false","false","","","","","","","",""
"887","
  <p style=""font-size: 40px;"">huge</p>
  <p style=""font-size: 16px;"">J = YES &nbsp;&nbsp;&nbsp; F = NO</p>
","j","html-keyboard-response","12","2.1.0","16167","J=YES, F=NO","2b335lgj5b","2","70","75","65","","","","","","lextale","true","false","","","","","","","",""
"871","
  <p style=""font-size: 40px;"">plove</p>
  <p style=""font-size: 16px;"">J = YES &nbsp;&nbsp;&nbsp; F = NO</p>
","f","html-keyboard-response","13","2.1.0","17039","J=YES, F=NO","2b335lgj5b","2","70","75","65","","","","","","lextale","false","false","","","","","","","",""
"855","
  <p style=""font-size: 40px;"">border</p>
  <p style=""font-size: 16px;"">J = YES &nbsp;&nbsp;&nbsp; F = NO</p>
","j","html-keyboard-response","14","2.1.0","17895","J=YES, F=NO","2b335lgj5b","2","70","75","65","","","","","","lextale","true","false","","","","","","","",""
"1063","
  <p style=""font-size: 40px;"">flimsy</p>
  <p style=""font-size: 16px;"">J = YES &nbsp;&nbsp;&nbsp; F = NO</p>
","j","html-keyboard-response","15","2.1.0","18959","J=YES, F=NO","2b335lgj5b","2","70","75","65","","","","","","lextale","true","false","","","","","","","",""
"1015","
  <p style=""font-size: 40px;"">drain</p>
  <p style=""font-size: 16px;"">J = YES &nbsp;&nbsp;&nbsp; F = NO</p>
","j","html-keyboard-response","16","2.1.0","19975","J=YES, F=NO","2b335lgj5b","2","70","75","65","","","","","","lextale","true","false","","","","","","","",""
"847","
  <p style=""font-size: 40px;"">twindle</p>
  <p style=""font-size: 16px;"">J = YES &nbsp;&nbsp;&nbsp; F = NO</p>
","f","html-keyboard-response","17","2.1.0","20823","J=YES, F=NO","2b335lgj5b","2","70","75","65","","","","","","lextale","false","false","","","","","","","",""
"934","
  <p style=""font-size: 40px;"">propose</p>
  <p style=""font-size: 16px;"">J = YES &nbsp;&nbsp;&nbsp; F = NO</p>
","j","html-keyboard-response","18","2.1.0","21759","J=YES, F=NO","2b335lgj5b","2","70","75","65","","","","","","lextale","true","false","","","","","","","",""
"831","
  <p style=""font-size: 40px;"">forlay</p>
  <p style=""font-size: 16px;"">J = YES &nbsp;&nbsp;&nbsp; F = NO</p>
","j","html-keyboard-response","19","2.1.0","22591","J=YES, F=NO","2b335lgj5b","2","70","75","65","","","","","","lextale","false","false","","","","","","","",""
"950","
  <p style=""font-size: 40px;"">tenant</p>
  <p style=""font-size: 16px;"">J = YES &nbsp;&nbsp;&nbsp; F = NO</p>
","j","html-keyboard-response","20","2.1.0","23543","J=YES, F=NO","2b335lgj5b","2","70","75","65","","","","","","lextale","true","false","","","","","","","",""
"911","
  <p style=""font-size: 40px;"">strain</p>
  <p style=""font-size: 16px;"">J = YES &nbsp;&nbsp;&nbsp; F = NO</p>
","j","html-keyboard-response","21","2.1.0","24455","J=YES, F=NO","2b335lgj5b","2","70","75","65","","","","","","lextale","true","false","","","","","","","",""
"959","
  <p style=""font-size: 40px;"">holster</p>
  <p style=""font-size: 16px;"">J = YES &nbsp;&nbsp;&nbsp; F = NO</p>
","j","html-keyboard-response","22","2.1.0","25415","J=YES, F=NO","2b335lgj5b","2","70","75","65","","","","","","lextale","true","false","","","","","","","",""
"878","
  <p style=""font-size: 40px;"">hinder</p>
  <p style=""font-size: 16px;"">J = YES &nbsp;&nbsp;&nbsp; F = NO</p>
","f","html-keyboard-response","23","2.1.0","26295","J=YES, F=NO","2b335lgj5b","2","70","75","65","","","","","","lextale","true","false","","","","","","","",""
"855","
  <p style=""font-size: 40px;"">swindle</p>
  <p style=""font-size: 16px;"">J = YES &nbsp;&nbsp;&nbsp; F = NO</p>
","j","html-keyboard-response","24","2.1.0","27151","J=YES, F=NO","2b335lgj5b","2","70","75","65","","","","","","lextale","true","false","","","","","","","",""
"920","
  <p style=""font-size: 40px;"">nuder</p>
  <p style=""font-size: 16px;"">J = YES &nbsp;&nbsp;&nbsp; F = NO</p>
","j","html-keyboard-response","25","2.1.0","28072","J=YES, F=NO","2b335lgj5b","2","70","75","65","","","","","","lextale","false","false","","","","","","","",""
"854","
  <p style=""font-size: 40px;"">pillow</p>
  <p style=""font-size: 16px;"">J = YES &nbsp;&nbsp;&nbsp; F = NO</p>
","j","html-keyboard-response","26","2.1.0","28927","J=YES, F=NO","2b335lgj5b","2","70","75","65","","","","","","lextale","true","false","","","","","","","",""
"879","
  <p style=""font-size: 40px;"">shumble</p>
  <p style=""font-size: 16px;"">J = YES &nbsp;&nbsp;&nbsp; F = NO</p>
","f","html-keyboard-response","27","2.1.0","29807","J=YES, F=NO","2b335lgj5b","2","70","75","65","","","","","","lextale","false","false","","","","","","","",""
"855","
  <p style=""font-size: 40px;"">thirst</p>
  <p style=""font-size: 16px;"">J = YES &nbsp;&nbsp;&nbsp; F = NO</p>
","j","html-keyboard-response","28","2.1.0","30663","J=YES, F=NO","2b335lgj5b","2","70","75","65","","","","","","lextale","true","false","","","","","","","",""
"911","
  <p style=""font-size: 40px;"">unsail</p>
  <p style=""font-size: 16px;"">J = YES &nbsp;&nbsp;&nbsp; F = NO</p>
","f","html-keyboard-response","29","2.1.0","31575","J=YES, F=NO","2b335lgj5b","2","70","75","65","","","","","","lextale","false","false","","","","","","","",""
"927","
  <p style=""font-size: 40px;"">rifle</p>
  <p style=""font-size: 16px;"">J = YES &nbsp;&nbsp;&nbsp; F = NO</p>
","f","html-keyboard-response","30","2.1.0","32503","J=YES, F=NO","2b335lgj5b","2","70","75","65","","","","","","lextale","true","false","","","","","","","",""
"1007","
  <p style=""font-size: 40px;"">mush</p>
  <p style=""font-size: 16px;"">J = YES &nbsp;&nbsp;&nbsp; F = NO</p>
","j","html-keyboard-response","31","2.1.0","33511","J=YES, F=NO","2b335lgj5b","2","70","75","65","","","","","","lextale","false","false","","","","","","","",""
"862","
  <p style=""font-size: 40px;"">drench</p>
  <p style=""font-size: 16px;"">J = YES &nbsp;&nbsp;&nbsp; F = NO</p>
","j","html-keyboard-response","32","2.1.0","34374","J=YES, F=NO","2b335lgj5b","2","70","75","65","","","","","","lextale","true","false","","","","","","","",""
"943","
  <p style=""font-size: 40px;"">snirt</p>
  <p style=""font-size: 16px;"">J = YES &nbsp;&nbsp;&nbsp; F = NO</p>
","f","html-keyboard-response","33","2.1.0","35319","J=YES, F=NO","2b335lgj5b","2","70","75","65","","","","","","lextale","false","false","","","","","","","",""
"847","
  <p style=""font-size: 40px;"">bitter</p>
  <p style=""font-size: 16px;"">J = YES &nbsp;&nbsp;&nbsp; F = NO</p>
","j","html-keyboard-response","34","2.1.0","36167","J=YES, F=NO","2b335lgj5b","2","70","75","65","","","","","","lextale","true","false","","","","","","","",""
"966","
  <p style=""font-size: 40px;"">pliff</p>
  <p style=""font-size: 16px;"">J = YES &nbsp;&nbsp;&nbsp; F = NO</p>
","j","html-keyboard-response","35","2.1.0","37135","J=YES, F=NO","2b335lgj5b","2","70","75","65","","","","","","lextale","false","false","","","","","","","",""
"871","
  <p style=""font-size: 40px;"">tablet</p>
  <p style=""font-size: 16px;"">J = YES &nbsp;&nbsp;&nbsp; F = NO</p>
","j","html-keyboard-response","36","2.1.0","38007","J=YES, F=NO","2b335lgj5b","2","70","75","65","","","","","","lextale","true","false","","","","","","","",""
"855","
  <p style=""font-size: 40px;"">glimmer</p>
  <p style=""font-size: 16px;"">J = YES &nbsp;&nbsp;&nbsp; F = NO</p>
","f","html-keyboard-response","37","2.1.0","38863","J=YES, F=NO","2b335lgj5b","2","70","75","65","","","","","","lextale","true","false","","","","","","","",""
"823","
  <p style=""font-size: 40px;"">slink</p>
  <p style=""font-size: 16px;"">J = YES &nbsp;&nbsp;&nbsp; F = NO</p>
","j","html-keyboard-response","38","2.1.0","39687","J=YES, F=NO","2b335lgj5b","2","70","75","65","","","","","","lextale","true","false","","","","","","","",""
"895","
  <p style=""font-size: 40px;"">clever</p>
  <p style=""font-size: 16px;"">J = YES &nbsp;&nbsp;&nbsp; F = NO</p>
","j","html-keyboard-response","39","2.1.0","40583","J=YES, F=NO","2b335lgj5b","2","70","75","65","","","","","","lextale","true","false","","","","","","","",""
"895","
  <p style=""font-size: 40px;"">grum</p>
  <p style=""font-size: 16px;"">J = YES &nbsp;&nbsp;&nbsp; F = NO</p>
","f","html-keyboard-response","40","2.1.0","41479","J=YES, F=NO","2b335lgj5b","2","70","75","65","","","","","","lextale","false","false","","","","","","","",""
"830","
  <p style=""font-size: 40px;"">string</p>
  <p style=""font-size: 16px;"">J = YES &nbsp;&nbsp;&nbsp; F = NO</p>
","j","html-keyboard-response","41","2.1.0","42310","J=YES, F=NO","2b335lgj5b","2","70","75","65","","","","","","lextale","true","false","","","","","","","",""
"895","
  <p style=""font-size: 40px;"">plim</p>
  <p style=""font-size: 16px;"">J = YES &nbsp;&nbsp;&nbsp; F = NO</p>
","f","html-keyboard-response","42","2.1.0","43207","J=YES, F=NO","2b335lgj5b","2","70","75","65","","","","","","lextale","false","false","","","","","","","",""
"848","
  <p style=""font-size: 40px;"">cable</p>
  <p style=""font-size: 16px;"">J = YES &nbsp;&nbsp;&nbsp; F = NO</p>
","j","html-keyboard-response","43","2.1.0","44055","J=YES, F=NO","2b335lgj5b","2","70","75","65","","","","","","lextale","true","false","","","","","","","",""
"983","
  <p style=""font-size: 40px;"">shrivel</p>
  <p style=""font-size: 16px;"">J = YES &nbsp;&nbsp;&nbsp; F = NO</p>
","j","html-keyboard-response","44","2.1.0","45039","J=YES, F=NO","2b335lgj5b","2","70","75","65","","","","","","lextale","true","false","","","","","","","",""
"935","
  <p style=""font-size: 40px;"">tarnish</p>
  <p style=""font-size: 16px;"">J = YES &nbsp;&nbsp;&nbsp; F = NO</p>
","j","html-keyboard-response","45","2.1.0","45975","J=YES, F=NO","2b335lgj5b","2","70","75","65","","","","","","lextale","true","false","","","","","","","",""
"1414","
  <p style=""font-size: 40px;"">blim</p>
  <p style=""font-size: 16px;"">J = YES &nbsp;&nbsp;&nbsp; F = NO</p>
","f","html-keyboard-response","46","2.1.0","47391","J=YES, F=NO","2b335lgj5b","2","70","75","65","","","","","","lextale","false","false","","","","","","","",""
"959","
  <p style=""font-size: 40px;"">stifle</p>
  <p style=""font-size: 16px;"">J = YES &nbsp;&nbsp;&nbsp; F = NO</p>
","j","html-keyboard-response","47","2.1.0","48350","J=YES, F=NO","2b335lgj5b","2","70","75","65","","","","","","lextale","true","false","","","","","","","",""
"904","
  <p style=""font-size: 40px;"">bint</p>
  <p style=""font-size: 16px;"">J = YES &nbsp;&nbsp;&nbsp; F = NO</p>
","j","html-keyboard-response","48","2.1.0","49255","J=YES, F=NO","2b335lgj5b","2","70","75","65","","","","","","lextale","false","false","","","","","","","",""
"887","
  <p style=""font-size: 40px;"">purple</p>
  <p style=""font-size: 16px;"">J = YES &nbsp;&nbsp;&nbsp; F = NO</p>
","j","html-keyboard-response","49","2.1.0","50143","J=YES, F=NO","2b335lgj5b","2","70","75","65","","","","","","lextale","true","false","","","","","","","",""
"911","
  <p style=""font-size: 40px;"">wriggle</p>
  <p style=""font-size: 16px;"">J = YES &nbsp;&nbsp;&nbsp; F = NO</p>
","j","html-keyboard-response","50","2.1.0","51055","J=YES, F=NO","2b335lgj5b","2","70","75","65","","","","","","lextale","true","false","","","","","","","",""
"839","
  <p style=""font-size: 40px;"">mangle</p>
  <p style=""font-size: 16px;"">J = YES &nbsp;&nbsp;&nbsp; F = NO</p>
","j","html-keyboard-response","51","2.1.0","51895","J=YES, F=NO","2b335lgj5b","2","70","75","65","","","","","","lextale","true","false","","","","","","","",""
"887","
  <p style=""font-size: 40px;"">shramp</p>
  <p style=""font-size: 16px;"">J = YES &nbsp;&nbsp;&nbsp; F = NO</p>
","f","html-keyboard-response","52","2.1.0","52783","J=YES, F=NO","2b335lgj5b","2","70","75","65","","","","","","lextale","false","false","","","","","","","",""
"783","
  <p style=""font-size: 40px;"">flirt</p>
  <p style=""font-size: 16px;"">J = YES &nbsp;&nbsp;&nbsp; F = NO</p>
","j","html-keyboard-response","53","2.1.0","53567","J=YES, F=NO","2b335lgj5b","2","70","75","65","","","","","","lextale","true","false","","","","","","","",""
"727","
  <p style=""font-size: 40px;"">frip</p>
  <p style=""font-size: 16px;"">J = YES &nbsp;&nbsp;&nbsp; F = NO</p>
","f","html-keyboard-response","54","2.1.0","54295","J=YES, F=NO","2b335lgj5b","2","70","75","65","","","","","","lextale","false","false","","","","","","","",""
"727","
  <p style=""font-size: 40px;"">tangle</p>
  <p style=""font-size: 16px;"">J = YES &nbsp;&nbsp;&nbsp; F = NO</p>
","j","html-keyboard-response","55","2.1.0","55023","J=YES, F=NO","2b335lgj5b","2","70","75","65","","","","","","lextale","true","false","","","","","","","",""
"1015","
  <p style=""font-size: 40px;"">crumble</p>
  <p style=""font-size: 16px;"">J = YES &nbsp;&nbsp;&nbsp; F = NO</p>
","f","html-keyboard-response","56","2.1.0","56039","J=YES, F=NO","2b335lgj5b","2","70","75","65","","","","","","lextale","true","false","","","","","","","",""
"895","
  <p style=""font-size: 40px;"">wrinkle</p>
  <p style=""font-size: 16px;"">J = YES &nbsp;&nbsp;&nbsp; F = NO</p>
","j","html-keyboard-response","57","2.1.0","56935","J=YES, F=NO","2b335lgj5b","2","70","75","65","","","","","","lextale","true","false","","","","","","","",""
"1455","
  <p style=""font-size: 40px;"">slumb</p>
  <p style=""font-size: 16px;"">J = YES &nbsp;&nbsp;&nbsp; F = NO</p>
","f","html-keyboard-response","58","2.1.0","58391","J=YES, F=NO","2b335lgj5b","2","70","75","65","","","","","","lextale","false","false","","","","","","","",""
"847","
  <p style=""font-size: 40px;"">jungle</p>
  <p style=""font-size: 16px;"">J = YES &nbsp;&nbsp;&nbsp; F = NO</p>
","j","html-keyboard-response","59","2.1.0","59239","J=YES, F=NO","2b335lgj5b","2","70","75","65","","","","","","lextale","true","false","","","","","","","",""
"982","
  <p style=""font-size: 40px;"">frolick</p>
  <p style=""font-size: 16px;"">J = YES &nbsp;&nbsp;&nbsp; F = NO</p>
","f","html-keyboard-response","60","2.1.0","60223","J=YES, F=NO","2b335lgj5b","2","70","75","65","","","","","","lextale","false","false","","","","","","","",""
"2798","
      <h2>LexTALE Test Completed</h2>
      <p>Your LexTALE vocabulary score is: <strong>70%</strong></p>
      <p>Press any key to continue.</p>
    "," ","html-keyboard-response","61","2.1.0","63023","J=YES, F=NO","2b335lgj5b","2","70","75","65","","","","","","","","","","","","","","","",""
"3374","
    <div style=""max-width: 800px; margin: auto; text-align: left;"">
      <h2>Break Time</h2>
      <p>You have completed the first part of the study.</p>
      <p>You may take a short <strong>30-second break</strong> before continuing.</p>
      <p>When you’re ready, press any key to continue to the final task.</p>
    </div>
  "," ","html-keyboard-response","62","2.1.0","66399","J=YES, F=NO","2b335lgj5b","2","70","75","65","","","","","","","","","","","","","","","",""
"8286","
    <div style=""max-width: 800px; margin: auto; text-align: left;"">
      <h2>Part 2: Lexical Decision Task</h2>
      <p>You will now begin the second part of the study.</p>
      <p>Each trial will follow this sequence:</p>
      <ul>
        <li>A fixation cross (+) appears at the center of the screen.</li>
        <li>You will hear a short beep followed by a spoken word.</li>
        <li>A written word will appear briefly on the screen.</li>
      </ul>
      <p>Your task is to judge whether the <strong>written word</strong> is a real English word.</p>
      <p style=""margin-top: 1em;""><strong>Key responses:</strong></p>
      <ul>
        <li><strong>J</strong> = YES (real English word)</li>
        <li><strong>F</strong> = NO (not a real English word)</li>
      </ul>
      <p>Please respond as quickly and accurately as you can.</p>
      <p style=""margin-top: 2em;"">Press any key to continue.</p>
    </div>
  "," ","html-keyboard-response","63","2.1.0","74687","J=YES, F=NO","2b335lgj5b","2","70","75","65","","","","","","","","","","","","","","","",""
"6735","
    <div style=""max-width: 800px; margin: auto; text-align: left;"">
      <h2>Before You Begin</h2>
      <p>Make sure your sound is turned on.</p>
      <p>You will hear audio during each trial, but your decision should be based only on the <strong>written word</strong> you see on the screen.</p>
      <p><strong>Reminder:</strong></p>
      <ul>
        <li><strong>J</strong> = YES (real English word)</li>
        <li><strong>F</strong> = NO (not a real English word)</li>
      </ul>
      <p style=""margin-top: 2em;"">Press any key when you are ready to begin.</p>
    </div>
  "," ","html-keyboard-response","64","2.1.0","81423","J=YES, F=NO","2b335lgj5b","2","70","75","65","","","","","","","","","","","","","","","",""
"2975","
    <div style=""max-width: 800px; margin: auto; text-align: left;"">
      <h2>Part 2: Practice Trials</h2>
      <p>You will now complete a few <strong>practice trials</strong> to get familiar with the task.</p>
      <p>These trials are <strong>not scored</strong> and are only to help you get used to the format.</p>
      <p style=""margin-top: 2em;"">Press any key to begin.</p>
    </div>
  "," ","html-keyboard-response","65","2.1.0","84399","J=YES, F=NO","2b335lgj5b","2","70","75","65","","","","","","","","","","","","","","","",""
"1023","<p>Starting practice block 1 of 2. Press any key to continue.</p>"," ","html-keyboard-response","66","2.1.0","85423","J=YES, F=NO","2b335lgj5b","2","70","75","65","","","","","","","","","","","","","","","",""
"null","<p style=""font-size: 50px;"">+</p>","null","html-keyboard-response","67","2.1.0","85737","J=YES, F=NO","2b335lgj5b","2","70","75","65","","","","","","","","","","","","","","","",""
"null","audio/beep-329314.mp3","null","audio-keyboard-response","68","2.1.0","87364","J=YES, F=NO","2b335lgj5b","2","70","75","65","","","","","","","","","","","","","","","",""
"null","audio/cloud1.wav","null","audio-keyboard-response","69","2.1.0","87942","J=YES, F=NO","2b335lgj5b","2","70","75","65","","","","","","","","","","","","","","","",""
"935","
          <p id=""word"" style=""font-size: 40px;"">brotant</p>
          <p style=""font-size: 16px;"">J = YES &nbsp;&nbsp;&nbsp; F = NO</p>
        ","f","html-keyboard-response","70","2.1.0","88879","J=YES, F=NO","2b335lgj5b","2","70","75","65","","","","","","","","","brotant","cloud1","pseudoword","pseudoword","f","true","",""
"null","<p style=""font-size: 50px;"">+</p>","null","html-keyboard-response","71","2.1.0","89191","J=YES, F=NO","2b335lgj5b","2","70","75","65","","","","","","","","","","","","","","","",""
"null","audio/beep-329314.mp3","null","audio-keyboard-response","72","2.1.0","90722","J=YES, F=NO","2b335lgj5b","2","70","75","65","","","","","","","","","","","","","","","",""
"null","audio/novel.wav","null","audio-keyboard-response","73","2.1.0","91242","J=YES, F=NO","2b335lgj5b","2","70","75","65","","","","","","","","","","","","","","","",""
"611","
          <p id=""word"" style=""font-size: 40px;"">type</p>
          <p style=""font-size: 16px;"">J = YES &nbsp;&nbsp;&nbsp; F = NO</p>
        ","j","html-keyboard-response","74","2.1.0","91854","J=YES, F=NO","2b335lgj5b","2","70","75","65","","","","","","","","","type","novel","filler","filler","j","true","",""
"null","<p style=""font-size: 50px;"">+</p>","null","html-keyboard-response","75","2.1.0","92171","J=YES, F=NO","2b335lgj5b","2","70","75","65","","","","","","","","","","","","","","","",""
"null","audio/beep-329314.mp3","null","audio-keyboard-response","76","2.1.0","93702","J=YES, F=NO","2b335lgj5b","2","70","75","65","","","","","","","","","","","","","","","",""
"null","audio/mouth1.wav","null","audio-keyboard-response","77","2.1.0","94302","J=YES, F=NO","2b335lgj5b","2","70","75","65","","","","","","","","","","","","","","","",""
"1304","
          <p id=""word"" style=""font-size: 40px;"">spolial</p>
          <p style=""font-size: 16px;"">J = YES &nbsp;&nbsp;&nbsp; F = NO</p>
        ","j","html-keyboard-response","78","2.1.0","95607","J=YES, F=NO","2b335lgj5b","2","70","75","65","","","","","","","","","spolial","mouth1","pseudoword","pseudoword","f","false","",""
"null","<p style=""font-size: 50px;"">+</p>","null","html-keyboard-response","79","2.1.0","95926","J=YES, F=NO","2b335lgj5b","2","70","75","65","","","","","","","","","","","","","","","",""
"null","audio/beep-329314.mp3","null","audio-keyboard-response","80","2.1.0","97462","J=YES, F=NO","2b335lgj5b","2","70","75","65","","","","","","","","","","","","","","","",""
"null","audio/pattern.wav","null","audio-keyboard-response","81","2.1.0","97982","J=YES, F=NO","2b335lgj5b","2","70","75","65","","","","","","","","","","","","","","","",""
"863","
          <p id=""word"" style=""font-size: 40px;"">tug</p>
          <p style=""font-size: 16px;"">J = YES &nbsp;&nbsp;&nbsp; F = NO</p>
        ","f","html-keyboard-response","82","2.1.0","98847","J=YES, F=NO","2b335lgj5b","2","70","75","65","","","","","","","","","tug","pattern","filler","filler","j","false","",""
"null","<p style=""font-size: 50px;"">+</p>","null","html-keyboard-response","83","2.1.0","99161","J=YES, F=NO","2b335lgj5b","2","70","75","65","","","","","","","","","","","","","","","",""
"null","audio/beep-329314.mp3","null","audio-keyboard-response","84","2.1.0","100702","J=YES, F=NO","2b335lgj5b","2","70","75","65","","","","","","","","","","","","","","","",""
"null","audio/sand.wav","null","audio-keyboard-response","85","2.1.0","101382","J=YES, F=NO","2b335lgj5b","2","70","75","65","","","","","","","","","","","","","","","",""
"759","
          <p id=""word"" style=""font-size: 40px;"">proted</p>
          <p style=""font-size: 16px;"">J = YES &nbsp;&nbsp;&nbsp; F = NO</p>
        ","j","html-keyboard-response","86","2.1.0","102143","J=YES, F=NO","2b335lgj5b","2","70","75","65","","","","","","","","","proted","sand","pseudoword","pseudoword","f","false","",""
"null","<p style=""font-size: 50px;"">+</p>","null","html-keyboard-response","87","2.1.0","102450","J=YES, F=NO","2b335lgj5b","2","70","75","65","","","","","","","","","","","","","","","",""
"null","audio/beep-329314.mp3","null","audio-keyboard-response","88","2.1.0","103982","J=YES, F=NO","2b335lgj5b","2","70","75","65","","","","","","","","","","","","","","","",""
"null","audio/bridge.wav","null","audio-keyboard-response","89","2.1.0","104562","J=YES, F=NO","2b335lgj5b","2","70","75","65","","","","","","","","","","","","","","","",""
"667","
          <p id=""word"" style=""font-size: 40px;"">crack</p>
          <p style=""font-size: 16px;"">J = YES &nbsp;&nbsp;&nbsp; F = NO</p>
        ","j","html-keyboard-response","90","2.1.0","105231","J=YES, F=NO","2b335lgj5b","2","70","75","65","","","","","","","","","crack","bridge","filler","filler","j","true","",""
"null","<p style=""font-size: 50px;"">+</p>","null","html-keyboard-response","91","2.1.0","105540","J=YES, F=NO","2b335lgj5b","2","70","75","65","","","","","","","","","","","","","","","",""
"null","audio/beep-329314.mp3","null","audio-keyboard-response","92","2.1.0","107082","J=YES, F=NO","2b335lgj5b","2","70","75","65","","","","","","","","","","","","","","","",""
"null","audio/pig.wav","null","audio-keyboard-response","93","2.1.0","107502","J=YES, F=NO","2b335lgj5b","2","70","75","65","","","","","","","","","","","","","","","",""
"899","
          <p id=""word"" style=""font-size: 40px;"">tirlike</p>
          <p style=""font-size: 16px;"">J = YES &nbsp;&nbsp;&nbsp; F = NO</p>
        ","f","html-keyboard-response","94","2.1.0","108407","J=YES, F=NO","2b335lgj5b","2","70","75","65","","","","","","","","","tirlike","pig","pseudoword","pseudoword","f","true","",""
"null","<p style=""font-size: 50px;"">+</p>","null","html-keyboard-response","95","2.1.0","108715","J=YES, F=NO","2b335lgj5b","2","70","75","65","","","","","","","","","","","","","","","",""
"null","audio/beep-329314.mp3","null","audio-keyboard-response","96","2.1.0","110242","J=YES, F=NO","2b335lgj5b","2","70","75","65","","","","","","","","","","","","","","","",""
"null","audio/baby.wav","null","audio-keyboard-response","97","2.1.0","110742","J=YES, F=NO","2b335lgj5b","2","70","75","65","","","","","","","","","","","","","","","",""
"703","
          <p id=""word"" style=""font-size: 40px;"">lift</p>
          <p style=""font-size: 16px;"">J = YES &nbsp;&nbsp;&nbsp; F = NO</p>
        ","j","html-keyboard-response","98","2.1.0","111447","J=YES, F=NO","2b335lgj5b","2","70","75","65","","","","","","","","","lift","baby","filler","filler","j","true","",""
"null","<p style=""font-size: 50px;"">+</p>","null","html-keyboard-response","99","2.1.0","111761","J=YES, F=NO","2b335lgj5b","2","70","75","65","","","","","","","","","","","","","","","",""
"null","audio/beep-329314.mp3","null","audio-keyboard-response","100","2.1.0","113302","J=YES, F=NO","2b335lgj5b","2","70","75","65","","","","","","","","","","","","","","","",""
"null","audio/camera1.wav","null","audio-keyboard-response","101","2.1.0","113822","J=YES, F=NO","2b335lgj5b","2","70","75","65","","","","","","","","","","","","","","","",""
"703","
          <p id=""word"" style=""font-size: 40px;"">stir</p>
          <p style=""font-size: 16px;"">J = YES &nbsp;&nbsp;&nbsp; F = NO</p>
        ","f","html-keyboard-response","102","2.1.0","114527","J=YES, F=NO","2b335lgj5b","2","70","75","65","","","","","","","","","stir","camera1","filler","filler","j","false","",""
"null","<p style=""font-size: 50px;"">+</p>","null","html-keyboard-response","103","2.1.0","114841","J=YES, F=NO","2b335lgj5b","2","70","75","65","","","","","","","","","","","","","","","",""
"null","audio/beep-329314.mp3","null","audio-keyboard-response","104","2.1.0","116382","J=YES, F=NO","2b335lgj5b","2","70","75","65","","","","","","","","","","","","","","","",""
"null","audio/breath.wav","null","audio-keyboard-response","105","2.1.0","116962","J=YES, F=NO","2b335lgj5b","2","70","75","65","","","","","","","","","","","","","","","",""
"676","
          <p id=""word"" style=""font-size: 40px;"">pack</p>
          <p style=""font-size: 16px;"">J = YES &nbsp;&nbsp;&nbsp; F = NO</p>
        ","j","html-keyboard-response","106","2.1.0","117639","J=YES, F=NO","2b335lgj5b","2","70","75","65","","","","","","","","","pack","breath","filler","filler","j","true","",""
"null","<p style=""font-size: 50px;"">+</p>","null","html-keyboard-response","107","2.1.0","117940","J=YES, F=NO","2b335lgj5b","2","70","75","65","","","","","","","","","","","","","","","",""
"null","audio/beep-329314.mp3","null","audio-keyboard-response","108","2.1.0","119482","J=YES, F=NO","2b335lgj5b","2","70","75","65","","","","","","","","","","","","","","","",""
"null","audio/client1.wav","null","audio-keyboard-response","109","2.1.0","120202","J=YES, F=NO","2b335lgj5b","2","70","75","65","","","","","","","","","","","","","","","",""
"699","
          <p id=""word"" style=""font-size: 40px;"">droothe</p>
          <p style=""font-size: 16px;"">J = YES &nbsp;&nbsp;&nbsp; F = NO</p>
        ","f","html-keyboard-response","110","2.1.0","120903","J=YES, F=NO","2b335lgj5b","2","70","75","65","","","","","","","","","droothe","client1","pseudoword","pseudoword","f","true","",""
"null","<p style=""font-size: 50px;"">+</p>","null","html-keyboard-response","111","2.1.0","121211","J=YES, F=NO","2b335lgj5b","2","70","75","65","","","","","","","","","","","","","","","",""
"null","audio/beep-329314.mp3","null","audio-keyboard-response","112","2.1.0","122742","J=YES, F=NO","2b335lgj5b","2","70","75","65","","","","","","","","","","","","","","","",""
"null","audio/birth1.wav","null","audio-keyboard-response","113","2.1.0","123302","J=YES, F=NO","2b335lgj5b","2","70","75","65","","","","","","","","","","","","","","","",""
"752","
          <p id=""word"" style=""font-size: 40px;"">peel</p>
          <p style=""font-size: 16px;"">J = YES &nbsp;&nbsp;&nbsp; F = NO</p>
        ","j","html-keyboard-response","114","2.1.0","124055","J=YES, F=NO","2b335lgj5b","2","70","75","65","","","","","","","","","peel","birth1","filler","filler","j","true","",""
"1246","<p>Starting practice block 2 of 2. Press any key to continue.</p>"," ","html-keyboard-response","115","2.1.0","125303","J=YES, F=NO","2b335lgj5b","2","70","75","65","","","","","","","","","","","","","","","",""
"null","<p style=""font-size: 50px;"">+</p>","null","html-keyboard-response","116","2.1.0","125615","J=YES, F=NO","2b335lgj5b","2","70","75","65","","","","","","","","","","","","","","","",""
"null","audio/beep-329314.mp3","null","audio-keyboard-response","117","2.1.0","127142","J=YES, F=NO","2b335lgj5b","2","70","75","65","","","","","","","","","","","","","","","",""
"null","audio/life1.wav","null","audio-keyboard-response","118","2.1.0","127742","J=YES, F=NO","2b335lgj5b","2","70","75","65","","","","","","","","","","","","","","","",""
"927","
          <p id=""word"" style=""font-size: 40px;"">flimch</p>
          <p style=""font-size: 16px;"">J = YES &nbsp;&nbsp;&nbsp; F = NO</p>
        ","f","html-keyboard-response","119","2.1.0","128671","J=YES, F=NO","2b335lgj5b","2","70","75","65","","","","","","","","","flimch","life1","pseudoword","pseudoword","f","true","",""
"null","<p style=""font-size: 50px;"">+</p>","null","html-keyboard-response","120","2.1.0","128982","J=YES, F=NO","2b335lgj5b","2","70","75","65","","","","","","","","","","","","","","","",""
"null","audio/beep-329314.mp3","null","audio-keyboard-response","121","2.1.0","130522","J=YES, F=NO","2b335lgj5b","2","70","75","65","","","","","","","","","","","","","","","",""
"null","audio/account1.wav","null","audio-keyboard-response","122","2.1.0","131282","J=YES, F=NO","2b335lgj5b","2","70","75","65","","","","","","","","","","","","","","","",""
"707","
          <p id=""word"" style=""font-size: 40px;"">paint</p>
          <p style=""font-size: 16px;"">J = YES &nbsp;&nbsp;&nbsp; F = NO</p>
        ","j","html-keyboard-response","123","2.1.0","131991","J=YES, F=NO","2b335lgj5b","2","70","75","65","","","","","","","","","paint","account1","filler","filler","j","true","",""
"null","<p style=""font-size: 50px;"">+</p>","null","html-keyboard-response","124","2.1.0","132305","J=YES, F=NO","2b335lgj5b","2","70","75","65","","","","","","","","","","","","","","","",""
"null","audio/beep-329314.mp3","null","audio-keyboard-response","125","2.1.0","133842","J=YES, F=NO","2b335lgj5b","2","70","75","65","","","","","","","","","","","","","","","",""
"null","audio/bottle.wav","null","audio-keyboard-response","126","2.1.0","134342","J=YES, F=NO","2b335lgj5b","2","70","75","65","","","","","","","","","","","","","","","",""
"687","
          <p id=""word"" style=""font-size: 40px;"">watch</p>
          <p style=""font-size: 16px;"">J = YES &nbsp;&nbsp;&nbsp; F = NO</p>
        ","j","html-keyboard-response","127","2.1.0","135031","J=YES, F=NO","2b335lgj5b","2","70","75","65","","","","","","","","","watch","bottle","filler","filler","j","true","",""
"null","<p style=""font-size: 50px;"">+</p>","null","html-keyboard-response","128","2.1.0","135336","J=YES, F=NO","2b335lgj5b","2","70","75","65","","","","","","","","","","","","","","","",""
"null","audio/beep-329314.mp3","null","audio-keyboard-response","129","2.1.0","136862","J=YES, F=NO","2b335lgj5b","2","70","75","65","","","","","","","","","","","","","","","",""
"null","audio/theory1.wav","null","audio-keyboard-response","130","2.1.0","137522","J=YES, F=NO","2b335lgj5b","2","70","75","65","","","","","","","","","","","","","","","",""
"748","
          <p id=""word"" style=""font-size: 40px;"">scolve</p>
          <p style=""font-size: 16px;"">J = YES &nbsp;&nbsp;&nbsp; F = NO</p>
        ","f","html-keyboard-response","131","2.1.0","138272","J=YES, F=NO","2b335lgj5b","2","70","75","65","","","","","","","","","scolve","theory1","pseudoword","pseudoword","f","true","",""
"null","<p style=""font-size: 50px;"">+</p>","null","html-keyboard-response","132","2.1.0","138591","J=YES, F=NO","2b335lgj5b","2","70","75","65","","","","","","","","","","","","","","","",""
"null","audio/beep-329314.mp3","null","audio-keyboard-response","133","2.1.0","140122","J=YES, F=NO","2b335lgj5b","2","70","75","65","","","","","","","","","","","","","","","",""
"null","audio/holiday1.wav","null","audio-keyboard-response","134","2.1.0","140762","J=YES, F=NO","2b335lgj5b","2","70","75","65","","","","","","","","","","","","","","","",""
"619","
          <p id=""word"" style=""font-size: 40px;"">drivets</p>
          <p style=""font-size: 16px;"">J = YES &nbsp;&nbsp;&nbsp; F = NO</p>
        ","f","html-keyboard-response","135","2.1.0","141383","J=YES, F=NO","2b335lgj5b","2","70","75","65","","","","","","","","","drivets","holiday1","pseudoword","pseudoword","f","true","",""
"null","<p style=""font-size: 50px;"">+</p>","null","html-keyboard-response","136","2.1.0","141691","J=YES, F=NO","2b335lgj5b","2","70","75","65","","","","","","","","","","","","","","","",""
"null","audio/beep-329314.mp3","null","audio-keyboard-response","137","2.1.0","143222","J=YES, F=NO","2b335lgj5b","2","70","75","65","","","","","","","","","","","","","","","",""
"null","audio/floor.wav","null","audio-keyboard-response","138","2.1.0","143782","J=YES, F=NO","2b335lgj5b","2","70","75","65","","","","","","","","","","","","","","","",""
"719","
          <p id=""word"" style=""font-size: 40px;"">mop</p>
          <p style=""font-size: 16px;"">J = YES &nbsp;&nbsp;&nbsp; F = NO</p>
        ","j","html-keyboard-response","139","2.1.0","144503","J=YES, F=NO","2b335lgj5b","2","70","75","65","","","","","","","","","mop","floor","filler","filler","j","true","",""
"null","<p style=""font-size: 50px;"">+</p>","null","html-keyboard-response","140","2.1.0","144812","J=YES, F=NO","2b335lgj5b","2","70","75","65","","","","","","","","","","","","","","","",""
"null","audio/beep-329314.mp3","null","audio-keyboard-response","141","2.1.0","146342","J=YES, F=NO","2b335lgj5b","2","70","75","65","","","","","","","","","","","","","","","",""
"null","audio/brain.wav","null","audio-keyboard-response","142","2.1.0","146862","J=YES, F=NO","2b335lgj5b","2","70","75","65","","","","","","","","","","","","","","","",""
"615","
          <p id=""word"" style=""font-size: 40px;"">throw</p>
          <p style=""font-size: 16px;"">J = YES &nbsp;&nbsp;&nbsp; F = NO</p>
        ","j","html-keyboard-response","143","2.1.0","147479","J=YES, F=NO","2b335lgj5b","2","70","75","65","","","","","","","","","throw","brain","filler","filler","j","true","",""
"null","<p style=""font-size: 50px;"">+</p>","null","html-keyboard-response","144","2.1.0","147785","J=YES, F=NO","2b335lgj5b","2","70","75","65","","","","","","","","","","","","","","","",""
"null","audio/beep-329314.mp3","null","audio-keyboard-response","145","2.1.0","149322","J=YES, F=NO","2b335lgj5b","2","70","75","65","","","","","","","","","","","","","","","",""
"null","audio/relief.wav","null","audio-keyboard-response","146","2.1.0","150142","J=YES, F=NO","2b335lgj5b","2","70","75","65","","","","","","","","","","","","","","","",""
"1151","
          <p id=""word"" style=""font-size: 40px;"">grigg</p>
          <p style=""font-size: 16px;"">J = YES &nbsp;&nbsp;&nbsp; F = NO</p>
        ","f","html-keyboard-response","147","2.1.0","151295","J=YES, F=NO","2b335lgj5b","2","70","75","65","","","","","","","","","grigg","relief","pseudoword","pseudoword","f","true","",""
"null","<p style=""font-size: 50px;"">+</p>","null","html-keyboard-response","148","2.1.0","151601","J=YES, F=NO","2b335lgj5b","2","70","75","65","","","","","","","","","","","","","","","",""
"null","audio/beep-329314.mp3","null","audio-keyboard-response","149","2.1.0","153142","J=YES, F=NO","2b335lgj5b","2","70","75","65","","","","","","","","","","","","","","","",""
"null","audio/tax1.wav","null","audio-keyboard-response","150","2.1.0","153762","J=YES, F=NO","2b335lgj5b","2","70","75","65","","","","","","","","","","","","","","","",""
"444","
          <p id=""word"" style=""font-size: 40px;"">snate</p>
          <p style=""font-size: 16px;"">J = YES &nbsp;&nbsp;&nbsp; F = NO</p>
        ","j","html-keyboard-response","151","2.1.0","154207","J=YES, F=NO","2b335lgj5b","2","70","75","65","","","","","","","","","snate","tax1","pseudoword","pseudoword","f","false","",""
"null","<p style=""font-size: 50px;"">+</p>","null","html-keyboard-response","152","2.1.0","154521","J=YES, F=NO","2b335lgj5b","2","70","75","65","","","","","","","","","","","","","","","",""
"null","audio/beep-329314.mp3","null","audio-keyboard-response","153","2.1.0","156062","J=YES, F=NO","2b335lgj5b","2","70","75","65","","","","","","","","","","","","","","","",""
"null","audio/ankle1.wav","null","audio-keyboard-response","154","2.1.0","156602","J=YES, F=NO","2b335lgj5b","2","70","75","65","","","","","","","","","","","","","","","",""
"435","
          <p id=""word"" style=""font-size: 40px;"">switm</p>
          <p style=""font-size: 16px;"">J = YES &nbsp;&nbsp;&nbsp; F = NO</p>
        ","f","html-keyboard-response","155","2.1.0","157039","J=YES, F=NO","2b335lgj5b","2","70","75","65","","","","","","","","","switm","ankle1","pseudoword","pseudoword","f","true","",""
"null","<p style=""font-size: 50px;"">+</p>","null","html-keyboard-response","156","2.1.0","157350","J=YES, F=NO","2b335lgj5b","2","70","75","65","","","","","","","","","","","","","","","",""
"null","audio/beep-329314.mp3","null","audio-keyboard-response","157","2.1.0","158882","J=YES, F=NO","2b335lgj5b","2","70","75","65","","","","","","","","","","","","","","","",""
"null","audio/haste1.wav","null","audio-keyboard-response","158","2.1.0","159482","J=YES, F=NO","2b335lgj5b","2","70","75","65","","","","","","","","","","","","","","","",""
"883","
          <p id=""word"" style=""font-size: 40px;"">coraconate</p>
          <p style=""font-size: 16px;"">J = YES &nbsp;&nbsp;&nbsp; F = NO</p>
        ","f","html-keyboard-response","159","2.1.0","160367","J=YES, F=NO","2b335lgj5b","2","70","75","65","","","","","","","","","coraconate","haste1","pseudoword","pseudoword","f","true","",""
"null","<p style=""font-size: 50px;"">+</p>","null","html-keyboard-response","160","2.1.0","160670","J=YES, F=NO","2b335lgj5b","2","70","75","65","","","","","","","","","","","","","","","",""
"null","audio/beep-329314.mp3","null","audio-keyboard-response","161","2.1.0","162202","J=YES, F=NO","2b335lgj5b","2","70","75","65","","","","","","","","","","","","","","","",""
"null","audio/menu.wav","null","audio-keyboard-response","162","2.1.0","162802","J=YES, F=NO","2b335lgj5b","2","70","75","65","","","","","","","","","","","","","","","",""
"699","
          <p id=""word"" style=""font-size: 40px;"">slice</p>
          <p style=""font-size: 16px;"">J = YES &nbsp;&nbsp;&nbsp; F = NO</p>
        ","j","html-keyboard-response","163","2.1.0","163503","J=YES, F=NO","2b335lgj5b","2","70","75","65","","","","","","","","","slice","menu","filler","filler","j","true","",""
"30879","
    <div style=""max-width: 800px; margin: auto; text-align: left;"">
      <h2>Part 2: Main Trials</h2>
      <p>Great job on the practice trials!</p>
      <p>You will now begin the <strong>main set of trials</strong>.</p>
      <p>Remember your key assignments:</p>
      <ul>
        <li><strong>J</strong> = YES (real English word)</li>
        <li><strong>F</strong> = NO (not a real English word)</li>
      </ul>
      <p>Try to respond as <strong>quickly and accurately</strong> as possible.</p>
      <p style=""margin-top: 2em;"">Press any key to begin the main trials.</p>
    </div>
  ","Meta","html-keyboard-response","164","2.1.0","194383","J=YES, F=NO","2b335lgj5b","2","70","75","65","","","","","","","","","","","","","","","",""
"3198","<p>Starting main block 1 of 8. Press any key to continue.</p>","Escape","html-keyboard-response","165","2.1.0","197583","J=YES, F=NO","2b335lgj5b","2","70","75","65","","","","","","","","","","","","","","","",""
"null","<p style=""font-size: 50px;"">+</p>","null","html-keyboard-response","166","2.1.0","197887","J=YES, F=NO","2b335lgj5b","2","70","75","65","","","","","","","","","","","","","","","",""
"null","audio/beep-329314.mp3","null","audio-keyboard-response","167","2.1.0","199474","J=YES, F=NO","2b335lgj5b","2","70","75","65","","","","","","","","","","","","","","","",""
"null","audio/uncle1.wav","null","audio-keyboard-response","168","2.1.0","199984","J=YES, F=NO","2b335lgj5b","2","70","75","65","","","","","","","","","","","","","","","",""
"813","
          <p id=""word"" style=""font-size: 40px;"">dramble</p>
          <p style=""font-size: 16px;"">J = YES &nbsp;&nbsp;&nbsp; F = NO</p>
        ","j","html-keyboard-response","169","2.1.0","200799","J=YES, F=NO","2b335lgj5b","2","70","75","65","","","","","","","","","dramble","uncle1","pseudoword","pseudoword","f","false","",""
"null","<p style=""font-size: 50px;"">+</p>","null","html-keyboard-response","170","2.1.0","201116","J=YES, F=NO","2b335lgj5b","2","70","75","65","","","","","","","","","","","","","","","",""
"null","audio/beep-329314.mp3","null","audio-keyboard-response","171","2.1.0","202654","J=YES, F=NO","2b335lgj5b","2","70","75","65","","","","","","","","","","","","","","","",""
"null","audio/show.wav","null","audio-keyboard-response","172","2.1.0","203224","J=YES, F=NO","2b335lgj5b","2","70","75","65","","","","","","","","","","","","","","","",""
"461","
          <p id=""word"" style=""font-size: 40px;"">smark</p>
          <p style=""font-size: 16px;"">J = YES &nbsp;&nbsp;&nbsp; F = NO</p>
        ","f","html-keyboard-response","173","2.1.0","203687","J=YES, F=NO","2b335lgj5b","2","70","75","65","","","","","","","","","smark","show","pseudoword","pseudoword","f","true","",""
"null","<p style=""font-size: 50px;"">+</p>","null","html-keyboard-response","174","2.1.0","203993","J=YES, F=NO","2b335lgj5b","2","70","75","65","","","","","","","","","","","","","","","",""
"null","audio/beep-329314.mp3","null","audio-keyboard-response","175","2.1.0","205534","J=YES, F=NO","2b335lgj5b","2","70","75","65","","","","","","","","","","","","","","","",""
"null","audio/bush1.wav","null","audio-keyboard-response","176","2.1.0","206024","J=YES, F=NO","2b335lgj5b","2","70","75","65","","","","","","","","","","","","","","","",""
"837","
          <p id=""word"" style=""font-size: 40px;"">platined</p>
          <p style=""font-size: 16px;"">J = YES &nbsp;&nbsp;&nbsp; F = NO</p>
        ","j","html-keyboard-response","177","2.1.0","206863","J=YES, F=NO","2b335lgj5b","2","70","75","65","","","","","","","","","platined","bush1","pseudoword","pseudoword","f","false","",""
"null","<p style=""font-size: 50px;"">+</p>","null","html-keyboard-response","178","2.1.0","207168","J=YES, F=NO","2b335lgj5b","2","70","75","65","","","","","","","","","","","","","","","",""
"null","audio/beep-329314.mp3","null","audio-keyboard-response","179","2.1.0","208694","J=YES, F=NO","2b335lgj5b","2","70","75","65","","","","","","","","","","","","","","","",""
"null","audio/foe1.wav","null","audio-keyboard-response","180","2.1.0","209384","J=YES, F=NO","2b335lgj5b","2","70","75","65","","","","","","","","","","","","","","","",""
"430","
          <p id=""word"" style=""font-size: 40px;"">creth</p>
          <p style=""font-size: 16px;"">J = YES &nbsp;&nbsp;&nbsp; F = NO</p>
        ","f","html-keyboard-response","181","2.1.0","209815","J=YES, F=NO","2b335lgj5b","2","70","75","65","","","","","","","","","creth","foe1","pseudoword","pseudoword","f","true","",""
"null","<p style=""font-size: 50px;"">+</p>","null","html-keyboard-response","182","2.1.0","210122","J=YES, F=NO","2b335lgj5b","2","70","75","65","","","","","","","","","","","","","","","",""
"null","audio/beep-329314.mp3","null","audio-keyboard-response","183","2.1.0","211654","J=YES, F=NO","2b335lgj5b","2","70","75","65","","","","","","","","","","","","","","","",""
"null","audio/theory1.wav","null","audio-keyboard-response","184","2.1.0","212285","J=YES, F=NO","2b335lgj5b","2","70","75","65","","","","","","","","","","","","","","","",""
"584","
          <p id=""word"" style=""font-size: 40px;"">construct</p>
          <p style=""font-size: 16px;"">J = YES &nbsp;&nbsp;&nbsp; F = NO</p>
        ","j","html-keyboard-response","185","2.1.0","212871","J=YES, F=NO","2b335lgj5b","2","70","75","65","","","","","","","","","construct","theory1","metaphor","experimental","j","true","",""
"null","<p style=""font-size: 50px;"">+</p>","null","html-keyboard-response","186","2.1.0","213186","J=YES, F=NO","2b335lgj5b","2","70","75","65","","","","","","","","","","","","","","","",""
"null","audio/beep-329314.mp3","null","audio-keyboard-response","187","2.1.0","214714","J=YES, F=NO","2b335lgj5b","2","70","75","65","","","","","","","","","","","","","","","",""
"null","audio/test1.wav","null","audio-keyboard-response","188","2.1.0","215284","J=YES, F=NO","2b335lgj5b","2","70","75","65","","","","","","","","","","","","","","","",""
"738","
          <p id=""word"" style=""font-size: 40px;"">twopch</p>
          <p style=""font-size: 16px;"">J = YES &nbsp;&nbsp;&nbsp; F = NO</p>
        ","f","html-keyboard-response","189","2.1.0","216022","J=YES, F=NO","2b335lgj5b","2","70","75","65","","","","","","","","","twopch","test1","pseudoword","pseudoword","f","true","",""
"null","<p style=""font-size: 50px;"">+</p>","null","html-keyboard-response","190","2.1.0","216332","J=YES, F=NO","2b335lgj5b","2","70","75","65","","","","","","","","","","","","","","","",""
"null","audio/beep-329314.mp3","null","audio-keyboard-response","191","2.1.0","217874","J=YES, F=NO","2b335lgj5b","2","70","75","65","","","","","","","","","","","","","","","",""
"null","audio/trust.wav","null","audio-keyboard-response","192","2.1.0","218524","J=YES, F=NO","2b335lgj5b","2","70","75","65","","","","","","","","","","","","","","","",""
"554","
          <p id=""word"" style=""font-size: 40px;"">swint</p>
          <p style=""font-size: 16px;"">J = YES &nbsp;&nbsp;&nbsp; F = NO</p>
        ","j","html-keyboard-response","193","2.1.0","219080","J=YES, F=NO","2b335lgj5b","2","70","75","65","","","","","","","","","swint","trust","pseudoword","pseudoword","f","false","",""
"null","<p style=""font-size: 50px;"">+</p>","null","html-keyboard-response","194","2.1.0","219382","J=YES, F=NO","2b335lgj5b","2","70","75","65","","","","","","","","","","","","","","","",""
"null","audio/beep-329314.mp3","null","audio-keyboard-response","195","2.1.0","220914","J=YES, F=NO","2b335lgj5b","2","70","75","65","","","","","","","","","","","","","","","",""
"null","audio/alarm1.wav","null","audio-keyboard-response","196","2.1.0","221684","J=YES, F=NO","2b335lgj5b","2","70","75","65","","","","","","","","","","","","","","","",""
"610","
          <p id=""word"" style=""font-size: 40px;"">save</p>
          <p style=""font-size: 16px;"">J = YES &nbsp;&nbsp;&nbsp; F = NO</p>
        ","j","html-keyboard-response","197","2.1.0","222295","J=YES, F=NO","2b335lgj5b","2","70","75","65","","","","","","","","","save","alarm1","unrelated","experimental","j","true","",""
"null","<p style=""font-size: 50px;"">+</p>","null","html-keyboard-response","198","2.1.0","222613","J=YES, F=NO","2b335lgj5b","2","70","75","65","","","","","","","","","","","","","","","",""
"null","audio/beep-329314.mp3","null","audio-keyboard-response","199","2.1.0","224154","J=YES, F=NO","2b335lgj5b","2","70","75","65","","","","","","","","","","","","","","","",""
"null","audio/smirk1.wav","null","audio-keyboard-response","200","2.1.0","225064","J=YES, F=NO","2b335lgj5b","2","70","75","65","","","","","","","","","","","","","","","",""
"null","
          <p id=""word"" style=""font-size: 40px;"">snopt</p>
          <p style=""font-size: 16px;"">J = YES &nbsp;&nbsp;&nbsp; F = NO</p>
        ","null","html-keyboard-response","201","2.1.0","226570","J=YES, F=NO","2b335lgj5b","2","70","75","65","","","","","","","","","snopt","smirk1","pseudoword","pseudoword","f","false","",""
"null","<p style=""font-size: 50px;"">+</p>","null","html-keyboard-response","202","2.1.0","226886","J=YES, F=NO","2b335lgj5b","2","70","75","65","","","","","","","","","","","","","","","",""
"null","audio/beep-329314.mp3","null","audio-keyboard-response","203","2.1.0","228414","J=YES, F=NO","2b335lgj5b","2","70","75","65","","","","","","","","","","","","","","","",""
"null","audio/soul.wav","null","audio-keyboard-response","204","2.1.0","229004","J=YES, F=NO","2b335lgj5b","2","70","75","65","","","","","","","","","","","","","","","",""
"690","
          <p id=""word"" style=""font-size: 40px;"">sell</p>
          <p style=""font-size: 16px;"">J = YES &nbsp;&nbsp;&nbsp; F = NO</p>
        ","j","html-keyboard-response","205","2.1.0","229695","J=YES, F=NO","2b335lgj5b","2","70","75","65","","","","","","","","","sell","soul","metaphor","experimental","j","true","",""
"null","<p style=""font-size: 50px;"">+</p>","null","html-keyboard-response","206","2.1.0","230012","J=YES, F=NO","2b335lgj5b","2","70","75","65","","","","","","","","","","","","","","","",""
"null","audio/beep-329314.mp3","null","audio-keyboard-response","207","2.1.0","231554","J=YES, F=NO","2b335lgj5b","2","70","75","65","","","","","","","","","","","","","","","",""
"null","audio/mile1.wav","null","audio-keyboard-response","208","2.1.0","232064","J=YES, F=NO","2b335lgj5b","2","70","75","65","","","","","","","","","","","","","","","",""
"550","
          <p id=""word"" style=""font-size: 40px;"">writch</p>
          <p style=""font-size: 16px;"">J = YES &nbsp;&nbsp;&nbsp; F = NO</p>
        ","j","html-keyboard-response","209","2.1.0","232615","J=YES, F=NO","2b335lgj5b","2","70","75","65","","","","","","","","","writch","mile1","pseudoword","pseudoword","f","false","",""
"null","<p style=""font-size: 50px;"">+</p>","null","html-keyboard-response","210","2.1.0","232932","J=YES, F=NO","2b335lgj5b","2","70","75","65","","","","","","","","","","","","","","","",""
"null","audio/beep-329314.mp3","null","audio-keyboard-response","211","2.1.0","234474","J=YES, F=NO","2b335lgj5b","2","70","75","65","","","","","","","","","","","","","","","",""
"null","audio/golf1.wav","null","audio-keyboard-response","212","2.1.0","235044","J=YES, F=NO","2b335lgj5b","2","70","75","65","","","","","","","","","","","","","","","",""
"null","
          <p id=""word"" style=""font-size: 40px;"">drabble</p>
          <p style=""font-size: 16px;"">J = YES &nbsp;&nbsp;&nbsp; F = NO</p>
        ","null","html-keyboard-response","213","2.1.0","236557","J=YES, F=NO","2b335lgj5b","2","70","75","65","","","","","","","","","drabble","golf1","pseudoword","pseudoword","f","false","",""
"null","<p style=""font-size: 50px;"">+</p>","null","html-keyboard-response","214","2.1.0","236861","J=YES, F=NO","2b335lgj5b","2","70","75","65","","","","","","","","","","","","","","","",""
"null","audio/beep-329314.mp3","null","audio-keyboard-response","215","2.1.0","238394","J=YES, F=NO","2b335lgj5b","2","70","75","65","","","","","","","","","","","","","","","",""
"null","audio/news.wav","null","audio-keyboard-response","216","2.1.0","239044","J=YES, F=NO","2b335lgj5b","2","70","75","65","","","","","","","","","","","","","","","",""
"null","
          <p id=""word"" style=""font-size: 40px;"">digest</p>
          <p style=""font-size: 16px;"">J = YES &nbsp;&nbsp;&nbsp; F = NO</p>
        ","null","html-keyboard-response","217","2.1.0","240555","J=YES, F=NO","2b335lgj5b","2","70","75","65","","","","","","","","","digest","news","metaphor","experimental","j","false","",""
"null","<p style=""font-size: 50px;"">+</p>","null","html-keyboard-response","218","2.1.0","240862","J=YES, F=NO","2b335lgj5b","2","70","75","65","","","","","","","","","","","","","","","",""
"null","audio/beep-329314.mp3","null","audio-keyboard-response","219","2.1.0","242394","J=YES, F=NO","2b335lgj5b","2","70","75","65","","","","","","","","","","","","","","","",""
"null","audio/winter.wav","null","audio-keyboard-response","220","2.1.0","243164","J=YES, F=NO","2b335lgj5b","2","70","75","65","","","","","","","","","","","","","","","",""
"665","
          <p id=""word"" style=""font-size: 40px;"">straven</p>
          <p style=""font-size: 16px;"">J = YES &nbsp;&nbsp;&nbsp; F = NO</p>
        ","j","html-keyboard-response","221","2.1.0","243831","J=YES, F=NO","2b335lgj5b","2","70","75","65","","","","","","","","","straven","winter","pseudoword","pseudoword","f","false","",""
"null","<p style=""font-size: 50px;"">+</p>","null","html-keyboard-response","222","2.1.0","244132","J=YES, F=NO","2b335lgj5b","2","70","75","65","","","","","","","","","","","","","","","",""
"null","audio/beep-329314.mp3","null","audio-keyboard-response","223","2.1.0","245674","J=YES, F=NO","2b335lgj5b","2","70","75","65","","","","","","","","","","","","","","","",""
"null","audio/hawk1.wav","null","audio-keyboard-response","224","2.1.0","246424","J=YES, F=NO","2b335lgj5b","2","70","75","65","","","","","","","","","","","","","","","",""
"542","
          <p id=""word"" style=""font-size: 40px;"">wipe</p>
          <p style=""font-size: 16px;"">J = YES &nbsp;&nbsp;&nbsp; F = NO</p>
        ","j","html-keyboard-response","225","2.1.0","246967","J=YES, F=NO","2b335lgj5b","2","70","75","65","","","","","","","","","wipe","hawk1","unrelated","experimental","j","true","",""
"null","<p style=""font-size: 50px;"">+</p>","null","html-keyboard-response","226","2.1.0","247272","J=YES, F=NO","2b335lgj5b","2","70","75","65","","","","","","","","","","","","","","","",""
"null","audio/beep-329314.mp3","null","audio-keyboard-response","227","2.1.0","248814","J=YES, F=NO","2b335lgj5b","2","70","75","65","","","","","","","","","","","","","","","",""
"null","audio/noise1.wav","null","audio-keyboard-response","228","2.1.0","249584","J=YES, F=NO","2b335lgj5b","2","70","75","65","","","","","","","","","","","","","","","",""
"null","
          <p id=""word"" style=""font-size: 40px;"">slintered</p>
          <p style=""font-size: 16px;"">J = YES &nbsp;&nbsp;&nbsp; F = NO</p>
        ","null","html-keyboard-response","229","2.1.0","251091","J=YES, F=NO","2b335lgj5b","2","70","75","65","","","","","","","","","slintered","noise1","pseudoword","pseudoword","f","false","",""
"247147","<p>Excellent! You have finished block 1 of 8.</p>
                     <p>Feel free to take a 30 second break.</p>
                     <p>Press any key when you're ready to continue.</p>"," ","html-keyboard-response","230","2.1.0","498239","J=YES, F=NO","2b335lgj5b","2","70","75","65","","","","","","","","","","","","","","","",""
"1510","<p>Starting main block 2 of 8. Press any key to continue.</p>"," ","html-keyboard-response","231","2.1.0","499751","J=YES, F=NO","2b335lgj5b","2","70","75","65","","","","","","","","","","","","","","","",""
"null","<p style=""font-size: 50px;"">+</p>","null","html-keyboard-response","232","2.1.0","500060","J=YES, F=NO","2b335lgj5b","2","70","75","65","","","","","","","","","","","","","","","",""
"null","audio/beep-329314.mp3","null","audio-keyboard-response","233","2.1.0","501662","J=YES, F=NO","2b335lgj5b","2","70","75","65","","","","","","","","","","","","","","","",""
"null","audio/fence.wav","null","audio-keyboard-response","234","2.1.0","502502","J=YES, F=NO","2b335lgj5b","2","70","75","65","","","","","","","","","","","","","","","",""
"823","
          <p id=""word"" style=""font-size: 40px;"">trim</p>
          <p style=""font-size: 16px;"">J = YES &nbsp;&nbsp;&nbsp; F = NO</p>
        ","j","html-keyboard-response","235","2.1.0","503327","J=YES, F=NO","2b335lgj5b","2","70","75","65","","","","","","","","","trim","fence","filler","filler","j","true","",""
"null","<p style=""font-size: 50px;"">+</p>","null","html-keyboard-response","236","2.1.0","503632","J=YES, F=NO","2b335lgj5b","2","70","75","65","","","","","","","","","","","","","","","",""
"null","audio/beep-329314.mp3","null","audio-keyboard-response","237","2.1.0","505162","J=YES, F=NO","2b335lgj5b","2","70","75","65","","","","","","","","","","","","","","","",""
"null","audio/chance.wav","null","audio-keyboard-response","238","2.1.0","505842","J=YES, F=NO","2b335lgj5b","2","70","75","65","","","","","","","","","","","","","","","",""
"667","
          <p id=""word"" style=""font-size: 40px;"">seize</p>
          <p style=""font-size: 16px;"">J = YES &nbsp;&nbsp;&nbsp; F = NO</p>
        ","f","html-keyboard-response","239","2.1.0","506511","J=YES, F=NO","2b335lgj5b","2","70","75","65","","","","","","","","","seize","chance","metaphor","experimental","j","false","",""
"null","<p style=""font-size: 50px;"">+</p>","null","html-keyboard-response","240","2.1.0","506822","J=YES, F=NO","2b335lgj5b","2","70","75","65","","","","","","","","","","","","","","","",""
"null","audio/beep-329314.mp3","null","audio-keyboard-response","241","2.1.0","508362","J=YES, F=NO","2b335lgj5b","2","70","75","65","","","","","","","","","","","","","","","",""
"null","audio/terrain.wav","null","audio-keyboard-response","242","2.1.0","509142","J=YES, F=NO","2b335lgj5b","2","70","75","65","","","","","","","","","","","","","","","",""
"448","
          <p id=""word"" style=""font-size: 40px;"">twist</p>
          <p style=""font-size: 16px;"">J = YES &nbsp;&nbsp;&nbsp; F = NO</p>
        ","j","html-keyboard-response","243","2.1.0","509591","J=YES, F=NO","2b335lgj5b","2","70","75","65","","","","","","","","","twist","terrain","filler","filler","j","true","",""
"null","<p style=""font-size: 50px;"">+</p>","null","html-keyboard-response","244","2.1.0","509911","J=YES, F=NO","2b335lgj5b","2","70","75","65","","","","","","","","","","","","","","","",""
"null","audio/beep-329314.mp3","null","audio-keyboard-response","245","2.1.0","511442","J=YES, F=NO","2b335lgj5b","2","70","75","65","","","","","","","","","","","","","","","",""
"null","audio/cash1.wav","null","audio-keyboard-response","246","2.1.0","512222","J=YES, F=NO","2b335lgj5b","2","70","75","65","","","","","","","","","","","","","","","",""
"551","
          <p id=""word"" style=""font-size: 40px;"">invest</p>
          <p style=""font-size: 16px;"">J = YES &nbsp;&nbsp;&nbsp; F = NO</p>
        ","j","html-keyboard-response","247","2.1.0","512775","J=YES, F=NO","2b335lgj5b","2","70","75","65","","","","","","","","","invest","cash1","literal","experimental","j","true","",""
"null","<p style=""font-size: 50px;"">+</p>","null","html-keyboard-response","248","2.1.0","513082","J=YES, F=NO","2b335lgj5b","2","70","75","65","","","","","","","","","","","","","","","",""
"null","audio/beep-329314.mp3","null","audio-keyboard-response","249","2.1.0","514622","J=YES, F=NO","2b335lgj5b","2","70","75","65","","","","","","","","","","","","","","","",""
"null","audio/empire.wav","null","audio-keyboard-response","250","2.1.0","515442","J=YES, F=NO","2b335lgj5b","2","70","75","65","","","","","","","","","","","","","","","",""
"731","
          <p id=""word"" style=""font-size: 40px;"">bring</p>
          <p style=""font-size: 16px;"">J = YES &nbsp;&nbsp;&nbsp; F = NO</p>
        ","j","html-keyboard-response","251","2.1.0","516175","J=YES, F=NO","2b335lgj5b","2","70","75","65","","","","","","","","","bring","empire","unrelated","experimental","j","true","",""
"null","<p style=""font-size: 50px;"">+</p>","null","html-keyboard-response","252","2.1.0","516496","J=YES, F=NO","2b335lgj5b","2","70","75","65","","","","","","","","","","","","","","","",""
"null","audio/beep-329314.mp3","null","audio-keyboard-response","253","2.1.0","518022","J=YES, F=NO","2b335lgj5b","2","70","75","65","","","","","","","","","","","","","","","",""
"null","audio/road.wav","null","audio-keyboard-response","254","2.1.0","518462","J=YES, F=NO","2b335lgj5b","2","70","75","65","","","","","","","","","","","","","","","",""
"623","
          <p id=""word"" style=""font-size: 40px;"">wappings</p>
          <p style=""font-size: 16px;"">J = YES &nbsp;&nbsp;&nbsp; F = NO</p>
        ","f","html-keyboard-response","255","2.1.0","519087","J=YES, F=NO","2b335lgj5b","2","70","75","65","","","","","","","","","wappings","road","pseudoword","pseudoword","f","true","",""
"null","<p style=""font-size: 50px;"">+</p>","null","html-keyboard-response","256","2.1.0","519401","J=YES, F=NO","2b335lgj5b","2","70","75","65","","","","","","","","","","","","","","","",""
"null","audio/beep-329314.mp3","null","audio-keyboard-response","257","2.1.0","520942","J=YES, F=NO","2b335lgj5b","2","70","75","65","","","","","","","","","","","","","","","",""
"null","audio/terrain.wav","null","audio-keyboard-response","258","2.1.0","521522","J=YES, F=NO","2b335lgj5b","2","70","75","65","","","","","","","","","","","","","","","",""
"596","
          <p id=""word"" style=""font-size: 40px;"">navigate</p>
          <p style=""font-size: 16px;"">J = YES &nbsp;&nbsp;&nbsp; F = NO</p>
        ","j","html-keyboard-response","259","2.1.0","522119","J=YES, F=NO","2b335lgj5b","2","70","75","65","","","","","","","","","navigate","terrain","literal","experimental","j","true","",""
"null","<p style=""font-size: 50px;"">+</p>","null","html-keyboard-response","260","2.1.0","522440","J=YES, F=NO","2b335lgj5b","2","70","75","65","","","","","","","","","","","","","","","",""
"null","audio/beep-329314.mp3","null","audio-keyboard-response","261","2.1.0","523982","J=YES, F=NO","2b335lgj5b","2","70","75","65","","","","","","","","","","","","","","","",""
"null","audio/tax1.wav","null","audio-keyboard-response","262","2.1.0","524582","J=YES, F=NO","2b335lgj5b","2","70","75","65","","","","","","","","","","","","","","","",""
"591","
          <p id=""word"" style=""font-size: 40px;"">scrap</p>
          <p style=""font-size: 16px;"">J = YES &nbsp;&nbsp;&nbsp; F = NO</p>
        ","j","html-keyboard-response","263","2.1.0","525175","J=YES, F=NO","2b335lgj5b","2","70","75","65","","","","","","","","","scrap","tax1","metaphor","experimental","j","true","",""
"null","<p style=""font-size: 50px;"">+</p>","null","html-keyboard-response","264","2.1.0","525486","J=YES, F=NO","2b335lgj5b","2","70","75","65","","","","","","","","","","","","","","","",""
"null","audio/beep-329314.mp3","null","audio-keyboard-response","265","2.1.0","527022","J=YES, F=NO","2b335lgj5b","2","70","75","65","","","","","","","","","","","","","","","",""
"null","audio/planet1.wav","null","audio-keyboard-response","266","2.1.0","527802","J=YES, F=NO","2b335lgj5b","2","70","75","65","","","","","","","","","","","","","","","",""
"691","
          <p id=""word"" style=""font-size: 40px;"">cratched</p>
          <p style=""font-size: 16px;"">J = YES &nbsp;&nbsp;&nbsp; F = NO</p>
        ","j","html-keyboard-response","267","2.1.0","528495","J=YES, F=NO","2b335lgj5b","2","70","75","65","","","","","","","","","cratched","planet1","pseudoword","pseudoword","f","false","",""
"null","<p style=""font-size: 50px;"">+</p>","null","html-keyboard-response","268","2.1.0","528810","J=YES, F=NO","2b335lgj5b","2","70","75","65","","","","","","","","","","","","","","","",""
"null","audio/beep-329314.mp3","null","audio-keyboard-response","269","2.1.0","530342","J=YES, F=NO","2b335lgj5b","2","70","75","65","","","","","","","","","","","","","","","",""
"null","audio/table1.wav","null","audio-keyboard-response","270","2.1.0","531042","J=YES, F=NO","2b335lgj5b","2","70","75","65","","","","","","","","","","","","","","","",""
"740","
          <p id=""word"" style=""font-size: 40px;"">stimb</p>
          <p style=""font-size: 16px;"">J = YES &nbsp;&nbsp;&nbsp; F = NO</p>
        ","f","html-keyboard-response","271","2.1.0","531783","J=YES, F=NO","2b335lgj5b","2","70","75","65","","","","","","","","","stimb","table1","pseudoword","pseudoword","f","true","",""
"null","<p style=""font-size: 50px;"">+</p>","null","html-keyboard-response","272","2.1.0","532093","J=YES, F=NO","2b335lgj5b","2","70","75","65","","","","","","","","","","","","","","","",""
"null","audio/beep-329314.mp3","null","audio-keyboard-response","273","2.1.0","533622","J=YES, F=NO","2b335lgj5b","2","70","75","65","","","","","","","","","","","","","","","",""
"null","audio/topic.wav","null","audio-keyboard-response","274","2.1.0","534402","J=YES, F=NO","2b335lgj5b","2","70","75","65","","","","","","","","","","","","","","","",""
"404","
          <p id=""word"" style=""font-size: 40px;"">infortuitist</p>
          <p style=""font-size: 16px;"">J = YES &nbsp;&nbsp;&nbsp; F = NO</p>
        ","j","html-keyboard-response","275","2.1.0","534807","J=YES, F=NO","2b335lgj5b","2","70","75","65","","","","","","","","","infortuitist","topic","pseudoword","pseudoword","f","false","",""
"null","<p style=""font-size: 50px;"">+</p>","null","html-keyboard-response","276","2.1.0","535117","J=YES, F=NO","2b335lgj5b","2","70","75","65","","","","","","","","","","","","","","","",""
"null","audio/beep-329314.mp3","null","audio-keyboard-response","277","2.1.0","536642","J=YES, F=NO","2b335lgj5b","2","70","75","65","","","","","","","","","","","","","","","",""
"null","audio/foot1.wav","null","audio-keyboard-response","278","2.1.0","537402","J=YES, F=NO","2b335lgj5b","2","70","75","65","","","","","","","","","","","","","","","",""
"747","
          <p id=""word"" style=""font-size: 40px;"">thrutt</p>
          <p style=""font-size: 16px;"">J = YES &nbsp;&nbsp;&nbsp; F = NO</p>
        ","f","html-keyboard-response","279","2.1.0","538151","J=YES, F=NO","2b335lgj5b","2","70","75","65","","","","","","","","","thrutt","foot1","pseudoword","pseudoword","f","true","",""
"null","<p style=""font-size: 50px;"">+</p>","null","html-keyboard-response","280","2.1.0","538460","J=YES, F=NO","2b335lgj5b","2","70","75","65","","","","","","","","","","","","","","","",""
"null","audio/beep-329314.mp3","null","audio-keyboard-response","281","2.1.0","540002","J=YES, F=NO","2b335lgj5b","2","70","75","65","","","","","","","","","","","","","","","",""
"null","audio/tomato.wav","null","audio-keyboard-response","282","2.1.0","540862","J=YES, F=NO","2b335lgj5b","2","70","75","65","","","","","","","","","","","","","","","",""
"624","
          <p id=""word"" style=""font-size: 40px;"">gladies</p>
          <p style=""font-size: 16px;"">J = YES &nbsp;&nbsp;&nbsp; F = NO</p>
        ","j","html-keyboard-response","283","2.1.0","541487","J=YES, F=NO","2b335lgj5b","2","70","75","65","","","","","","","","","gladies","tomato","pseudoword","pseudoword","f","false","",""
"null","<p style=""font-size: 50px;"">+</p>","null","html-keyboard-response","284","2.1.0","541791","J=YES, F=NO","2b335lgj5b","2","70","75","65","","","","","","","","","","","","","","","",""
"null","audio/beep-329314.mp3","null","audio-keyboard-response","285","2.1.0","543322","J=YES, F=NO","2b335lgj5b","2","70","75","65","","","","","","","","","","","","","","","",""
"null","audio/purpose.wav","null","audio-keyboard-response","286","2.1.0","544182","J=YES, F=NO","2b335lgj5b","2","70","75","65","","","","","","","","","","","","","","","",""
"575","
          <p id=""word"" style=""font-size: 40px;"">whigm</p>
          <p style=""font-size: 16px;"">J = YES &nbsp;&nbsp;&nbsp; F = NO</p>
        ","f","html-keyboard-response","287","2.1.0","544759","J=YES, F=NO","2b335lgj5b","2","70","75","65","","","","","","","","","whigm","purpose","pseudoword","pseudoword","f","true","",""
"null","<p style=""font-size: 50px;"">+</p>","null","html-keyboard-response","288","2.1.0","545081","J=YES, F=NO","2b335lgj5b","2","70","75","65","","","","","","","","","","","","","","","",""
"null","audio/beep-329314.mp3","null","audio-keyboard-response","289","2.1.0","546622","J=YES, F=NO","2b335lgj5b","2","70","75","65","","","","","","","","","","","","","","","",""
"null","audio/belief.wav","null","audio-keyboard-response","290","2.1.0","547442","J=YES, F=NO","2b335lgj5b","2","70","75","65","","","","","","","","","","","","","","","",""
"540","
          <p id=""word"" style=""font-size: 40px;"">read</p>
          <p style=""font-size: 16px;"">J = YES &nbsp;&nbsp;&nbsp; F = NO</p>
        ","j","html-keyboard-response","291","2.1.0","547983","J=YES, F=NO","2b335lgj5b","2","70","75","65","","","","","","","","","read","belief","filler","filler","j","true","",""
"null","<p style=""font-size: 50px;"">+</p>","null","html-keyboard-response","292","2.1.0","548300","J=YES, F=NO","2b335lgj5b","2","70","75","65","","","","","","","","","","","","","","","",""
"null","audio/beep-329314.mp3","null","audio-keyboard-response","293","2.1.0","549842","J=YES, F=NO","2b335lgj5b","2","70","75","65","","","","","","","","","","","","","","","",""
"null","audio/breath.wav","null","audio-keyboard-response","294","2.1.0","550402","J=YES, F=NO","2b335lgj5b","2","70","75","65","","","","","","","","","","","","","","","",""
"443","
          <p id=""word"" style=""font-size: 40px;"">twets</p>
          <p style=""font-size: 16px;"">J = YES &nbsp;&nbsp;&nbsp; F = NO</p>
        ","j","html-keyboard-response","295","2.1.0","550847","J=YES, F=NO","2b335lgj5b","2","70","75","65","","","","","","","","","twets","breath","pseudoword","pseudoword","f","false","",""
"863","<p>Excellent! You have finished block 2 of 8.</p>
                     <p>Feel free to take a 30 second break.</p>
                     <p>Press any key when you're ready to continue.</p>"," ","html-keyboard-response","296","2.1.0","551711","J=YES, F=NO","2b335lgj5b","2","70","75","65","","","","","","","","","","","","","","","",""
"439","<p>Starting main block 3 of 8. Press any key to continue.</p>"," ","html-keyboard-response","297","2.1.0","552151","J=YES, F=NO","2b335lgj5b","2","70","75","65","","","","","","","","","","","","","","","",""
"null","<p style=""font-size: 50px;"">+</p>","null","html-keyboard-response","298","2.1.0","552471","J=YES, F=NO","2b335lgj5b","2","70","75","65","","","","","","","","","","","","","","","",""
"null","audio/beep-329314.mp3","null","audio-keyboard-response","299","2.1.0","554002","J=YES, F=NO","2b335lgj5b","2","70","75","65","","","","","","","","","","","","","","","",""
"null","audio/heart1.wav","null","audio-keyboard-response","300","2.1.0","554842","J=YES, F=NO","2b335lgj5b","2","70","75","65","","","","","","","","","","","","","","","",""
"651","
          <p id=""word"" style=""font-size: 40px;"">dralm</p>
          <p style=""font-size: 16px;"">J = YES &nbsp;&nbsp;&nbsp; F = NO</p>
        ","f","html-keyboard-response","301","2.1.0","555495","J=YES, F=NO","2b335lgj5b","2","70","75","65","","","","","","","","","dralm","heart1","pseudoword","pseudoword","f","true","",""
"null","<p style=""font-size: 50px;"">+</p>","null","html-keyboard-response","302","2.1.0","555796","J=YES, F=NO","2b335lgj5b","2","70","75","65","","","","","","","","","","","","","","","",""
"null","audio/beep-329314.mp3","null","audio-keyboard-response","303","2.1.0","557322","J=YES, F=NO","2b335lgj5b","2","70","75","65","","","","","","","","","","","","","","","",""
"null","audio/handle.wav","null","audio-keyboard-response","304","2.1.0","558142","J=YES, F=NO","2b335lgj5b","2","70","75","65","","","","","","","","","","","","","","","",""
"511","
          <p id=""word"" style=""font-size: 40px;"">grasp</p>
          <p style=""font-size: 16px;"">J = YES &nbsp;&nbsp;&nbsp; F = NO</p>
        ","j","html-keyboard-response","305","2.1.0","558655","J=YES, F=NO","2b335lgj5b","2","70","75","65","","","","","","","","","grasp","handle","literal","experimental","j","true","",""
"null","<p style=""font-size: 50px;"">+</p>","null","html-keyboard-response","306","2.1.0","558961","J=YES, F=NO","2b335lgj5b","2","70","75","65","","","","","","","","","","","","","","","",""
"null","audio/beep-329314.mp3","null","audio-keyboard-response","307","2.1.0","560502","J=YES, F=NO","2b335lgj5b","2","70","75","65","","","","","","","","","","","","","","","",""
"null","audio/flaw.wav","null","audio-keyboard-response","308","2.1.0","561322","J=YES, F=NO","2b335lgj5b","2","70","75","65","","","","","","","","","","","","","","","",""
"675","
          <p id=""word"" style=""font-size: 40px;"">thwool</p>
          <p style=""font-size: 16px;"">J = YES &nbsp;&nbsp;&nbsp; F = NO</p>
        ","f","html-keyboard-response","309","2.1.0","561999","J=YES, F=NO","2b335lgj5b","2","70","75","65","","","","","","","","","thwool","flaw","pseudoword","pseudoword","f","true","",""
"null","<p style=""font-size: 50px;"">+</p>","null","html-keyboard-response","310","2.1.0","562320","J=YES, F=NO","2b335lgj5b","2","70","75","65","","","","","","","","","","","","","","","",""
"null","audio/beep-329314.mp3","null","audio-keyboard-response","311","2.1.0","563862","J=YES, F=NO","2b335lgj5b","2","70","75","65","","","","","","","","","","","","","","","",""
"null","audio/cottage1.wav","null","audio-keyboard-response","312","2.1.0","564702","J=YES, F=NO","2b335lgj5b","2","70","75","65","","","","","","","","","","","","","","","",""
"567","
          <p id=""word"" style=""font-size: 40px;"">release</p>
          <p style=""font-size: 16px;"">J = YES &nbsp;&nbsp;&nbsp; F = NO</p>
        ","j","html-keyboard-response","313","2.1.0","565271","J=YES, F=NO","2b335lgj5b","2","70","75","65","","","","","","","","","release","cottage1","unrelated","experimental","j","true","",""
"null","<p style=""font-size: 50px;"">+</p>","null","html-keyboard-response","314","2.1.0","565581","J=YES, F=NO","2b335lgj5b","2","70","75","65","","","","","","","","","","","","","","","",""
"null","audio/beep-329314.mp3","null","audio-keyboard-response","315","2.1.0","567122","J=YES, F=NO","2b335lgj5b","2","70","75","65","","","","","","","","","","","","","","","",""
"null","audio/corpse1.wav","null","audio-keyboard-response","316","2.1.0","567942","J=YES, F=NO","2b335lgj5b","2","70","75","65","","","","","","","","","","","","","","","",""
"527","
          <p id=""word"" style=""font-size: 40px;"">glonet</p>
          <p style=""font-size: 16px;"">J = YES &nbsp;&nbsp;&nbsp; F = NO</p>
        ","f","html-keyboard-response","317","2.1.0","568471","J=YES, F=NO","2b335lgj5b","2","70","75","65","","","","","","","","","glonet","corpse1","pseudoword","pseudoword","f","true","",""
"null","<p style=""font-size: 50px;"">+</p>","null","html-keyboard-response","318","2.1.0","568781","J=YES, F=NO","2b335lgj5b","2","70","75","65","","","","","","","","","","","","","","","",""
"null","audio/beep-329314.mp3","null","audio-keyboard-response","319","2.1.0","570322","J=YES, F=NO","2b335lgj5b","2","70","75","65","","","","","","","","","","","","","","","",""
"null","audio/gift1.wav","null","audio-keyboard-response","320","2.1.0","570982","J=YES, F=NO","2b335lgj5b","2","70","75","65","","","","","","","","","","","","","","","",""
"479","
          <p id=""word"" style=""font-size: 40px;"">give</p>
          <p style=""font-size: 16px;"">J = YES &nbsp;&nbsp;&nbsp; F = NO</p>
        ","j","html-keyboard-response","321","2.1.0","571463","J=YES, F=NO","2b335lgj5b","2","70","75","65","","","","","","","","","give","gift1","literal","experimental","j","true","",""
"null","<p style=""font-size: 50px;"">+</p>","null","html-keyboard-response","322","2.1.0","571776","J=YES, F=NO","2b335lgj5b","2","70","75","65","","","","","","","","","","","","","","","",""
"null","audio/beep-329314.mp3","null","audio-keyboard-response","323","2.1.0","573303","J=YES, F=NO","2b335lgj5b","2","70","75","65","","","","","","","","","","","","","","","",""
"null","audio/pattern.wav","null","audio-keyboard-response","324","2.1.0","573802","J=YES, F=NO","2b335lgj5b","2","70","75","65","","","","","","","","","","","","","","","",""
"611","
          <p id=""word"" style=""font-size: 40px;"">defeat</p>
          <p style=""font-size: 16px;"">J = YES &nbsp;&nbsp;&nbsp; F = NO</p>
        ","f","html-keyboard-response","325","2.1.0","574415","J=YES, F=NO","2b335lgj5b","2","70","75","65","","","","","","","","","defeat","pattern","unrelated","experimental","j","false","",""
"null","<p style=""font-size: 50px;"">+</p>","null","html-keyboard-response","326","2.1.0","574721","J=YES, F=NO","2b335lgj5b","2","70","75","65","","","","","","","","","","","","","","","",""
"null","audio/beep-329314.mp3","null","audio-keyboard-response","327","2.1.0","576262","J=YES, F=NO","2b335lgj5b","2","70","75","65","","","","","","","","","","","","","","","",""
"null","audio/camp.wav","null","audio-keyboard-response","328","2.1.0","576842","J=YES, F=NO","2b335lgj5b","2","70","75","65","","","","","","","","","","","","","","","",""
"643","
          <p id=""word"" style=""font-size: 40px;"">touch</p>
          <p style=""font-size: 16px;"">J = YES &nbsp;&nbsp;&nbsp; F = NO</p>
        ","j","html-keyboard-response","329","2.1.0","577487","J=YES, F=NO","2b335lgj5b","2","70","75","65","","","","","","","","","touch","camp","unrelated","experimental","j","true","",""
"null","<p style=""font-size: 50px;"">+</p>","null","html-keyboard-response","330","2.1.0","577801","J=YES, F=NO","2b335lgj5b","2","70","75","65","","","","","","","","","","","","","","","",""
"null","audio/beep-329314.mp3","null","audio-keyboard-response","331","2.1.0","579342","J=YES, F=NO","2b335lgj5b","2","70","75","65","","","","","","","","","","","","","","","",""
"null","audio/bishop1.wav","null","audio-keyboard-response","332","2.1.0","580142","J=YES, F=NO","2b335lgj5b","2","70","75","65","","","","","","","","","","","","","","","",""
"399","
          <p id=""word"" style=""font-size: 40px;"">play</p>
          <p style=""font-size: 16px;"">J = YES &nbsp;&nbsp;&nbsp; F = NO</p>
        ","j","html-keyboard-response","333","2.1.0","580543","J=YES, F=NO","2b335lgj5b","2","70","75","65","","","","","","","","","play","bishop1","filler","filler","j","true","",""
"null","<p style=""font-size: 50px;"">+</p>","null","html-keyboard-response","334","2.1.0","580850","J=YES, F=NO","2b335lgj5b","2","70","75","65","","","","","","","","","","","","","","","",""
"null","audio/beep-329314.mp3","null","audio-keyboard-response","335","2.1.0","582382","J=YES, F=NO","2b335lgj5b","2","70","75","65","","","","","","","","","","","","","","","",""
"null","audio/key1.wav","null","audio-keyboard-response","336","2.1.0","582762","J=YES, F=NO","2b335lgj5b","2","70","75","65","","","","","","","","","","","","","","","",""
"483","
          <p id=""word"" style=""font-size: 40px;"">lose</p>
          <p style=""font-size: 16px;"">J = YES &nbsp;&nbsp;&nbsp; F = NO</p>
        ","j","html-keyboard-response","337","2.1.0","583247","J=YES, F=NO","2b335lgj5b","2","70","75","65","","","","","","","","","lose","key1","literal","experimental","j","true","",""
"null","<p style=""font-size: 50px;"">+</p>","null","html-keyboard-response","338","2.1.0","583550","J=YES, F=NO","2b335lgj5b","2","70","75","65","","","","","","","","","","","","","","","",""
"null","audio/beep-329314.mp3","null","audio-keyboard-response","339","2.1.0","585083","J=YES, F=NO","2b335lgj5b","2","70","75","65","","","","","","","","","","","","","","","",""
"null","audio/arm.wav","null","audio-keyboard-response","340","2.1.0","585822","J=YES, F=NO","2b335lgj5b","2","70","75","65","","","","","","","","","","","","","","","",""
"383","
          <p id=""word"" style=""font-size: 40px;"">fold</p>
          <p style=""font-size: 16px;"">J = YES &nbsp;&nbsp;&nbsp; F = NO</p>
        ","j","html-keyboard-response","341","2.1.0","586207","J=YES, F=NO","2b335lgj5b","2","70","75","65","","","","","","","","","fold","arm","filler","filler","j","true","",""
"null","<p style=""font-size: 50px;"">+</p>","null","html-keyboard-response","342","2.1.0","586510","J=YES, F=NO","2b335lgj5b","2","70","75","65","","","","","","","","","","","","","","","",""
"null","audio/beep-329314.mp3","null","audio-keyboard-response","343","2.1.0","588042","J=YES, F=NO","2b335lgj5b","2","70","75","65","","","","","","","","","","","","","","","",""
"null","audio/wealth1.wav","null","audio-keyboard-response","344","2.1.0","588822","J=YES, F=NO","2b335lgj5b","2","70","75","65","","","","","","","","","","","","","","","",""
"503","
          <p id=""word"" style=""font-size: 40px;"">possess</p>
          <p style=""font-size: 16px;"">J = YES &nbsp;&nbsp;&nbsp; F = NO</p>
        ","j","html-keyboard-response","345","2.1.0","589327","J=YES, F=NO","2b335lgj5b","2","70","75","65","","","","","","","","","possess","wealth1","literal","experimental","j","true","",""
"null","<p style=""font-size: 50px;"">+</p>","null","html-keyboard-response","346","2.1.0","589632","J=YES, F=NO","2b335lgj5b","2","70","75","65","","","","","","","","","","","","","","","",""
"null","audio/beep-329314.mp3","null","audio-keyboard-response","347","2.1.0","591162","J=YES, F=NO","2b335lgj5b","2","70","75","65","","","","","","","","","","","","","","","",""
"null","audio/effort.wav","null","audio-keyboard-response","348","2.1.0","591942","J=YES, F=NO","2b335lgj5b","2","70","75","65","","","","","","","","","","","","","","","",""
"663","
          <p id=""word"" style=""font-size: 40px;"">whonk</p>
          <p style=""font-size: 16px;"">J = YES &nbsp;&nbsp;&nbsp; F = NO</p>
        ","f","html-keyboard-response","349","2.1.0","592607","J=YES, F=NO","2b335lgj5b","2","70","75","65","","","","","","","","","whonk","effort","pseudoword","pseudoword","f","true","",""
"null","<p style=""font-size: 50px;"">+</p>","null","html-keyboard-response","350","2.1.0","592911","J=YES, F=NO","2b335lgj5b","2","70","75","65","","","","","","","","","","","","","","","",""
"null","audio/beep-329314.mp3","null","audio-keyboard-response","351","2.1.0","594442","J=YES, F=NO","2b335lgj5b","2","70","75","65","","","","","","","","","","","","","","","",""
"null","audio/empire.wav","null","audio-keyboard-response","352","2.1.0","595062","J=YES, F=NO","2b335lgj5b","2","70","75","65","","","","","","","","","","","","","","","",""
"536","
          <p id=""word"" style=""font-size: 40px;"">slorby</p>
          <p style=""font-size: 16px;"">J = YES &nbsp;&nbsp;&nbsp; F = NO</p>
        ","j","html-keyboard-response","353","2.1.0","595599","J=YES, F=NO","2b335lgj5b","2","70","75","65","","","","","","","","","slorby","empire","pseudoword","pseudoword","f","false","",""
"null","<p style=""font-size: 50px;"">+</p>","null","html-keyboard-response","354","2.1.0","595901","J=YES, F=NO","2b335lgj5b","2","70","75","65","","","","","","","","","","","","","","","",""
"null","audio/beep-329314.mp3","null","audio-keyboard-response","355","2.1.0","597442","J=YES, F=NO","2b335lgj5b","2","70","75","65","","","","","","","","","","","","","","","",""
"null","audio/burden.wav","null","audio-keyboard-response","356","2.1.0","598142","J=YES, F=NO","2b335lgj5b","2","70","75","65","","","","","","","","","","","","","","","",""
"608","
          <p id=""word"" style=""font-size: 40px;"">whotth</p>
          <p style=""font-size: 16px;"">J = YES &nbsp;&nbsp;&nbsp; F = NO</p>
        ","f","html-keyboard-response","357","2.1.0","598752","J=YES, F=NO","2b335lgj5b","2","70","75","65","","","","","","","","","whotth","burden","pseudoword","pseudoword","f","true","",""
"null","<p style=""font-size: 50px;"">+</p>","null","html-keyboard-response","358","2.1.0","599066","J=YES, F=NO","2b335lgj5b","2","70","75","65","","","","","","","","","","","","","","","",""
"null","audio/beep-329314.mp3","null","audio-keyboard-response","359","2.1.0","600602","J=YES, F=NO","2b335lgj5b","2","70","75","65","","","","","","","","","","","","","","","",""
"null","audio/tunnel.wav","null","audio-keyboard-response","360","2.1.0","601042","J=YES, F=NO","2b335lgj5b","2","70","75","65","","","","","","","","","","","","","","","",""
"507","
          <p id=""word"" style=""font-size: 40px;"">gred</p>
          <p style=""font-size: 16px;"">J = YES &nbsp;&nbsp;&nbsp; F = NO</p>
        ","j","html-keyboard-response","361","2.1.0","601551","J=YES, F=NO","2b335lgj5b","2","70","75","65","","","","","","","","","gred","tunnel","pseudoword","pseudoword","f","false","",""
"727","<p>Excellent! You have finished block 3 of 8.</p>
                     <p>Feel free to take a 30 second break.</p>
                     <p>Press any key when you're ready to continue.</p>"," ","html-keyboard-response","362","2.1.0","602279","J=YES, F=NO","2b335lgj5b","2","70","75","65","","","","","","","","","","","","","","","",""
"262","<p>Starting main block 4 of 8. Press any key to continue.</p>"," ","html-keyboard-response","363","2.1.0","602543","J=YES, F=NO","2b335lgj5b","2","70","75","65","","","","","","","","","","","","","","","",""
"null","<p style=""font-size: 50px;"">+</p>","null","html-keyboard-response","364","2.1.0","602851","J=YES, F=NO","2b335lgj5b","2","70","75","65","","","","","","","","","","","","","","","",""
"null","audio/beep-329314.mp3","null","audio-keyboard-response","365","2.1.0","604382","J=YES, F=NO","2b335lgj5b","2","70","75","65","","","","","","","","","","","","","","","",""
"null","audio/corpse1.wav","null","audio-keyboard-response","366","2.1.0","605002","J=YES, F=NO","2b335lgj5b","2","70","75","65","","","","","","","","","","","","","","","",""
"715","
          <p id=""word"" style=""font-size: 40px;"">bury</p>
          <p style=""font-size: 16px;"">J = YES &nbsp;&nbsp;&nbsp; F = NO</p>
        ","f","html-keyboard-response","367","2.1.0","605719","J=YES, F=NO","2b335lgj5b","2","70","75","65","","","","","","","","","bury","corpse1","literal","experimental","j","false","",""
"null","<p style=""font-size: 50px;"">+</p>","null","html-keyboard-response","368","2.1.0","606031","J=YES, F=NO","2b335lgj5b","2","70","75","65","","","","","","","","","","","","","","","",""
"null","audio/beep-329314.mp3","null","audio-keyboard-response","369","2.1.0","607563","J=YES, F=NO","2b335lgj5b","2","70","75","65","","","","","","","","","","","","","","","",""
"null","audio/dollar.wav","null","audio-keyboard-response","370","2.1.0","607962","J=YES, F=NO","2b335lgj5b","2","70","75","65","","","","","","","","","","","","","","","",""
"699","
          <p id=""word"" style=""font-size: 40px;"">gliptism</p>
          <p style=""font-size: 16px;"">J = YES &nbsp;&nbsp;&nbsp; F = NO</p>
        ","f","html-keyboard-response","371","2.1.0","608663","J=YES, F=NO","2b335lgj5b","2","70","75","65","","","","","","","","","gliptism","dollar","pseudoword","pseudoword","f","true","",""
"null","<p style=""font-size: 50px;"">+</p>","null","html-keyboard-response","372","2.1.0","608971","J=YES, F=NO","2b335lgj5b","2","70","75","65","","","","","","","","","","","","","","","",""
"null","audio/beep-329314.mp3","null","audio-keyboard-response","373","2.1.0","610502","J=YES, F=NO","2b335lgj5b","2","70","75","65","","","","","","","","","","","","","","","",""
"null","audio/holiday1.wav","null","audio-keyboard-response","374","2.1.0","611122","J=YES, F=NO","2b335lgj5b","2","70","75","65","","","","","","","","","","","","","","","",""
"475","
          <p id=""word"" style=""font-size: 40px;"">spend</p>
          <p style=""font-size: 16px;"">J = YES &nbsp;&nbsp;&nbsp; F = NO</p>
        ","j","html-keyboard-response","375","2.1.0","611599","J=YES, F=NO","2b335lgj5b","2","70","75","65","","","","","","","","","spend","holiday1","metaphor","experimental","j","true","",""
"null","<p style=""font-size: 50px;"">+</p>","null","html-keyboard-response","376","2.1.0","611911","J=YES, F=NO","2b335lgj5b","2","70","75","65","","","","","","","","","","","","","","","",""
"null","audio/beep-329314.mp3","null","audio-keyboard-response","377","2.1.0","613443","J=YES, F=NO","2b335lgj5b","2","70","75","65","","","","","","","","","","","","","","","",""
"null","audio/meal.wav","null","audio-keyboard-response","378","2.1.0","614082","J=YES, F=NO","2b335lgj5b","2","70","75","65","","","","","","","","","","","","","","","",""
"507","
          <p id=""word"" style=""font-size: 40px;"">gallite</p>
          <p style=""font-size: 16px;"">J = YES &nbsp;&nbsp;&nbsp; F = NO</p>
        ","j","html-keyboard-response","379","2.1.0","614592","J=YES, F=NO","2b335lgj5b","2","70","75","65","","","","","","","","","gallite","meal","pseudoword","pseudoword","f","false","",""
"null","<p style=""font-size: 50px;"">+</p>","null","html-keyboard-response","380","2.1.0","614896","J=YES, F=NO","2b335lgj5b","2","70","75","65","","","","","","","","","","","","","","","",""
"null","audio/beep-329314.mp3","null","audio-keyboard-response","381","2.1.0","616422","J=YES, F=NO","2b335lgj5b","2","70","75","65","","","","","","","","","","","","","","","",""
"null","audio/truth1.wav","null","audio-keyboard-response","382","2.1.0","617162","J=YES, F=NO","2b335lgj5b","2","70","75","65","","","","","","","","","","","","","","","",""
"548","
          <p id=""word"" style=""font-size: 40px;"">expose</p>
          <p style=""font-size: 16px;"">J = YES &nbsp;&nbsp;&nbsp; F = NO</p>
        ","j","html-keyboard-response","383","2.1.0","617712","J=YES, F=NO","2b335lgj5b","2","70","75","65","","","","","","","","","expose","truth1","metaphor","experimental","j","true","",""
"null","<p style=""font-size: 50px;"">+</p>","null","html-keyboard-response","384","2.1.0","618031","J=YES, F=NO","2b335lgj5b","2","70","75","65","","","","","","","","","","","","","","","",""
"null","audio/beep-329314.mp3","null","audio-keyboard-response","385","2.1.0","619562","J=YES, F=NO","2b335lgj5b","2","70","75","65","","","","","","","","","","","","","","","",""
"null","audio/ego.wav","null","audio-keyboard-response","386","2.1.0","620302","J=YES, F=NO","2b335lgj5b","2","70","75","65","","","","","","","","","","","","","","","",""
"583","
          <p id=""word"" style=""font-size: 40px;"">bruite</p>
          <p style=""font-size: 16px;"">J = YES &nbsp;&nbsp;&nbsp; F = NO</p>
        ","j","html-keyboard-response","387","2.1.0","620887","J=YES, F=NO","2b335lgj5b","2","70","75","65","","","","","","","","","bruite","ego","pseudoword","pseudoword","f","false","",""
"null","<p style=""font-size: 50px;"">+</p>","null","html-keyboard-response","388","2.1.0","621191","J=YES, F=NO","2b335lgj5b","2","70","75","65","","","","","","","","","","","","","","","",""
"null","audio/beep-329314.mp3","null","audio-keyboard-response","389","2.1.0","622722","J=YES, F=NO","2b335lgj5b","2","70","75","65","","","","","","","","","","","","","","","",""
"null","audio/vehicle1.wav","null","audio-keyboard-response","390","2.1.0","623562","J=YES, F=NO","2b335lgj5b","2","70","75","65","","","","","","","","","","","","","","","",""
"531","
          <p id=""word"" style=""font-size: 40px;"">dropt</p>
          <p style=""font-size: 16px;"">J = YES &nbsp;&nbsp;&nbsp; F = NO</p>
        ","f","html-keyboard-response","391","2.1.0","624095","J=YES, F=NO","2b335lgj5b","2","70","75","65","","","","","","","","","dropt","vehicle1","pseudoword","pseudoword","f","true","",""
