"rt","stimulus","response","trial_type","trial_index","plugin_version","time_elapsed","response_mapping","subject_id","list_index","lextale_score","lextale_word_score","lextale_nonword_score","success","timeout","failed_images","failed_audio","failed_video","task","isWord","isDummy","target","prime","prime_type","stimulus_type","correct_response","correct","section","question_order"
"3546","
    <div style=""max-width: 800px; margin: auto; text-align: left;"">
      <h2>STANFORD UNIVERSITY</h2>
      <h3>Research Information Sheet</h3>
      <p><strong>Protocol Director:</strong> Robert Hawkins<br>
      <strong>Protocol Title:</strong> Communication and social cognition in natural audiovisual contexts<br>
      <strong>IRB#:</strong> 77226</p>

      <p><strong>DESCRIPTION:</strong> You are invited to participate in a research study about language and communication. The purpose of the research is to understand how you interact and communicate with other people in naturalistic settings as a fluent English speaker. This research will be conducted through the Prolific platform, including participants from the US, UK, and Canada. If you decide to participate in this research, you will play a communication game in a group with one or more partners.</p>

      <p><strong>TIME INVOLVEMENT:</strong> The task will last the amount of time advertised on Prolific. You are free to withdraw from the study at any time.</p>

      <p><strong>RISKS AND BENEFITS:</strong> You may become frustrated if your partner gets distracted, or experience discomfort if other participants in your group send text that is inappropriate for the task. We ask you to please be respectful of other participants you might be interacting with to mitigate these risks. You may also experience discomfort when being asked to discuss or challenge emotionally salient political beliefs. Study data will be stored securely, in compliance with Stanford University standards, minimizing the risk of confidentiality breach. This study advances our scientific understanding of how people communicate and collaborate in naturalistic settings. This study may lead to further insights about what can go wrong in teamwork, suggest potential interventions to overcome these barriers, and help to develop assistive technologies that collaborate with human partners. We cannot and do not guarantee or promise that you will receive any benefits from this study.</p>

      <p><strong>PAYMENTS:</strong> You will receive payment in the amount advertised on Prolific. If you do not complete this study, you will receive prorated payment based on the time that you have spent. Additionally, you may be eligible for bonus payments as described in the instructions.</p>

      <p><strong>PARTICIPANT’S RIGHTS:</strong> If you have read this form and have decided to participate in this project, please understand your participation is voluntary and you have the right to withdraw your consent or discontinue participation at any time without penalty or loss of benefits to which you are otherwise entitled. The alternative is not to participate. You have the right to refuse to answer particular questions. The results of this research study may be presented at scientific or professional meetings or published in scientific journals. Your individual privacy will be maintained in all published and written data resulting from the study. In accordance with scientific norms, the data from this study may be used or shared with other researchers for future research (after removing personally identifying information) without additional consent from you.</p>

      <p><strong>CONTACT INFORMATION:</strong><br>
      Questions: If you have any questions, concerns or complaints about this research, its procedures, risks and benefits, contact the Protocol Director, Robert Hawkins (<a href=""mailto:rdhawkins@stanford.edu"">rdhawkins@stanford.edu</a>, 217-549-6923).<br>
      Independent Contact: If you are not satisfied with how this study is being conducted, or if you have any concerns, complaints, or general questions about the research or your rights as a participant, please contact the Stanford Institutional Review Board (IRB) to speak to someone independent of the research team at 650-723-2480 or toll free at 1-866-680-2906, or email at <a href=""mailto:irbnon-med@stanford.edu"">irbnon-med@stanford.edu</a>. You can also write to the Stanford IRB, Stanford University, 1705 El Camino Real, Palo Alto, CA 94306.</p>

      <p><strong>Please save or print a copy of this page for your records.</strong></p>
      <p>If you agree to participate in this research, click ""Continue"" below.</p>
    </div>
  ","0","html-button-response","0","2.1.0","3548","F=YES, J=NO","2qwyrcf7yk","0","31","38","25","","","","","","","","","","","","","","","",""
"938","
    <div style=""max-width: 800px; margin: auto; text-align: left;"">
      <h2>Welcome!</h2>
      <p>Thank you for participating in this study. The experiment consists of three parts:</p>
      <ol>
        <li>An English vocabulary test</li>
        <li>A main task in which you will hear and see words, and decide whether the written word is a real English word</li>
        <li>A brief survey about your background</li>
      </ol>
      <p>Each part will be introduced before it begins.</p>
      <p>Please make sure you are in a quiet environment and can hear audio clearly for the final task.</p>
      <p style=""margin-top: 2em;"">Press any key to begin.</p>
    </div>
  "," ","html-keyboard-response","1","2.1.0","4489","F=YES, J=NO","2qwyrcf7yk","0","31","38","25","","","","","","","","","","","","","","","",""
"","","","preload","2","2.1.0","4800","F=YES, J=NO","2qwyrcf7yk","0","31","38","25","true","false","[]","[]","[]","","","","","","","","","","",""
"565","
    <div style=""max-width: 800px; margin: auto; text-align: left;"">
      <h2>Part 1: Vocabulary Test</h2>
      <p>You will now complete the first part of the study: a short English vocabulary test.</p>
      <p>This test is called <strong>LexTALE</strong> and helps us get a general sense of your English proficiency.</p>
      <p style=""margin-top: 2em;"">Press any key to continue.</p>
    </div>
  "," ","html-keyboard-response","3","2.1.0","5365","F=YES, J=NO","2qwyrcf7yk","0","31","38","25","","","","","","","","","","","","","","","",""
"491","
    <div style=""max-width: 800px; margin: auto; text-align: left;"">
      <h2>LexTALE Vocabulary Test</h2>
      <p>In this test, you will see a series of letter strings—one at a time.</p>
      <p>Your task is to decide whether each string is a real English word.</p>
      <p><strong>Key responses:</strong></p>
      <ul>
        <li><strong>F</strong> = YES (real English word)</li>
        <li><strong>J</strong> = NO (not a real English word)</li>
      </ul>
      <p>There is no time limit, but please try to be accurate.</p>
      <p style=""margin-top: 2em;"">Press any key to begin.</p>
    </div>
  "," ","html-keyboard-response","4","2.1.0","5858","F=YES, J=NO","2qwyrcf7yk","0","31","38","25","","","","","","","","","","","","","","","",""
"1117","
  <p style=""font-size: 40px;"">platery</p>
  <p style=""font-size: 16px;"">F = YES &nbsp;&nbsp;&nbsp; J = NO</p>
","f","html-keyboard-response","5","2.1.0","6976","F=YES, J=NO","2qwyrcf7yk","0","31","38","25","","","","","","lextale","false","true","","","","","","","",""
"46","
  <p style=""font-size: 40px;"">denial</p>
  <p style=""font-size: 16px;"">F = YES &nbsp;&nbsp;&nbsp; J = NO</p>
","j","html-keyboard-response","6","2.1.0","7024","F=YES, J=NO","2qwyrcf7yk","0","31","38","25","","","","","","lextale","true","true","","","","","","","",""
"166","
  <p style=""font-size: 40px;"">marrit</p>
  <p style=""font-size: 16px;"">F = YES &nbsp;&nbsp;&nbsp; J = NO</p>
","f","html-keyboard-response","7","2.1.0","7190","F=YES, J=NO","2qwyrcf7yk","0","31","38","25","","","","","","lextale","false","true","","","","","","","",""
"57","
  <p style=""font-size: 40px;"">bottle</p>
  <p style=""font-size: 16px;"">F = YES &nbsp;&nbsp;&nbsp; J = NO</p>
","j","html-keyboard-response","8","2.1.0","7247","F=YES, J=NO","2qwyrcf7yk","0","31","38","25","","","","","","lextale","true","false","","","","","","","",""
"138","
  <p style=""font-size: 40px;"">birst</p>
  <p style=""font-size: 16px;"">F = YES &nbsp;&nbsp;&nbsp; J = NO</p>
","f","html-keyboard-response","9","2.1.0","7386","F=YES, J=NO","2qwyrcf7yk","0","31","38","25","","","","","","lextale","false","false","","","","","","","",""
"63","
  <p style=""font-size: 40px;"">envy</p>
  <p style=""font-size: 16px;"">F = YES &nbsp;&nbsp;&nbsp; J = NO</p>
","j","html-keyboard-response","10","2.1.0","7450","F=YES, J=NO","2qwyrcf7yk","0","31","38","25","","","","","","lextale","true","false","","","","","","","",""
"118","
  <p style=""font-size: 40px;"">brang</p>
  <p style=""font-size: 16px;"">F = YES &nbsp;&nbsp;&nbsp; J = NO</p>
","f","html-keyboard-response","11","2.1.0","7570","F=YES, J=NO","2qwyrcf7yk","0","31","38","25","","","","","","lextale","false","false","","","","","","","",""
"68","
  <p style=""font-size: 40px;"">huge</p>
  <p style=""font-size: 16px;"">F = YES &nbsp;&nbsp;&nbsp; J = NO</p>
","j","html-keyboard-response","12","2.1.0","7638","F=YES, J=NO","2qwyrcf7yk","0","31","38","25","","","","","","lextale","true","false","","","","","","","",""
"117","
  <p style=""font-size: 40px;"">plove</p>
  <p style=""font-size: 16px;"">F = YES &nbsp;&nbsp;&nbsp; J = NO</p>
","f","html-keyboard-response","13","2.1.0","7757","F=YES, J=NO","2qwyrcf7yk","0","31","38","25","","","","","","lextale","false","false","","","","","","","",""
"97","
  <p style=""font-size: 40px;"">border</p>
  <p style=""font-size: 16px;"">F = YES &nbsp;&nbsp;&nbsp; J = NO</p>
","j","html-keyboard-response","14","2.1.0","7855","F=YES, J=NO","2qwyrcf7yk","0","31","38","25","","","","","","lextale","true","false","","","","","","","",""
"88","
  <p style=""font-size: 40px;"">flimsy</p>
  <p style=""font-size: 16px;"">F = YES &nbsp;&nbsp;&nbsp; J = NO</p>
","f","html-keyboard-response","15","2.1.0","7944","F=YES, J=NO","2qwyrcf7yk","0","31","38","25","","","","","","lextale","true","false","","","","","","","",""
"126","
  <p style=""font-size: 40px;"">drain</p>
  <p style=""font-size: 16px;"">F = YES &nbsp;&nbsp;&nbsp; J = NO</p>
","j","html-keyboard-response","16","2.1.0","8071","F=YES, J=NO","2qwyrcf7yk","0","31","38","25","","","","","","lextale","true","false","","","","","","","",""
"42","
  <p style=""font-size: 40px;"">twindle</p>
  <p style=""font-size: 16px;"">F = YES &nbsp;&nbsp;&nbsp; J = NO</p>
","f","html-keyboard-response","17","2.1.0","8115","F=YES, J=NO","2qwyrcf7yk","0","31","38","25","","","","","","lextale","false","false","","","","","","","",""
"170","
  <p style=""font-size: 40px;"">propose</p>
  <p style=""font-size: 16px;"">F = YES &nbsp;&nbsp;&nbsp; J = NO</p>
","f","html-keyboard-response","18","2.1.0","8286","F=YES, J=NO","2qwyrcf7yk","0","31","38","25","","","","","","lextale","true","false","","","","","","","",""
"0","
  <p style=""font-size: 40px;"">forlay</p>
  <p style=""font-size: 16px;"">F = YES &nbsp;&nbsp;&nbsp; J = NO</p>
","j","html-keyboard-response","19","2.1.0","8288","F=YES, J=NO","2qwyrcf7yk","0","31","38","25","","","","","","lextale","false","false","","","","","","","",""
"162","
  <p style=""font-size: 40px;"">tenant</p>
  <p style=""font-size: 16px;"">F = YES &nbsp;&nbsp;&nbsp; J = NO</p>
","f","html-keyboard-response","20","2.1.0","8451","F=YES, J=NO","2qwyrcf7yk","0","31","38","25","","","","","","lextale","true","false","","","","","","","",""
"67","
  <p style=""font-size: 40px;"">strain</p>
  <p style=""font-size: 16px;"">F = YES &nbsp;&nbsp;&nbsp; J = NO</p>
","j","html-keyboard-response","21","2.1.0","8519","F=YES, J=NO","2qwyrcf7yk","0","31","38","25","","","","","","lextale","true","false","","","","","","","",""
"123","
  <p style=""font-size: 40px;"">holster</p>
  <p style=""font-size: 16px;"">F = YES &nbsp;&nbsp;&nbsp; J = NO</p>
","f","html-keyboard-response","22","2.1.0","8644","F=YES, J=NO","2qwyrcf7yk","0","31","38","25","","","","","","lextale","true","false","","","","","","","",""
"84","
  <p style=""font-size: 40px;"">hinder</p>
  <p style=""font-size: 16px;"">F = YES &nbsp;&nbsp;&nbsp; J = NO</p>
","j","html-keyboard-response","23","2.1.0","8729","F=YES, J=NO","2qwyrcf7yk","0","31","38","25","","","","","","lextale","true","false","","","","","","","",""
"107","
  <p style=""font-size: 40px;"">swindle</p>
  <p style=""font-size: 16px;"">F = YES &nbsp;&nbsp;&nbsp; J = NO</p>
","f","html-keyboard-response","24","2.1.0","8837","F=YES, J=NO","2qwyrcf7yk","0","31","38","25","","","","","","lextale","true","false","","","","","","","",""
"115","
  <p style=""font-size: 40px;"">nuder</p>
  <p style=""font-size: 16px;"">F = YES &nbsp;&nbsp;&nbsp; J = NO</p>
","j","html-keyboard-response","25","2.1.0","8954","F=YES, J=NO","2qwyrcf7yk","0","31","38","25","","","","","","lextale","false","false","","","","","","","",""
"82","
  <p style=""font-size: 40px;"">pillow</p>
  <p style=""font-size: 16px;"">F = YES &nbsp;&nbsp;&nbsp; J = NO</p>
","f","html-keyboard-response","26","2.1.0","9037","F=YES, J=NO","2qwyrcf7yk","0","31","38","25","","","","","","lextale","true","false","","","","","","","",""
"145","
  <p style=""font-size: 40px;"">shumble</p>
  <p style=""font-size: 16px;"">F = YES &nbsp;&nbsp;&nbsp; J = NO</p>
","j","html-keyboard-response","27","2.1.0","9184","F=YES, J=NO","2qwyrcf7yk","0","31","38","25","","","","","","lextale","false","false","","","","","","","",""
"34","
  <p style=""font-size: 40px;"">thirst</p>
  <p style=""font-size: 16px;"">F = YES &nbsp;&nbsp;&nbsp; J = NO</p>
","f","html-keyboard-response","28","2.1.0","9219","F=YES, J=NO","2qwyrcf7yk","0","31","38","25","","","","","","lextale","true","false","","","","","","","",""
"180","
  <p style=""font-size: 40px;"">unsail</p>
  <p style=""font-size: 16px;"">F = YES &nbsp;&nbsp;&nbsp; J = NO</p>
","f","html-keyboard-response","29","2.1.0","9401","F=YES, J=NO","2qwyrcf7yk","0","31","38","25","","","","","","lextale","false","false","","","","","","","",""
"34","
  <p style=""font-size: 40px;"">rifle</p>
  <p style=""font-size: 16px;"">F = YES &nbsp;&nbsp;&nbsp; J = NO</p>
","j","html-keyboard-response","30","2.1.0","9437","F=YES, J=NO","2qwyrcf7yk","0","31","38","25","","","","","","lextale","true","false","","","","","","","",""
"150","
  <p style=""font-size: 40px;"">mush</p>
  <p style=""font-size: 16px;"">F = YES &nbsp;&nbsp;&nbsp; J = NO</p>
","f","html-keyboard-response","31","2.1.0","9588","F=YES, J=NO","2qwyrcf7yk","0","31","38","25","","","","","","lextale","false","false","","","","","","","",""
"85","
  <p style=""font-size: 40px;"">drench</p>
  <p style=""font-size: 16px;"">F = YES &nbsp;&nbsp;&nbsp; J = NO</p>
","j","html-keyboard-response","32","2.1.0","9674","F=YES, J=NO","2qwyrcf7yk","0","31","38","25","","","","","","lextale","true","false","","","","","","","",""
"102","
  <p style=""font-size: 40px;"">snirt</p>
  <p style=""font-size: 16px;"">F = YES &nbsp;&nbsp;&nbsp; J = NO</p>
","f","html-keyboard-response","33","2.1.0","9777","F=YES, J=NO","2qwyrcf7yk","0","31","38","25","","","","","","lextale","false","false","","","","","","","",""
"127","
  <p style=""font-size: 40px;"">bitter</p>
  <p style=""font-size: 16px;"">F = YES &nbsp;&nbsp;&nbsp; J = NO</p>
","j","html-keyboard-response","34","2.1.0","9906","F=YES, J=NO","2qwyrcf7yk","0","31","38","25","","","","","","lextale","true","false","","","","","","","",""
"66","
  <p style=""font-size: 40px;"">pliff</p>
  <p style=""font-size: 16px;"">F = YES &nbsp;&nbsp;&nbsp; J = NO</p>
","f","html-keyboard-response","35","2.1.0","9974","F=YES, J=NO","2qwyrcf7yk","0","31","38","25","","","","","","lextale","false","false","","","","","","","",""
"171","
  <p style=""font-size: 40px;"">tablet</p>
  <p style=""font-size: 16px;"">F = YES &nbsp;&nbsp;&nbsp; J = NO</p>
","j","html-keyboard-response","36","2.1.0","10146","F=YES, J=NO","2qwyrcf7yk","0","31","38","25","","","","","","lextale","true","false","","","","","","","",""
"43","
  <p style=""font-size: 40px;"">glimmer</p>
  <p style=""font-size: 16px;"">F = YES &nbsp;&nbsp;&nbsp; J = NO</p>
","f","html-keyboard-response","37","2.1.0","10190","F=YES, J=NO","2qwyrcf7yk","0","31","38","25","","","","","","lextale","true","false","","","","","","","",""
"193","
  <p style=""font-size: 40px;"">slink</p>
  <p style=""font-size: 16px;"">F = YES &nbsp;&nbsp;&nbsp; J = NO</p>
","f","html-keyboard-response","38","2.1.0","10385","F=YES, J=NO","2qwyrcf7yk","0","31","38","25","","","","","","lextale","true","false","","","","","","","",""
"3","
  <p style=""font-size: 40px;"">clever</p>
  <p style=""font-size: 16px;"">F = YES &nbsp;&nbsp;&nbsp; J = NO</p>
","j","html-keyboard-response","39","2.1.0","10389","F=YES, J=NO","2qwyrcf7yk","0","31","38","25","","","","","","lextale","true","false","","","","","","","",""
"185","
  <p style=""font-size: 40px;"">grum</p>
  <p style=""font-size: 16px;"">F = YES &nbsp;&nbsp;&nbsp; J = NO</p>
","f","html-keyboard-response","40","2.1.0","10576","F=YES, J=NO","2qwyrcf7yk","0","31","38","25","","","","","","lextale","false","false","","","","","","","",""
"90","
  <p style=""font-size: 40px;"">string</p>
  <p style=""font-size: 16px;"">F = YES &nbsp;&nbsp;&nbsp; J = NO</p>
","j","html-keyboard-response","41","2.1.0","10667","F=YES, J=NO","2qwyrcf7yk","0","31","38","25","","","","","","lextale","true","false","","","","","","","",""
"126","
  <p style=""font-size: 40px;"">plim</p>
  <p style=""font-size: 16px;"">F = YES &nbsp;&nbsp;&nbsp; J = NO</p>
","f","html-keyboard-response","42","2.1.0","10796","F=YES, J=NO","2qwyrcf7yk","0","31","38","25","","","","","","lextale","false","false","","","","","","","",""
"100","
  <p style=""font-size: 40px;"">cable</p>
  <p style=""font-size: 16px;"">F = YES &nbsp;&nbsp;&nbsp; J = NO</p>
","j","html-keyboard-response","43","2.1.0","10897","F=YES, J=NO","2qwyrcf7yk","0","31","38","25","","","","","","lextale","true","false","","","","","","","",""
"105","
  <p style=""font-size: 40px;"">shrivel</p>
  <p style=""font-size: 16px;"">F = YES &nbsp;&nbsp;&nbsp; J = NO</p>
","f","html-keyboard-response","44","2.1.0","11003","F=YES, J=NO","2qwyrcf7yk","0","31","38","25","","","","","","lextale","true","false","","","","","","","",""
"125","
  <p style=""font-size: 40px;"">tarnish</p>
  <p style=""font-size: 16px;"">F = YES &nbsp;&nbsp;&nbsp; J = NO</p>
","j","html-keyboard-response","45","2.1.0","11130","F=YES, J=NO","2qwyrcf7yk","0","31","38","25","","","","","","lextale","true","false","","","","","","","",""
"79","
  <p style=""font-size: 40px;"">blim</p>
  <p style=""font-size: 16px;"">F = YES &nbsp;&nbsp;&nbsp; J = NO</p>
","f","html-keyboard-response","46","2.1.0","11211","F=YES, J=NO","2qwyrcf7yk","0","31","38","25","","","","","","lextale","false","false","","","","","","","",""
"169","
  <p style=""font-size: 40px;"">stifle</p>
  <p style=""font-size: 16px;"">F = YES &nbsp;&nbsp;&nbsp; J = NO</p>
","j","html-keyboard-response","47","2.1.0","11382","F=YES, J=NO","2qwyrcf7yk","0","31","38","25","","","","","","lextale","true","false","","","","","","","",""
"23","
  <p style=""font-size: 40px;"">bint</p>
  <p style=""font-size: 16px;"">F = YES &nbsp;&nbsp;&nbsp; J = NO</p>
","f","html-keyboard-response","48","2.1.0","11406","F=YES, J=NO","2qwyrcf7yk","0","31","38","25","","","","","","lextale","false","false","","","","","","","",""
"170","
  <p style=""font-size: 40px;"">purple</p>
  <p style=""font-size: 16px;"">F = YES &nbsp;&nbsp;&nbsp; J = NO</p>
","f","html-keyboard-response","49","2.1.0","11577","F=YES, J=NO","2qwyrcf7yk","0","31","38","25","","","","","","lextale","true","false","","","","","","","",""
"81","
  <p style=""font-size: 40px;"">wriggle</p>
  <p style=""font-size: 16px;"">F = YES &nbsp;&nbsp;&nbsp; J = NO</p>
","j","html-keyboard-response","50","2.1.0","11660","F=YES, J=NO","2qwyrcf7yk","0","31","38","25","","","","","","lextale","true","false","","","","","","","",""
"121","
  <p style=""font-size: 40px;"">mangle</p>
  <p style=""font-size: 16px;"">F = YES &nbsp;&nbsp;&nbsp; J = NO</p>
","f","html-keyboard-response","51","2.1.0","11782","F=YES, J=NO","2qwyrcf7yk","0","31","38","25","","","","","","lextale","true","false","","","","","","","",""
"138","
  <p style=""font-size: 40px;"">shramp</p>
  <p style=""font-size: 16px;"">F = YES &nbsp;&nbsp;&nbsp; J = NO</p>
","j","html-keyboard-response","52","2.1.0","11921","F=YES, J=NO","2qwyrcf7yk","0","31","38","25","","","","","","lextale","false","false","","","","","","","",""
"70","
  <p style=""font-size: 40px;"">flirt</p>
  <p style=""font-size: 16px;"">F = YES &nbsp;&nbsp;&nbsp; J = NO</p>
","f","html-keyboard-response","53","2.1.0","11992","F=YES, J=NO","2qwyrcf7yk","0","31","38","25","","","","","","lextale","true","false","","","","","","","",""
"181","
  <p style=""font-size: 40px;"">frip</p>
  <p style=""font-size: 16px;"">F = YES &nbsp;&nbsp;&nbsp; J = NO</p>
","j","html-keyboard-response","54","2.1.0","12174","F=YES, J=NO","2qwyrcf7yk","0","31","38","25","","","","","","lextale","false","false","","","","","","","",""
"27","
  <p style=""font-size: 40px;"">tangle</p>
  <p style=""font-size: 16px;"">F = YES &nbsp;&nbsp;&nbsp; J = NO</p>
","f","html-keyboard-response","55","2.1.0","12202","F=YES, J=NO","2qwyrcf7yk","0","31","38","25","","","","","","lextale","true","false","","","","","","","",""
"204","
  <p style=""font-size: 40px;"">crumble</p>
  <p style=""font-size: 16px;"">F = YES &nbsp;&nbsp;&nbsp; J = NO</p>
","f","html-keyboard-response","56","2.1.0","12409","F=YES, J=NO","2qwyrcf7yk","0","31","38","25","","","","","","lextale","true","false","","","","","","","",""
"51","
  <p style=""font-size: 40px;"">wrinkle</p>
  <p style=""font-size: 16px;"">F = YES &nbsp;&nbsp;&nbsp; J = NO</p>
","j","html-keyboard-response","57","2.1.0","12461","F=YES, J=NO","2qwyrcf7yk","0","31","38","25","","","","","","lextale","true","false","","","","","","","",""
"150","
  <p style=""font-size: 40px;"">slumb</p>
  <p style=""font-size: 16px;"">F = YES &nbsp;&nbsp;&nbsp; J = NO</p>
","f","html-keyboard-response","58","2.1.0","12612","F=YES, J=NO","2qwyrcf7yk","0","31","38","25","","","","","","lextale","false","false","","","","","","","",""
"89","
  <p style=""font-size: 40px;"">jungle</p>
  <p style=""font-size: 16px;"">F = YES &nbsp;&nbsp;&nbsp; J = NO</p>
","j","html-keyboard-response","59","2.1.0","12703","F=YES, J=NO","2qwyrcf7yk","0","31","38","25","","","","","","lextale","true","false","","","","","","","",""
"107","
  <p style=""font-size: 40px;"">frolick</p>
  <p style=""font-size: 16px;"">F = YES &nbsp;&nbsp;&nbsp; J = NO</p>
","f","html-keyboard-response","60","2.1.0","12811","F=YES, J=NO","2qwyrcf7yk","0","31","38","25","","","","","","lextale","false","false","","","","","","","",""
"127","
      <h2>LexTALE Test Completed</h2>
      <p>Your LexTALE vocabulary score is: <strong>31%</strong></p>
      <p>Press any key to continue.</p>
    ","j","html-keyboard-response","61","2.1.0","12939","F=YES, J=NO","2qwyrcf7yk","0","31","38","25","","","","","","","","","","","","","","","",""
"77","
    <div style=""max-width: 800px; margin: auto; text-align: left;"">
      <h2>Break Time</h2>
      <p>You have completed the first part of the study.</p>
      <p>You may take a short <strong>30-second break</strong> before continuing.</p>
      <p>When you’re ready, press any key to continue to the final task.</p>
    </div>
  ","f","html-keyboard-response","62","2.1.0","13018","F=YES, J=NO","2qwyrcf7yk","0","31","38","25","","","","","","","","","","","","","","","",""
"814","
    <div style=""max-width: 800px; margin: auto; text-align: left;"">
      <h2>Part 2: Lexical Decision Task</h2>
      <p>You will now begin the second part of the study.</p>
      <p>Each trial will follow this sequence:</p>
      <ul>
        <li>A fixation cross (+) appears at the center of the screen.</li>
        <li>You will hear a short beep followed by a spoken word.</li>
        <li>A written word will appear briefly on the screen.</li>
      </ul>
      <p>Your task is to judge whether the <strong>written word</strong> is a real English word.</p>
      <p style=""margin-top: 1em;""><strong>Key responses:</strong></p>
      <ul>
        <li><strong>F</strong> = YES (real English word)</li>
        <li><strong>J</strong> = NO (not a real English word)</li>
      </ul>
      <p>Please respond as quickly and accurately as you can.</p>
      <p style=""margin-top: 2em;"">Press any key to continue.</p>
    </div>
  "," ","html-keyboard-response","63","2.1.0","13833","F=YES, J=NO","2qwyrcf7yk","0","31","38","25","","","","","","","","","","","","","","","",""
"628","
    <div style=""max-width: 800px; margin: auto; text-align: left;"">
      <h2>Before You Begin</h2>
      <p>Make sure your sound is turned on.</p>
      <p>You will hear audio during each trial, but your decision should be based only on the <strong>written word</strong> you see on the screen.</p>
      <p><strong>Reminder:</strong></p>
      <ul>
        <li><strong>F</strong> = YES (real English word)</li>
        <li><strong>J</strong> = NO (not a real English word)</li>
      </ul>
      <p style=""margin-top: 2em;"">Press any key when you are ready to begin.</p>
    </div>
  "," ","html-keyboard-response","64","2.1.0","14463","F=YES, J=NO","2qwyrcf7yk","0","31","38","25","","","","","","","","","","","","","","","",""
"1197","
    <div style=""max-width: 800px; margin: auto; text-align: left;"">
      <h2>Part 2: Practice Trials</h2>
      <p>You will now complete a few <strong>practice trials</strong> to get familiar with the task.</p>
      <p>These trials are <strong>not scored</strong> and are only to help you get used to the format.</p>
      <p style=""margin-top: 2em;"">Press any key to begin.</p>
    </div>
  "," ","html-keyboard-response","65","2.1.0","15662","F=YES, J=NO","2qwyrcf7yk","0","31","38","25","","","","","","","","","","","","","","","",""
"749","<p>Starting practice block 1 of 2. Press any key to continue.</p>"," ","html-keyboard-response","66","2.1.0","16414","F=YES, J=NO","2qwyrcf7yk","0","31","38","25","","","","","","","","","","","","","","","",""
"null","<p style=""font-size: 50px;"">+</p>","null","html-keyboard-response","67","2.1.0","16716","F=YES, J=NO","2qwyrcf7yk","0","31","38","25","","","","","","","","","","","","","","","",""
"null","audio/beep-329314.mp3","null","audio-keyboard-response","68","2.1.0","18393","F=YES, J=NO","2qwyrcf7yk","0","31","38","25","","","","","","","","","","","","","","","",""
"null","audio/flaw.wav","null","audio-keyboard-response","69","2.1.0","19293","F=YES, J=NO","2qwyrcf7yk","0","31","38","25","","","","","","","","","","","","","","","",""
"null","
          <p id=""word"" style=""font-size: 40px;"">thwool</p>
          <p style=""font-size: 16px;"">F = YES &nbsp;&nbsp;&nbsp; J = NO</p>
        ","null","html-keyboard-response","70","2.1.0","20797","F=YES, J=NO","2qwyrcf7yk","0","31","38","25","","","","","","","","","thwool","flaw","pseudoword","pseudoword","j","false","",""
"null","<p style=""font-size: 50px;"">+</p>","null","html-keyboard-response","71","2.1.0","21099","F=YES, J=NO","2qwyrcf7yk","0","31","38","25","","","","","","","","","","","","","","","",""
"null","audio/beep-329314.mp3","null","audio-keyboard-response","72","2.1.0","22794","F=YES, J=NO","2qwyrcf7yk","0","31","38","25","","","","","","","","","","","","","","","",""
"null","audio/sugar1.wav","null","audio-keyboard-response","73","2.1.0","23413","F=YES, J=NO","2qwyrcf7yk","0","31","38","25","","","","","","","","","","","","","","","",""
"null","
          <p id=""word"" style=""font-size: 40px;"">glung</p>
          <p style=""font-size: 16px;"">F = YES &nbsp;&nbsp;&nbsp; J = NO</p>
        ","null","html-keyboard-response","74","2.1.0","24917","F=YES, J=NO","2qwyrcf7yk","0","31","38","25","","","","","","","","","glung","sugar1","pseudoword","pseudoword","j","false","",""
"null","<p style=""font-size: 50px;"">+</p>","null","html-keyboard-response","75","2.1.0","25219","F=YES, J=NO","2qwyrcf7yk","0","31","38","25","","","","","","","","","","","","","","","",""
"null","audio/beep-329314.mp3","null","audio-keyboard-response","76","2.1.0","26913","F=YES, J=NO","2qwyrcf7yk","0","31","38","25","","","","","","","","","","","","","","","",""
"null","audio/menu.wav","null","audio-keyboard-response","77","2.1.0","27793","F=YES, J=NO","2qwyrcf7yk","0","31","38","25","","","","","","","","","","","","","","","",""
"null","
          <p id=""word"" style=""font-size: 40px;"">slice</p>
          <p style=""font-size: 16px;"">F = YES &nbsp;&nbsp;&nbsp; J = NO</p>
        ","null","html-keyboard-response","78","2.1.0","29297","F=YES, J=NO","2qwyrcf7yk","0","31","38","25","","","","","","","","","slice","menu","filler","filler","f","false","",""
"null","<p style=""font-size: 50px;"">+</p>","null","html-keyboard-response","79","2.1.0","29599","F=YES, J=NO","2qwyrcf7yk","0","31","38","25","","","","","","","","","","","","","","","",""
"null","audio/beep-329314.mp3","null","audio-keyboard-response","80","2.1.0","31293","F=YES, J=NO","2qwyrcf7yk","0","31","38","25","","","","","","","","","","","","","","","",""
"null","audio/floor.wav","null","audio-keyboard-response","81","2.1.0","32153","F=YES, J=NO","2qwyrcf7yk","0","31","38","25","","","","","","","","","","","","","","","",""
"null","
          <p id=""word"" style=""font-size: 40px;"">mop</p>
          <p style=""font-size: 16px;"">F = YES &nbsp;&nbsp;&nbsp; J = NO</p>
        ","null","html-keyboard-response","82","2.1.0","33657","F=YES, J=NO","2qwyrcf7yk","0","31","38","25","","","","","","","","","mop","floor","filler","filler","f","false","",""
"null","<p style=""font-size: 50px;"">+</p>","null","html-keyboard-response","83","2.1.0","33959","F=YES, J=NO","2qwyrcf7yk","0","31","38","25","","","","","","","","","","","","","","","",""
"null","audio/beep-329314.mp3","null","audio-keyboard-response","84","2.1.0","35653","F=YES, J=NO","2qwyrcf7yk","0","31","38","25","","","","","","","","","","","","","","","",""
"null","audio/alarm1.wav","null","audio-keyboard-response","85","2.1.0","36393","F=YES, J=NO","2qwyrcf7yk","0","31","38","25","","","","","","","","","","","","","","","",""
"null","
          <p id=""word"" style=""font-size: 40px;"">lock</p>
          <p style=""font-size: 16px;"">F = YES &nbsp;&nbsp;&nbsp; J = NO</p>
        ","null","html-keyboard-response","86","2.1.0","37895","F=YES, J=NO","2qwyrcf7yk","0","31","38","25","","","","","","","","","lock","alarm1","filler","filler","f","false","",""
"null","<p style=""font-size: 50px;"">+</p>","null","html-keyboard-response","87","2.1.0","38197","F=YES, J=NO","2qwyrcf7yk","0","31","38","25","","","","","","","","","","","","","","","",""
"null","audio/beep-329314.mp3","null","audio-keyboard-response","88","2.1.0","39873","F=YES, J=NO","2qwyrcf7yk","0","31","38","25","","","","","","","","","","","","","","","",""
"null","audio/ankle1.wav","null","audio-keyboard-response","89","2.1.0","40553","F=YES, J=NO","2qwyrcf7yk","0","31","38","25","","","","","","","","","","","","","","","",""
"null","
          <p id=""word"" style=""font-size: 40px;"">switm</p>
          <p style=""font-size: 16px;"">F = YES &nbsp;&nbsp;&nbsp; J = NO</p>
        ","null","html-keyboard-response","90","2.1.0","42057","F=YES, J=NO","2qwyrcf7yk","0","31","38","25","","","","","","","","","switm","ankle1","pseudoword","pseudoword","j","false","",""
"null","<p style=""font-size: 50px;"">+</p>","null","html-keyboard-response","91","2.1.0","42359","F=YES, J=NO","2qwyrcf7yk","0","31","38","25","","","","","","","","","","","","","","","",""
"null","audio/beep-329314.mp3","null","audio-keyboard-response","92","2.1.0","44033","F=YES, J=NO","2qwyrcf7yk","0","31","38","25","","","","","","","","","","","","","","","",""
"null","audio/tomato.wav","null","audio-keyboard-response","93","2.1.0","45053","F=YES, J=NO","2qwyrcf7yk","0","31","38","25","","","","","","","","","","","","","","","",""
"null","
          <p id=""word"" style=""font-size: 40px;"">gladies</p>
          <p style=""font-size: 16px;"">F = YES &nbsp;&nbsp;&nbsp; J = NO</p>
        ","null","html-keyboard-response","94","2.1.0","46557","F=YES, J=NO","2qwyrcf7yk","0","31","38","25","","","","","","","","","gladies","tomato","pseudoword","pseudoword","j","false","",""
"null","<p style=""font-size: 50px;"">+</p>","null","html-keyboard-response","95","2.1.0","46858","F=YES, J=NO","2qwyrcf7yk","0","31","38","25","","","","","","","","","","","","","","","",""
"null","audio/beep-329314.mp3","null","audio-keyboard-response","96","2.1.0","48533","F=YES, J=NO","2qwyrcf7yk","0","31","38","25","","","","","","","","","","","","","","","",""
"null","audio/butter1.wav","null","audio-keyboard-response","97","2.1.0","49293","F=YES, J=NO","2qwyrcf7yk","0","31","38","25","","","","","","","","","","","","","","","",""
"null","
          <p id=""word"" style=""font-size: 40px;"">chew</p>
          <p style=""font-size: 16px;"">F = YES &nbsp;&nbsp;&nbsp; J = NO</p>
        ","null","html-keyboard-response","98","2.1.0","50797","F=YES, J=NO","2qwyrcf7yk","0","31","38","25","","","","","","","","","chew","butter1","filler","filler","f","false","",""
"null","<p style=""font-size: 50px;"">+</p>","null","html-keyboard-response","99","2.1.0","51099","F=YES, J=NO","2qwyrcf7yk","0","31","38","25","","","","","","","","","","","","","","","",""
"null","audio/beep-329314.mp3","null","audio-keyboard-response","100","2.1.0","52793","F=YES, J=NO","2qwyrcf7yk","0","31","38","25","","","","","","","","","","","","","","","",""
"null","audio/cancer1.wav","null","audio-keyboard-response","101","2.1.0","53553","F=YES, J=NO","2qwyrcf7yk","0","31","38","25","","","","","","","","","","","","","","","",""
"null","
          <p id=""word"" style=""font-size: 40px;"">draw</p>
          <p style=""font-size: 16px;"">F = YES &nbsp;&nbsp;&nbsp; J = NO</p>
        ","null","html-keyboard-response","102","2.1.0","55057","F=YES, J=NO","2qwyrcf7yk","0","31","38","25","","","","","","","","","draw","cancer1","filler","filler","f","false","",""
"null","<p style=""font-size: 50px;"">+</p>","null","html-keyboard-response","103","2.1.0","55359","F=YES, J=NO","2qwyrcf7yk","0","31","38","25","","","","","","","","","","","","","","","",""
"null","audio/beep-329314.mp3","null","audio-keyboard-response","104","2.1.0","57073","F=YES, J=NO","2qwyrcf7yk","0","31","38","25","","","","","","","","","","","","","","","",""
"null","audio/fence.wav","null","audio-keyboard-response","105","2.1.0","58033","F=YES, J=NO","2qwyrcf7yk","0","31","38","25","","","","","","","","","","","","","","","",""
"null","
          <p id=""word"" style=""font-size: 40px;"">trim</p>
          <p style=""font-size: 16px;"">F = YES &nbsp;&nbsp;&nbsp; J = NO</p>
        ","null","html-keyboard-response","106","2.1.0","59536","F=YES, J=NO","2qwyrcf7yk","0","31","38","25","","","","","","","","","trim","fence","filler","filler","f","false","",""
"null","<p style=""font-size: 50px;"">+</p>","null","html-keyboard-response","107","2.1.0","59838","F=YES, J=NO","2qwyrcf7yk","0","31","38","25","","","","","","","","","","","","","","","",""
"null","audio/beep-329314.mp3","null","audio-keyboard-response","108","2.1.0","61553","F=YES, J=NO","2qwyrcf7yk","0","31","38","25","","","","","","","","","","","","","","","",""
"null","audio/foot1.wav","null","audio-keyboard-response","109","2.1.0","62260","F=YES, J=NO","2qwyrcf7yk","0","31","38","25","","","","","","","","","","","","","","","",""
"null","
          <p id=""word"" style=""font-size: 40px;"">thrutt</p>
          <p style=""font-size: 16px;"">F = YES &nbsp;&nbsp;&nbsp; J = NO</p>
        ","null","html-keyboard-response","110","2.1.0","63763","F=YES, J=NO","2qwyrcf7yk","0","31","38","25","","","","","","","","","thrutt","foot1","pseudoword","pseudoword","j","false","",""
"null","<p style=""font-size: 50px;"">+</p>","null","html-keyboard-response","111","2.1.0","64065","F=YES, J=NO","2qwyrcf7yk","0","31","38","25","","","","","","","","","","","","","","","",""
"null","audio/beep-329314.mp3","null","audio-keyboard-response","112","2.1.0","65753","F=YES, J=NO","2qwyrcf7yk","0","31","38","25","","","","","","","","","","","","","","","",""
"null","audio/beach1.wav","null","audio-keyboard-response","113","2.1.0","66493","F=YES, J=NO","2qwyrcf7yk","0","31","38","25","","","","","","","","","","","","","","","",""
"null","
          <p id=""word"" style=""font-size: 40px;"">drive</p>
          <p style=""font-size: 16px;"">F = YES &nbsp;&nbsp;&nbsp; J = NO</p>
        ","null","html-keyboard-response","114","2.1.0","67996","F=YES, J=NO","2qwyrcf7yk","0","31","38","25","","","","","","","","","drive","beach1","filler","filler","f","false","",""
"2776","<p>Starting practice block 2 of 2. Press any key to continue.</p>"," ","html-keyboard-response","115","2.1.0","70775","F=YES, J=NO","2qwyrcf7yk","0","31","38","25","","","","","","","","","","","","","","","",""
"null","<p style=""font-size: 50px;"">+</p>","null","html-keyboard-response","116","2.1.0","71077","F=YES, J=NO","2qwyrcf7yk","0","31","38","25","","","","","","","","","","","","","","","",""
"null","audio/beep-329314.mp3","null","audio-keyboard-response","117","2.1.0","72773","F=YES, J=NO","2qwyrcf7yk","0","31","38","25","","","","","","","","","","","","","","","",""
"null","audio/bishop1.wav","null","audio-keyboard-response","118","2.1.0","73513","F=YES, J=NO","2qwyrcf7yk","0","31","38","25","","","","","","","","","","","","","","","",""
"null","
          <p id=""word"" style=""font-size: 40px;"">play</p>
          <p style=""font-size: 16px;"">F = YES &nbsp;&nbsp;&nbsp; J = NO</p>
        ","null","html-keyboard-response","119","2.1.0","75016","F=YES, J=NO","2qwyrcf7yk","0","31","38","25","","","","","","","","","play","bishop1","filler","filler","f","false","",""
"null","<p style=""font-size: 50px;"">+</p>","null","html-keyboard-response","120","2.1.0","75319","F=YES, J=NO","2qwyrcf7yk","0","31","38","25","","","","","","","","","","","","","","","",""
"null","audio/beep-329314.mp3","null","audio-keyboard-response","121","2.1.0","76993","F=YES, J=NO","2qwyrcf7yk","0","31","38","25","","","","","","","","","","","","","","","",""
"null","audio/life1.wav","null","audio-keyboard-response","122","2.1.0","77713","F=YES, J=NO","2qwyrcf7yk","0","31","38","25","","","","","","","","","","","","","","","",""
"null","
          <p id=""word"" style=""font-size: 40px;"">flimch</p>
          <p style=""font-size: 16px;"">F = YES &nbsp;&nbsp;&nbsp; J = NO</p>
        ","null","html-keyboard-response","123","2.1.0","79216","F=YES, J=NO","2qwyrcf7yk","0","31","38","25","","","","","","","","","flimch","life1","pseudoword","pseudoword","j","false","",""
"null","<p style=""font-size: 50px;"">+</p>","null","html-keyboard-response","124","2.1.0","79517","F=YES, J=NO","2qwyrcf7yk","0","31","38","25","","","","","","","","","","","","","","","",""
"null","audio/beep-329314.mp3","null","audio-keyboard-response","125","2.1.0","81214","F=YES, J=NO","2qwyrcf7yk","0","31","38","25","","","","","","","","","","","","","","","",""
"null","audio/effort.wav","null","audio-keyboard-response","126","2.1.0","82193","F=YES, J=NO","2qwyrcf7yk","0","31","38","25","","","","","","","","","","","","","","","",""
"null","
          <p id=""word"" style=""font-size: 40px;"">whonk</p>
          <p style=""font-size: 16px;"">F = YES &nbsp;&nbsp;&nbsp; J = NO</p>
        ","null","html-keyboard-response","127","2.1.0","83697","F=YES, J=NO","2qwyrcf7yk","0","31","38","25","","","","","","","","","whonk","effort","pseudoword","pseudoword","j","false","",""
"null","<p style=""font-size: 50px;"">+</p>","null","html-keyboard-response","128","2.1.0","84000","F=YES, J=NO","2qwyrcf7yk","0","31","38","25","","","","","","","","","","","","","","","",""
"null","audio/beep-329314.mp3","null","audio-keyboard-response","129","2.1.0","85693","F=YES, J=NO","2qwyrcf7yk","0","31","38","25","","","","","","","","","","","","","","","",""
"null","audio/bridge.wav","null","audio-keyboard-response","130","2.1.0","86393","F=YES, J=NO","2qwyrcf7yk","0","31","38","25","","","","","","","","","","","","","","","",""
"null","
          <p id=""word"" style=""font-size: 40px;"">crack</p>
          <p style=""font-size: 16px;"">F = YES &nbsp;&nbsp;&nbsp; J = NO</p>
        ","null","html-keyboard-response","131","2.1.0","87897","F=YES, J=NO","2qwyrcf7yk","0","31","38","25","","","","","","","","","crack","bridge","filler","filler","f","false","",""
"null","<p style=""font-size: 50px;"">+</p>","null","html-keyboard-response","132","2.1.0","88199","F=YES, J=NO","2qwyrcf7yk","0","31","38","25","","","","","","","","","","","","","","","",""
"null","audio/beep-329314.mp3","null","audio-keyboard-response","133","2.1.0","89894","F=YES, J=NO","2qwyrcf7yk","0","31","38","25","","","","","","","","","","","","","","","",""
"null","audio/client1.wav","null","audio-keyboard-response","134","2.1.0","90713","F=YES, J=NO","2qwyrcf7yk","0","31","38","25","","","","","","","","","","","","","","","",""
"null","
          <p id=""word"" style=""font-size: 40px;"">droothe</p>
          <p style=""font-size: 16px;"">F = YES &nbsp;&nbsp;&nbsp; J = NO</p>
        ","null","html-keyboard-response","135","2.1.0","92217","F=YES, J=NO","2qwyrcf7yk","0","31","38","25","","","","","","","","","droothe","client1","pseudoword","pseudoword","j","false","",""
"null","<p style=""font-size: 50px;"">+</p>","null","html-keyboard-response","136","2.1.0","92519","F=YES, J=NO","2qwyrcf7yk","0","31","38","25","","","","","","","","","","","","","","","",""
"null","audio/beep-329314.mp3","null","audio-keyboard-response","137","2.1.0","94213","F=YES, J=NO","2qwyrcf7yk","0","31","38","25","","","","","","","","","","","","","","","",""
"null","audio/bottle.wav","null","audio-keyboard-response","138","2.1.0","94833","F=YES, J=NO","2qwyrcf7yk","0","31","38","25","","","","","","","","","","","","","","","",""
"null","
          <p id=""word"" style=""font-size: 40px;"">watch</p>
          <p style=""font-size: 16px;"">F = YES &nbsp;&nbsp;&nbsp; J = NO</p>
        ","null","html-keyboard-response","139","2.1.0","96336","F=YES, J=NO","2qwyrcf7yk","0","31","38","25","","","","","","","","","watch","bottle","filler","filler","f","false","",""
"null","<p style=""font-size: 50px;"">+</p>","null","html-keyboard-response","140","2.1.0","96639","F=YES, J=NO","2qwyrcf7yk","0","31","38","25","","","","","","","","","","","","","","","",""
"null","audio/beep-329314.mp3","null","audio-keyboard-response","141","2.1.0","98353","F=YES, J=NO","2qwyrcf7yk","0","31","38","25","","","","","","","","","","","","","","","",""
"null","audio/alarm1.wav","null","audio-keyboard-response","142","2.1.0","99093","F=YES, J=NO","2qwyrcf7yk","0","31","38","25","","","","","","","","","","","","","","","",""
"null","
          <p id=""word"" style=""font-size: 40px;"">swetp</p>
          <p style=""font-size: 16px;"">F = YES &nbsp;&nbsp;&nbsp; J = NO</p>
        ","null","html-keyboard-response","143","2.1.0","100596","F=YES, J=NO","2qwyrcf7yk","0","31","38","25","","","","","","","","","swetp","alarm1","pseudoword","pseudoword","j","false","",""
"null","<p style=""font-size: 50px;"">+</p>","null","html-keyboard-response","144","2.1.0","100898","F=YES, J=NO","2qwyrcf7yk","0","31","38","25","","","","","","","","","","","","","","","",""
"null","audio/beep-329314.mp3","null","audio-keyboard-response","145","2.1.0","102573","F=YES, J=NO","2qwyrcf7yk","0","31","38","25","","","","","","","","","","","","","","","",""
"null","audio/hotel1.wav","null","audio-keyboard-response","146","2.1.0","103513","F=YES, J=NO","2qwyrcf7yk","0","31","38","25","","","","","","","","","","","","","","","",""
"null","
          <p id=""word"" style=""font-size: 40px;"">flanter</p>
          <p style=""font-size: 16px;"">F = YES &nbsp;&nbsp;&nbsp; J = NO</p>
        ","null","html-keyboard-response","147","2.1.0","105015","F=YES, J=NO","2qwyrcf7yk","0","31","38","25","","","","","","","","","flanter","hotel1","pseudoword","pseudoword","j","false","",""
"null","<p style=""font-size: 50px;"">+</p>","null","html-keyboard-response","148","2.1.0","105317","F=YES, J=NO","2qwyrcf7yk","0","31","38","25","","","","","","","","","","","","","","","",""
"null","audio/beep-329314.mp3","null","audio-keyboard-response","149","2.1.0","107013","F=YES, J=NO","2qwyrcf7yk","0","31","38","25","","","","","","","","","","","","","","","",""
"null","audio/noise1.wav","null","audio-keyboard-response","150","2.1.0","107773","F=YES, J=NO","2qwyrcf7yk","0","31","38","25","","","","","","","","","","","","","","","",""
"null","
          <p id=""word"" style=""font-size: 40px;"">slintered</p>
          <p style=""font-size: 16px;"">F = YES &nbsp;&nbsp;&nbsp; J = NO</p>
        ","null","html-keyboard-response","151","2.1.0","109277","F=YES, J=NO","2qwyrcf7yk","0","31","38","25","","","","","","","","","slintered","noise1","pseudoword","pseudoword","j","false","",""
"null","<p style=""font-size: 50px;"">+</p>","null","html-keyboard-response","152","2.1.0","109579","F=YES, J=NO","2qwyrcf7yk","0","31","38","25","","","","","","","","","","","","","","","",""
"null","audio/beep-329314.mp3","null","audio-keyboard-response","153","2.1.0","111253","F=YES, J=NO","2qwyrcf7yk","0","31","38","25","","","","","","","","","","","","","","","",""
"null","audio/theory1.wav","null","audio-keyboard-response","154","2.1.0","112053","F=YES, J=NO","2qwyrcf7yk","0","31","38","25","","","","","","","","","","","","","","","",""
"null","
          <p id=""word"" style=""font-size: 40px;"">scolve</p>
          <p style=""font-size: 16px;"">F = YES &nbsp;&nbsp;&nbsp; J = NO</p>
        ","null","html-keyboard-response","155","2.1.0","113557","F=YES, J=NO","2qwyrcf7yk","0","31","38","25","","","","","","","","","scolve","theory1","pseudoword","pseudoword","j","false","",""
"null","<p style=""font-size: 50px;"">+</p>","null","html-keyboard-response","156","2.1.0","113860","F=YES, J=NO","2qwyrcf7yk","0","31","38","25","","","","","","","","","","","","","","","",""
"null","audio/beep-329314.mp3","null","audio-keyboard-response","157","2.1.0","115553","F=YES, J=NO","2qwyrcf7yk","0","31","38","25","","","","","","","","","","","","","","","",""
"null","audio/camera1.wav","null","audio-keyboard-response","158","2.1.0","116193","F=YES, J=NO","2qwyrcf7yk","0","31","38","25","","","","","","","","","","","","","","","",""
"null","
          <p id=""word"" style=""font-size: 40px;"">stir</p>
          <p style=""font-size: 16px;"">F = YES &nbsp;&nbsp;&nbsp; J = NO</p>
        ","null","html-keyboard-response","159","2.1.0","117696","F=YES, J=NO","2qwyrcf7yk","0","31","38","25","","","","","","","","","stir","camera1","filler","filler","f","false","",""
"null","<p style=""font-size: 50px;"">+</p>","null","html-keyboard-response","160","2.1.0","117998","F=YES, J=NO","2qwyrcf7yk","0","31","38","25","","","","","","","","","","","","","","","",""
"null","audio/beep-329314.mp3","null","audio-keyboard-response","161","2.1.0","119693","F=YES, J=NO","2qwyrcf7yk","0","31","38","25","","","","","","","","","","","","","","","",""
"null","audio/kettle1.wav","null","audio-keyboard-response","162","2.1.0","120313","F=YES, J=NO","2qwyrcf7yk","0","31","38","25","","","","","","","","","","","","","","","",""
"null","
          <p id=""word"" style=""font-size: 40px;"">wrap</p>
          <p style=""font-size: 16px;"">F = YES &nbsp;&nbsp;&nbsp; J = NO</p>
        ","null","html-keyboard-response","163","2.1.0","121816","F=YES, J=NO","2qwyrcf7yk","0","31","38","25","","","","","","","","","wrap","kettle1","filler","filler","f","false","",""
"11999","
    <div style=""max-width: 800px; margin: auto; text-align: left;"">
      <h2>Part 2: Main Trials</h2>
      <p>Great job on the practice trials!</p>
      <p>You will now begin the <strong>main set of trials</strong>.</p>
      <p>Remember your key assignments:</p>
      <ul>
        <li><strong>F</strong> = YES (real English word)</li>
        <li><strong>J</strong> = NO (not a real English word)</li>
      </ul>
      <p>Try to respond as <strong>quickly and accurately</strong> as possible.</p>
      <p style=""margin-top: 2em;"">Press any key to begin the main trials.</p>
    </div>
  "," ","html-keyboard-response","164","2.1.0","133818","F=YES, J=NO","2qwyrcf7yk","0","31","38","25","","","","","","","","","","","","","","","",""
"1413","<p>Starting main block 1 of 8. Press any key to continue.</p>"," ","html-keyboard-response","165","2.1.0","135237","F=YES, J=NO","2qwyrcf7yk","0","31","38","25","","","","","","","","","","","","","","","",""
"null","<p style=""font-size: 50px;"">+</p>","null","html-keyboard-response","166","2.1.0","135540","F=YES, J=NO","2qwyrcf7yk","0","31","38","25","","","","","","","","","","","","","","","",""
"null","audio/beep-329314.mp3","null","audio-keyboard-response","167","2.1.0","137193","F=YES, J=NO","2qwyrcf7yk","0","31","38","25","","","","","","","","","","","","","","","",""
"null","audio/tax1.wav","null","audio-keyboard-response","168","2.1.0","137933","F=YES, J=NO","2qwyrcf7yk","0","31","38","25","","","","","","","","","","","","","","","",""
"null","
          <p id=""word"" style=""font-size: 40px;"">snate</p>
          <p style=""font-size: 16px;"">F = YES &nbsp;&nbsp;&nbsp; J = NO</p>
        ","null","html-keyboard-response","169","2.1.0","139437","F=YES, J=NO","2qwyrcf7yk","0","31","38","25","","","","","","","","","snate","tax1","pseudoword","pseudoword","j","false","",""
"null","<p style=""font-size: 50px;"">+</p>","null","html-keyboard-response","170","2.1.0","139739","F=YES, J=NO","2qwyrcf7yk","0","31","38","25","","","","","","","","","","","","","","","",""
"null","audio/beep-329314.mp3","null","audio-keyboard-response","171","2.1.0","141413","F=YES, J=NO","2qwyrcf7yk","0","31","38","25","","","","","","","","","","","","","","","",""
"null","audio/golf1.wav","null","audio-keyboard-response","172","2.1.0","142113","F=YES, J=NO","2qwyrcf7yk","0","31","38","25","","","","","","","","","","","","","","","",""
"277","
          <p id=""word"" style=""font-size: 40px;"">drabble</p>
          <p style=""font-size: 16px;"">F = YES &nbsp;&nbsp;&nbsp; J = NO</p>
        ","f","html-keyboard-response","173","2.1.0","142392","F=YES, J=NO","2qwyrcf7yk","0","31","38","25","","","","","","","","","drabble","golf1","pseudoword","pseudoword","j","false","",""
"null","<p style=""font-size: 50px;"">+</p>","null","html-keyboard-response","174","2.1.0","142695","F=YES, J=NO","2qwyrcf7yk","0","31","38","25","","","","","","","","","","","","","","","",""
"null","audio/beep-329314.mp3","null","audio-keyboard-response","175","2.1.0","144393","F=YES, J=NO","2qwyrcf7yk","0","31","38","25","","","","","","","","","","","","","","","",""
"null","audio/desire.wav","null","audio-keyboard-response","176","2.1.0","145153","F=YES, J=NO","2qwyrcf7yk","0","31","38","25","","","","","","","","","","","","","","","",""
"284","
          <p id=""word"" style=""font-size: 40px;"">nophed</p>
          <p style=""font-size: 16px;"">F = YES &nbsp;&nbsp;&nbsp; J = NO</p>
        ","j","html-keyboard-response","177","2.1.0","145439","F=YES, J=NO","2qwyrcf7yk","0","31","38","25","","","","","","","","","nophed","desire","pseudoword","pseudoword","j","true","",""
"null","<p style=""font-size: 50px;"">+</p>","null","html-keyboard-response","178","2.1.0","145742","F=YES, J=NO","2qwyrcf7yk","0","31","38","25","","","","","","","","","","","","","","","",""
"null","audio/beep-329314.mp3","null","audio-keyboard-response","179","2.1.0","147433","F=YES, J=NO","2qwyrcf7yk","0","31","38","25","","","","","","","","","","","","","","","",""
"null","audio/brain.wav","null","audio-keyboard-response","180","2.1.0","148053","F=YES, J=NO","2qwyrcf7yk","0","31","38","25","","","","","","","","","","","","","","","",""
"1012","
          <p id=""word"" style=""font-size: 40px;"">throw</p>
          <p style=""font-size: 16px;"">F = YES &nbsp;&nbsp;&nbsp; J = NO</p>
        ","f","html-keyboard-response","181","2.1.0","149068","F=YES, J=NO","2qwyrcf7yk","0","31","38","25","","","","","","","","","throw","brain","filler","filler","f","true","",""
"null","<p style=""font-size: 50px;"">+</p>","null","html-keyboard-response","182","2.1.0","149371","F=YES, J=NO","2qwyrcf7yk","0","31","38","25","","","","","","","","","","","","","","","",""
"null","audio/beep-329314.mp3","null","audio-keyboard-response","183","2.1.0","151073","F=YES, J=NO","2qwyrcf7yk","0","31","38","25","","","","","","","","","","","","","","","",""
"null","audio/prisoner.wav","null","audio-keyboard-response","184","2.1.0","151733","F=YES, J=NO","2qwyrcf7yk","0","31","38","25","","","","","","","","","","","","","","","",""
"1064","
          <p id=""word"" style=""font-size: 40px;"">egotian</p>
          <p style=""font-size: 16px;"">F = YES &nbsp;&nbsp;&nbsp; J = NO</p>
        ","f","html-keyboard-response","185","2.1.0","152799","F=YES, J=NO","2qwyrcf7yk","0","31","38","25","","","","","","","","","egotian","prisoner","pseudoword","pseudoword","j","false","",""
"null","<p style=""font-size: 50px;"">+</p>","null","html-keyboard-response","186","2.1.0","153101","F=YES, J=NO","2qwyrcf7yk","0","31","38","25","","","","","","","","","","","","","","","",""
"null","audio/beep-329314.mp3","null","audio-keyboard-response","187","2.1.0","154793","F=YES, J=NO","2qwyrcf7yk","0","31","38","25","","","","","","","","","","","","","","","",""
"null","audio/cave1.wav","null","audio-keyboard-response","188","2.1.0","155473","F=YES, J=NO","2qwyrcf7yk","0","31","38","25","","","","","","","","","","","","","","","",""
"645","
          <p id=""word"" style=""font-size: 40px;"">blacket</p>
          <p style=""font-size: 16px;"">F = YES &nbsp;&nbsp;&nbsp; J = NO</p>
        ","j","html-keyboard-response","189","2.1.0","156120","F=YES, J=NO","2qwyrcf7yk","0","31","38","25","","","","","","","","","blacket","cave1","pseudoword","pseudoword","j","true","",""
"null","<p style=""font-size: 50px;"">+</p>","null","html-keyboard-response","190","2.1.0","156423","F=YES, J=NO","2qwyrcf7yk","0","31","38","25","","","","","","","","","","","","","","","",""
"null","audio/beep-329314.mp3","null","audio-keyboard-response","191","2.1.0","158113","F=YES, J=NO","2qwyrcf7yk","0","31","38","25","","","","","","","","","","","","","","","",""
"null","audio/revenue1.wav","null","audio-keyboard-response","192","2.1.0","159113","F=YES, J=NO","2qwyrcf7yk","0","31","38","25","","","","","","","","","","","","","","","",""
"1145","
          <p id=""word"" style=""font-size: 40px;"">grow</p>
          <p style=""font-size: 16px;"">F = YES &nbsp;&nbsp;&nbsp; J = NO</p>
        ","j","html-keyboard-response","193","2.1.0","160260","F=YES, J=NO","2qwyrcf7yk","0","31","38","25","","","","","","","","","grow","revenue1","metaphor","experimental","f","false","",""
"null","<p style=""font-size: 50px;"">+</p>","null","html-keyboard-response","194","2.1.0","160562","F=YES, J=NO","2qwyrcf7yk","0","31","38","25","","","","","","","","","","","","","","","",""
"null","audio/beep-329314.mp3","null","audio-keyboard-response","195","2.1.0","162253","F=YES, J=NO","2qwyrcf7yk","0","31","38","25","","","","","","","","","","","","","","","",""
"null","audio/test1.wav","null","audio-keyboard-response","196","2.1.0","162973","F=YES, J=NO","2qwyrcf7yk","0","31","38","25","","","","","","","","","","","","","","","",""
"678","
          <p id=""word"" style=""font-size: 40px;"">twopch</p>
          <p style=""font-size: 16px;"">F = YES &nbsp;&nbsp;&nbsp; J = NO</p>
        ","f","html-keyboard-response","197","2.1.0","163653","F=YES, J=NO","2qwyrcf7yk","0","31","38","25","","","","","","","","","twopch","test1","pseudoword","pseudoword","j","false","",""
"null","<p style=""font-size: 50px;"">+</p>","null","html-keyboard-response","198","2.1.0","163957","F=YES, J=NO","2qwyrcf7yk","0","31","38","25","","","","","","","","","","","","","","","",""
"null","audio/beep-329314.mp3","null","audio-keyboard-response","199","2.1.0","165653","F=YES, J=NO","2qwyrcf7yk","0","31","38","25","","","","","","","","","","","","","","","",""
"null","audio/weight1.wav","null","audio-keyboard-response","200","2.1.0","166333","F=YES, J=NO","2qwyrcf7yk","0","31","38","25","","","","","","","","","","","","","","","",""
"403","
          <p id=""word"" style=""font-size: 40px;"">crimsh</p>
          <p style=""font-size: 16px;"">F = YES &nbsp;&nbsp;&nbsp; J = NO</p>
        ","j","html-keyboard-response","201","2.1.0","166738","F=YES, J=NO","2qwyrcf7yk","0","31","38","25","","","","","","","","","crimsh","weight1","pseudoword","pseudoword","j","true","",""
"null","<p style=""font-size: 50px;"">+</p>","null","html-keyboard-response","202","2.1.0","167041","F=YES, J=NO","2qwyrcf7yk","0","31","38","25","","","","","","","","","","","","","","","",""
"null","audio/beep-329314.mp3","null","audio-keyboard-response","203","2.1.0","168733","F=YES, J=NO","2qwyrcf7yk","0","31","38","25","","","","","","","","","","","","","","","",""
"null","audio/stain.wav","null","audio-keyboard-response","204","2.1.0","169533","F=YES, J=NO","2qwyrcf7yk","0","31","38","25","","","","","","","","","","","","","","","",""
"305","
          <p id=""word"" style=""font-size: 40px;"">rumpsied</p>
          <p style=""font-size: 16px;"">F = YES &nbsp;&nbsp;&nbsp; J = NO</p>
        ","f","html-keyboard-response","205","2.1.0","169840","F=YES, J=NO","2qwyrcf7yk","0","31","38","25","","","","","","","","","rumpsied","stain","pseudoword","pseudoword","j","false","",""
"null","<p style=""font-size: 50px;"">+</p>","null","html-keyboard-response","206","2.1.0","170143","F=YES, J=NO","2qwyrcf7yk","0","31","38","25","","","","","","","","","","","","","","","",""
"null","audio/beep-329314.mp3","null","audio-keyboard-response","207","2.1.0","171813","F=YES, J=NO","2qwyrcf7yk","0","31","38","25","","","","","","","","","","","","","","","",""
"null","audio/pattern.wav","null","audio-keyboard-response","208","2.1.0","172473","F=YES, J=NO","2qwyrcf7yk","0","31","38","25","","","","","","","","","","","","","","","",""
"350","
          <p id=""word"" style=""font-size: 40px;"">tug</p>
          <p style=""font-size: 16px;"">F = YES &nbsp;&nbsp;&nbsp; J = NO</p>
        ","j","html-keyboard-response","209","2.1.0","172825","F=YES, J=NO","2qwyrcf7yk","0","31","38","25","","","","","","","","","tug","pattern","filler","filler","f","false","",""
"null","<p style=""font-size: 50px;"">+</p>","null","html-keyboard-response","210","2.1.0","173128","F=YES, J=NO","2qwyrcf7yk","0","31","38","25","","","","","","","","","","","","","","","",""
"null","audio/beep-329314.mp3","null","audio-keyboard-response","211","2.1.0","174813","F=YES, J=NO","2qwyrcf7yk","0","31","38","25","","","","","","","","","","","","","","","",""
"null","audio/pride1.wav","null","audio-keyboard-response","212","2.1.0","175693","F=YES, J=NO","2qwyrcf7yk","0","31","38","25","","","","","","","","","","","","","","","",""
"299","
          <p id=""word"" style=""font-size: 40px;"">hurt</p>
          <p style=""font-size: 16px;"">F = YES &nbsp;&nbsp;&nbsp; J = NO</p>
        ","j","html-keyboard-response","213","2.1.0","175994","F=YES, J=NO","2qwyrcf7yk","0","31","38","25","","","","","","","","","hurt","pride1","metaphor","experimental","f","false","",""
"null","<p style=""font-size: 50px;"">+</p>","null","html-keyboard-response","214","2.1.0","176296","F=YES, J=NO","2qwyrcf7yk","0","31","38","25","","","","","","","","","","","","","","","",""
"null","audio/beep-329314.mp3","null","audio-keyboard-response","215","2.1.0","177993","F=YES, J=NO","2qwyrcf7yk","0","31","38","25","","","","","","","","","","","","","","","",""
"null","audio/budget1.wav","null","audio-keyboard-response","216","2.1.0","178753","F=YES, J=NO","2qwyrcf7yk","0","31","38","25","","","","","","","","","","","","","","","",""
"341","
          <p id=""word"" style=""font-size: 40px;"">sulist</p>
          <p style=""font-size: 16px;"">F = YES &nbsp;&nbsp;&nbsp; J = NO</p>
        ","j","html-keyboard-response","217","2.1.0","179095","F=YES, J=NO","2qwyrcf7yk","0","31","38","25","","","","","","","","","sulist","budget1","pseudoword","pseudoword","j","true","",""
"null","<p style=""font-size: 50px;"">+</p>","null","html-keyboard-response","218","2.1.0","179399","F=YES, J=NO","2qwyrcf7yk","0","31","38","25","","","","","","","","","","","","","","","",""
"null","audio/beep-329314.mp3","null","audio-keyboard-response","219","2.1.0","181073","F=YES, J=NO","2qwyrcf7yk","0","31","38","25","","","","","","","","","","","","","","","",""
"null","audio/alarm1.wav","null","audio-keyboard-response","220","2.1.0","181793","F=YES, J=NO","2qwyrcf7yk","0","31","38","25","","","","","","","","","","","","","","","",""
"573","
          <p id=""word"" style=""font-size: 40px;"">save</p>
          <p style=""font-size: 16px;"">F = YES &nbsp;&nbsp;&nbsp; J = NO</p>
        ","f","html-keyboard-response","221","2.1.0","182368","F=YES, J=NO","2qwyrcf7yk","0","31","38","25","","","","","","","","","save","alarm1","unrelated","experimental","f","true","",""
"null","<p style=""font-size: 50px;"">+</p>","null","html-keyboard-response","222","2.1.0","182671","F=YES, J=NO","2qwyrcf7yk","0","31","38","25","","","","","","","","","","","","","","","",""
"null","audio/beep-329314.mp3","null","audio-keyboard-response","223","2.1.0","184373","F=YES, J=NO","2qwyrcf7yk","0","31","38","25","","","","","","","","","","","","","","","",""
"null","audio/holiday1.wav","null","audio-keyboard-response","224","2.1.0","185153","F=YES, J=NO","2qwyrcf7yk","0","31","38","25","","","","","","","","","","","","","","","",""
"502","
          <p id=""word"" style=""font-size: 40px;"">drivets</p>
          <p style=""font-size: 16px;"">F = YES &nbsp;&nbsp;&nbsp; J = NO</p>
        ","j","html-keyboard-response","225","2.1.0","185657","F=YES, J=NO","2qwyrcf7yk","0","31","38","25","","","","","","","","","drivets","holiday1","pseudoword","pseudoword","j","true","",""
"null","<p style=""font-size: 50px;"">+</p>","null","html-keyboard-response","226","2.1.0","185960","F=YES, J=NO","2qwyrcf7yk","0","31","38","25","","","","","","","","","","","","","","","",""
"null","audio/beep-329314.mp3","null","audio-keyboard-response","227","2.1.0","187653","F=YES, J=NO","2qwyrcf7yk","0","31","38","25","","","","","","","","","","","","","","","",""
"null","audio/neck.wav","null","audio-keyboard-response","228","2.1.0","188353","F=YES, J=NO","2qwyrcf7yk","0","31","38","25","","","","","","","","","","","","","","","",""
"495","
          <p id=""word"" style=""font-size: 40px;"">werling</p>
          <p style=""font-size: 16px;"">F = YES &nbsp;&nbsp;&nbsp; J = NO</p>
        ","j","html-keyboard-response","229","2.1.0","188849","F=YES, J=NO","2qwyrcf7yk","0","31","38","25","","","","","","","","","werling","neck","pseudoword","pseudoword","j","true","",""
"1759","<p>Excellent! You have finished block 1 of 8.</p>
                     <p>Feel free to take a 30 second break.</p>
                     <p>Press any key when you're ready to continue.</p>"," ","html-keyboard-response","230","2.1.0","190609","F=YES, J=NO","2qwyrcf7yk","0","31","38","25","","","","","","","","","","","","","","","",""
"1354","<p>Starting main block 2 of 8. Press any key to continue.</p>"," ","html-keyboard-response","231","2.1.0","191964","F=YES, J=NO","2qwyrcf7yk","0","31","38","25","","","","","","","","","","","","","","","",""
"null","<p style=""font-size: 50px;"">+</p>","null","html-keyboard-response","232","2.1.0","192265","F=YES, J=NO","2qwyrcf7yk","0","31","38","25","","","","","","","","","","","","","","","",""
"null","audio/beep-329314.mp3","null","audio-keyboard-response","233","2.1.0","193953","F=YES, J=NO","2qwyrcf7yk","0","31","38","25","","","","","","","","","","","","","","","",""
"null","audio/holiday1.wav","null","audio-keyboard-response","234","2.1.0","194733","F=YES, J=NO","2qwyrcf7yk","0","31","38","25","","","","","","","","","","","","","","","",""
"639","
          <p id=""word"" style=""font-size: 40px;"">spend</p>
          <p style=""font-size: 16px;"">F = YES &nbsp;&nbsp;&nbsp; J = NO</p>
        ","j","html-keyboard-response","235","2.1.0","195374","F=YES, J=NO","2qwyrcf7yk","0","31","38","25","","","","","","","","","spend","holiday1","metaphor","experimental","f","false","",""
"null","<p style=""font-size: 50px;"">+</p>","null","html-keyboard-response","236","2.1.0","195677","F=YES, J=NO","2qwyrcf7yk","0","31","38","25","","","","","","","","","","","","","","","",""
"null","audio/beep-329314.mp3","null","audio-keyboard-response","237","2.1.0","197373","F=YES, J=NO","2qwyrcf7yk","0","31","38","25","","","","","","","","","","","","","","","",""
"null","audio/cash1.wav","null","audio-keyboard-response","238","2.1.0","198073","F=YES, J=NO","2qwyrcf7yk","0","31","38","25","","","","","","","","","","","","","","","",""
"539","
          <p id=""word"" style=""font-size: 40px;"">splear</p>
          <p style=""font-size: 16px;"">F = YES &nbsp;&nbsp;&nbsp; J = NO</p>
        ","j","html-keyboard-response","239","2.1.0","198614","F=YES, J=NO","2qwyrcf7yk","0","31","38","25","","","","","","","","","splear","cash1","pseudoword","pseudoword","j","true","",""
"null","<p style=""font-size: 50px;"">+</p>","null","html-keyboard-response","240","2.1.0","198915","F=YES, J=NO","2qwyrcf7yk","0","31","38","25","","","","","","","","","","","","","","","",""
"null","audio/beep-329314.mp3","null","audio-keyboard-response","241","2.1.0","200593","F=YES, J=NO","2qwyrcf7yk","0","31","38","25","","","","","","","","","","","","","","","",""
"null","audio/meal.wav","null","audio-keyboard-response","242","2.1.0","201213","F=YES, J=NO","2qwyrcf7yk","0","31","38","25","","","","","","","","","","","","","","","",""
"338","
          <p id=""word"" style=""font-size: 40px;"">gallite</p>
          <p style=""font-size: 16px;"">F = YES &nbsp;&nbsp;&nbsp; J = NO</p>
        ","f","html-keyboard-response","243","2.1.0","201553","F=YES, J=NO","2qwyrcf7yk","0","31","38","25","","","","","","","","","gallite","meal","pseudoword","pseudoword","j","false","",""
"null","<p style=""font-size: 50px;"">+</p>","null","html-keyboard-response","244","2.1.0","201856","F=YES, J=NO","2qwyrcf7yk","0","31","38","25","","","","","","","","","","","","","","","",""
"null","audio/beep-329314.mp3","null","audio-keyboard-response","245","2.1.0","203554","F=YES, J=NO","2qwyrcf7yk","0","31","38","25","","","","","","","","","","","","","","","",""
"null","audio/hawk1.wav","null","audio-keyboard-response","246","2.1.0","204313","F=YES, J=NO","2qwyrcf7yk","0","31","38","25","","","","","","","","","","","","","","","",""
"1424","
          <p id=""word"" style=""font-size: 40px;"">ostach</p>
          <p style=""font-size: 16px;"">F = YES &nbsp;&nbsp;&nbsp; J = NO</p>
        ","j","html-keyboard-response","247","2.1.0","205738","F=YES, J=NO","2qwyrcf7yk","0","31","38","25","","","","","","","","","ostach","hawk1","pseudoword","pseudoword","j","true","",""
"null","<p style=""font-size: 50px;"">+</p>","null","html-keyboard-response","248","2.1.0","206039","F=YES, J=NO","2qwyrcf7yk","0","31","38","25","","","","","","","","","","","","","","","",""
"null","audio/beep-329314.mp3","null","audio-keyboard-response","249","2.1.0","207733","F=YES, J=NO","2qwyrcf7yk","0","31","38","25","","","","","","","","","","","","","","","",""
"null","audio/haste1.wav","null","audio-keyboard-response","250","2.1.0","208453","F=YES, J=NO","2qwyrcf7yk","0","31","38","25","","","","","","","","","","","","","","","",""
"571","
          <p id=""word"" style=""font-size: 40px;"">hide</p>
          <p style=""font-size: 16px;"">F = YES &nbsp;&nbsp;&nbsp; J = NO</p>
        ","j","html-keyboard-response","251","2.1.0","209026","F=YES, J=NO","2qwyrcf7yk","0","31","38","25","","","","","","","","","hide","haste1","unrelated","experimental","f","false","",""
"null","<p style=""font-size: 50px;"">+</p>","null","html-keyboard-response","252","2.1.0","209329","F=YES, J=NO","2qwyrcf7yk","0","31","38","25","","","","","","","","","","","","","","","",""
"null","audio/beep-329314.mp3","null","audio-keyboard-response","253","2.1.0","211013","F=YES, J=NO","2qwyrcf7yk","0","31","38","25","","","","","","","","","","","","","","","",""
"null","audio/sugar1.wav","null","audio-keyboard-response","254","2.1.0","211653","F=YES, J=NO","2qwyrcf7yk","0","31","38","25","","","","","","","","","","","","","","","",""
"516","
          <p id=""word"" style=""font-size: 40px;"">approach</p>
          <p style=""font-size: 16px;"">F = YES &nbsp;&nbsp;&nbsp; J = NO</p>
        ","j","html-keyboard-response","255","2.1.0","212171","F=YES, J=NO","2qwyrcf7yk","0","31","38","25","","","","","","","","","approach","sugar1","unrelated","experimental","f","false","",""
"null","<p style=""font-size: 50px;"">+</p>","null","html-keyboard-response","256","2.1.0","212474","F=YES, J=NO","2qwyrcf7yk","0","31","38","25","","","","","","","","","","","","","","","",""
"null","audio/beep-329314.mp3","null","audio-keyboard-response","257","2.1.0","214173","F=YES, J=NO","2qwyrcf7yk","0","31","38","25","","","","","","","","","","","","","","","",""
"null","audio/heart1.wav","null","audio-keyboard-response","258","2.1.0","214973","F=YES, J=NO","2qwyrcf7yk","0","31","38","25","","","","","","","","","","","","","","","",""
"710","
          <p id=""word"" style=""font-size: 40px;"">touch</p>
          <p style=""font-size: 16px;"">F = YES &nbsp;&nbsp;&nbsp; J = NO</p>
        ","f","html-keyboard-response","259","2.1.0","215685","F=YES, J=NO","2qwyrcf7yk","0","31","38","25","","","","","","","","","touch","heart1","metaphor","experimental","f","true","",""
"null","<p style=""font-size: 50px;"">+</p>","null","html-keyboard-response","260","2.1.0","215988","F=YES, J=NO","2qwyrcf7yk","0","31","38","25","","","","","","","","","","","","","","","",""
"null","audio/beep-329314.mp3","null","audio-keyboard-response","261","2.1.0","217673","F=YES, J=NO","2qwyrcf7yk","0","31","38","25","","","","","","","","","","","","","","","",""
"null","audio/plot1.wav","null","audio-keyboard-response","262","2.1.0","218373","F=YES, J=NO","2qwyrcf7yk","0","31","38","25","","","","","","","","","","","","","","","",""
"337","
          <p id=""word"" style=""font-size: 40px;"">glenter</p>
          <p style=""font-size: 16px;"">F = YES &nbsp;&nbsp;&nbsp; J = NO</p>
        ","j","html-keyboard-response","263","2.1.0","218712","F=YES, J=NO","2qwyrcf7yk","0","31","38","25","","","","","","","","","glenter","plot1","pseudoword","pseudoword","j","true","",""
"null","<p style=""font-size: 50px;"">+</p>","null","html-keyboard-response","264","2.1.0","219014","F=YES, J=NO","2qwyrcf7yk","0","31","38","25","","","","","","","","","","","","","","","",""
"null","audio/beep-329314.mp3","null","audio-keyboard-response","265","2.1.0","220713","F=YES, J=NO","2qwyrcf7yk","0","31","38","25","","","","","","","","","","","","","","","",""
"null","audio/pain1.wav","null","audio-keyboard-response","266","2.1.0","221293","F=YES, J=NO","2qwyrcf7yk","0","31","38","25","","","","","","","","","","","","","","","",""
"466","
          <p id=""word"" style=""font-size: 40px;"">tritted</p>
          <p style=""font-size: 16px;"">F = YES &nbsp;&nbsp;&nbsp; J = NO</p>
        ","j","html-keyboard-response","267","2.1.0","221761","F=YES, J=NO","2qwyrcf7yk","0","31","38","25","","","","","","","","","tritted","pain1","pseudoword","pseudoword","j","true","",""
"null","<p style=""font-size: 50px;"">+</p>","null","html-keyboard-response","268","2.1.0","222064","F=YES, J=NO","2qwyrcf7yk","0","31","38","25","","","","","","","","","","","","","","","",""
"null","audio/beep-329314.mp3","null","audio-keyboard-response","269","2.1.0","223753","F=YES, J=NO","2qwyrcf7yk","0","31","38","25","","","","","","","","","","","","","","","",""
"null","audio/topic.wav","null","audio-keyboard-response","270","2.1.0","224493","F=YES, J=NO","2qwyrcf7yk","0","31","38","25","","","","","","","","","","","","","","","",""
"361","
          <p id=""word"" style=""font-size: 40px;"">infortuitist</p>
          <p style=""font-size: 16px;"">F = YES &nbsp;&nbsp;&nbsp; J = NO</p>
        ","j","html-keyboard-response","271","2.1.0","224857","F=YES, J=NO","2qwyrcf7yk","0","31","38","25","","","","","","","","","infortuitist","topic","pseudoword","pseudoword","j","true","",""
"null","<p style=""font-size: 50px;"">+</p>","null","html-keyboard-response","272","2.1.0","225159","F=YES, J=NO","2qwyrcf7yk","0","31","38","25","","","","","","","","","","","","","","","",""
"null","audio/beep-329314.mp3","null","audio-keyboard-response","273","2.1.0","226833","F=YES, J=NO","2qwyrcf7yk","0","31","38","25","","","","","","","","","","","","","","","",""
"null","audio/trout1.wav","null","audio-keyboard-response","274","2.1.0","227573","F=YES, J=NO","2qwyrcf7yk","0","31","38","25","","","","","","","","","","","","","","","",""
"511","
          <p id=""word"" style=""font-size: 40px;"">catch</p>
          <p style=""font-size: 16px;"">F = YES &nbsp;&nbsp;&nbsp; J = NO</p>
        ","f","html-keyboard-response","275","2.1.0","228086","F=YES, J=NO","2qwyrcf7yk","0","31","38","25","","","","","","","","","catch","trout1","literal","experimental","f","true","",""
"null","<p style=""font-size: 50px;"">+</p>","null","html-keyboard-response","276","2.1.0","228389","F=YES, J=NO","2qwyrcf7yk","0","31","38","25","","","","","","","","","","","","","","","",""
"null","audio/beep-329314.mp3","null","audio-keyboard-response","277","2.1.0","230053","F=YES, J=NO","2qwyrcf7yk","0","31","38","25","","","","","","","","","","","","","","","",""
"null","audio/cinema1.wav","null","audio-keyboard-response","278","2.1.0","230813","F=YES, J=NO","2qwyrcf7yk","0","31","38","25","","","","","","","","","","","","","","","",""
"422","
          <p id=""word"" style=""font-size: 40px;"">murple</p>
          <p style=""font-size: 16px;"">F = YES &nbsp;&nbsp;&nbsp; J = NO</p>
        ","j","html-keyboard-response","279","2.1.0","231237","F=YES, J=NO","2qwyrcf7yk","0","31","38","25","","","","","","","","","murple","cinema1","pseudoword","pseudoword","j","true","",""
"null","<p style=""font-size: 50px;"">+</p>","null","html-keyboard-response","280","2.1.0","231540","F=YES, J=NO","2qwyrcf7yk","0","31","38","25","","","","","","","","","","","","","","","",""
"null","audio/beep-329314.mp3","null","audio-keyboard-response","281","2.1.0","233213","F=YES, J=NO","2qwyrcf7yk","0","31","38","25","","","","","","","","","","","","","","","",""
"null","audio/life1.wav","null","audio-keyboard-response","282","2.1.0","233914","F=YES, J=NO","2qwyrcf7yk","0","31","38","25","","","","","","","","","","","","","","","",""
"884","
          <p id=""word"" style=""font-size: 40px;"">give</p>
          <p style=""font-size: 16px;"">F = YES &nbsp;&nbsp;&nbsp; J = NO</p>
        ","j","html-keyboard-response","283","2.1.0","234800","F=YES, J=NO","2qwyrcf7yk","0","31","38","25","","","","","","","","","give","life1","metaphor","experimental","f","false","",""
"null","<p style=""font-size: 50px;"">+</p>","null","html-keyboard-response","284","2.1.0","235102","F=YES, J=NO","2qwyrcf7yk","0","31","38","25","","","","","","","","","","","","","","","",""
"null","audio/beep-329314.mp3","null","audio-keyboard-response","285","2.1.0","236774","F=YES, J=NO","2qwyrcf7yk","0","31","38","25","","","","","","","","","","","","","","","",""
"null","audio/table1.wav","null","audio-keyboard-response","286","2.1.0","237413","F=YES, J=NO","2qwyrcf7yk","0","31","38","25","","","","","","","","","","","","","","","",""
"1019","
          <p id=""word"" style=""font-size: 40px;"">stimb</p>
          <p style=""font-size: 16px;"">F = YES &nbsp;&nbsp;&nbsp; J = NO</p>
        ","j","html-keyboard-response","287","2.1.0","238434","F=YES, J=NO","2qwyrcf7yk","0","31","38","25","","","","","","","","","stimb","table1","pseudoword","pseudoword","j","true","",""
"null","<p style=""font-size: 50px;"">+</p>","null","html-keyboard-response","288","2.1.0","238736","F=YES, J=NO","2qwyrcf7yk","0","31","38","25","","","","","","","","","","","","","","","",""
"null","audio/beep-329314.mp3","null","audio-keyboard-response","289","2.1.0","240434","F=YES, J=NO","2qwyrcf7yk","0","31","38","25","","","","","","","","","","","","","","","",""
"null","audio/voice.wav","null","audio-keyboard-response","290","2.1.0","241213","F=YES, J=NO","2qwyrcf7yk","0","31","38","25","","","","","","","","","","","","","","","",""
"1424","
          <p id=""word"" style=""font-size: 40px;"">flood</p>
          <p style=""font-size: 16px;"">F = YES &nbsp;&nbsp;&nbsp; J = NO</p>
        ","j","html-keyboard-response","291","2.1.0","242639","F=YES, J=NO","2qwyrcf7yk","0","31","38","25","","","","","","","","","flood","voice","unrelated","experimental","f","false","",""
"null","<p style=""font-size: 50px;"">+</p>","null","html-keyboard-response","292","2.1.0","242941","F=YES, J=NO","2qwyrcf7yk","0","31","38","25","","","","","","","","","","","","","","","",""
"null","audio/beep-329314.mp3","null","audio-keyboard-response","293","2.1.0","244633","F=YES, J=NO","2qwyrcf7yk","0","31","38","25","","","","","","","","","","","","","","","",""
"null","audio/novel.wav","null","audio-keyboard-response","294","2.1.0","245293","F=YES, J=NO","2qwyrcf7yk","0","31","38","25","","","","","","","","","","","","","","","",""
"null","
          <p id=""word"" style=""font-size: 40px;"">type</p>
          <p style=""font-size: 16px;"">F = YES &nbsp;&nbsp;&nbsp; J = NO</p>
        ","null","html-keyboard-response","295","2.1.0","246796","F=YES, J=NO","2qwyrcf7yk","0","31","38","25","","","","","","","","","type","novel","filler","filler","f","false","",""
"923","<p>Excellent! You have finished block 2 of 8.</p>
                     <p>Feel free to take a 30 second break.</p>
                     <p>Press any key when you're ready to continue.</p>"," ","html-keyboard-response","296","2.1.0","247721","F=YES, J=NO","2qwyrcf7yk","0","31","38","25","","","","","","","","","","","","","","","",""
"2814","<p>Starting main block 3 of 8. Press any key to continue.</p>"," ","html-keyboard-response","297","2.1.0","250536","F=YES, J=NO","2qwyrcf7yk","0","31","38","25","","","","","","","","","","","","","","","",""
"null","<p style=""font-size: 50px;"">+</p>","null","html-keyboard-response","298","2.1.0","250839","F=YES, J=NO","2qwyrcf7yk","0","31","38","25","","","","","","","","","","","","","","","",""
"null","audio/beep-329314.mp3","null","audio-keyboard-response","299","2.1.0","252533","F=YES, J=NO","2qwyrcf7yk","0","31","38","25","","","","","","","","","","","","","","","",""
"null","audio/burden.wav","null","audio-keyboard-response","300","2.1.0","253193","F=YES, J=NO","2qwyrcf7yk","0","31","38","25","","","","","","","","","","","","","","","",""
"1108","
          <p id=""word"" style=""font-size: 40px;"">whotth</p>
          <p style=""font-size: 16px;"">F = YES &nbsp;&nbsp;&nbsp; J = NO</p>
        ","f","html-keyboard-response","301","2.1.0","254303","F=YES, J=NO","2qwyrcf7yk","0","31","38","25","","","","","","","","","whotth","burden","pseudoword","pseudoword","j","false","",""
"null","<p style=""font-size: 50px;"">+</p>","null","html-keyboard-response","302","2.1.0","254605","F=YES, J=NO","2qwyrcf7yk","0","31","38","25","","","","","","","","","","","","","","","",""
"null","audio/beep-329314.mp3","null","audio-keyboard-response","303","2.1.0","256273","F=YES, J=NO","2qwyrcf7yk","0","31","38","25","","","","","","","","","","","","","","","",""
"null","audio/breath.wav","null","audio-keyboard-response","304","2.1.0","256973","F=YES, J=NO","2qwyrcf7yk","0","31","38","25","","","","","","","","","","","","","","","",""
"501","
          <p id=""word"" style=""font-size: 40px;"">pack</p>
          <p style=""font-size: 16px;"">F = YES &nbsp;&nbsp;&nbsp; J = NO</p>
        ","j","html-keyboard-response","305","2.1.0","257475","F=YES, J=NO","2qwyrcf7yk","0","31","38","25","","","","","","","","","pack","breath","filler","filler","f","false","",""
"null","<p style=""font-size: 50px;"">+</p>","null","html-keyboard-response","306","2.1.0","257779","F=YES, J=NO","2qwyrcf7yk","0","31","38","25","","","","","","","","","","","","","","","",""
"null","audio/beep-329314.mp3","null","audio-keyboard-response","307","2.1.0","259453","F=YES, J=NO","2qwyrcf7yk","0","31","38","25","","","","","","","","","","","","","","","",""
"null","audio/skin1.wav","null","audio-keyboard-response","308","2.1.0","260173","F=YES, J=NO","2qwyrcf7yk","0","31","38","25","","","","","","","","","","","","","","","",""
"1137","
          <p id=""word"" style=""font-size: 40px;"">expose</p>
          <p style=""font-size: 16px;"">F = YES &nbsp;&nbsp;&nbsp; J = NO</p>
        ","j","html-keyboard-response","309","2.1.0","261313","F=YES, J=NO","2qwyrcf7yk","0","31","38","25","","","","","","","","","expose","skin1","literal","experimental","f","false","",""
"null","<p style=""font-size: 50px;"">+</p>","null","html-keyboard-response","310","2.1.0","261615","F=YES, J=NO","2qwyrcf7yk","0","31","38","25","","","","","","","","","","","","","","","",""
"null","audio/beep-329314.mp3","null","audio-keyboard-response","311","2.1.0","263293","F=YES, J=NO","2qwyrcf7yk","0","31","38","25","","","","","","","","","","","","","","","",""
"null","audio/trust.wav","null","audio-keyboard-response","312","2.1.0","264053","F=YES, J=NO","2qwyrcf7yk","0","31","38","25","","","","","","","","","","","","","","","",""
"354","
          <p id=""word"" style=""font-size: 40px;"">swint</p>
          <p style=""font-size: 16px;"">F = YES &nbsp;&nbsp;&nbsp; J = NO</p>
        ","j","html-keyboard-response","313","2.1.0","264409","F=YES, J=NO","2qwyrcf7yk","0","31","38","25","","","","","","","","","swint","trust","pseudoword","pseudoword","j","true","",""
"null","<p style=""font-size: 50px;"">+</p>","null","html-keyboard-response","314","2.1.0","264711","F=YES, J=NO","2qwyrcf7yk","0","31","38","25","","","","","","","","","","","","","","","",""
"null","audio/beep-329314.mp3","null","audio-keyboard-response","315","2.1.0","266433","F=YES, J=NO","2qwyrcf7yk","0","31","38","25","","","","","","","","","","","","","","","",""
"null","audio/smirk1.wav","null","audio-keyboard-response","316","2.1.0","267313","F=YES, J=NO","2qwyrcf7yk","0","31","38","25","","","","","","","","","","","","","","","",""
"null","
          <p id=""word"" style=""font-size: 40px;"">snopt</p>
          <p style=""font-size: 16px;"">F = YES &nbsp;&nbsp;&nbsp; J = NO</p>
        ","null","html-keyboard-response","317","2.1.0","268816","F=YES, J=NO","2qwyrcf7yk","0","31","38","25","","","","","","","","","snopt","smirk1","pseudoword","pseudoword","j","false","",""
"null","<p style=""font-size: 50px;"">+</p>","null","html-keyboard-response","318","2.1.0","269119","F=YES, J=NO","2qwyrcf7yk","0","31","38","25","","","","","","","","","","","","","","","",""
"null","audio/beep-329314.mp3","null","audio-keyboard-response","319","2.1.0","270813","F=YES, J=NO","2qwyrcf7yk","0","31","38","25","","","","","","","","","","","","","","","",""
"null","audio/dome.wav","null","audio-keyboard-response","320","2.1.0","271413","F=YES, J=NO","2qwyrcf7yk","0","31","38","25","","","","","","","","","","","","","","","",""
"525","
          <p id=""word"" style=""font-size: 40px;"">feed</p>
          <p style=""font-size: 16px;"">F = YES &nbsp;&nbsp;&nbsp; J = NO</p>
        ","j","html-keyboard-response","321","2.1.0","271940","F=YES, J=NO","2qwyrcf7yk","0","31","38","25","","","","","","","","","feed","dome","unrelated","experimental","f","false","",""
"null","<p style=""font-size: 50px;"">+</p>","null","html-keyboard-response","322","2.1.0","272242","F=YES, J=NO","2qwyrcf7yk","0","31","38","25","","","","","","","","","","","","","","","",""
"null","audio/beep-329314.mp3","null","audio-keyboard-response","323","2.1.0","273933","F=YES, J=NO","2qwyrcf7yk","0","31","38","25","","","","","","","","","","","","","","","",""
"null","audio/haste1.wav","null","audio-keyboard-response","324","2.1.0","274633","F=YES, J=NO","2qwyrcf7yk","0","31","38","25","","","","","","","","","","","","","","","",""
"1456","
          <p id=""word"" style=""font-size: 40px;"">coraconate</p>
          <p style=""font-size: 16px;"">F = YES &nbsp;&nbsp;&nbsp; J = NO</p>
        ","f","html-keyboard-response","325","2.1.0","276091","F=YES, J=NO","2qwyrcf7yk","0","31","38","25","","","","","","","","","coraconate","haste1","pseudoword","pseudoword","j","false","",""
"null","<p style=""font-size: 50px;"">+</p>","null","html-keyboard-response","326","2.1.0","276393","F=YES, J=NO","2qwyrcf7yk","0","31","38","25","","","","","","","","","","","","","","","",""
"null","audio/beep-329314.mp3","null","audio-keyboard-response","327","2.1.0","278093","F=YES, J=NO","2qwyrcf7yk","0","31","38","25","","","","","","","","","","","","","","","",""
"null","audio/pig.wav","null","audio-keyboard-response","328","2.1.0","278653","F=YES, J=NO","2qwyrcf7yk","0","31","38","25","","","","","","","","","","","","","","","",""
"823","
          <p id=""word"" style=""font-size: 40px;"">tirlike</p>
          <p style=""font-size: 16px;"">F = YES &nbsp;&nbsp;&nbsp; J = NO</p>
        ","f","html-keyboard-response","329","2.1.0","279478","F=YES, J=NO","2qwyrcf7yk","0","31","38","25","","","","","","","","","tirlike","pig","pseudoword","pseudoword","j","false","",""
"null","<p style=""font-size: 50px;"">+</p>","null","html-keyboard-response","330","2.1.0","279781","F=YES, J=NO","2qwyrcf7yk","0","31","38","25","","","","","","","","","","","","","","","",""
"null","audio/beep-329314.mp3","null","audio-keyboard-response","331","2.1.0","281473","F=YES, J=NO","2qwyrcf7yk","0","31","38","25","","","","","","","","","","","","","","","",""
"null","audio/relief.wav","null","audio-keyboard-response","332","2.1.0","282273","F=YES, J=NO","2qwyrcf7yk","0","31","38","25","","","","","","","","","","","","","","","",""
"960","
          <p id=""word"" style=""font-size: 40px;"">grigg</p>
          <p style=""font-size: 16px;"">F = YES &nbsp;&nbsp;&nbsp; J = NO</p>
        ","j","html-keyboard-response","333","2.1.0","283235","F=YES, J=NO","2qwyrcf7yk","0","31","38","25","","","","","","","","","grigg","relief","pseudoword","pseudoword","j","true","",""
"null","<p style=""font-size: 50px;"">+</p>","null","html-keyboard-response","334","2.1.0","283537","F=YES, J=NO","2qwyrcf7yk","0","31","38","25","","","","","","","","","","","","","","","",""
"null","audio/beep-329314.mp3","null","audio-keyboard-response","335","2.1.0","285233","F=YES, J=NO","2qwyrcf7yk","0","31","38","25","","","","","","","","","","","","","","","",""
"null","audio/baby.wav","null","audio-keyboard-response","336","2.1.0","285853","F=YES, J=NO","2qwyrcf7yk","0","31","38","25","","","","","","","","","","","","","","","",""
"1025","
          <p id=""word"" style=""font-size: 40px;"">lift</p>
          <p style=""font-size: 16px;"">F = YES &nbsp;&nbsp;&nbsp; J = NO</p>
        ","j","html-keyboard-response","337","2.1.0","286880","F=YES, J=NO","2qwyrcf7yk","0","31","38","25","","","","","","","","","lift","baby","filler","filler","f","false","",""
"null","<p style=""font-size: 50px;"">+</p>","null","html-keyboard-response","338","2.1.0","287182","F=YES, J=NO","2qwyrcf7yk","0","31","38","25","","","","","","","","","","","","","","","",""
"null","audio/beep-329314.mp3","null","audio-keyboard-response","339","2.1.0","288873","F=YES, J=NO","2qwyrcf7yk","0","31","38","25","","","","","","","","","","","","","","","",""
"null","audio/strength.wav","null","audio-keyboard-response","340","2.1.0","289753","F=YES, J=NO","2qwyrcf7yk","0","31","38","25","","","","","","","","","","","","","","","",""
"1314","
          <p id=""word"" style=""font-size: 40px;"">possess</p>
          <p style=""font-size: 16px;"">F = YES &nbsp;&nbsp;&nbsp; J = NO</p>
        ","j","html-keyboard-response","341","2.1.0","291069","F=YES, J=NO","2qwyrcf7yk","0","31","38","25","","","","","","","","","possess","strength","metaphor","experimental","f","false","",""
"null","<p style=""font-size: 50px;"">+</p>","null","html-keyboard-response","342","2.1.0","291371","F=YES, J=NO","2qwyrcf7yk","0","31","38","25","","","","","","","","","","","","","","","",""
"null","audio/beep-329314.mp3","null","audio-keyboard-response","343","2.1.0","293053","F=YES, J=NO","2qwyrcf7yk","0","31","38","25","","","","","","","","","","","","","","","",""
"null","audio/gossip1.wav","null","audio-keyboard-response","344","2.1.0","293813","F=YES, J=NO","2qwyrcf7yk","0","31","38","25","","","","","","","","","","","","","","","",""
"812","
          <p id=""word"" style=""font-size: 40px;"">camerish</p>
          <p style=""font-size: 16px;"">F = YES &nbsp;&nbsp;&nbsp; J = NO</p>
        ","f","html-keyboard-response","345","2.1.0","294626","F=YES, J=NO","2qwyrcf7yk","0","31","38","25","","","","","","","","","camerish","gossip1","pseudoword","pseudoword","j","false","",""
"null","<p style=""font-size: 50px;"">+</p>","null","html-keyboard-response","346","2.1.0","294928","F=YES, J=NO","2qwyrcf7yk","0","31","38","25","","","","","","","","","","","","","","","",""
"null","audio/beep-329314.mp3","null","audio-keyboard-response","347","2.1.0","296593","F=YES, J=NO","2qwyrcf7yk","0","31","38","25","","","","","","","","","","","","","","","",""
"null","audio/mind.wav","null","audio-keyboard-response","348","2.1.0","297313","F=YES, J=NO","2qwyrcf7yk","0","31","38","25","","","","","","","","","","","","","","","",""
"750","
          <p id=""word"" style=""font-size: 40px;"">crainate</p>
          <p style=""font-size: 16px;"">F = YES &nbsp;&nbsp;&nbsp; J = NO</p>
        ","j","html-keyboard-response","349","2.1.0","298065","F=YES, J=NO","2qwyrcf7yk","0","31","38","25","","","","","","","","","crainate","mind","pseudoword","pseudoword","j","true","",""
"null","<p style=""font-size: 50px;"">+</p>","null","html-keyboard-response","350","2.1.0","298367","F=YES, J=NO","2qwyrcf7yk","0","31","38","25","","","","","","","","","","","","","","","",""
"null","audio/beep-329314.mp3","null","audio-keyboard-response","351","2.1.0","300053","F=YES, J=NO","2qwyrcf7yk","0","31","38","25","","","","","","","","","","","","","","","",""
"null","audio/story.wav","null","audio-keyboard-response","352","2.1.0","300894","F=YES, J=NO","2qwyrcf7yk","0","31","38","25","","","","","","","","","","","","","","","",""
"625","
          <p id=""word"" style=""font-size: 40px;"">cover</p>
          <p style=""font-size: 16px;"">F = YES &nbsp;&nbsp;&nbsp; J = NO</p>
        ","j","html-keyboard-response","353","2.1.0","301521","F=YES, J=NO","2qwyrcf7yk","0","31","38","25","","","","","","","","","cover","story","metaphor","experimental","f","false","",""
"null","<p style=""font-size: 50px;"">+</p>","null","html-keyboard-response","354","2.1.0","301823","F=YES, J=NO","2qwyrcf7yk","0","31","38","25","","","","","","","","","","","","","","","",""
"null","audio/beep-329314.mp3","null","audio-keyboard-response","355","2.1.0","303514","F=YES, J=NO","2qwyrcf7yk","0","31","38","25","","","","","","","","","","","","","","","",""
"null","audio/roof1.wav","null","audio-keyboard-response","356","2.1.0","304213","F=YES, J=NO","2qwyrcf7yk","0","31","38","25","","","","","","","","","","","","","","","",""
"null","
          <p id=""word"" style=""font-size: 40px;"">wronb</p>
          <p style=""font-size: 16px;"">F = YES &nbsp;&nbsp;&nbsp; J = NO</p>
        ","null","html-keyboard-response","357","2.1.0","305717","F=YES, J=NO","2qwyrcf7yk","0","31","38","25","","","","","","","","","wronb","roof1","pseudoword","pseudoword","j","false","",""
"null","<p style=""font-size: 50px;"">+</p>","null","html-keyboard-response","358","2.1.0","306019","F=YES, J=NO","2qwyrcf7yk","0","31","38","25","","","","","","","","","","","","","","","",""
"null","audio/beep-329314.mp3","null","audio-keyboard-response","359","2.1.0","307713","F=YES, J=NO","2qwyrcf7yk","0","31","38","25","","","","","","","","","","","","","","","",""
"null","audio/meal.wav","null","audio-keyboard-response","360","2.1.0","308313","F=YES, J=NO","2qwyrcf7yk","0","31","38","25","","","","","","","","","","","","","","","",""
"null","
          <p id=""word"" style=""font-size: 40px;"">share</p>
          <p style=""font-size: 16px;"">F = YES &nbsp;&nbsp;&nbsp; J = NO</p>
        ","null","html-keyboard-response","361","2.1.0","309816","F=YES, J=NO","2qwyrcf7yk","0","31","38","25","","","","","","","","","share","meal","literal","experimental","f","false","",""
"653","<p>Excellent! You have finished block 3 of 8.</p>
                     <p>Feel free to take a 30 second break.</p>
                     <p>Press any key when you're ready to continue.</p>","f","html-keyboard-response","362","2.1.0","310470","F=YES, J=NO","2qwyrcf7yk","0","31","38","25","","","","","","","","","","","","","","","",""
"974","<p>Starting main block 4 of 8. Press any key to continue.</p>","f","html-keyboard-response","363","2.1.0","311446","F=YES, J=NO","2qwyrcf7yk","0","31","38","25","","","","","","","","","","","","","","","",""
"null","<p style=""font-size: 50px;"">+</p>","null","html-keyboard-response","364","2.1.0","311748","F=YES, J=NO","2qwyrcf7yk","0","31","38","25","","","","","","","","","","","","","","","",""
"null","audio/beep-329314.mp3","null","audio-keyboard-response","365","2.1.0","313433","F=YES, J=NO","2qwyrcf7yk","0","31","38","25","","","","","","","","","","","","","","","",""
"null","audio/sand.wav","null","audio-keyboard-response","366","2.1.0","314233","F=YES, J=NO","2qwyrcf7yk","0","31","38","25","","","","","","","","","","","","","","","",""
"326","
          <p id=""word"" style=""font-size: 40px;"">proted</p>
          <p style=""font-size: 16px;"">F = YES &nbsp;&nbsp;&nbsp; J = NO</p>
        ","f","html-keyboard-response","367","2.1.0","314562","F=YES, J=NO","2qwyrcf7yk","0","31","38","25","","","","","","","","","proted","sand","pseudoword","pseudoword","j","false","",""
"null","<p style=""font-size: 50px;"">+</p>","null","html-keyboard-response","368","2.1.0","314865","F=YES, J=NO","2qwyrcf7yk","0","31","38","25","","","","","","","","","","","","","","","",""
"null","audio/beep-329314.mp3","null","audio-keyboard-response","369","2.1.0","316553","F=YES, J=NO","2qwyrcf7yk","0","31","38","25","","","","","","","","","","","","","","","",""
"null","audio/account1.wav","null","audio-keyboard-response","370","2.1.0","317393","F=YES, J=NO","2qwyrcf7yk","0","31","38","25","","","","","","","","","","","","","","","",""
"201","
          <p id=""word"" style=""font-size: 40px;"">paint</p>
          <p style=""font-size: 16px;"">F = YES &nbsp;&nbsp;&nbsp; J = NO</p>
        ","j","html-keyboard-response","371","2.1.0","317595","F=YES, J=NO","2qwyrcf7yk","0","31","38","25","","","","","","","","","paint","account1","filler","filler","f","false","",""
"null","<p style=""font-size: 50px;"">+</p>","null","html-keyboard-response","372","2.1.0","317897","F=YES, J=NO","2qwyrcf7yk","0","31","38","25","","","","","","","","","","","","","","","",""
"null","audio/beep-329314.mp3","null","audio-keyboard-response","373","2.1.0","319594","F=YES, J=NO","2qwyrcf7yk","0","31","38","25","","","","","","","","","","","","","","","",""
"null","audio/age1.wav","null","audio-keyboard-response","374","2.1.0","320293","F=YES, J=NO","2qwyrcf7yk","0","31","38","25","","","","","","","","","","","","","","","",""
"333","
          <p id=""word"" style=""font-size: 40px;"">bake</p>
          <p style=""font-size: 16px;"">F = YES &nbsp;&nbsp;&nbsp; J = NO</p>
        ","f","html-keyboard-response","375","2.1.0","320629","F=YES, J=NO","2qwyrcf7yk","0","31","38","25","","","","","","","","","bake","age1","filler","filler","f","true","",""
"null","<p style=""font-size: 50px;"">+</p>","null","html-keyboard-response","376","2.1.0","320931","F=YES, J=NO","2qwyrcf7yk","0","31","38","25","","","","","","","","","","","","","","","",""
"null","audio/beep-329314.mp3","null","audio-keyboard-response","377","2.1.0","322633","F=YES, J=NO","2qwyrcf7yk","0","31","38","25","","","","","","","","","","","","","","","",""
"null","audio/ego.wav","null","audio-keyboard-response","378","2.1.0","323333","F=YES, J=NO","2qwyrcf7yk","0","31","38","25","","","","","","","","","","","","","","","",""
"626","
          <p id=""word"" style=""font-size: 40px;"">bruite</p>
          <p style=""font-size: 16px;"">F = YES &nbsp;&nbsp;&nbsp; J = NO</p>
        ","j","html-keyboard-response","379","2.1.0","323961","F=YES, J=NO","2qwyrcf7yk","0","31","38","25","","","","","","","","","bruite","ego","pseudoword","pseudoword","j","true","",""
"null","<p style=""font-size: 50px;"">+</p>","null","html-keyboard-response","380","2.1.0","324265","F=YES, J=NO","2qwyrcf7yk","0","31","38","25","","","","","","","","","","","","","","","",""
"null","audio/beep-329314.mp3","null","audio-keyboard-response","381","2.1.0","325953","F=YES, J=NO","2qwyrcf7yk","0","31","38","25","","","","","","","","","","","","","","","",""
"null","audio/bush1.wav","null","audio-keyboard-response","382","2.1.0","326593","F=YES, J=NO","2qwyrcf7yk","0","31","38","25","","","","","","","","","","","","","","","",""
"190","
          <p id=""word"" style=""font-size: 40px;"">run</p>
          <p style=""font-size: 16px;"">F = YES &nbsp;&nbsp;&nbsp; J = NO</p>
        ","f","html-keyboard-response","383","2.1.0","326785","F=YES, J=NO","2qwyrcf7yk","0","31","38","25","","","","","","","","","run","bush1","unrelated","experimental","f","true","",""
"null","<p style=""font-size: 50px;"">+</p>","null","html-keyboard-response","384","2.1.0","327088","F=YES, J=NO","2qwyrcf7yk","0","31","38","25","","","","","","","","","","","","","","","",""
"null","audio/beep-329314.mp3","null","audio-keyboard-response","385","2.1.0","328774","F=YES, J=NO","2qwyrcf7yk","0","31","38","25","","","","","","","","","","","","","","","",""
"null","audio/planet1.wav","null","audio-keyboard-response","386","2.1.0","329533","F=YES, J=NO","2qwyrcf7yk","0","31","38","25","","","","","","","","","","","","","","","",""
"277","
          <p id=""word"" style=""font-size: 40px;"">cratched</p>
          <p style=""font-size: 16px;"">F = YES &nbsp;&nbsp;&nbsp; J = NO</p>
        ","j","html-keyboard-response","387","2.1.0","329812","F=YES, J=NO","2qwyrcf7yk","0","31","38","25","","","","","","","","","cratched","planet1","pseudoword","pseudoword","j","true","",""
"null","<p style=""font-size: 50px;"">+</p>","null","html-keyboard-response","388","2.1.0","330115","F=YES, J=NO","2qwyrcf7yk","0","31","38","25","","","","","","","","","","","","","","","",""
"null","audio/beep-329314.mp3","null","audio-keyboard-response","389","2.1.0","331793","F=YES, J=NO","2qwyrcf7yk","0","31","38","25","","","","","","","","","","","","","","","",""
"null","audio/tunnel.wav","null","audio-keyboard-response","390","2.1.0","332373","F=YES, J=NO","2qwyrcf7yk","0","31","38","25","","","","","","","","","","","","","","","",""
"325","
          <p id=""word"" style=""font-size: 40px;"">gred</p>
          <p style=""font-size: 16px;"">F = YES &nbsp;&nbsp;&nbsp; J = NO</p>
        ","f","html-keyboard-response","391","2.1.0","332700","F=YES, J=NO","2qwyrcf7yk","0","31","38","25","","","","","","","","","gred","tunnel","pseudoword","pseudoword","j","false","",""
