"rt","stimulus","response","trial_type","trial_index","plugin_version","time_elapsed","response_mapping","subject_id","list_index","lextale_score","lextale_word_score","lextale_nonword_score","success","timeout","failed_images","failed_audio","failed_video","task","isWord","isDummy","target","prime","prime_type","stimulus_type","correct_response","correct","section","question_order"
"7662","
    <div style=""max-width: 800px; margin: auto; text-align: left;"">
      <h2>STANFORD UNIVERSITY</h2>
      <h3>Research Information Sheet</h3>
      <p><strong>Protocol Director:</strong> Robert Hawkins<br>
      <strong>Protocol Title:</strong> Communication and social cognition in natural audiovisual contexts<br>
      <strong>IRB#:</strong> 77226</p>

      <p><strong>DESCRIPTION:</strong> You are invited to participate in a research study about language and communication. The purpose of the research is to understand how you interact and communicate with other people in naturalistic settings as a fluent English speaker. This research will be conducted through the Prolific platform, including participants from the US, UK, and Canada. If you decide to participate in this research, you will play a communication game in a group with one or more partners.</p>

      <p><strong>TIME INVOLVEMENT:</strong> The task will last the amount of time advertised on Prolific. You are free to withdraw from the study at any time.</p>

      <p><strong>RISKS AND BENEFITS:</strong> You may become frustrated if your partner gets distracted, or experience discomfort if other participants in your group send text that is inappropriate for the task. We ask you to please be respectful of other participants you might be interacting with to mitigate these risks. You may also experience discomfort when being asked to discuss or challenge emotionally salient political beliefs. Study data will be stored securely, in compliance with Stanford University standards, minimizing the risk of confidentiality breach. This study advances our scientific understanding of how people communicate and collaborate in naturalistic settings. This study may lead to further insights about what can go wrong in teamwork, suggest potential interventions to overcome these barriers, and help to develop assistive technologies that collaborate with human partners. We cannot and do not guarantee or promise that you will receive any benefits from this study.</p>

      <p><strong>PAYMENTS:</strong> You will receive payment in the amount advertised on Prolific. If you do not complete this study, you will receive prorated payment based on the time that you have spent. Additionally, you may be eligible for bonus payments as described in the instructions.</p>

      <p><strong>PARTICIPANT’S RIGHTS:</strong> If you have read this form and have decided to participate in this project, please understand your participation is voluntary and you have the right to withdraw your consent or discontinue participation at any time without penalty or loss of benefits to which you are otherwise entitled. The alternative is not to participate. You have the right to refuse to answer particular questions. The results of this research study may be presented at scientific or professional meetings or published in scientific journals. Your individual privacy will be maintained in all published and written data resulting from the study. In accordance with scientific norms, the data from this study may be used or shared with other researchers for future research (after removing personally identifying information) without additional consent from you.</p>

      <p><strong>CONTACT INFORMATION:</strong><br>
      Questions: If you have any questions, concerns or complaints about this research, its procedures, risks and benefits, contact the Protocol Director, Robert Hawkins (<a href=""mailto:rdhawkins@stanford.edu"">rdhawkins@stanford.edu</a>, 217-549-6923).<br>
      Independent Contact: If you are not satisfied with how this study is being conducted, or if you have any concerns, complaints, or general questions about the research or your rights as a participant, please contact the Stanford Institutional Review Board (IRB) to speak to someone independent of the research team at 650-723-2480 or toll free at 1-866-680-2906, or email at <a href=""mailto:irbnon-med@stanford.edu"">irbnon-med@stanford.edu</a>. You can also write to the Stanford IRB, Stanford University, 1705 El Camino Real, Palo Alto, CA 94306.</p>

      <p><strong>Please save or print a copy of this page for your records.</strong></p>
      <p>If you agree to participate in this research, click ""Continue"" below.</p>
    </div>
  ","0","html-button-response","0","2.1.0","7669","F=YES, J=NO","3hpv0jpgdv","2","79","73","85","","","","","","","","","","","","","","","",""
"10687","
    <div style=""max-width: 800px; margin: auto; text-align: left;"">
      <h2>Welcome!</h2>
      <p>Thank you for participating in this study. The experiment consists of three parts:</p>
      <ol>
        <li>An English vocabulary test</li>
        <li>A main task in which you will hear and see words, and decide whether the written word is a real English word</li>
        <li>A brief survey about your background</li>
      </ol>
      <p>Each part will be introduced before it begins.</p>
      <p>Please make sure you are in a quiet environment and can hear audio clearly for the final task.</p>
      <p style=""margin-top: 2em;"">Press any key to begin.</p>
    </div>
  ","j","html-keyboard-response","1","2.1.0","18358","F=YES, J=NO","3hpv0jpgdv","2","79","73","85","","","","","","","","","","","","","","","",""
"","","","preload","2","2.1.0","19161","F=YES, J=NO","3hpv0jpgdv","2","79","73","85","true","false","[]","[]","[]","","","","","","","","","","",""
"4218","
    <div style=""max-width: 800px; margin: auto; text-align: left;"">
      <h2>Part 1: Vocabulary Test</h2>
      <p>You will now complete the first part of the study: a short English vocabulary test.</p>
      <p>This test is called <strong>LexTALE</strong> and helps us get a general sense of your English proficiency.</p>
      <p style=""margin-top: 2em;"">Press any key to continue.</p>
    </div>
  ","h","html-keyboard-response","3","2.1.0","23380","F=YES, J=NO","3hpv0jpgdv","2","79","73","85","","","","","","","","","","","","","","","",""
"8404","
    <div style=""max-width: 800px; margin: auto; text-align: left;"">
      <h2>LexTALE Vocabulary Test</h2>
      <p>In this test, you will see a series of letter strings—one at a time.</p>
      <p>Your task is to decide whether each string is a real English word.</p>
      <p><strong>Key responses:</strong></p>
      <ul>
        <li><strong>F</strong> = YES (real English word)</li>
        <li><strong>J</strong> = NO (not a real English word)</li>
      </ul>
      <p>There is no time limit, but please try to be accurate.</p>
      <p style=""margin-top: 2em;"">Press any key to begin.</p>
    </div>
  "," ","html-keyboard-response","4","2.1.0","31785","F=YES, J=NO","3hpv0jpgdv","2","79","73","85","","","","","","","","","","","","","","","",""
"2145","
  <p style=""font-size: 40px;"">platery</p>
  <p style=""font-size: 16px;"">F = YES &nbsp;&nbsp;&nbsp; J = NO</p>
","f","html-keyboard-response","5","2.1.0","33931","F=YES, J=NO","3hpv0jpgdv","2","79","73","85","","","","","","lextale","false","true","","","","","","","",""
"1684","
  <p style=""font-size: 40px;"">denial</p>
  <p style=""font-size: 16px;"">F = YES &nbsp;&nbsp;&nbsp; J = NO</p>
","f","html-keyboard-response","6","2.1.0","35616","F=YES, J=NO","3hpv0jpgdv","2","79","73","85","","","","","","lextale","true","true","","","","","","","",""
"1352","
  <p style=""font-size: 40px;"">marrit</p>
  <p style=""font-size: 16px;"">F = YES &nbsp;&nbsp;&nbsp; J = NO</p>
","j","html-keyboard-response","7","2.1.0","36969","F=YES, J=NO","3hpv0jpgdv","2","79","73","85","","","","","","lextale","false","true","","","","","","","",""
"668","
  <p style=""font-size: 40px;"">bottle</p>
  <p style=""font-size: 16px;"">F = YES &nbsp;&nbsp;&nbsp; J = NO</p>
","f","html-keyboard-response","8","2.1.0","37638","F=YES, J=NO","3hpv0jpgdv","2","79","73","85","","","","","","lextale","true","false","","","","","","","",""
"1248","
  <p style=""font-size: 40px;"">birst</p>
  <p style=""font-size: 16px;"">F = YES &nbsp;&nbsp;&nbsp; J = NO</p>
","j","html-keyboard-response","9","2.1.0","38887","F=YES, J=NO","3hpv0jpgdv","2","79","73","85","","","","","","lextale","false","false","","","","","","","",""
"632","
  <p style=""font-size: 40px;"">envy</p>
  <p style=""font-size: 16px;"">F = YES &nbsp;&nbsp;&nbsp; J = NO</p>
","f","html-keyboard-response","10","2.1.0","39520","F=YES, J=NO","3hpv0jpgdv","2","79","73","85","","","","","","lextale","true","false","","","","","","","",""
"1087","
  <p style=""font-size: 40px;"">brang</p>
  <p style=""font-size: 16px;"">F = YES &nbsp;&nbsp;&nbsp; J = NO</p>
","j","html-keyboard-response","11","2.1.0","40608","F=YES, J=NO","3hpv0jpgdv","2","79","73","85","","","","","","lextale","false","false","","","","","","","",""
"614","
  <p style=""font-size: 40px;"">huge</p>
  <p style=""font-size: 16px;"">F = YES &nbsp;&nbsp;&nbsp; J = NO</p>
","f","html-keyboard-response","12","2.1.0","41222","F=YES, J=NO","3hpv0jpgdv","2","79","73","85","","","","","","lextale","true","false","","","","","","","",""
"946","
  <p style=""font-size: 40px;"">plove</p>
  <p style=""font-size: 16px;"">F = YES &nbsp;&nbsp;&nbsp; J = NO</p>
","j","html-keyboard-response","13","2.1.0","42168","F=YES, J=NO","3hpv0jpgdv","2","79","73","85","","","","","","lextale","false","false","","","","","","","",""
"661","
  <p style=""font-size: 40px;"">border</p>
  <p style=""font-size: 16px;"">F = YES &nbsp;&nbsp;&nbsp; J = NO</p>
","f","html-keyboard-response","14","2.1.0","42830","F=YES, J=NO","3hpv0jpgdv","2","79","73","85","","","","","","lextale","true","false","","","","","","","",""
"1182","
  <p style=""font-size: 40px;"">flimsy</p>
  <p style=""font-size: 16px;"">F = YES &nbsp;&nbsp;&nbsp; J = NO</p>
","f","html-keyboard-response","15","2.1.0","44012","F=YES, J=NO","3hpv0jpgdv","2","79","73","85","","","","","","lextale","true","false","","","","","","","",""
"643","
  <p style=""font-size: 40px;"">drain</p>
  <p style=""font-size: 16px;"">F = YES &nbsp;&nbsp;&nbsp; J = NO</p>
","f","html-keyboard-response","16","2.1.0","44655","F=YES, J=NO","3hpv0jpgdv","2","79","73","85","","","","","","lextale","true","false","","","","","","","",""
"1059","
  <p style=""font-size: 40px;"">twindle</p>
  <p style=""font-size: 16px;"">F = YES &nbsp;&nbsp;&nbsp; J = NO</p>
","j","html-keyboard-response","17","2.1.0","45714","F=YES, J=NO","3hpv0jpgdv","2","79","73","85","","","","","","lextale","false","false","","","","","","","",""
"711","
  <p style=""font-size: 40px;"">propose</p>
  <p style=""font-size: 16px;"">F = YES &nbsp;&nbsp;&nbsp; J = NO</p>
","f","html-keyboard-response","18","2.1.0","46426","F=YES, J=NO","3hpv0jpgdv","2","79","73","85","","","","","","lextale","true","false","","","","","","","",""
"1482","
  <p style=""font-size: 40px;"">forlay</p>
  <p style=""font-size: 16px;"">F = YES &nbsp;&nbsp;&nbsp; J = NO</p>
","j","html-keyboard-response","19","2.1.0","47908","F=YES, J=NO","3hpv0jpgdv","2","79","73","85","","","","","","lextale","false","false","","","","","","","",""
"1239","
  <p style=""font-size: 40px;"">tenant</p>
  <p style=""font-size: 16px;"">F = YES &nbsp;&nbsp;&nbsp; J = NO</p>
","f","html-keyboard-response","20","2.1.0","49147","F=YES, J=NO","3hpv0jpgdv","2","79","73","85","","","","","","lextale","true","false","","","","","","","",""
"718","
  <p style=""font-size: 40px;"">strain</p>
  <p style=""font-size: 16px;"">F = YES &nbsp;&nbsp;&nbsp; J = NO</p>
","f","html-keyboard-response","21","2.1.0","49866","F=YES, J=NO","3hpv0jpgdv","2","79","73","85","","","","","","lextale","true","false","","","","","","","",""
"954","
  <p style=""font-size: 40px;"">holster</p>
  <p style=""font-size: 16px;"">F = YES &nbsp;&nbsp;&nbsp; J = NO</p>
","j","html-keyboard-response","22","2.1.0","50821","F=YES, J=NO","3hpv0jpgdv","2","79","73","85","","","","","","lextale","true","false","","","","","","","",""
"1106","
  <p style=""font-size: 40px;"">hinder</p>
  <p style=""font-size: 16px;"">F = YES &nbsp;&nbsp;&nbsp; J = NO</p>
","f","html-keyboard-response","23","2.1.0","51927","F=YES, J=NO","3hpv0jpgdv","2","79","73","85","","","","","","lextale","true","false","","","","","","","",""
"823","
  <p style=""font-size: 40px;"">swindle</p>
  <p style=""font-size: 16px;"">F = YES &nbsp;&nbsp;&nbsp; J = NO</p>
","f","html-keyboard-response","24","2.1.0","52750","F=YES, J=NO","3hpv0jpgdv","2","79","73","85","","","","","","lextale","true","false","","","","","","","",""
"840","
  <p style=""font-size: 40px;"">nuder</p>
  <p style=""font-size: 16px;"">F = YES &nbsp;&nbsp;&nbsp; J = NO</p>
","j","html-keyboard-response","25","2.1.0","53591","F=YES, J=NO","3hpv0jpgdv","2","79","73","85","","","","","","lextale","false","false","","","","","","","",""
"662","
  <p style=""font-size: 40px;"">pillow</p>
  <p style=""font-size: 16px;"">F = YES &nbsp;&nbsp;&nbsp; J = NO</p>
","f","html-keyboard-response","26","2.1.0","54253","F=YES, J=NO","3hpv0jpgdv","2","79","73","85","","","","","","lextale","true","false","","","","","","","",""
"1304","
  <p style=""font-size: 40px;"">shumble</p>
  <p style=""font-size: 16px;"">F = YES &nbsp;&nbsp;&nbsp; J = NO</p>
","j","html-keyboard-response","27","2.1.0","55558","F=YES, J=NO","3hpv0jpgdv","2","79","73","85","","","","","","lextale","false","false","","","","","","","",""
"1192","
  <p style=""font-size: 40px;"">thirst</p>
  <p style=""font-size: 16px;"">F = YES &nbsp;&nbsp;&nbsp; J = NO</p>
","f","html-keyboard-response","28","2.1.0","56750","F=YES, J=NO","3hpv0jpgdv","2","79","73","85","","","","","","lextale","true","false","","","","","","","",""
"2770","
  <p style=""font-size: 40px;"">unsail</p>
  <p style=""font-size: 16px;"">F = YES &nbsp;&nbsp;&nbsp; J = NO</p>
","f","html-keyboard-response","29","2.1.0","59521","F=YES, J=NO","3hpv0jpgdv","2","79","73","85","","","","","","lextale","false","false","","","","","","","",""
"1739","
  <p style=""font-size: 40px;"">rifle</p>
  <p style=""font-size: 16px;"">F = YES &nbsp;&nbsp;&nbsp; J = NO</p>
","j","html-keyboard-response","30","2.1.0","61261","F=YES, J=NO","3hpv0jpgdv","2","79","73","85","","","","","","lextale","true","false","","","","","","","",""
"1428","
  <p style=""font-size: 40px;"">mush</p>
  <p style=""font-size: 16px;"">F = YES &nbsp;&nbsp;&nbsp; J = NO</p>
","f","html-keyboard-response","31","2.1.0","62689","F=YES, J=NO","3hpv0jpgdv","2","79","73","85","","","","","","lextale","false","false","","","","","","","",""
"1711","
  <p style=""font-size: 40px;"">drench</p>
  <p style=""font-size: 16px;"">F = YES &nbsp;&nbsp;&nbsp; J = NO</p>
","f","html-keyboard-response","32","2.1.0","64400","F=YES, J=NO","3hpv0jpgdv","2","79","73","85","","","","","","lextale","true","false","","","","","","","",""
"822","
  <p style=""font-size: 40px;"">snirt</p>
  <p style=""font-size: 16px;"">F = YES &nbsp;&nbsp;&nbsp; J = NO</p>
","j","html-keyboard-response","33","2.1.0","65223","F=YES, J=NO","3hpv0jpgdv","2","79","73","85","","","","","","lextale","false","false","","","","","","","",""
"651","
  <p style=""font-size: 40px;"">bitter</p>
  <p style=""font-size: 16px;"">F = YES &nbsp;&nbsp;&nbsp; J = NO</p>
","f","html-keyboard-response","34","2.1.0","65875","F=YES, J=NO","3hpv0jpgdv","2","79","73","85","","","","","","lextale","true","false","","","","","","","",""
"729","
  <p style=""font-size: 40px;"">pliff</p>
  <p style=""font-size: 16px;"">F = YES &nbsp;&nbsp;&nbsp; J = NO</p>
","j","html-keyboard-response","35","2.1.0","66604","F=YES, J=NO","3hpv0jpgdv","2","79","73","85","","","","","","lextale","false","false","","","","","","","",""
"681","
  <p style=""font-size: 40px;"">tablet</p>
  <p style=""font-size: 16px;"">F = YES &nbsp;&nbsp;&nbsp; J = NO</p>
","f","html-keyboard-response","36","2.1.0","67286","F=YES, J=NO","3hpv0jpgdv","2","79","73","85","","","","","","lextale","true","false","","","","","","","",""
"679","
  <p style=""font-size: 40px;"">glimmer</p>
  <p style=""font-size: 16px;"">F = YES &nbsp;&nbsp;&nbsp; J = NO</p>
","f","html-keyboard-response","37","2.1.0","67965","F=YES, J=NO","3hpv0jpgdv","2","79","73","85","","","","","","lextale","true","false","","","","","","","",""
"671","
  <p style=""font-size: 40px;"">slink</p>
  <p style=""font-size: 16px;"">F = YES &nbsp;&nbsp;&nbsp; J = NO</p>
","f","html-keyboard-response","38","2.1.0","68637","F=YES, J=NO","3hpv0jpgdv","2","79","73","85","","","","","","lextale","true","false","","","","","","","",""
"577","
  <p style=""font-size: 40px;"">clever</p>
  <p style=""font-size: 16px;"">F = YES &nbsp;&nbsp;&nbsp; J = NO</p>
","f","html-keyboard-response","39","2.1.0","69214","F=YES, J=NO","3hpv0jpgdv","2","79","73","85","","","","","","lextale","true","false","","","","","","","",""
"698","
  <p style=""font-size: 40px;"">grum</p>
  <p style=""font-size: 16px;"">F = YES &nbsp;&nbsp;&nbsp; J = NO</p>
","j","html-keyboard-response","40","2.1.0","69913","F=YES, J=NO","3hpv0jpgdv","2","79","73","85","","","","","","lextale","false","false","","","","","","","",""
"795","
  <p style=""font-size: 40px;"">string</p>
  <p style=""font-size: 16px;"">F = YES &nbsp;&nbsp;&nbsp; J = NO</p>
","f","html-keyboard-response","41","2.1.0","70708","F=YES, J=NO","3hpv0jpgdv","2","79","73","85","","","","","","lextale","true","false","","","","","","","",""
"907","
  <p style=""font-size: 40px;"">plim</p>
  <p style=""font-size: 16px;"">F = YES &nbsp;&nbsp;&nbsp; J = NO</p>
","j","html-keyboard-response","42","2.1.0","71616","F=YES, J=NO","3hpv0jpgdv","2","79","73","85","","","","","","lextale","false","false","","","","","","","",""
"1001","
  <p style=""font-size: 40px;"">cable</p>
  <p style=""font-size: 16px;"">F = YES &nbsp;&nbsp;&nbsp; J = NO</p>
","f","html-keyboard-response","43","2.1.0","72618","F=YES, J=NO","3hpv0jpgdv","2","79","73","85","","","","","","lextale","true","false","","","","","","","",""
"852","
  <p style=""font-size: 40px;"">shrivel</p>
  <p style=""font-size: 16px;"">F = YES &nbsp;&nbsp;&nbsp; J = NO</p>
","j","html-keyboard-response","44","2.1.0","73470","F=YES, J=NO","3hpv0jpgdv","2","79","73","85","","","","","","lextale","true","false","","","","","","","",""
"587","
  <p style=""font-size: 40px;"">tarnish</p>
  <p style=""font-size: 16px;"">F = YES &nbsp;&nbsp;&nbsp; J = NO</p>
","f","html-keyboard-response","45","2.1.0","74058","F=YES, J=NO","3hpv0jpgdv","2","79","73","85","","","","","","lextale","true","false","","","","","","","",""
"1605","
  <p style=""font-size: 40px;"">blim</p>
  <p style=""font-size: 16px;"">F = YES &nbsp;&nbsp;&nbsp; J = NO</p>
","j","html-keyboard-response","46","2.1.0","75663","F=YES, J=NO","3hpv0jpgdv","2","79","73","85","","","","","","lextale","false","false","","","","","","","",""
"832","
  <p style=""font-size: 40px;"">stifle</p>
  <p style=""font-size: 16px;"">F = YES &nbsp;&nbsp;&nbsp; J = NO</p>
","j","html-keyboard-response","47","2.1.0","76496","F=YES, J=NO","3hpv0jpgdv","2","79","73","85","","","","","","lextale","true","false","","","","","","","",""
"3687","
  <p style=""font-size: 40px;"">bint</p>
  <p style=""font-size: 16px;"">F = YES &nbsp;&nbsp;&nbsp; J = NO</p>
","j","html-keyboard-response","48","2.1.0","80183","F=YES, J=NO","3hpv0jpgdv","2","79","73","85","","","","","","lextale","false","false","","","","","","","",""
"719","
  <p style=""font-size: 40px;"">purple</p>
  <p style=""font-size: 16px;"">F = YES &nbsp;&nbsp;&nbsp; J = NO</p>
","f","html-keyboard-response","49","2.1.0","80902","F=YES, J=NO","3hpv0jpgdv","2","79","73","85","","","","","","lextale","true","false","","","","","","","",""
"1200","
  <p style=""font-size: 40px;"">wriggle</p>
  <p style=""font-size: 16px;"">F = YES &nbsp;&nbsp;&nbsp; J = NO</p>
","f","html-keyboard-response","50","2.1.0","82103","F=YES, J=NO","3hpv0jpgdv","2","79","73","85","","","","","","lextale","true","false","","","","","","","",""
"1004","
  <p style=""font-size: 40px;"">mangle</p>
  <p style=""font-size: 16px;"">F = YES &nbsp;&nbsp;&nbsp; J = NO</p>
","j","html-keyboard-response","51","2.1.0","83108","F=YES, J=NO","3hpv0jpgdv","2","79","73","85","","","","","","lextale","true","false","","","","","","","",""
"886","
  <p style=""font-size: 40px;"">shramp</p>
  <p style=""font-size: 16px;"">F = YES &nbsp;&nbsp;&nbsp; J = NO</p>
","j","html-keyboard-response","52","2.1.0","83994","F=YES, J=NO","3hpv0jpgdv","2","79","73","85","","","","","","lextale","false","false","","","","","","","",""
"681","
  <p style=""font-size: 40px;"">flirt</p>
  <p style=""font-size: 16px;"">F = YES &nbsp;&nbsp;&nbsp; J = NO</p>
","f","html-keyboard-response","53","2.1.0","84675","F=YES, J=NO","3hpv0jpgdv","2","79","73","85","","","","","","lextale","true","false","","","","","","","",""
"746","
  <p style=""font-size: 40px;"">frip</p>
  <p style=""font-size: 16px;"">F = YES &nbsp;&nbsp;&nbsp; J = NO</p>
","j","html-keyboard-response","54","2.1.0","85422","F=YES, J=NO","3hpv0jpgdv","2","79","73","85","","","","","","lextale","false","false","","","","","","","",""
"596","
  <p style=""font-size: 40px;"">tangle</p>
  <p style=""font-size: 16px;"">F = YES &nbsp;&nbsp;&nbsp; J = NO</p>
","f","html-keyboard-response","55","2.1.0","86018","F=YES, J=NO","3hpv0jpgdv","2","79","73","85","","","","","","lextale","true","false","","","","","","","",""
"654","
  <p style=""font-size: 40px;"">crumble</p>
  <p style=""font-size: 16px;"">F = YES &nbsp;&nbsp;&nbsp; J = NO</p>
","f","html-keyboard-response","56","2.1.0","86673","F=YES, J=NO","3hpv0jpgdv","2","79","73","85","","","","","","lextale","true","false","","","","","","","",""
"649","
  <p style=""font-size: 40px;"">wrinkle</p>
  <p style=""font-size: 16px;"">F = YES &nbsp;&nbsp;&nbsp; J = NO</p>
","f","html-keyboard-response","57","2.1.0","87322","F=YES, J=NO","3hpv0jpgdv","2","79","73","85","","","","","","lextale","true","false","","","","","","","",""
"879","
  <p style=""font-size: 40px;"">slumb</p>
  <p style=""font-size: 16px;"">F = YES &nbsp;&nbsp;&nbsp; J = NO</p>
","j","html-keyboard-response","58","2.1.0","88202","F=YES, J=NO","3hpv0jpgdv","2","79","73","85","","","","","","lextale","false","false","","","","","","","",""
"456","
  <p style=""font-size: 40px;"">jungle</p>
  <p style=""font-size: 16px;"">F = YES &nbsp;&nbsp;&nbsp; J = NO</p>
","f","html-keyboard-response","59","2.1.0","88658","F=YES, J=NO","3hpv0jpgdv","2","79","73","85","","","","","","lextale","true","false","","","","","","","",""
"3487","
  <p style=""font-size: 40px;"">frolick</p>
  <p style=""font-size: 16px;"">F = YES &nbsp;&nbsp;&nbsp; J = NO</p>
","j","html-keyboard-response","60","2.1.0","92145","F=YES, J=NO","3hpv0jpgdv","2","79","73","85","","","","","","lextale","false","false","","","","","","","",""
"2089","
      <h2>LexTALE Test Completed</h2>
      <p>Your LexTALE vocabulary score is: <strong>79%</strong></p>
      <p>Press any key to continue.</p>
    "," ","html-keyboard-response","61","2.1.0","94235","F=YES, J=NO","3hpv0jpgdv","2","79","73","85","","","","","","","","","","","","","","","",""
"1957","
    <div style=""max-width: 800px; margin: auto; text-align: left;"">
      <h2>Break Time</h2>
      <p>You have completed the first part of the study.</p>
      <p>You may take a short <strong>30-second break</strong> before continuing.</p>
      <p>When you’re ready, press any key to continue to the final task.</p>
    </div>
  "," ","html-keyboard-response","62","2.1.0","96192","F=YES, J=NO","3hpv0jpgdv","2","79","73","85","","","","","","","","","","","","","","","",""
"10742","
    <div style=""max-width: 800px; margin: auto; text-align: left;"">
      <h2>Part 2: Lexical Decision Task</h2>
      <p>You will now begin the second part of the study.</p>
      <p>Each trial will follow this sequence:</p>
      <ul>
        <li>A fixation cross (+) appears at the center of the screen.</li>
        <li>You will hear a short beep followed by a spoken word.</li>
        <li>A written word will appear briefly on the screen.</li>
      </ul>
      <p>Your task is to judge whether the <strong>written word</strong> is a real English word.</p>
      <p style=""margin-top: 1em;""><strong>Key responses:</strong></p>
      <ul>
        <li><strong>F</strong> = YES (real English word)</li>
        <li><strong>J</strong> = NO (not a real English word)</li>
      </ul>
      <p>Please respond as quickly and accurately as you can.</p>
      <p style=""margin-top: 2em;"">Press any key to continue.</p>
    </div>
  ","j","html-keyboard-response","63","2.1.0","106935","F=YES, J=NO","3hpv0jpgdv","2","79","73","85","","","","","","","","","","","","","","","",""
"3233","
    <div style=""max-width: 800px; margin: auto; text-align: left;"">
      <h2>Before You Begin</h2>
      <p>Make sure your sound is turned on.</p>
      <p>You will hear audio during each trial, but your decision should be based only on the <strong>written word</strong> you see on the screen.</p>
      <p><strong>Reminder:</strong></p>
      <ul>
        <li><strong>F</strong> = YES (real English word)</li>
        <li><strong>J</strong> = NO (not a real English word)</li>
      </ul>
      <p style=""margin-top: 2em;"">Press any key when you are ready to begin.</p>
    </div>
  ","f","html-keyboard-response","64","2.1.0","110169","F=YES, J=NO","3hpv0jpgdv","2","79","73","85","","","","","","","","","","","","","","","",""
"3038","
    <div style=""max-width: 800px; margin: auto; text-align: left;"">
      <h2>Part 2: Practice Trials</h2>
      <p>You will now complete a few <strong>practice trials</strong> to get familiar with the task.</p>
      <p>These trials are <strong>not scored</strong> and are only to help you get used to the format.</p>
      <p style=""margin-top: 2em;"">Press any key to begin.</p>
    </div>
  ","f","html-keyboard-response","65","2.1.0","113207","F=YES, J=NO","3hpv0jpgdv","2","79","73","85","","","","","","","","","","","","","","","",""
"2710","<p>Starting practice block 1 of 2. Press any key to continue.</p>","f","html-keyboard-response","66","2.1.0","115918","F=YES, J=NO","3hpv0jpgdv","2","79","73","85","","","","","","","","","","","","","","","",""
"null","<p style=""font-size: 50px;"">+</p>","null","html-keyboard-response","67","2.1.0","116219","F=YES, J=NO","3hpv0jpgdv","2","79","73","85","","","","","","","","","","","","","","","",""
"null","audio/beep-329314.mp3","null","audio-keyboard-response","68","2.1.0","117787","F=YES, J=NO","3hpv0jpgdv","2","79","73","85","","","","","","","","","","","","","","","",""
"null","audio/budget1.wav","null","audio-keyboard-response","69","2.1.0","118477","F=YES, J=NO","3hpv0jpgdv","2","79","73","85","","","","","","","","","","","","","","","",""
"921","
          <p id=""word"" style=""font-size: 40px;"">sulist</p>
          <p style=""font-size: 16px;"">F = YES &nbsp;&nbsp;&nbsp; J = NO</p>
        ","j","html-keyboard-response","70","2.1.0","119398","F=YES, J=NO","3hpv0jpgdv","2","79","73","85","","","","","","","","","sulist","budget1","pseudoword","pseudoword","j","true","",""
"null","<p style=""font-size: 50px;"">+</p>","null","html-keyboard-response","71","2.1.0","119699","F=YES, J=NO","3hpv0jpgdv","2","79","73","85","","","","","","","","","","","","","","","",""
"null","audio/beep-329314.mp3","null","audio-keyboard-response","72","2.1.0","121245","F=YES, J=NO","3hpv0jpgdv","2","79","73","85","","","","","","","","","","","","","","","",""
"null","audio/account1.wav","null","audio-keyboard-response","73","2.1.0","121995","F=YES, J=NO","3hpv0jpgdv","2","79","73","85","","","","","","","","","","","","","","","",""
"977","
          <p id=""word"" style=""font-size: 40px;"">paint</p>
          <p style=""font-size: 16px;"">F = YES &nbsp;&nbsp;&nbsp; J = NO</p>
        ","f","html-keyboard-response","74","2.1.0","122973","F=YES, J=NO","3hpv0jpgdv","2","79","73","85","","","","","","","","","paint","account1","filler","filler","f","true","",""
"null","<p style=""font-size: 50px;"">+</p>","null","html-keyboard-response","75","2.1.0","123275","F=YES, J=NO","3hpv0jpgdv","2","79","73","85","","","","","","","","","","","","","","","",""
"null","audio/beep-329314.mp3","null","audio-keyboard-response","76","2.1.0","124824","F=YES, J=NO","3hpv0jpgdv","2","79","73","85","","","","","","","","","","","","","","","",""
"null","audio/trust.wav","null","audio-keyboard-response","77","2.1.0","125495","F=YES, J=NO","3hpv0jpgdv","2","79","73","85","","","","","","","","","","","","","","","",""
"541","
          <p id=""word"" style=""font-size: 40px;"">swint</p>
          <p style=""font-size: 16px;"">F = YES &nbsp;&nbsp;&nbsp; J = NO</p>
        ","f","html-keyboard-response","78","2.1.0","126037","F=YES, J=NO","3hpv0jpgdv","2","79","73","85","","","","","","","","","swint","trust","pseudoword","pseudoword","j","false","",""
"null","<p style=""font-size: 50px;"">+</p>","null","html-keyboard-response","79","2.1.0","126339","F=YES, J=NO","3hpv0jpgdv","2","79","73","85","","","","","","","","","","","","","","","",""
"null","audio/beep-329314.mp3","null","audio-keyboard-response","80","2.1.0","127885","F=YES, J=NO","3hpv0jpgdv","2","79","73","85","","","","","","","","","","","","","","","",""
"null","audio/planet1.wav","null","audio-keyboard-response","81","2.1.0","128555","F=YES, J=NO","3hpv0jpgdv","2","79","73","85","","","","","","","","","","","","","","","",""
"545","
          <p id=""word"" style=""font-size: 40px;"">cratched</p>
          <p style=""font-size: 16px;"">F = YES &nbsp;&nbsp;&nbsp; J = NO</p>
        ","f","html-keyboard-response","82","2.1.0","129100","F=YES, J=NO","3hpv0jpgdv","2","79","73","85","","","","","","","","","cratched","planet1","pseudoword","pseudoword","j","false","",""
"null","<p style=""font-size: 50px;"">+</p>","null","html-keyboard-response","83","2.1.0","129401","F=YES, J=NO","3hpv0jpgdv","2","79","73","85","","","","","","","","","","","","","","","",""
"null","audio/beep-329314.mp3","null","audio-keyboard-response","84","2.1.0","130945","F=YES, J=NO","3hpv0jpgdv","2","79","73","85","","","","","","","","","","","","","","","",""
"null","audio/golf1.wav","null","audio-keyboard-response","85","2.1.0","131575","F=YES, J=NO","3hpv0jpgdv","2","79","73","85","","","","","","","","","","","","","","","",""
"238","
          <p id=""word"" style=""font-size: 40px;"">drabble</p>
          <p style=""font-size: 16px;"">F = YES &nbsp;&nbsp;&nbsp; J = NO</p>
        ","f","html-keyboard-response","86","2.1.0","131814","F=YES, J=NO","3hpv0jpgdv","2","79","73","85","","","","","","","","","drabble","golf1","pseudoword","pseudoword","j","false","",""
"null","<p style=""font-size: 50px;"">+</p>","null","html-keyboard-response","87","2.1.0","132117","F=YES, J=NO","3hpv0jpgdv","2","79","73","85","","","","","","","","","","","","","","","",""
"null","audio/beep-329314.mp3","null","audio-keyboard-response","88","2.1.0","133665","F=YES, J=NO","3hpv0jpgdv","2","79","73","85","","","","","","","","","","","","","","","",""
"null","audio/uncle1.wav","null","audio-keyboard-response","89","2.1.0","134175","F=YES, J=NO","3hpv0jpgdv","2","79","73","85","","","","","","","","","","","","","","","",""
"277","
          <p id=""word"" style=""font-size: 40px;"">dramble</p>
          <p style=""font-size: 16px;"">F = YES &nbsp;&nbsp;&nbsp; J = NO</p>
        ","f","html-keyboard-response","90","2.1.0","134453","F=YES, J=NO","3hpv0jpgdv","2","79","73","85","","","","","","","","","dramble","uncle1","pseudoword","pseudoword","j","false","",""
"null","<p style=""font-size: 50px;"">+</p>","null","html-keyboard-response","91","2.1.0","134756","F=YES, J=NO","3hpv0jpgdv","2","79","73","85","","","","","","","","","","","","","","","",""
"null","audio/beep-329314.mp3","null","audio-keyboard-response","92","2.1.0","136305","F=YES, J=NO","3hpv0jpgdv","2","79","73","85","","","","","","","","","","","","","","","",""
"null","audio/corpse1.wav","null","audio-keyboard-response","93","2.1.0","136995","F=YES, J=NO","3hpv0jpgdv","2","79","73","85","","","","","","","","","","","","","","","",""
"231","
          <p id=""word"" style=""font-size: 40px;"">glonet</p>
          <p style=""font-size: 16px;"">F = YES &nbsp;&nbsp;&nbsp; J = NO</p>
        ","f","html-keyboard-response","94","2.1.0","137226","F=YES, J=NO","3hpv0jpgdv","2","79","73","85","","","","","","","","","glonet","corpse1","pseudoword","pseudoword","j","false","",""
"null","<p style=""font-size: 50px;"">+</p>","null","html-keyboard-response","95","2.1.0","137527","F=YES, J=NO","3hpv0jpgdv","2","79","73","85","","","","","","","","","","","","","","","",""
"null","audio/beep-329314.mp3","null","audio-keyboard-response","96","2.1.0","139084","F=YES, J=NO","3hpv0jpgdv","2","79","73","85","","","","","","","","","","","","","","","",""
"null","audio/age1.wav","null","audio-keyboard-response","97","2.1.0","139795","F=YES, J=NO","3hpv0jpgdv","2","79","73","85","","","","","","","","","","","","","","","",""
"1238","
          <p id=""word"" style=""font-size: 40px;"">bake</p>
          <p style=""font-size: 16px;"">F = YES &nbsp;&nbsp;&nbsp; J = NO</p>
        ","f","html-keyboard-response","98","2.1.0","141034","F=YES, J=NO","3hpv0jpgdv","2","79","73","85","","","","","","","","","bake","age1","filler","filler","f","true","",""
"null","<p style=""font-size: 50px;"">+</p>","null","html-keyboard-response","99","2.1.0","141339","F=YES, J=NO","3hpv0jpgdv","2","79","73","85","","","","","","","","","","","","","","","",""
"null","audio/beep-329314.mp3","null","audio-keyboard-response","100","2.1.0","142884","F=YES, J=NO","3hpv0jpgdv","2","79","73","85","","","","","","","","","","","","","","","",""
"null","audio/van1.wav","null","audio-keyboard-response","101","2.1.0","143415","F=YES, J=NO","3hpv0jpgdv","2","79","73","85","","","","","","","","","","","","","","","",""
"466","
          <p id=""word"" style=""font-size: 40px;"">push</p>
          <p style=""font-size: 16px;"">F = YES &nbsp;&nbsp;&nbsp; J = NO</p>
        ","f","html-keyboard-response","102","2.1.0","143881","F=YES, J=NO","3hpv0jpgdv","2","79","73","85","","","","","","","","","push","van1","filler","filler","f","true","",""
"null","<p style=""font-size: 50px;"">+</p>","null","html-keyboard-response","103","2.1.0","144182","F=YES, J=NO","3hpv0jpgdv","2","79","73","85","","","","","","","","","","","","","","","",""
"null","audio/beep-329314.mp3","null","audio-keyboard-response","104","2.1.0","145725","F=YES, J=NO","3hpv0jpgdv","2","79","73","85","","","","","","","","","","","","","","","",""
"null","audio/birth1.wav","null","audio-keyboard-response","105","2.1.0","146315","F=YES, J=NO","3hpv0jpgdv","2","79","73","85","","","","","","","","","","","","","","","",""
"508","
          <p id=""word"" style=""font-size: 40px;"">peel</p>
          <p style=""font-size: 16px;"">F = YES &nbsp;&nbsp;&nbsp; J = NO</p>
        ","f","html-keyboard-response","106","2.1.0","146823","F=YES, J=NO","3hpv0jpgdv","2","79","73","85","","","","","","","","","peel","birth1","filler","filler","f","true","",""
"null","<p style=""font-size: 50px;"">+</p>","null","html-keyboard-response","107","2.1.0","147124","F=YES, J=NO","3hpv0jpgdv","2","79","73","85","","","","","","","","","","","","","","","",""
"null","audio/beep-329314.mp3","null","audio-keyboard-response","108","2.1.0","148664","F=YES, J=NO","3hpv0jpgdv","2","79","73","85","","","","","","","","","","","","","","","",""
"null","audio/flaw.wav","null","audio-keyboard-response","109","2.1.0","149334","F=YES, J=NO","3hpv0jpgdv","2","79","73","85","","","","","","","","","","","","","","","",""
"308","
          <p id=""word"" style=""font-size: 40px;"">thwool</p>
          <p style=""font-size: 16px;"">F = YES &nbsp;&nbsp;&nbsp; J = NO</p>
        ","f","html-keyboard-response","110","2.1.0","149643","F=YES, J=NO","3hpv0jpgdv","2","79","73","85","","","","","","","","","thwool","flaw","pseudoword","pseudoword","j","false","",""
"null","<p style=""font-size: 50px;"">+</p>","null","html-keyboard-response","111","2.1.0","149948","F=YES, J=NO","3hpv0jpgdv","2","79","73","85","","","","","","","","","","","","","","","",""
"null","audio/beep-329314.mp3","null","audio-keyboard-response","112","2.1.0","151504","F=YES, J=NO","3hpv0jpgdv","2","79","73","85","","","","","","","","","","","","","","","",""
"null","audio/burden.wav","null","audio-keyboard-response","113","2.1.0","152055","F=YES, J=NO","3hpv0jpgdv","2","79","73","85","","","","","","","","","","","","","","","",""
"251","
          <p id=""word"" style=""font-size: 40px;"">whotth</p>
          <p style=""font-size: 16px;"">F = YES &nbsp;&nbsp;&nbsp; J = NO</p>
        ","f","html-keyboard-response","114","2.1.0","152307","F=YES, J=NO","3hpv0jpgdv","2","79","73","85","","","","","","","","","whotth","burden","pseudoword","pseudoword","j","false","",""
"1929","<p>Starting practice block 2 of 2. Press any key to continue.</p>","f","html-keyboard-response","115","2.1.0","154236","F=YES, J=NO","3hpv0jpgdv","2","79","73","85","","","","","","","","","","","","","","","",""
"null","<p style=""font-size: 50px;"">+</p>","null","html-keyboard-response","116","2.1.0","154540","F=YES, J=NO","3hpv0jpgdv","2","79","73","85","","","","","","","","","","","","","","","",""
"null","audio/beep-329314.mp3","null","audio-keyboard-response","117","2.1.0","156085","F=YES, J=NO","3hpv0jpgdv","2","79","73","85","","","","","","","","","","","","","","","",""
"null","audio/cancer1.wav","null","audio-keyboard-response","118","2.1.0","156694","F=YES, J=NO","3hpv0jpgdv","2","79","73","85","","","","","","","","","","","","","","","",""
"585","
          <p id=""word"" style=""font-size: 40px;"">draw</p>
          <p style=""font-size: 16px;"">F = YES &nbsp;&nbsp;&nbsp; J = NO</p>
        ","f","html-keyboard-response","119","2.1.0","157280","F=YES, J=NO","3hpv0jpgdv","2","79","73","85","","","","","","","","","draw","cancer1","filler","filler","f","true","",""
"null","<p style=""font-size: 50px;"">+</p>","null","html-keyboard-response","120","2.1.0","157582","F=YES, J=NO","3hpv0jpgdv","2","79","73","85","","","","","","","","","","","","","","","",""
"null","audio/beep-329314.mp3","null","audio-keyboard-response","121","2.1.0","159124","F=YES, J=NO","3hpv0jpgdv","2","79","73","85","","","","","","","","","","","","","","","",""
"null","audio/alarm1.wav","null","audio-keyboard-response","122","2.1.0","159754","F=YES, J=NO","3hpv0jpgdv","2","79","73","85","","","","","","","","","","","","","","","",""
"504","
          <p id=""word"" style=""font-size: 40px;"">lock</p>
          <p style=""font-size: 16px;"">F = YES &nbsp;&nbsp;&nbsp; J = NO</p>
        ","f","html-keyboard-response","123","2.1.0","160259","F=YES, J=NO","3hpv0jpgdv","2","79","73","85","","","","","","","","","lock","alarm1","filler","filler","f","true","",""
"null","<p style=""font-size: 50px;"">+</p>","null","html-keyboard-response","124","2.1.0","160562","F=YES, J=NO","3hpv0jpgdv","2","79","73","85","","","","","","","","","","","","","","","",""
"null","audio/beep-329314.mp3","null","audio-keyboard-response","125","2.1.0","162105","F=YES, J=NO","3hpv0jpgdv","2","79","73","85","","","","","","","","","","","","","","","",""
"null","audio/breath.wav","null","audio-keyboard-response","126","2.1.0","162714","F=YES, J=NO","3hpv0jpgdv","2","79","73","85","","","","","","","","","","","","","","","",""
"230","
          <p id=""word"" style=""font-size: 40px;"">pack</p>
          <p style=""font-size: 16px;"">F = YES &nbsp;&nbsp;&nbsp; J = NO</p>
        ","f","html-keyboard-response","127","2.1.0","162945","F=YES, J=NO","3hpv0jpgdv","2","79","73","85","","","","","","","","","pack","breath","filler","filler","f","true","",""
"null","<p style=""font-size: 50px;"">+</p>","null","html-keyboard-response","128","2.1.0","163248","F=YES, J=NO","3hpv0jpgdv","2","79","73","85","","","","","","","","","","","","","","","",""
"null","audio/beep-329314.mp3","null","audio-keyboard-response","129","2.1.0","164805","F=YES, J=NO","3hpv0jpgdv","2","79","73","85","","","","","","","","","","","","","","","",""
"null","audio/window1.wav","null","audio-keyboard-response","130","2.1.0","165474","F=YES, J=NO","3hpv0jpgdv","2","79","73","85","","","","","","","","","","","","","","","",""
"108","
          <p id=""word"" style=""font-size: 40px;"">toss</p>
          <p style=""font-size: 16px;"">F = YES &nbsp;&nbsp;&nbsp; J = NO</p>
        ","f","html-keyboard-response","131","2.1.0","165583","F=YES, J=NO","3hpv0jpgdv","2","79","73","85","","","","","","","","","toss","window1","filler","filler","f","true","",""
"null","<p style=""font-size: 50px;"">+</p>","null","html-keyboard-response","132","2.1.0","165887","F=YES, J=NO","3hpv0jpgdv","2","79","73","85","","","","","","","","","","","","","","","",""
"null","audio/beep-329314.mp3","null","audio-keyboard-response","133","2.1.0","167445","F=YES, J=NO","3hpv0jpgdv","2","79","73","85","","","","","","","","","","","","","","","",""
"null","audio/alarm1.wav","null","audio-keyboard-response","134","2.1.0","168054","F=YES, J=NO","3hpv0jpgdv","2","79","73","85","","","","","","","","","","","","","","","",""
"573","
          <p id=""word"" style=""font-size: 40px;"">swetp</p>
          <p style=""font-size: 16px;"">F = YES &nbsp;&nbsp;&nbsp; J = NO</p>
        ","f","html-keyboard-response","135","2.1.0","168628","F=YES, J=NO","3hpv0jpgdv","2","79","73","85","","","","","","","","","swetp","alarm1","pseudoword","pseudoword","j","false","",""
"null","<p style=""font-size: 50px;"">+</p>","null","html-keyboard-response","136","2.1.0","168929","F=YES, J=NO","3hpv0jpgdv","2","79","73","85","","","","","","","","","","","","","","","",""
"null","audio/beep-329314.mp3","null","audio-keyboard-response","137","2.1.0","170485","F=YES, J=NO","3hpv0jpgdv","2","79","73","85","","","","","","","","","","","","","","","",""
"null","audio/radio1.wav","null","audio-keyboard-response","138","2.1.0","171155","F=YES, J=NO","3hpv0jpgdv","2","79","73","85","","","","","","","","","","","","","","","",""
"253","
          <p id=""word"" style=""font-size: 40px;"">blanter</p>
          <p style=""font-size: 16px;"">F = YES &nbsp;&nbsp;&nbsp; J = NO</p>
        ","f","html-keyboard-response","139","2.1.0","171408","F=YES, J=NO","3hpv0jpgdv","2","79","73","85","","","","","","","","","blanter","radio1","pseudoword","pseudoword","j","false","",""
"null","<p style=""font-size: 50px;"">+</p>","null","html-keyboard-response","140","2.1.0","171713","F=YES, J=NO","3hpv0jpgdv","2","79","73","85","","","","","","","","","","","","","","","",""
"null","audio/beep-329314.mp3","null","audio-keyboard-response","141","2.1.0","173265","F=YES, J=NO","3hpv0jpgdv","2","79","73","85","","","","","","","","","","","","","","","",""
"null","audio/butter1.wav","null","audio-keyboard-response","142","2.1.0","173775","F=YES, J=NO","3hpv0jpgdv","2","79","73","85","","","","","","","","","","","","","","","",""
"281","
          <p id=""word"" style=""font-size: 40px;"">chew</p>
          <p style=""font-size: 16px;"">F = YES &nbsp;&nbsp;&nbsp; J = NO</p>
        ","f","html-keyboard-response","143","2.1.0","174056","F=YES, J=NO","3hpv0jpgdv","2","79","73","85","","","","","","","","","chew","butter1","filler","filler","f","true","",""
"null","<p style=""font-size: 50px;"">+</p>","null","html-keyboard-response","144","2.1.0","174359","F=YES, J=NO","3hpv0jpgdv","2","79","73","85","","","","","","","","","","","","","","","",""
"null","audio/beep-329314.mp3","null","audio-keyboard-response","145","2.1.0","175905","F=YES, J=NO","3hpv0jpgdv","2","79","73","85","","","","","","","","","","","","","","","",""
"null","audio/floor.wav","null","audio-keyboard-response","146","2.1.0","176494","F=YES, J=NO","3hpv0jpgdv","2","79","73","85","","","","","","","","","","","","","","","",""
"209","
          <p id=""word"" style=""font-size: 40px;"">mop</p>
          <p style=""font-size: 16px;"">F = YES &nbsp;&nbsp;&nbsp; J = NO</p>
        ","f","html-keyboard-response","147","2.1.0","176704","F=YES, J=NO","3hpv0jpgdv","2","79","73","85","","","","","","","","","mop","floor","filler","filler","f","true","",""
"null","<p style=""font-size: 50px;"">+</p>","null","html-keyboard-response","148","2.1.0","177005","F=YES, J=NO","3hpv0jpgdv","2","79","73","85","","","","","","","","","","","","","","","",""
"null","audio/beep-329314.mp3","null","audio-keyboard-response","149","2.1.0","178564","F=YES, J=NO","3hpv0jpgdv","2","79","73","85","","","","","","","","","","","","","","","",""
"null","audio/kettle1.wav","null","audio-keyboard-response","150","2.1.0","179095","F=YES, J=NO","3hpv0jpgdv","2","79","73","85","","","","","","","","","","","","","","","",""
"247","
          <p id=""word"" style=""font-size: 40px;"">wrap</p>
          <p style=""font-size: 16px;"">F = YES &nbsp;&nbsp;&nbsp; J = NO</p>
        ","f","html-keyboard-response","151","2.1.0","179342","F=YES, J=NO","3hpv0jpgdv","2","79","73","85","","","","","","","","","wrap","kettle1","filler","filler","f","true","",""
"null","<p style=""font-size: 50px;"">+</p>","null","html-keyboard-response","152","2.1.0","179644","F=YES, J=NO","3hpv0jpgdv","2","79","73","85","","","","","","","","","","","","","","","",""
"null","audio/beep-329314.mp3","null","audio-keyboard-response","153","2.1.0","181185","F=YES, J=NO","3hpv0jpgdv","2","79","73","85","","","","","","","","","","","","","","","",""
"null","audio/survey1.wav","null","audio-keyboard-response","154","2.1.0","181975","F=YES, J=NO","3hpv0jpgdv","2","79","73","85","","","","","","","","","","","","","","","",""
"298","
          <p id=""word"" style=""font-size: 40px;"">imploth</p>
          <p style=""font-size: 16px;"">F = YES &nbsp;&nbsp;&nbsp; J = NO</p>
        ","f","html-keyboard-response","155","2.1.0","182274","F=YES, J=NO","3hpv0jpgdv","2","79","73","85","","","","","","","","","imploth","survey1","pseudoword","pseudoword","j","false","",""
"null","<p style=""font-size: 50px;"">+</p>","null","html-keyboard-response","156","2.1.0","182576","F=YES, J=NO","3hpv0jpgdv","2","79","73","85","","","","","","","","","","","","","","","",""
"null","audio/beep-329314.mp3","null","audio-keyboard-response","157","2.1.0","184125","F=YES, J=NO","3hpv0jpgdv","2","79","73","85","","","","","","","","","","","","","","","",""
"null","audio/ankle1.wav","null","audio-keyboard-response","158","2.1.0","184695","F=YES, J=NO","3hpv0jpgdv","2","79","73","85","","","","","","","","","","","","","","","",""
"624","
          <p id=""word"" style=""font-size: 40px;"">kick</p>
          <p style=""font-size: 16px;"">F = YES &nbsp;&nbsp;&nbsp; J = NO</p>
        ","f","html-keyboard-response","159","2.1.0","185319","F=YES, J=NO","3hpv0jpgdv","2","79","73","85","","","","","","","","","kick","ankle1","filler","filler","f","true","",""
"null","<p style=""font-size: 50px;"">+</p>","null","html-keyboard-response","160","2.1.0","185621","F=YES, J=NO","3hpv0jpgdv","2","79","73","85","","","","","","","","","","","","","","","",""
"null","audio/beep-329314.mp3","null","audio-keyboard-response","161","2.1.0","187164","F=YES, J=NO","3hpv0jpgdv","2","79","73","85","","","","","","","","","","","","","","","",""
"null","audio/sugar1.wav","null","audio-keyboard-response","162","2.1.0","187695","F=YES, J=NO","3hpv0jpgdv","2","79","73","85","","","","","","","","","","","","","","","",""
"442","
          <p id=""word"" style=""font-size: 40px;"">glung</p>
          <p style=""font-size: 16px;"">F = YES &nbsp;&nbsp;&nbsp; J = NO</p>
        ","f","html-keyboard-response","163","2.1.0","188137","F=YES, J=NO","3hpv0jpgdv","2","79","73","85","","","","","","","","","glung","sugar1","pseudoword","pseudoword","j","false","",""
"7980","
    <div style=""max-width: 800px; margin: auto; text-align: left;"">
      <h2>Part 2: Main Trials</h2>
      <p>Great job on the practice trials!</p>
      <p>You will now begin the <strong>main set of trials</strong>.</p>
      <p>Remember your key assignments:</p>
      <ul>
        <li><strong>F</strong> = YES (real English word)</li>
        <li><strong>J</strong> = NO (not a real English word)</li>
      </ul>
      <p>Try to respond as <strong>quickly and accurately</strong> as possible.</p>
      <p style=""margin-top: 2em;"">Press any key to begin the main trials.</p>
    </div>
  ","j","html-keyboard-response","164","2.1.0","196118","F=YES, J=NO","3hpv0jpgdv","2","79","73","85","","","","","","","","","","","","","","","",""
"2213","<p>Starting main block 1 of 8. Press any key to continue.</p>","f","html-keyboard-response","165","2.1.0","198331","F=YES, J=NO","3hpv0jpgdv","2","79","73","85","","","","","","","","","","","","","","","",""
"null","<p style=""font-size: 50px;"">+</p>","null","html-keyboard-response","166","2.1.0","198636","F=YES, J=NO","3hpv0jpgdv","2","79","73","85","","","","","","","","","","","","","","","",""
"null","audio/beep-329314.mp3","null","audio-keyboard-response","167","2.1.0","200183","F=YES, J=NO","3hpv0jpgdv","2","79","73","85","","","","","","","","","","","","","","","",""
"null","audio/handle.wav","null","audio-keyboard-response","168","2.1.0","200823","F=YES, J=NO","3hpv0jpgdv","2","79","73","85","","","","","","","","","","","","","","","",""
"249","
          <p id=""word"" style=""font-size: 40px;"">grasp</p>
          <p style=""font-size: 16px;"">F = YES &nbsp;&nbsp;&nbsp; J = NO</p>
        ","f","html-keyboard-response","169","2.1.0","201073","F=YES, J=NO","3hpv0jpgdv","2","79","73","85","","","","","","","","","grasp","handle","literal","experimental","f","true","",""
"null","<p style=""font-size: 50px;"">+</p>","null","html-keyboard-response","170","2.1.0","201379","F=YES, J=NO","3hpv0jpgdv","2","79","73","85","","","","","","","","","","","","","","","",""
"null","audio/beep-329314.mp3","null","audio-keyboard-response","171","2.1.0","202943","F=YES, J=NO","3hpv0jpgdv","2","79","73","85","","","","","","","","","","","","","","","",""
"null","audio/trust.wav","null","audio-keyboard-response","172","2.1.0","203603","F=YES, J=NO","3hpv0jpgdv","2","79","73","85","","","","","","","","","","","","","","","",""
"33","
          <p id=""word"" style=""font-size: 40px;"">build</p>
          <p style=""font-size: 16px;"">F = YES &nbsp;&nbsp;&nbsp; J = NO</p>
        ","f","html-keyboard-response","173","2.1.0","203636","F=YES, J=NO","3hpv0jpgdv","2","79","73","85","","","","","","","","","build","trust","metaphor","experimental","f","true","",""
"null","<p style=""font-size: 50px;"">+</p>","null","html-keyboard-response","174","2.1.0","203942","F=YES, J=NO","3hpv0jpgdv","2","79","73","85","","","","","","","","","","","","","","","",""
"null","audio/beep-329314.mp3","null","audio-keyboard-response","175","2.1.0","205504","F=YES, J=NO","3hpv0jpgdv","2","79","73","85","","","","","","","","","","","","","","","",""
"null","audio/desire.wav","null","audio-keyboard-response","176","2.1.0","206143","F=YES, J=NO","3hpv0jpgdv","2","79","73","85","","","","","","","","","","","","","","","",""
"385","
          <p id=""word"" style=""font-size: 40px;"">nophed</p>
          <p style=""font-size: 16px;"">F = YES &nbsp;&nbsp;&nbsp; J = NO</p>
        ","f","html-keyboard-response","177","2.1.0","206529","F=YES, J=NO","3hpv0jpgdv","2","79","73","85","","","","","","","","","nophed","desire","pseudoword","pseudoword","j","false","",""
"null","<p style=""font-size: 50px;"">+</p>","null","html-keyboard-response","178","2.1.0","206831","F=YES, J=NO","3hpv0jpgdv","2","79","73","85","","","","","","","","","","","","","","","",""
"null","audio/beep-329314.mp3","null","audio-keyboard-response","179","2.1.0","208403","F=YES, J=NO","3hpv0jpgdv","2","79","73","85","","","","","","","","","","","","","","","",""
"null","audio/pain1.wav","null","audio-keyboard-response","180","2.1.0","208883","F=YES, J=NO","3hpv0jpgdv","2","79","73","85","","","","","","","","","","","","","","","",""
"350","
          <p id=""word"" style=""font-size: 40px;"">tritted</p>
          <p style=""font-size: 16px;"">F = YES &nbsp;&nbsp;&nbsp; J = NO</p>
        ","f","html-keyboard-response","181","2.1.0","209234","F=YES, J=NO","3hpv0jpgdv","2","79","73","85","","","","","","","","","tritted","pain1","pseudoword","pseudoword","j","false","",""
"null","<p style=""font-size: 50px;"">+</p>","null","html-keyboard-response","182","2.1.0","209539","F=YES, J=NO","3hpv0jpgdv","2","79","73","85","","","","","","","","","","","","","","","",""
"null","audio/beep-329314.mp3","null","audio-keyboard-response","183","2.1.0","211103","F=YES, J=NO","3hpv0jpgdv","2","79","73","85","","","","","","","","","","","","","","","",""
"null","audio/inch1.wav","null","audio-keyboard-response","184","2.1.0","211844","F=YES, J=NO","3hpv0jpgdv","2","79","73","85","","","","","","","","","","","","","","","",""
"397","
          <p id=""word"" style=""font-size: 40px;"">lose</p>
          <p style=""font-size: 16px;"">F = YES &nbsp;&nbsp;&nbsp; J = NO</p>
        ","f","html-keyboard-response","185","2.1.0","212241","F=YES, J=NO","3hpv0jpgdv","2","79","73","85","","","","","","","","","lose","inch1","metaphor","experimental","f","true","",""
"null","<p style=""font-size: 50px;"">+</p>","null","html-keyboard-response","186","2.1.0","212541","F=YES, J=NO","3hpv0jpgdv","2","79","73","85","","","","","","","","","","","","","","","",""
"null","audio/beep-329314.mp3","null","audio-keyboard-response","187","2.1.0","214103","F=YES, J=NO","3hpv0jpgdv","2","79","73","85","","","","","","","","","","","","","","","",""
"null","audio/uncle1.wav","null","audio-keyboard-response","188","2.1.0","214603","F=YES, J=NO","3hpv0jpgdv","2","79","73","85","","","","","","","","","","","","","","","",""
"173","
          <p id=""word"" style=""font-size: 40px;"">break</p>
          <p style=""font-size: 16px;"">F = YES &nbsp;&nbsp;&nbsp; J = NO</p>
        ","f","html-keyboard-response","189","2.1.0","214776","F=YES, J=NO","3hpv0jpgdv","2","79","73","85","","","","","","","","","break","uncle1","unrelated","experimental","f","true","",""
"null","<p style=""font-size: 50px;"">+</p>","null","html-keyboard-response","190","2.1.0","215081","F=YES, J=NO","3hpv0jpgdv","2","79","73","85","","","","","","","","","","","","","","","",""
"null","audio/beep-329314.mp3","null","audio-keyboard-response","191","2.1.0","216643","F=YES, J=NO","3hpv0jpgdv","2","79","73","85","","","","","","","","","","","","","","","",""
"null","audio/table1.wav","null","audio-keyboard-response","192","2.1.0","217183","F=YES, J=NO","3hpv0jpgdv","2","79","73","85","","","","","","","","","","","","","","","",""
"3","
          <p id=""word"" style=""font-size: 40px;"">stimb</p>
          <p style=""font-size: 16px;"">F = YES &nbsp;&nbsp;&nbsp; J = NO</p>
        ","f","html-keyboard-response","193","2.1.0","217187","F=YES, J=NO","3hpv0jpgdv","2","79","73","85","","","","","","","","","stimb","table1","pseudoword","pseudoword","j","false","",""
"null","<p style=""font-size: 50px;"">+</p>","null","html-keyboard-response","194","2.1.0","217488","F=YES, J=NO","3hpv0jpgdv","2","79","73","85","","","","","","","","","","","","","","","",""
"null","audio/beep-329314.mp3","null","audio-keyboard-response","195","2.1.0","219063","F=YES, J=NO","3hpv0jpgdv","2","79","73","85","","","","","","","","","","","","","","","",""
"null","audio/life1.wav","null","audio-keyboard-response","196","2.1.0","219684","F=YES, J=NO","3hpv0jpgdv","2","79","73","85","","","","","","","","","","","","","","","",""
"151","
          <p id=""word"" style=""font-size: 40px;"">flimch</p>
          <p style=""font-size: 16px;"">F = YES &nbsp;&nbsp;&nbsp; J = NO</p>
        ","f","html-keyboard-response","197","2.1.0","219835","F=YES, J=NO","3hpv0jpgdv","2","79","73","85","","","","","","","","","flimch","life1","pseudoword","pseudoword","j","false","",""
"null","<p style=""font-size: 50px;"">+</p>","null","html-keyboard-response","198","2.1.0","220136","F=YES, J=NO","3hpv0jpgdv","2","79","73","85","","","","","","","","","","","","","","","",""
"null","audio/beep-329314.mp3","null","audio-keyboard-response","199","2.1.0","221703","F=YES, J=NO","3hpv0jpgdv","2","79","73","85","","","","","","","","","","","","","","","",""
"null","audio/alarm1.wav","null","audio-keyboard-response","200","2.1.0","222323","F=YES, J=NO","3hpv0jpgdv","2","79","73","85","","","","","","","","","","","","","","","",""
"103","
          <p id=""word"" style=""font-size: 40px;"">save</p>
          <p style=""font-size: 16px;"">F = YES &nbsp;&nbsp;&nbsp; J = NO</p>
        ","f","html-keyboard-response","201","2.1.0","222426","F=YES, J=NO","3hpv0jpgdv","2","79","73","85","","","","","","","","","save","alarm1","unrelated","experimental","f","true","",""
"null","<p style=""font-size: 50px;"">+</p>","null","html-keyboard-response","202","2.1.0","222726","F=YES, J=NO","3hpv0jpgdv","2","79","73","85","","","","","","","","","","","","","","","",""
"null","audio/beep-329314.mp3","null","audio-keyboard-response","203","2.1.0","224284","F=YES, J=NO","3hpv0jpgdv","2","79","73","85","","","","","","","","","","","","","","","",""
"null","audio/pattern.wav","null","audio-keyboard-response","204","2.1.0","224823","F=YES, J=NO","3hpv0jpgdv","2","79","73","85","","","","","","","","","","","","","","","",""
"62","
          <p id=""word"" style=""font-size: 40px;"">tug</p>
          <p style=""font-size: 16px;"">F = YES &nbsp;&nbsp;&nbsp; J = NO</p>
        ","f","html-keyboard-response","205","2.1.0","224885","F=YES, J=NO","3hpv0jpgdv","2","79","73","85","","","","","","","","","tug","pattern","filler","filler","f","true","",""
"null","<p style=""font-size: 50px;"">+</p>","null","html-keyboard-response","206","2.1.0","225192","F=YES, J=NO","3hpv0jpgdv","2","79","73","85","","","","","","","","","","","","","","","",""
"null","audio/beep-329314.mp3","null","audio-keyboard-response","207","2.1.0","226763","F=YES, J=NO","3hpv0jpgdv","2","79","73","85","","","","","","","","","","","","","","","",""
"null","audio/effort.wav","null","audio-keyboard-response","208","2.1.0","227404","F=YES, J=NO","3hpv0jpgdv","2","79","73","85","","","","","","","","","","","","","","","",""
"535","
          <p id=""word"" style=""font-size: 40px;"">whonk</p>
          <p style=""font-size: 16px;"">F = YES &nbsp;&nbsp;&nbsp; J = NO</p>
        ","f","html-keyboard-response","209","2.1.0","227939","F=YES, J=NO","3hpv0jpgdv","2","79","73","85","","","","","","","","","whonk","effort","pseudoword","pseudoword","j","false","",""
"null","<p style=""font-size: 50px;"">+</p>","null","html-keyboard-response","210","2.1.0","228240","F=YES, J=NO","3hpv0jpgdv","2","79","73","85","","","","","","","","","","","","","","","",""
"null","audio/beep-329314.mp3","null","audio-keyboard-response","211","2.1.0","229783","F=YES, J=NO","3hpv0jpgdv","2","79","73","85","","","","","","","","","","","","","","","",""
"null","audio/stain.wav","null","audio-keyboard-response","212","2.1.0","230463","F=YES, J=NO","3hpv0jpgdv","2","79","73","85","","","","","","","","","","","","","","","",""
"332","
          <p id=""word"" style=""font-size: 40px;"">wipe</p>
          <p style=""font-size: 16px;"">F = YES &nbsp;&nbsp;&nbsp; J = NO</p>
        ","f","html-keyboard-response","213","2.1.0","230795","F=YES, J=NO","3hpv0jpgdv","2","79","73","85","","","","","","","","","wipe","stain","literal","experimental","f","true","",""
"null","<p style=""font-size: 50px;"">+</p>","null","html-keyboard-response","214","2.1.0","231101","F=YES, J=NO","3hpv0jpgdv","2","79","73","85","","","","","","","","","","","","","","","",""
"null","audio/beep-329314.mp3","null","audio-keyboard-response","215","2.1.0","232644","F=YES, J=NO","3hpv0jpgdv","2","79","73","85","","","","","","","","","","","","","","","",""
"null","audio/topic.wav","null","audio-keyboard-response","216","2.1.0","233263","F=YES, J=NO","3hpv0jpgdv","2","79","73","85","","","","","","","","","","","","","","","",""
"428","
          <p id=""word"" style=""font-size: 40px;"">infortuitist</p>
          <p style=""font-size: 16px;"">F = YES &nbsp;&nbsp;&nbsp; J = NO</p>
        ","f","html-keyboard-response","217","2.1.0","233691","F=YES, J=NO","3hpv0jpgdv","2","79","73","85","","","","","","","","","infortuitist","topic","pseudoword","pseudoword","j","false","",""
"null","<p style=""font-size: 50px;"">+</p>","null","html-keyboard-response","218","2.1.0","233997","F=YES, J=NO","3hpv0jpgdv","2","79","73","85","","","","","","","","","","","","","","","",""
"null","audio/beep-329314.mp3","null","audio-keyboard-response","219","2.1.0","235563","F=YES, J=NO","3hpv0jpgdv","2","79","73","85","","","","","","","","","","","","","","","",""
"null","audio/truth1.wav","null","audio-keyboard-response","220","2.1.0","236263","F=YES, J=NO","3hpv0jpgdv","2","79","73","85","","","","","","","","","","","","","","","",""
"177","
          <p id=""word"" style=""font-size: 40px;"">calitom</p>
          <p style=""font-size: 16px;"">F = YES &nbsp;&nbsp;&nbsp; J = NO</p>
        ","f","html-keyboard-response","221","2.1.0","236440","F=YES, J=NO","3hpv0jpgdv","2","79","73","85","","","","","","","","","calitom","truth1","pseudoword","pseudoword","j","false","",""
"null","<p style=""font-size: 50px;"">+</p>","null","html-keyboard-response","222","2.1.0","236747","F=YES, J=NO","3hpv0jpgdv","2","79","73","85","","","","","","","","","","","","","","","",""
"null","audio/beep-329314.mp3","null","audio-keyboard-response","223","2.1.0","238323","F=YES, J=NO","3hpv0jpgdv","2","79","73","85","","","","","","","","","","","","","","","",""
"null","audio/test1.wav","null","audio-keyboard-response","224","2.1.0","238923","F=YES, J=NO","3hpv0jpgdv","2","79","73","85","","","","","","","","","","","","","","","",""
"156","
          <p id=""word"" style=""font-size: 40px;"">run</p>
          <p style=""font-size: 16px;"">F = YES &nbsp;&nbsp;&nbsp; J = NO</p>
        ","f","html-keyboard-response","225","2.1.0","239079","F=YES, J=NO","3hpv0jpgdv","2","79","73","85","","","","","","","","","run","test1","metaphor","experimental","f","true","",""
"null","<p style=""font-size: 50px;"">+</p>","null","html-keyboard-response","226","2.1.0","239383","F=YES, J=NO","3hpv0jpgdv","2","79","73","85","","","","","","","","","","","","","","","",""
"null","audio/beep-329314.mp3","null","audio-keyboard-response","227","2.1.0","240963","F=YES, J=NO","3hpv0jpgdv","2","79","73","85","","","","","","","","","","","","","","","",""
"null","audio/gift1.wav","null","audio-keyboard-response","228","2.1.0","241463","F=YES, J=NO","3hpv0jpgdv","2","79","73","85","","","","","","","","","","","","","","","",""
"660","
          <p id=""word"" style=""font-size: 40px;"">give</p>
          <p style=""font-size: 16px;"">F = YES &nbsp;&nbsp;&nbsp; J = NO</p>
        ","f","html-keyboard-response","229","2.1.0","242124","F=YES, J=NO","3hpv0jpgdv","2","79","73","85","","","","","","","","","give","gift1","literal","experimental","f","true","",""
"54129","<p>Excellent! You have finished block 1 of 8.</p>
                     <p>Feel free to take a 30 second break.</p>
                     <p>Press any key when you're ready to continue.</p>","f","html-keyboard-response","230","2.1.0","296253","F=YES, J=NO","3hpv0jpgdv","2","79","73","85","","","","","","","","","","","","","","","",""
"831","<p>Starting main block 2 of 8. Press any key to continue.</p>","f","html-keyboard-response","231","2.1.0","297085","F=YES, J=NO","3hpv0jpgdv","2","79","73","85","","","","","","","","","","","","","","","",""
"null","<p style=""font-size: 50px;"">+</p>","null","html-keyboard-response","232","2.1.0","297392","F=YES, J=NO","3hpv0jpgdv","2","79","73","85","","","","","","","","","","","","","","","",""
"null","audio/beep-329314.mp3","null","audio-keyboard-response","233","2.1.0","298914","F=YES, J=NO","3hpv0jpgdv","2","79","73","85","","","","","","","","","","","","","","","",""
"null","audio/burden.wav","null","audio-keyboard-response","234","2.1.0","299424","F=YES, J=NO","3hpv0jpgdv","2","79","73","85","","","","","","","","","","","","","","","",""
"431","
          <p id=""word"" style=""font-size: 40px;"">carry</p>
          <p style=""font-size: 16px;"">F = YES &nbsp;&nbsp;&nbsp; J = NO</p>
        ","f","html-keyboard-response","235","2.1.0","299856","F=YES, J=NO","3hpv0jpgdv","2","79","73","85","","","","","","","","","carry","burden","metaphor","experimental","f","true","",""
"null","<p style=""font-size: 50px;"">+</p>","null","html-keyboard-response","236","2.1.0","300159","F=YES, J=NO","3hpv0jpgdv","2","79","73","85","","","","","","","","","","","","","","","",""
"null","audio/beep-329314.mp3","null","audio-keyboard-response","237","2.1.0","301694","F=YES, J=NO","3hpv0jpgdv","2","79","73","85","","","","","","","","","","","","","","","",""
"null","audio/winter.wav","null","audio-keyboard-response","238","2.1.0","302284","F=YES, J=NO","3hpv0jpgdv","2","79","73","85","","","","","","","","","","","","","","","",""
"257","
          <p id=""word"" style=""font-size: 40px;"">expose</p>
          <p style=""font-size: 16px;"">F = YES &nbsp;&nbsp;&nbsp; J = NO</p>
        ","f","html-keyboard-response","239","2.1.0","302541","F=YES, J=NO","3hpv0jpgdv","2","79","73","85","","","","","","","","","expose","winter","unrelated","experimental","f","true","",""
"null","<p style=""font-size: 50px;"">+</p>","null","html-keyboard-response","240","2.1.0","302844","F=YES, J=NO","3hpv0jpgdv","2","79","73","85","","","","","","","","","","","","","","","",""
"null","audio/beep-329314.mp3","null","audio-keyboard-response","241","2.1.0","304374","F=YES, J=NO","3hpv0jpgdv","2","79","73","85","","","","","","","","","","","","","","","",""
"null","audio/prisoner.wav","null","audio-keyboard-response","242","2.1.0","304904","F=YES, J=NO","3hpv0jpgdv","2","79","73","85","","","","","","","","","","","","","","","",""
"455","
          <p id=""word"" style=""font-size: 40px;"">egotian</p>
          <p style=""font-size: 16px;"">F = YES &nbsp;&nbsp;&nbsp; J = NO</p>
        ","f","html-keyboard-response","243","2.1.0","305359","F=YES, J=NO","3hpv0jpgdv","2","79","73","85","","","","","","","","","egotian","prisoner","pseudoword","pseudoword","j","false","",""
"null","<p style=""font-size: 50px;"">+</p>","null","html-keyboard-response","244","2.1.0","305660","F=YES, J=NO","3hpv0jpgdv","2","79","73","85","","","","","","","","","","","","","","","",""
"null","audio/beep-329314.mp3","null","audio-keyboard-response","245","2.1.0","307194","F=YES, J=NO","3hpv0jpgdv","2","79","73","85","","","","","","","","","","","","","","","",""
"null","audio/camera1.wav","null","audio-keyboard-response","246","2.1.0","307744","F=YES, J=NO","3hpv0jpgdv","2","79","73","85","","","","","","","","","","","","","","","",""
"254","
          <p id=""word"" style=""font-size: 40px;"">stir</p>
          <p style=""font-size: 16px;"">F = YES &nbsp;&nbsp;&nbsp; J = NO</p>
        ","f","html-keyboard-response","247","2.1.0","307998","F=YES, J=NO","3hpv0jpgdv","2","79","73","85","","","","","","","","","stir","camera1","filler","filler","f","true","",""
"null","<p style=""font-size: 50px;"">+</p>","null","html-keyboard-response","248","2.1.0","308302","F=YES, J=NO","3hpv0jpgdv","2","79","73","85","","","","","","","","","","","","","","","",""
"null","audio/beep-329314.mp3","null","audio-keyboard-response","249","2.1.0","309834","F=YES, J=NO","3hpv0jpgdv","2","79","73","85","","","","","","","","","","","","","","","",""
"null","audio/beach1.wav","null","audio-keyboard-response","250","2.1.0","310484","F=YES, J=NO","3hpv0jpgdv","2","79","73","85","","","","","","","","","","","","","","","",""
"341","
          <p id=""word"" style=""font-size: 40px;"">drive</p>
          <p style=""font-size: 16px;"">F = YES &nbsp;&nbsp;&nbsp; J = NO</p>
        ","f","html-keyboard-response","251","2.1.0","310825","F=YES, J=NO","3hpv0jpgdv","2","79","73","85","","","","","","","","","drive","beach1","filler","filler","f","true","",""
"null","<p style=""font-size: 50px;"">+</p>","null","html-keyboard-response","252","2.1.0","311127","F=YES, J=NO","3hpv0jpgdv","2","79","73","85","","","","","","","","","","","","","","","",""
"null","audio/beep-329314.mp3","null","audio-keyboard-response","253","2.1.0","312654","F=YES, J=NO","3hpv0jpgdv","2","79","73","85","","","","","","","","","","","","","","","",""
"null","audio/vehicle1.wav","null","audio-keyboard-response","254","2.1.0","313364","F=YES, J=NO","3hpv0jpgdv","2","79","73","85","","","","","","","","","","","","","","","",""
"534","
          <p id=""word"" style=""font-size: 40px;"">dropt</p>
          <p style=""font-size: 16px;"">F = YES &nbsp;&nbsp;&nbsp; J = NO</p>
        ","f","html-keyboard-response","255","2.1.0","313898","F=YES, J=NO","3hpv0jpgdv","2","79","73","85","","","","","","","","","dropt","vehicle1","pseudoword","pseudoword","j","false","",""
"null","<p style=""font-size: 50px;"">+</p>","null","html-keyboard-response","256","2.1.0","314199","F=YES, J=NO","3hpv0jpgdv","2","79","73","85","","","","","","","","","","","","","","","",""
"null","audio/beep-329314.mp3","null","audio-keyboard-response","257","2.1.0","315734","F=YES, J=NO","3hpv0jpgdv","2","79","73","85","","","","","","","","","","","","","","","",""
"null","audio/demon1.wav","null","audio-keyboard-response","258","2.1.0","316264","F=YES, J=NO","3hpv0jpgdv","2","79","73","85","","","","","","","","","","","","","","","",""
"205","
          <p id=""word"" style=""font-size: 40px;"">wrestle</p>
          <p style=""font-size: 16px;"">F = YES &nbsp;&nbsp;&nbsp; J = NO</p>
        ","f","html-keyboard-response","259","2.1.0","316470","F=YES, J=NO","3hpv0jpgdv","2","79","73","85","","","","","","","","","wrestle","demon1","metaphor","experimental","f","true","",""
"null","<p style=""font-size: 50px;"">+</p>","null","html-keyboard-response","260","2.1.0","316771","F=YES, J=NO","3hpv0jpgdv","2","79","73","85","","","","","","","","","","","","","","","",""
"null","audio/beep-329314.mp3","null","audio-keyboard-response","261","2.1.0","318294","F=YES, J=NO","3hpv0jpgdv","2","79","73","85","","","","","","","","","","","","","","","",""
"null","audio/terrain.wav","null","audio-keyboard-response","262","2.1.0","318904","F=YES, J=NO","3hpv0jpgdv","2","79","73","85","","","","","","","","","","","","","","","",""
"290","
          <p id=""word"" style=""font-size: 40px;"">twist</p>
          <p style=""font-size: 16px;"">F = YES &nbsp;&nbsp;&nbsp; J = NO</p>
        ","f","html-keyboard-response","263","2.1.0","319194","F=YES, J=NO","3hpv0jpgdv","2","79","73","85","","","","","","","","","twist","terrain","filler","filler","f","true","",""
"null","<p style=""font-size: 50px;"">+</p>","null","html-keyboard-response","264","2.1.0","319496","F=YES, J=NO","3hpv0jpgdv","2","79","73","85","","","","","","","","","","","","","","","",""
"null","audio/beep-329314.mp3","null","audio-keyboard-response","265","2.1.0","321034","F=YES, J=NO","3hpv0jpgdv","2","79","73","85","","","","","","","","","","","","","","","",""
"null","audio/gossip1.wav","null","audio-keyboard-response","266","2.1.0","321704","F=YES, J=NO","3hpv0jpgdv","2","79","73","85","","","","","","","","","","","","","","","",""
"1035","
          <p id=""word"" style=""font-size: 40px;"">camerish</p>
          <p style=""font-size: 16px;"">F = YES &nbsp;&nbsp;&nbsp; J = NO</p>
        ","f","html-keyboard-response","267","2.1.0","322740","F=YES, J=NO","3hpv0jpgdv","2","79","73","85","","","","","","","","","camerish","gossip1","pseudoword","pseudoword","j","false","",""
"null","<p style=""font-size: 50px;"">+</p>","null","html-keyboard-response","268","2.1.0","323044","F=YES, J=NO","3hpv0jpgdv","2","79","73","85","","","","","","","","","","","","","","","",""
"null","audio/beep-329314.mp3","null","audio-keyboard-response","269","2.1.0","324574","F=YES, J=NO","3hpv0jpgdv","2","79","73","85","","","","","","","","","","","","","","","",""
"null","audio/pine.wav","null","audio-keyboard-response","270","2.1.0","325104","F=YES, J=NO","3hpv0jpgdv","2","79","73","85","","","","","","","","","","","","","","","",""
"96","
          <p id=""word"" style=""font-size: 40px;"">crebble</p>
          <p style=""font-size: 16px;"">F = YES &nbsp;&nbsp;&nbsp; J = NO</p>
        ","f","html-keyboard-response","271","2.1.0","325200","F=YES, J=NO","3hpv0jpgdv","2","79","73","85","","","","","","","","","crebble","pine","pseudoword","pseudoword","j","false","",""
"null","<p style=""font-size: 50px;"">+</p>","null","html-keyboard-response","272","2.1.0","325503","F=YES, J=NO","3hpv0jpgdv","2","79","73","85","","","","","","","","","","","","","","","",""
"null","audio/beep-329314.mp3","null","audio-keyboard-response","273","2.1.0","327034","F=YES, J=NO","3hpv0jpgdv","2","79","73","85","","","","","","","","","","","","","","","",""
"null","audio/weight1.wav","null","audio-keyboard-response","274","2.1.0","327604","F=YES, J=NO","3hpv0jpgdv","2","79","73","85","","","","","","","","","","","","","","","",""
"375","
          <p id=""word"" style=""font-size: 40px;"">crimsh</p>
          <p style=""font-size: 16px;"">F = YES &nbsp;&nbsp;&nbsp; J = NO</p>
        ","f","html-keyboard-response","275","2.1.0","327979","F=YES, J=NO","3hpv0jpgdv","2","79","73","85","","","","","","","","","crimsh","weight1","pseudoword","pseudoword","j","false","",""
"null","<p style=""font-size: 50px;"">+</p>","null","html-keyboard-response","276","2.1.0","328280","F=YES, J=NO","3hpv0jpgdv","2","79","73","85","","","","","","","","","","","","","","","",""
"null","audio/beep-329314.mp3","null","audio-keyboard-response","277","2.1.0","329814","F=YES, J=NO","3hpv0jpgdv","2","79","73","85","","","","","","","","","","","","","","","",""
"null","audio/foe1.wav","null","audio-keyboard-response","278","2.1.0","330344","F=YES, J=NO","3hpv0jpgdv","2","79","73","85","","","","","","","","","","","","","","","",""
"576","
          <p id=""word"" style=""font-size: 40px;"">conquer</p>
          <p style=""font-size: 16px;"">F = YES &nbsp;&nbsp;&nbsp; J = NO</p>
        ","f","html-keyboard-response","279","2.1.0","330920","F=YES, J=NO","3hpv0jpgdv","2","79","73","85","","","","","","","","","conquer","foe1","literal","experimental","f","true","",""
"null","<p style=""font-size: 50px;"">+</p>","null","html-keyboard-response","280","2.1.0","331222","F=YES, J=NO","3hpv0jpgdv","2","79","73","85","","","","","","","","","","","","","","","",""
"null","audio/beep-329314.mp3","null","audio-keyboard-response","281","2.1.0","332754","F=YES, J=NO","3hpv0jpgdv","2","79","73","85","","","","","","","","","","","","","","","",""
"null","audio/theory1.wav","null","audio-keyboard-response","282","2.1.0","333424","F=YES, J=NO","3hpv0jpgdv","2","79","73","85","","","","","","","","","","","","","","","",""
"1165","
          <p id=""word"" style=""font-size: 40px;"">scolve</p>
          <p style=""font-size: 16px;"">F = YES &nbsp;&nbsp;&nbsp; J = NO</p>
        ","f","html-keyboard-response","283","2.1.0","334589","F=YES, J=NO","3hpv0jpgdv","2","79","73","85","","","","","","","","","scolve","theory1","pseudoword","pseudoword","j","false","",""
"null","<p style=""font-size: 50px;"">+</p>","null","html-keyboard-response","284","2.1.0","334892","F=YES, J=NO","3hpv0jpgdv","2","79","73","85","","","","","","","","","","","","","","","",""
"null","audio/beep-329314.mp3","null","audio-keyboard-response","285","2.1.0","336415","F=YES, J=NO","3hpv0jpgdv","2","79","73","85","","","","","","","","","","","","","","","",""
"null","audio/ego.wav","null","audio-keyboard-response","286","2.1.0","337124","F=YES, J=NO","3hpv0jpgdv","2","79","73","85","","","","","","","","","","","","","","","",""
"273","
          <p id=""word"" style=""font-size: 40px;"">bruite</p>
          <p style=""font-size: 16px;"">F = YES &nbsp;&nbsp;&nbsp; J = NO</p>
        ","f","html-keyboard-response","287","2.1.0","337397","F=YES, J=NO","3hpv0jpgdv","2","79","73","85","","","","","","","","","bruite","ego","pseudoword","pseudoword","j","false","",""
"null","<p style=""font-size: 50px;"">+</p>","null","html-keyboard-response","288","2.1.0","337698","F=YES, J=NO","3hpv0jpgdv","2","79","73","85","","","","","","","","","","","","","","","",""
"null","audio/beep-329314.mp3","null","audio-keyboard-response","289","2.1.0","339234","F=YES, J=NO","3hpv0jpgdv","2","79","73","85","","","","","","","","","","","","","","","",""
"null","audio/sugar1.wav","null","audio-keyboard-response","290","2.1.0","339724","F=YES, J=NO","3hpv0jpgdv","2","79","73","85","","","","","","","","","","","","","","","",""
"198","
          <p id=""word"" style=""font-size: 40px;"">approach</p>
          <p style=""font-size: 16px;"">F = YES &nbsp;&nbsp;&nbsp; J = NO</p>
        ","f","html-keyboard-response","291","2.1.0","339922","F=YES, J=NO","3hpv0jpgdv","2","79","73","85","","","","","","","","","approach","sugar1","unrelated","experimental","f","true","",""
"null","<p style=""font-size: 50px;"">+</p>","null","html-keyboard-response","292","2.1.0","340224","F=YES, J=NO","3hpv0jpgdv","2","79","73","85","","","","","","","","","","","","","","","",""
"null","audio/beep-329314.mp3","null","audio-keyboard-response","293","2.1.0","341754","F=YES, J=NO","3hpv0jpgdv","2","79","73","85","","","","","","","","","","","","","","","",""
"null","audio/plot1.wav","null","audio-keyboard-response","294","2.1.0","342324","F=YES, J=NO","3hpv0jpgdv","2","79","73","85","","","","","","","","","","","","","","","",""
"274","
          <p id=""word"" style=""font-size: 40px;"">weave</p>
          <p style=""font-size: 16px;"">F = YES &nbsp;&nbsp;&nbsp; J = NO</p>
        ","f","html-keyboard-response","295","2.1.0","342598","F=YES, J=NO","3hpv0jpgdv","2","79","73","85","","","","","","","","","weave","plot1","metaphor","experimental","f","true","",""
"41391","<p>Excellent! You have finished block 2 of 8.</p>
                     <p>Feel free to take a 30 second break.</p>
                     <p>Press any key when you're ready to continue.</p>","f","html-keyboard-response","296","2.1.0","383989","F=YES, J=NO","3hpv0jpgdv","2","79","73","85","","","","","","","","","","","","","","","",""
"1002","<p>Starting main block 3 of 8. Press any key to continue.</p>","f","html-keyboard-response","297","2.1.0","384991","F=YES, J=NO","3hpv0jpgdv","2","79","73","85","","","","","","","","","","","","","","","",""
"null","<p style=""font-size: 50px;"">+</p>","null","html-keyboard-response","298","2.1.0","385293","F=YES, J=NO","3hpv0jpgdv","2","79","73","85","","","","","","","","","","","","","","","",""
"null","audio/beep-329314.mp3","null","audio-keyboard-response","299","2.1.0","386816","F=YES, J=NO","3hpv0jpgdv","2","79","73","85","","","","","","","","","","","","","","","",""
"null","audio/fence.wav","null","audio-keyboard-response","300","2.1.0","387476","F=YES, J=NO","3hpv0jpgdv","2","79","73","85","","","","","","","","","","","","","","","",""
"399","
          <p id=""word"" style=""font-size: 40px;"">climb</p>
          <p style=""font-size: 16px;"">F = YES &nbsp;&nbsp;&nbsp; J = NO</p>
        ","f","html-keyboard-response","301","2.1.0","387875","F=YES, J=NO","3hpv0jpgdv","2","79","73","85","","","","","","","","","climb","fence","literal","experimental","f","true","",""
"null","<p style=""font-size: 50px;"">+</p>","null","html-keyboard-response","302","2.1.0","388179","F=YES, J=NO","3hpv0jpgdv","2","79","73","85","","","","","","","","","","","","","","","",""
"null","audio/beep-329314.mp3","null","audio-keyboard-response","303","2.1.0","389715","F=YES, J=NO","3hpv0jpgdv","2","79","73","85","","","","","","","","","","","","","","","",""
"null","audio/terrain.wav","null","audio-keyboard-response","304","2.1.0","390315","F=YES, J=NO","3hpv0jpgdv","2","79","73","85","","","","","","","","","","","","","","","",""
"199","
          <p id=""word"" style=""font-size: 40px;"">navigate</p>
          <p style=""font-size: 16px;"">F = YES &nbsp;&nbsp;&nbsp; J = NO</p>
        ","f","html-keyboard-response","305","2.1.0","390514","F=YES, J=NO","3hpv0jpgdv","2","79","73","85","","","","","","","","","navigate","terrain","literal","experimental","f","true","",""
"null","<p style=""font-size: 50px;"">+</p>","null","html-keyboard-response","306","2.1.0","390817","F=YES, J=NO","3hpv0jpgdv","2","79","73","85","","","","","","","","","","","","","","","",""
"null","audio/beep-329314.mp3","null","audio-keyboard-response","307","2.1.0","392355","F=YES, J=NO","3hpv0jpgdv","2","79","73","85","","","","","","","","","","","","","","","",""
"null","audio/winter.wav","null","audio-keyboard-response","308","2.1.0","392935","F=YES, J=NO","3hpv0jpgdv","2","79","73","85","","","","","","","","","","","","","","","",""
"159","
          <p id=""word"" style=""font-size: 40px;"">straven</p>
          <p style=""font-size: 16px;"">F = YES &nbsp;&nbsp;&nbsp; J = NO</p>
        ","f","html-keyboard-response","309","2.1.0","393095","F=YES, J=NO","3hpv0jpgdv","2","79","73","85","","","","","","","","","straven","winter","pseudoword","pseudoword","j","false","",""
"null","<p style=""font-size: 50px;"">+</p>","null","html-keyboard-response","310","2.1.0","393397","F=YES, J=NO","3hpv0jpgdv","2","79","73","85","","","","","","","","","","","","","","","",""
"null","audio/beep-329314.mp3","null","audio-keyboard-response","311","2.1.0","394935","F=YES, J=NO","3hpv0jpgdv","2","79","73","85","","","","","","","","","","","","","","","",""
"null","audio/battle1.wav","null","audio-keyboard-response","312","2.1.0","395415","F=YES, J=NO","3hpv0jpgdv","2","79","73","85","","","","","","","","","","","","","","","",""
"262","
          <p id=""word"" style=""font-size: 40px;"">boil</p>
          <p style=""font-size: 16px;"">F = YES &nbsp;&nbsp;&nbsp; J = NO</p>
        ","f","html-keyboard-response","313","2.1.0","395677","F=YES, J=NO","3hpv0jpgdv","2","79","73","85","","","","","","","","","boil","battle1","filler","filler","f","true","",""
"null","<p style=""font-size: 50px;"">+</p>","null","html-keyboard-response","314","2.1.0","395981","F=YES, J=NO","3hpv0jpgdv","2","79","73","85","","","","","","","","","","","","","","","",""
"null","audio/beep-329314.mp3","null","audio-keyboard-response","315","2.1.0","397516","F=YES, J=NO","3hpv0jpgdv","2","79","73","85","","","","","","","","","","","","","","","",""
"null","audio/holiday1.wav","null","audio-keyboard-response","316","2.1.0","398195","F=YES, J=NO","3hpv0jpgdv","2","79","73","85","","","","","","","","","","","","","","","",""
"629","
          <p id=""word"" style=""font-size: 40px;"">spend</p>
          <p style=""font-size: 16px;"">F = YES &nbsp;&nbsp;&nbsp; J = NO</p>
        ","f","html-keyboard-response","317","2.1.0","398825","F=YES, J=NO","3hpv0jpgdv","2","79","73","85","","","","","","","","","spend","holiday1","metaphor","experimental","f","true","",""
"null","<p style=""font-size: 50px;"">+</p>","null","html-keyboard-response","318","2.1.0","399126","F=YES, J=NO","3hpv0jpgdv","2","79","73","85","","","","","","","","","","","","","","","",""
"null","audio/beep-329314.mp3","null","audio-keyboard-response","319","2.1.0","400656","F=YES, J=NO","3hpv0jpgdv","2","79","73","85","","","","","","","","","","","","","","","",""
"null","audio/floor.wav","null","audio-keyboard-response","320","2.1.0","401235","F=YES, J=NO","3hpv0jpgdv","2","79","73","85","","","","","","","","","","","","","","","",""
"285","
          <p id=""word"" style=""font-size: 40px;"">cover</p>
          <p style=""font-size: 16px;"">F = YES &nbsp;&nbsp;&nbsp; J = NO</p>
        ","f","html-keyboard-response","321","2.1.0","401521","F=YES, J=NO","3hpv0jpgdv","2","79","73","85","","","","","","","","","cover","floor","literal","experimental","f","true","",""
"null","<p style=""font-size: 50px;"">+</p>","null","html-keyboard-response","322","2.1.0","401828","F=YES, J=NO","3hpv0jpgdv","2","79","73","85","","","","","","","","","","","","","","","",""
"null","audio/beep-329314.mp3","null","audio-keyboard-response","323","2.1.0","403355","F=YES, J=NO","3hpv0jpgdv","2","79","73","85","","","","","","","","","","","","","","","",""
"null","audio/fence.wav","null","audio-keyboard-response","324","2.1.0","404035","F=YES, J=NO","3hpv0jpgdv","2","79","73","85","","","","","","","","","","","","","","","",""
"133","
          <p id=""word"" style=""font-size: 40px;"">trim</p>
          <p style=""font-size: 16px;"">F = YES &nbsp;&nbsp;&nbsp; J = NO</p>
        ","f","html-keyboard-response","325","2.1.0","404168","F=YES, J=NO","3hpv0jpgdv","2","79","73","85","","","","","","","","","trim","fence","filler","filler","f","true","",""
"null","<p style=""font-size: 50px;"">+</p>","null","html-keyboard-response","326","2.1.0","404473","F=YES, J=NO","3hpv0jpgdv","2","79","73","85","","","","","","","","","","","","","","","",""
"null","audio/beep-329314.mp3","null","audio-keyboard-response","327","2.1.0","405996","F=YES, J=NO","3hpv0jpgdv","2","79","73","85","","","","","","","","","","","","","","","",""
"null","audio/farm1.wav","null","audio-keyboard-response","328","2.1.0","406595","F=YES, J=NO","3hpv0jpgdv","2","79","73","85","","","","","","","","","","","","","","","",""
"277","
          <p id=""word"" style=""font-size: 40px;"">catch</p>
          <p style=""font-size: 16px;"">F = YES &nbsp;&nbsp;&nbsp; J = NO</p>
        ","f","html-keyboard-response","329","2.1.0","406873","F=YES, J=NO","3hpv0jpgdv","2","79","73","85","","","","","","","","","catch","farm1","unrelated","experimental","f","true","",""
"null","<p style=""font-size: 50px;"">+</p>","null","html-keyboard-response","330","2.1.0","407175","F=YES, J=NO","3hpv0jpgdv","2","79","73","85","","","","","","","","","","","","","","","",""
"null","audio/beep-329314.mp3","null","audio-keyboard-response","331","2.1.0","408715","F=YES, J=NO","3hpv0jpgdv","2","79","73","85","","","","","","","","","","","","","","","",""
"null","audio/cancer1.wav","null","audio-keyboard-response","332","2.1.0","409295","F=YES, J=NO","3hpv0jpgdv","2","79","73","85","","","","","","","","","","","","","","","",""
"320","
          <p id=""word"" style=""font-size: 40px;"">fight</p>
          <p style=""font-size: 16px;"">F = YES &nbsp;&nbsp;&nbsp; J = NO</p>
        ","f","html-keyboard-response","333","2.1.0","409615","F=YES, J=NO","3hpv0jpgdv","2","79","73","85","","","","","","","","","fight","cancer1","metaphor","experimental","f","true","",""
"null","<p style=""font-size: 50px;"">+</p>","null","html-keyboard-response","334","2.1.0","409916","F=YES, J=NO","3hpv0jpgdv","2","79","73","85","","","","","","","","","","","","","","","",""
"null","audio/beep-329314.mp3","null","audio-keyboard-response","335","2.1.0","411456","F=YES, J=NO","3hpv0jpgdv","2","79","73","85","","","","","","","","","","","","","","","",""
"null","audio/show.wav","null","audio-keyboard-response","336","2.1.0","412015","F=YES, J=NO","3hpv0jpgdv","2","79","73","85","","","","","","","","","","","","","","","",""
"256","
          <p id=""word"" style=""font-size: 40px;"">smark</p>
          <p style=""font-size: 16px;"">F = YES &nbsp;&nbsp;&nbsp; J = NO</p>
        ","f","html-keyboard-response","337","2.1.0","412272","F=YES, J=NO","3hpv0jpgdv","2","79","73","85","","","","","","","","","smark","show","pseudoword","pseudoword","j","false","",""
"null","<p style=""font-size: 50px;"">+</p>","null","html-keyboard-response","338","2.1.0","412578","F=YES, J=NO","3hpv0jpgdv","2","79","73","85","","","","","","","","","","","","","","","",""
"null","audio/beep-329314.mp3","null","audio-keyboard-response","339","2.1.0","414115","F=YES, J=NO","3hpv0jpgdv","2","79","73","85","","","","","","","","","","","","","","","",""
"null","audio/enemy1.wav","null","audio-keyboard-response","340","2.1.0","414616","F=YES, J=NO","3hpv0jpgdv","2","79","73","85","","","","","","","","","","","","","","","",""
"256","
          <p id=""word"" style=""font-size: 40px;"">defeat</p>
          <p style=""font-size: 16px;"">F = YES &nbsp;&nbsp;&nbsp; J = NO</p>
        ","f","html-keyboard-response","341","2.1.0","414873","F=YES, J=NO","3hpv0jpgdv","2","79","73","85","","","","","","","","","defeat","enemy1","literal","experimental","f","true","",""
"null","<p style=""font-size: 50px;"">+</p>","null","html-keyboard-response","342","2.1.0","415175","F=YES, J=NO","3hpv0jpgdv","2","79","73","85","","","","","","","","","","","","","","","",""
"null","audio/beep-329314.mp3","null","audio-keyboard-response","343","2.1.0","416715","F=YES, J=NO","3hpv0jpgdv","2","79","73","85","","","","","","","","","","","","","","","",""
"null","audio/strength.wav","null","audio-keyboard-response","344","2.1.0","417475","F=YES, J=NO","3hpv0jpgdv","2","79","73","85","","","","","","","","","","","","","","","",""
"7","
          <p id=""word"" style=""font-size: 40px;"">plabet</p>
          <p style=""font-size: 16px;"">F = YES &nbsp;&nbsp;&nbsp; J = NO</p>
        ","f","html-keyboard-response","345","2.1.0","417483","F=YES, J=NO","3hpv0jpgdv","2","79","73","85","","","","","","","","","plabet","strength","pseudoword","pseudoword","j","false","",""
"null","<p style=""font-size: 50px;"">+</p>","null","html-keyboard-response","346","2.1.0","417785","F=YES, J=NO","3hpv0jpgdv","2","79","73","85","","","","","","","","","","","","","","","",""
"null","audio/beep-329314.mp3","null","audio-keyboard-response","347","2.1.0","419316","F=YES, J=NO","3hpv0jpgdv","2","79","73","85","","","","","","","","","","","","","","","",""
"null","audio/show.wav","null","audio-keyboard-response","348","2.1.0","419875","F=YES, J=NO","3hpv0jpgdv","2","79","73","85","","","","","","","","","","","","","","","",""
"1116","
          <p id=""word"" style=""font-size: 40px;"">hold</p>
          <p style=""font-size: 16px;"">F = YES &nbsp;&nbsp;&nbsp; J = NO</p>
        ","f","html-keyboard-response","349","2.1.0","420991","F=YES, J=NO","3hpv0jpgdv","2","79","73","85","","","","","","","","","hold","show","metaphor","experimental","f","true","",""
"null","<p style=""font-size: 50px;"">+</p>","null","html-keyboard-response","350","2.1.0","421293","F=YES, J=NO","3hpv0jpgdv","2","79","73","85","","","","","","","","","","","","","","","",""
"null","audio/beep-329314.mp3","null","audio-keyboard-response","351","2.1.0","422815","F=YES, J=NO","3hpv0jpgdv","2","79","73","85","","","","","","","","","","","","","","","",""
"null","audio/pig.wav","null","audio-keyboard-response","352","2.1.0","423215","F=YES, J=NO","3hpv0jpgdv","2","79","73","85","","","","","","","","","","","","","","","",""
"55","
          <p id=""word"" style=""font-size: 40px;"">tirlike</p>
          <p style=""font-size: 16px;"">F = YES &nbsp;&nbsp;&nbsp; J = NO</p>
        ","f","html-keyboard-response","353","2.1.0","423270","F=YES, J=NO","3hpv0jpgdv","2","79","73","85","","","","","","","","","tirlike","pig","pseudoword","pseudoword","j","false","",""
"null","<p style=""font-size: 50px;"">+</p>","null","html-keyboard-response","354","2.1.0","423571","F=YES, J=NO","3hpv0jpgdv","2","79","73","85","","","","","","","","","","","","","","","",""
"null","audio/beep-329314.mp3","null","audio-keyboard-response","355","2.1.0","425095","F=YES, J=NO","3hpv0jpgdv","2","79","73","85","","","","","","","","","","","","","","","",""
"null","audio/gift1.wav","null","audio-keyboard-response","356","2.1.0","425575","F=YES, J=NO","3hpv0jpgdv","2","79","73","85","","","","","","","","","","","","","","","",""
"267","
          <p id=""word"" style=""font-size: 40px;"">protsh</p>
          <p style=""font-size: 16px;"">F = YES &nbsp;&nbsp;&nbsp; J = NO</p>
        ","f","html-keyboard-response","357","2.1.0","425842","F=YES, J=NO","3hpv0jpgdv","2","79","73","85","","","","","","","","","protsh","gift1","pseudoword","pseudoword","j","false","",""
"null","<p style=""font-size: 50px;"">+</p>","null","html-keyboard-response","358","2.1.0","426147","F=YES, J=NO","3hpv0jpgdv","2","79","73","85","","","","","","","","","","","","","","","",""
"null","audio/beep-329314.mp3","null","audio-keyboard-response","359","2.1.0","427675","F=YES, J=NO","3hpv0jpgdv","2","79","73","85","","","","","","","","","","","","","","","",""
"null","audio/arm.wav","null","audio-keyboard-response","360","2.1.0","428255","F=YES, J=NO","3hpv0jpgdv","2","79","73","85","","","","","","","","","","","","","","","",""
"546","
          <p id=""word"" style=""font-size: 40px;"">pigne</p>
          <p style=""font-size: 16px;"">F = YES &nbsp;&nbsp;&nbsp; J = NO</p>
        ","f","html-keyboard-response","361","2.1.0","428802","F=YES, J=NO","3hpv0jpgdv","2","79","73","85","","","","","","","","","pigne","arm","pseudoword","pseudoword","j","false","",""
"1863","<p>Excellent! You have finished block 3 of 8.</p>
                     <p>Feel free to take a 30 second break.</p>
                     <p>Press any key when you're ready to continue.</p>","f","html-keyboard-response","362","2.1.0","430665","F=YES, J=NO","3hpv0jpgdv","2","79","73","85","","","","","","","","","","","","","","","",""
"11010","<p>Starting main block 4 of 8. Press any key to continue.</p>","f","html-keyboard-response","363","2.1.0","441675","F=YES, J=NO","3hpv0jpgdv","2","79","73","85","","","","","","","","","","","","","","","",""
"null","<p style=""font-size: 50px;"">+</p>","null","html-keyboard-response","364","2.1.0","441976","F=YES, J=NO","3hpv0jpgdv","2","79","73","85","","","","","","","","","","","","","","","",""
"null","audio/beep-329314.mp3","null","audio-keyboard-response","365","2.1.0","443503","F=YES, J=NO","3hpv0jpgdv","2","79","73","85","","","","","","","","","","","","","","","",""
"null","audio/test1.wav","null","audio-keyboard-response","366","2.1.0","444062","F=YES, J=NO","3hpv0jpgdv","2","79","73","85","","","","","","","","","","","","","","","",""
"30","
          <p id=""word"" style=""font-size: 40px;"">twopch</p>
          <p style=""font-size: 16px;"">F = YES &nbsp;&nbsp;&nbsp; J = NO</p>
        ","f","html-keyboard-response","367","2.1.0","444093","F=YES, J=NO","3hpv0jpgdv","2","79","73","85","","","","","","","","","twopch","test1","pseudoword","pseudoword","j","false","",""
"null","<p style=""font-size: 50px;"">+</p>","null","html-keyboard-response","368","2.1.0","444396","F=YES, J=NO","3hpv0jpgdv","2","79","73","85","","","","","","","","","","","","","","","",""
"null","audio/beep-329314.mp3","null","audio-keyboard-response","369","2.1.0","445942","F=YES, J=NO","3hpv0jpgdv","2","79","73","85","","","","","","","","","","","","","","","",""
"null","audio/haste1.wav","null","audio-keyboard-response","370","2.1.0","446542","F=YES, J=NO","3hpv0jpgdv","2","79","73","85","","","","","","","","","","","","","","","",""
"258","
          <p id=""word"" style=""font-size: 40px;"">coraconate</p>
          <p style=""font-size: 16px;"">F = YES &nbsp;&nbsp;&nbsp; J = NO</p>
        ","f","html-keyboard-response","371","2.1.0","446801","F=YES, J=NO","3hpv0jpgdv","2","79","73","85","","","","","","","","","coraconate","haste1","pseudoword","pseudoword","j","false","",""
"null","<p style=""font-size: 50px;"">+</p>","null","html-keyboard-response","372","2.1.0","447105","F=YES, J=NO","3hpv0jpgdv","2","79","73","85","","","","","","","","","","","","","","","",""
"null","audio/beep-329314.mp3","null","audio-keyboard-response","373","2.1.0","448662","F=YES, J=NO","3hpv0jpgdv","2","79","73","85","","","","","","","","","","","","","","","",""
"null","audio/cave1.wav","null","audio-keyboard-response","374","2.1.0","449222","F=YES, J=NO","3hpv0jpgdv","2","79","73","85","","","","","","","","","","","","","","","",""
"261","
          <p id=""word"" style=""font-size: 40px;"">blacket</p>
          <p style=""font-size: 16px;"">F = YES &nbsp;&nbsp;&nbsp; J = NO</p>
        ","f","html-keyboard-response","375","2.1.0","449483","F=YES, J=NO","3hpv0jpgdv","2","79","73","85","","","","","","","","","blacket","cave1","pseudoword","pseudoword","j","false","",""
"null","<p style=""font-size: 50px;"">+</p>","null","html-keyboard-response","376","2.1.0","449784","F=YES, J=NO","3hpv0jpgdv","2","79","73","85","","","","","","","","","","","","","","","",""
"null","audio/beep-329314.mp3","null","audio-keyboard-response","377","2.1.0","451343","F=YES, J=NO","3hpv0jpgdv","2","79","73","85","","","","","","","","","","","","","","","",""
"null","audio/foe1.wav","null","audio-keyboard-response","378","2.1.0","451882","F=YES, J=NO","3hpv0jpgdv","2","79","73","85","","","","","","","","","","","","","","","",""
"362","
          <p id=""word"" style=""font-size: 40px;"">creth</p>
          <p style=""font-size: 16px;"">F = YES &nbsp;&nbsp;&nbsp; J = NO</p>
        ","f","html-keyboard-response","379","2.1.0","452245","F=YES, J=NO","3hpv0jpgdv","2","79","73","85","","","","","","","","","creth","foe1","pseudoword","pseudoword","j","false","",""
"null","<p style=""font-size: 50px;"">+</p>","null","html-keyboard-response","380","2.1.0","452549","F=YES, J=NO","3hpv0jpgdv","2","79","73","85","","","","","","","","","","","","","","","",""
"null","audio/beep-329314.mp3","null","audio-keyboard-response","381","2.1.0","454102","F=YES, J=NO","3hpv0jpgdv","2","79","73","85","","","","","","","","","","","","","","","",""
"null","audio/ankle1.wav","null","audio-keyboard-response","382","2.1.0","454642","F=YES, J=NO","3hpv0jpgdv","2","79","73","85","","","","","","","","","","","","","","","",""
"212","
          <p id=""word"" style=""font-size: 40px;"">hurt</p>
          <p style=""font-size: 16px;"">F = YES &nbsp;&nbsp;&nbsp; J = NO</p>
        ","f","html-keyboard-response","383","2.1.0","454855","F=YES, J=NO","3hpv0jpgdv","2","79","73","85","","","","","","","","","hurt","ankle1","literal","experimental","f","true","",""
"null","<p style=""font-size: 50px;"">+</p>","null","html-keyboard-response","384","2.1.0","455156","F=YES, J=NO","3hpv0jpgdv","2","79","73","85","","","","","","","","","","","","","","","",""
"null","audio/beep-329314.mp3","null","audio-keyboard-response","385","2.1.0","456702","F=YES, J=NO","3hpv0jpgdv","2","79","73","85","","","","","","","","","","","","","","","",""
"null","audio/brain.wav","null","audio-keyboard-response","386","2.1.0","457223","F=YES, J=NO","3hpv0jpgdv","2","79","73","85","","","","","","","","","","","","","","","",""
"157","
          <p id=""word"" style=""font-size: 40px;"">throw</p>
          <p style=""font-size: 16px;"">F = YES &nbsp;&nbsp;&nbsp; J = NO</p>
        ","f","html-keyboard-response","387","2.1.0","457380","F=YES, J=NO","3hpv0jpgdv","2","79","73","85","","","","","","","","","throw","brain","filler","filler","f","true","",""
"null","<p style=""font-size: 50px;"">+</p>","null","html-keyboard-response","388","2.1.0","457681","F=YES, J=NO","3hpv0jpgdv","2","79","73","85","","","","","","","","","","","","","","","",""
"null","audio/beep-329314.mp3","null","audio-keyboard-response","389","2.1.0","459222","F=YES, J=NO","3hpv0jpgdv","2","79","73","85","","","","","","","","","","","","","","","",""
"null","audio/tax1.wav","null","audio-keyboard-response","390","2.1.0","459883","F=YES, J=NO","3hpv0jpgdv","2","79","73","85","","","","","","","","","","","","","","","",""
"437","
          <p id=""word"" style=""font-size: 40px;"">scrap</p>
          <p style=""font-size: 16px;"">F = YES &nbsp;&nbsp;&nbsp; J = NO</p>
        ","f","html-keyboard-response","391","2.1.0","460321","F=YES, J=NO","3hpv0jpgdv","2","79","73","85","","","","","","","","","scrap","tax1","metaphor","experimental","f","true","",""
