"rt","stimulus","response","trial_type","trial_index","plugin_version","time_elapsed","response_mapping","subject_id","list_index","lextale_score","lextale_word_score","lextale_nonword_score","success","timeout","failed_images","failed_audio","failed_video","task","isWord","isDummy","target","prime","prime_type","stimulus_type","correct_response","correct","section","question_order"
"21452","
    <div style=""max-width: 800px; margin: auto; text-align: left;"">
      <h2>STANFORD UNIVERSITY</h2>
      <h3>Research Information Sheet</h3>
      <p><strong>Protocol Director:</strong> Robert Hawkins<br>
      <strong>Protocol Title:</strong> Communication and social cognition in natural audiovisual contexts<br>
      <strong>IRB#:</strong> 77226</p>

      <p><strong>DESCRIPTION:</strong> You are invited to participate in a research study about language and communication. The purpose of the research is to understand how you interact and communicate with other people in naturalistic settings as a fluent English speaker. This research will be conducted through the Prolific platform, including participants from the US, UK, and Canada. If you decide to participate in this research, you will play a communication game in a group with one or more partners.</p>

      <p><strong>TIME INVOLVEMENT:</strong> The task will last the amount of time advertised on Prolific. You are free to withdraw from the study at any time.</p>

      <p><strong>RISKS AND BENEFITS:</strong> You may become frustrated if your partner gets distracted, or experience discomfort if other participants in your group send text that is inappropriate for the task. We ask you to please be respectful of other participants you might be interacting with to mitigate these risks. You may also experience discomfort when being asked to discuss or challenge emotionally salient political beliefs. Study data will be stored securely, in compliance with Stanford University standards, minimizing the risk of confidentiality breach. This study advances our scientific understanding of how people communicate and collaborate in naturalistic settings. This study may lead to further insights about what can go wrong in teamwork, suggest potential interventions to overcome these barriers, and help to develop assistive technologies that collaborate with human partners. We cannot and do not guarantee or promise that you will receive any benefits from this study.</p>

      <p><strong>PAYMENTS:</strong> You will receive payment in the amount advertised on Prolific. If you do not complete this study, you will receive prorated payment based on the time that you have spent. Additionally, you may be eligible for bonus payments as described in the instructions.</p>

      <p><strong>PARTICIPANT’S RIGHTS:</strong> If you have read this form and have decided to participate in this project, please understand your participation is voluntary and you have the right to withdraw your consent or discontinue participation at any time without penalty or loss of benefits to which you are otherwise entitled. The alternative is not to participate. You have the right to refuse to answer particular questions. The results of this research study may be presented at scientific or professional meetings or published in scientific journals. Your individual privacy will be maintained in all published and written data resulting from the study. In accordance with scientific norms, the data from this study may be used or shared with other researchers for future research (after removing personally identifying information) without additional consent from you.</p>

      <p><strong>CONTACT INFORMATION:</strong><br>
      Questions: If you have any questions, concerns or complaints about this research, its procedures, risks and benefits, contact the Protocol Director, Robert Hawkins (<a href=""mailto:rdhawkins@stanford.edu"">rdhawkins@stanford.edu</a>, 217-549-6923).<br>
      Independent Contact: If you are not satisfied with how this study is being conducted, or if you have any concerns, complaints, or general questions about the research or your rights as a participant, please contact the Stanford Institutional Review Board (IRB) to speak to someone independent of the research team at 650-723-2480 or toll free at 1-866-680-2906, or email at <a href=""mailto:irbnon-med@stanford.edu"">irbnon-med@stanford.edu</a>. You can also write to the Stanford IRB, Stanford University, 1705 El Camino Real, Palo Alto, CA 94306.</p>

      <p><strong>Please save or print a copy of this page for your records.</strong></p>
      <p>If you agree to participate in this research, click ""Continue"" below.</p>
    </div>
  ","0","html-button-response","0","2.1.0","21459","F=YES, J=NO","3jrofzjyhk","0","73","70","75","","","","","","","","","","","","","","","",""
"11395","
    <div style=""max-width: 800px; margin: auto; text-align: left;"">
      <h2>Welcome!</h2>
      <p>Thank you for participating in this study. The experiment consists of three parts:</p>
      <ol>
        <li>An English vocabulary test</li>
        <li>A main task in which you will hear and see words, and decide whether the written word is a real English word</li>
        <li>A brief survey about your background</li>
      </ol>
      <p>Each part will be introduced before it begins.</p>
      <p>Please make sure you are in a quiet environment and can hear audio clearly for the final task.</p>
      <p style=""margin-top: 2em;"">Press any key to begin.</p>
    </div>
  ","ArrowRight","html-keyboard-response","1","2.1.0","32855","F=YES, J=NO","3jrofzjyhk","0","73","70","75","","","","","","","","","","","","","","","",""
"","","","preload","2","2.1.0","34079","F=YES, J=NO","3jrofzjyhk","0","73","70","75","true","false","[]","[]","[]","","","","","","","","","","",""
"8687","
    <div style=""max-width: 800px; margin: auto; text-align: left;"">
      <h2>Part 1: Vocabulary Test</h2>
      <p>You will now complete the first part of the study: a short English vocabulary test.</p>
      <p>This test is called <strong>LexTALE</strong> and helps us get a general sense of your English proficiency.</p>
      <p style=""margin-top: 2em;"">Press any key to continue.</p>
    </div>
  ","ArrowRight","html-keyboard-response","3","2.1.0","42766","F=YES, J=NO","3jrofzjyhk","0","73","70","75","","","","","","","","","","","","","","","",""
"19255","
    <div style=""max-width: 800px; margin: auto; text-align: left;"">
      <h2>LexTALE Vocabulary Test</h2>
      <p>In this test, you will see a series of letter strings—one at a time.</p>
      <p>Your task is to decide whether each string is a real English word.</p>
      <p><strong>Key responses:</strong></p>
      <ul>
        <li><strong>F</strong> = YES (real English word)</li>
        <li><strong>J</strong> = NO (not a real English word)</li>
      </ul>
      <p>There is no time limit, but please try to be accurate.</p>
      <p style=""margin-top: 2em;"">Press any key to begin.</p>
    </div>
  ","ArrowRight","html-keyboard-response","4","2.1.0","62023","F=YES, J=NO","3jrofzjyhk","0","73","70","75","","","","","","","","","","","","","","","",""
"5775","
  <p style=""font-size: 40px;"">platery</p>
  <p style=""font-size: 16px;"">F = YES &nbsp;&nbsp;&nbsp; J = NO</p>
","f","html-keyboard-response","5","2.1.0","67798","F=YES, J=NO","3jrofzjyhk","0","73","70","75","","","","","","lextale","false","true","","","","","","","",""
"1535","
  <p style=""font-size: 40px;"">denial</p>
  <p style=""font-size: 16px;"">F = YES &nbsp;&nbsp;&nbsp; J = NO</p>
","f","html-keyboard-response","6","2.1.0","69334","F=YES, J=NO","3jrofzjyhk","0","73","70","75","","","","","","lextale","true","true","","","","","","","",""
"1463","
  <p style=""font-size: 40px;"">marrit</p>
  <p style=""font-size: 16px;"">F = YES &nbsp;&nbsp;&nbsp; J = NO</p>
","j","html-keyboard-response","7","2.1.0","70798","F=YES, J=NO","3jrofzjyhk","0","73","70","75","","","","","","lextale","false","true","","","","","","","",""
"1183","
  <p style=""font-size: 40px;"">bottle</p>
  <p style=""font-size: 16px;"">F = YES &nbsp;&nbsp;&nbsp; J = NO</p>
","f","html-keyboard-response","8","2.1.0","71982","F=YES, J=NO","3jrofzjyhk","0","73","70","75","","","","","","lextale","true","false","","","","","","","",""
"2079","
  <p style=""font-size: 40px;"">birst</p>
  <p style=""font-size: 16px;"">F = YES &nbsp;&nbsp;&nbsp; J = NO</p>
","j","html-keyboard-response","9","2.1.0","74062","F=YES, J=NO","3jrofzjyhk","0","73","70","75","","","","","","lextale","false","false","","","","","","","",""
"895","
  <p style=""font-size: 40px;"">envy</p>
  <p style=""font-size: 16px;"">F = YES &nbsp;&nbsp;&nbsp; J = NO</p>
","f","html-keyboard-response","10","2.1.0","74958","F=YES, J=NO","3jrofzjyhk","0","73","70","75","","","","","","lextale","true","false","","","","","","","",""
"2151","
  <p style=""font-size: 40px;"">brang</p>
  <p style=""font-size: 16px;"">F = YES &nbsp;&nbsp;&nbsp; J = NO</p>
","j","html-keyboard-response","11","2.1.0","77110","F=YES, J=NO","3jrofzjyhk","0","73","70","75","","","","","","lextale","false","false","","","","","","","",""
"823","
  <p style=""font-size: 40px;"">huge</p>
  <p style=""font-size: 16px;"">F = YES &nbsp;&nbsp;&nbsp; J = NO</p>
","f","html-keyboard-response","12","2.1.0","77934","F=YES, J=NO","3jrofzjyhk","0","73","70","75","","","","","","lextale","true","false","","","","","","","",""
"2895","
  <p style=""font-size: 40px;"">plove</p>
  <p style=""font-size: 16px;"">F = YES &nbsp;&nbsp;&nbsp; J = NO</p>
","j","html-keyboard-response","13","2.1.0","80830","F=YES, J=NO","3jrofzjyhk","0","73","70","75","","","","","","lextale","false","false","","","","","","","",""
"919","
  <p style=""font-size: 40px;"">border</p>
  <p style=""font-size: 16px;"">F = YES &nbsp;&nbsp;&nbsp; J = NO</p>
","f","html-keyboard-response","14","2.1.0","81750","F=YES, J=NO","3jrofzjyhk","0","73","70","75","","","","","","lextale","true","false","","","","","","","",""
"1484","
  <p style=""font-size: 40px;"">flimsy</p>
  <p style=""font-size: 16px;"">F = YES &nbsp;&nbsp;&nbsp; J = NO</p>
","f","html-keyboard-response","15","2.1.0","83238","F=YES, J=NO","3jrofzjyhk","0","73","70","75","","","","","","lextale","true","false","","","","","","","",""
"1015","
  <p style=""font-size: 40px;"">drain</p>
  <p style=""font-size: 16px;"">F = YES &nbsp;&nbsp;&nbsp; J = NO</p>
","f","html-keyboard-response","16","2.1.0","84254","F=YES, J=NO","3jrofzjyhk","0","73","70","75","","","","","","lextale","true","false","","","","","","","",""
"5655","
  <p style=""font-size: 40px;"">twindle</p>
  <p style=""font-size: 16px;"">F = YES &nbsp;&nbsp;&nbsp; J = NO</p>
","f","html-keyboard-response","17","2.1.0","89910","F=YES, J=NO","3jrofzjyhk","0","73","70","75","","","","","","lextale","false","false","","","","","","","",""
"807","
  <p style=""font-size: 40px;"">propose</p>
  <p style=""font-size: 16px;"">F = YES &nbsp;&nbsp;&nbsp; J = NO</p>
","f","html-keyboard-response","18","2.1.0","90718","F=YES, J=NO","3jrofzjyhk","0","73","70","75","","","","","","lextale","true","false","","","","","","","",""
"1887","
  <p style=""font-size: 40px;"">forlay</p>
  <p style=""font-size: 16px;"">F = YES &nbsp;&nbsp;&nbsp; J = NO</p>
","j","html-keyboard-response","19","2.1.0","92606","F=YES, J=NO","3jrofzjyhk","0","73","70","75","","","","","","lextale","false","false","","","","","","","",""
"967","
  <p style=""font-size: 40px;"">tenant</p>
  <p style=""font-size: 16px;"">F = YES &nbsp;&nbsp;&nbsp; J = NO</p>
","f","html-keyboard-response","20","2.1.0","93574","F=YES, J=NO","3jrofzjyhk","0","73","70","75","","","","","","lextale","true","false","","","","","","","",""
"1639","
  <p style=""font-size: 40px;"">strain</p>
  <p style=""font-size: 16px;"">F = YES &nbsp;&nbsp;&nbsp; J = NO</p>
","f","html-keyboard-response","21","2.1.0","95214","F=YES, J=NO","3jrofzjyhk","0","73","70","75","","","","","","lextale","true","false","","","","","","","",""
"887","
  <p style=""font-size: 40px;"">holster</p>
  <p style=""font-size: 16px;"">F = YES &nbsp;&nbsp;&nbsp; J = NO</p>
","f","html-keyboard-response","22","2.1.0","96102","F=YES, J=NO","3jrofzjyhk","0","73","70","75","","","","","","lextale","true","false","","","","","","","",""
"2191","
  <p style=""font-size: 40px;"">hinder</p>
  <p style=""font-size: 16px;"">F = YES &nbsp;&nbsp;&nbsp; J = NO</p>
","j","html-keyboard-response","23","2.1.0","98294","F=YES, J=NO","3jrofzjyhk","0","73","70","75","","","","","","lextale","true","false","","","","","","","",""
"1231","
  <p style=""font-size: 40px;"">swindle</p>
  <p style=""font-size: 16px;"">F = YES &nbsp;&nbsp;&nbsp; J = NO</p>
","f","html-keyboard-response","24","2.1.0","99526","F=YES, J=NO","3jrofzjyhk","0","73","70","75","","","","","","lextale","true","false","","","","","","","",""
"6288","
  <p style=""font-size: 40px;"">nuder</p>
  <p style=""font-size: 16px;"">F = YES &nbsp;&nbsp;&nbsp; J = NO</p>
","f","html-keyboard-response","25","2.1.0","105814","F=YES, J=NO","3jrofzjyhk","0","73","70","75","","","","","","lextale","false","false","","","","","","","",""
"695","
  <p style=""font-size: 40px;"">pillow</p>
  <p style=""font-size: 16px;"">F = YES &nbsp;&nbsp;&nbsp; J = NO</p>
","f","html-keyboard-response","26","2.1.0","106510","F=YES, J=NO","3jrofzjyhk","0","73","70","75","","","","","","lextale","true","false","","","","","","","",""
"2295","
  <p style=""font-size: 40px;"">shumble</p>
  <p style=""font-size: 16px;"">F = YES &nbsp;&nbsp;&nbsp; J = NO</p>
","j","html-keyboard-response","27","2.1.0","108806","F=YES, J=NO","3jrofzjyhk","0","73","70","75","","","","","","lextale","false","false","","","","","","","",""
"575","
  <p style=""font-size: 40px;"">thirst</p>
  <p style=""font-size: 16px;"">F = YES &nbsp;&nbsp;&nbsp; J = NO</p>
","f","html-keyboard-response","28","2.1.0","109382","F=YES, J=NO","3jrofzjyhk","0","73","70","75","","","","","","lextale","true","false","","","","","","","",""
"2919","
  <p style=""font-size: 40px;"">unsail</p>
  <p style=""font-size: 16px;"">F = YES &nbsp;&nbsp;&nbsp; J = NO</p>
","f","html-keyboard-response","29","2.1.0","112302","F=YES, J=NO","3jrofzjyhk","0","73","70","75","","","","","","lextale","false","false","","","","","","","",""
"575","
  <p style=""font-size: 40px;"">rifle</p>
  <p style=""font-size: 16px;"">F = YES &nbsp;&nbsp;&nbsp; J = NO</p>
","f","html-keyboard-response","30","2.1.0","112877","F=YES, J=NO","3jrofzjyhk","0","73","70","75","","","","","","lextale","true","false","","","","","","","",""
"1327","
  <p style=""font-size: 40px;"">mush</p>
  <p style=""font-size: 16px;"">F = YES &nbsp;&nbsp;&nbsp; J = NO</p>
","f","html-keyboard-response","31","2.1.0","114205","F=YES, J=NO","3jrofzjyhk","0","73","70","75","","","","","","lextale","false","false","","","","","","","",""
"720","
  <p style=""font-size: 40px;"">drench</p>
  <p style=""font-size: 16px;"">F = YES &nbsp;&nbsp;&nbsp; J = NO</p>
","f","html-keyboard-response","32","2.1.0","114926","F=YES, J=NO","3jrofzjyhk","0","73","70","75","","","","","","lextale","true","false","","","","","","","",""
"1247","
  <p style=""font-size: 40px;"">snirt</p>
  <p style=""font-size: 16px;"">F = YES &nbsp;&nbsp;&nbsp; J = NO</p>
","j","html-keyboard-response","33","2.1.0","116174","F=YES, J=NO","3jrofzjyhk","0","73","70","75","","","","","","lextale","false","false","","","","","","","",""
"751","
  <p style=""font-size: 40px;"">bitter</p>
  <p style=""font-size: 16px;"">F = YES &nbsp;&nbsp;&nbsp; J = NO</p>
","f","html-keyboard-response","34","2.1.0","116925","F=YES, J=NO","3jrofzjyhk","0","73","70","75","","","","","","lextale","true","false","","","","","","","",""
"1111","
  <p style=""font-size: 40px;"">pliff</p>
  <p style=""font-size: 16px;"">F = YES &nbsp;&nbsp;&nbsp; J = NO</p>
","j","html-keyboard-response","35","2.1.0","118037","F=YES, J=NO","3jrofzjyhk","0","73","70","75","","","","","","lextale","false","false","","","","","","","",""
"711","
  <p style=""font-size: 40px;"">tablet</p>
  <p style=""font-size: 16px;"">F = YES &nbsp;&nbsp;&nbsp; J = NO</p>
","f","html-keyboard-response","36","2.1.0","118749","F=YES, J=NO","3jrofzjyhk","0","73","70","75","","","","","","lextale","true","false","","","","","","","",""
"2992","
  <p style=""font-size: 40px;"">glimmer</p>
  <p style=""font-size: 16px;"">F = YES &nbsp;&nbsp;&nbsp; J = NO</p>
","j","html-keyboard-response","37","2.1.0","121742","F=YES, J=NO","3jrofzjyhk","0","73","70","75","","","","","","lextale","true","false","","","","","","","",""
"3063","
  <p style=""font-size: 40px;"">slink</p>
  <p style=""font-size: 16px;"">F = YES &nbsp;&nbsp;&nbsp; J = NO</p>
","f","html-keyboard-response","38","2.1.0","124805","F=YES, J=NO","3jrofzjyhk","0","73","70","75","","","","","","lextale","true","false","","","","","","","",""
"551","
  <p style=""font-size: 40px;"">clever</p>
  <p style=""font-size: 16px;"">F = YES &nbsp;&nbsp;&nbsp; J = NO</p>
","f","html-keyboard-response","39","2.1.0","125357","F=YES, J=NO","3jrofzjyhk","0","73","70","75","","","","","","lextale","true","false","","","","","","","",""
"1616","
  <p style=""font-size: 40px;"">grum</p>
  <p style=""font-size: 16px;"">F = YES &nbsp;&nbsp;&nbsp; J = NO</p>
","j","html-keyboard-response","40","2.1.0","126973","F=YES, J=NO","3jrofzjyhk","0","73","70","75","","","","","","lextale","false","false","","","","","","","",""
"1207","
  <p style=""font-size: 40px;"">string</p>
  <p style=""font-size: 16px;"">F = YES &nbsp;&nbsp;&nbsp; J = NO</p>
","f","html-keyboard-response","41","2.1.0","128181","F=YES, J=NO","3jrofzjyhk","0","73","70","75","","","","","","lextale","true","false","","","","","","","",""
"1927","
  <p style=""font-size: 40px;"">plim</p>
  <p style=""font-size: 16px;"">F = YES &nbsp;&nbsp;&nbsp; J = NO</p>
","j","html-keyboard-response","42","2.1.0","130109","F=YES, J=NO","3jrofzjyhk","0","73","70","75","","","","","","lextale","false","false","","","","","","","",""
"623","
  <p style=""font-size: 40px;"">cable</p>
  <p style=""font-size: 16px;"">F = YES &nbsp;&nbsp;&nbsp; J = NO</p>
","f","html-keyboard-response","43","2.1.0","130733","F=YES, J=NO","3jrofzjyhk","0","73","70","75","","","","","","lextale","true","false","","","","","","","",""
"1735","
  <p style=""font-size: 40px;"">shrivel</p>
  <p style=""font-size: 16px;"">F = YES &nbsp;&nbsp;&nbsp; J = NO</p>
","j","html-keyboard-response","44","2.1.0","132469","F=YES, J=NO","3jrofzjyhk","0","73","70","75","","","","","","lextale","true","false","","","","","","","",""
"2327","
  <p style=""font-size: 40px;"">tarnish</p>
  <p style=""font-size: 16px;"">F = YES &nbsp;&nbsp;&nbsp; J = NO</p>
","f","html-keyboard-response","45","2.1.0","134797","F=YES, J=NO","3jrofzjyhk","0","73","70","75","","","","","","lextale","true","false","","","","","","","",""
"1079","
  <p style=""font-size: 40px;"">blim</p>
  <p style=""font-size: 16px;"">F = YES &nbsp;&nbsp;&nbsp; J = NO</p>
","j","html-keyboard-response","46","2.1.0","135877","F=YES, J=NO","3jrofzjyhk","0","73","70","75","","","","","","lextale","false","false","","","","","","","",""
"2008","
  <p style=""font-size: 40px;"">stifle</p>
  <p style=""font-size: 16px;"">F = YES &nbsp;&nbsp;&nbsp; J = NO</p>
","j","html-keyboard-response","47","2.1.0","137885","F=YES, J=NO","3jrofzjyhk","0","73","70","75","","","","","","lextale","true","false","","","","","","","",""
"1247","
  <p style=""font-size: 40px;"">bint</p>
  <p style=""font-size: 16px;"">F = YES &nbsp;&nbsp;&nbsp; J = NO</p>
","j","html-keyboard-response","48","2.1.0","139133","F=YES, J=NO","3jrofzjyhk","0","73","70","75","","","","","","lextale","false","false","","","","","","","",""
"631","
  <p style=""font-size: 40px;"">purple</p>
  <p style=""font-size: 16px;"">F = YES &nbsp;&nbsp;&nbsp; J = NO</p>
","f","html-keyboard-response","49","2.1.0","139765","F=YES, J=NO","3jrofzjyhk","0","73","70","75","","","","","","lextale","true","false","","","","","","","",""
"2511","
  <p style=""font-size: 40px;"">wriggle</p>
  <p style=""font-size: 16px;"">F = YES &nbsp;&nbsp;&nbsp; J = NO</p>
","j","html-keyboard-response","50","2.1.0","142277","F=YES, J=NO","3jrofzjyhk","0","73","70","75","","","","","","lextale","true","false","","","","","","","",""
"2895","
  <p style=""font-size: 40px;"">mangle</p>
  <p style=""font-size: 16px;"">F = YES &nbsp;&nbsp;&nbsp; J = NO</p>
","j","html-keyboard-response","51","2.1.0","145173","F=YES, J=NO","3jrofzjyhk","0","73","70","75","","","","","","lextale","true","false","","","","","","","",""
"3111","
  <p style=""font-size: 40px;"">shramp</p>
  <p style=""font-size: 16px;"">F = YES &nbsp;&nbsp;&nbsp; J = NO</p>
","j","html-keyboard-response","52","2.1.0","148285","F=YES, J=NO","3jrofzjyhk","0","73","70","75","","","","","","lextale","false","false","","","","","","","",""
"671","
  <p style=""font-size: 40px;"">flirt</p>
  <p style=""font-size: 16px;"">F = YES &nbsp;&nbsp;&nbsp; J = NO</p>
","f","html-keyboard-response","53","2.1.0","148957","F=YES, J=NO","3jrofzjyhk","0","73","70","75","","","","","","lextale","true","false","","","","","","","",""
"1343","
  <p style=""font-size: 40px;"">frip</p>
  <p style=""font-size: 16px;"">F = YES &nbsp;&nbsp;&nbsp; J = NO</p>
","j","html-keyboard-response","54","2.1.0","150301","F=YES, J=NO","3jrofzjyhk","0","73","70","75","","","","","","lextale","false","false","","","","","","","",""
"1303","
  <p style=""font-size: 40px;"">tangle</p>
  <p style=""font-size: 16px;"">F = YES &nbsp;&nbsp;&nbsp; J = NO</p>
","f","html-keyboard-response","55","2.1.0","151605","F=YES, J=NO","3jrofzjyhk","0","73","70","75","","","","","","lextale","true","false","","","","","","","",""
"1063","
  <p style=""font-size: 40px;"">crumble</p>
  <p style=""font-size: 16px;"">F = YES &nbsp;&nbsp;&nbsp; J = NO</p>
","f","html-keyboard-response","56","2.1.0","152669","F=YES, J=NO","3jrofzjyhk","0","73","70","75","","","","","","lextale","true","false","","","","","","","",""
"631","
  <p style=""font-size: 40px;"">wrinkle</p>
  <p style=""font-size: 16px;"">F = YES &nbsp;&nbsp;&nbsp; J = NO</p>
","f","html-keyboard-response","57","2.1.0","153301","F=YES, J=NO","3jrofzjyhk","0","73","70","75","","","","","","lextale","true","false","","","","","","","",""
"1127","
  <p style=""font-size: 40px;"">slumb</p>
  <p style=""font-size: 16px;"">F = YES &nbsp;&nbsp;&nbsp; J = NO</p>
","j","html-keyboard-response","58","2.1.0","154429","F=YES, J=NO","3jrofzjyhk","0","73","70","75","","","","","","lextale","false","false","","","","","","","",""
"631","
  <p style=""font-size: 40px;"">jungle</p>
  <p style=""font-size: 16px;"">F = YES &nbsp;&nbsp;&nbsp; J = NO</p>
","f","html-keyboard-response","59","2.1.0","155061","F=YES, J=NO","3jrofzjyhk","0","73","70","75","","","","","","lextale","true","false","","","","","","","",""
"1007","
  <p style=""font-size: 40px;"">frolick</p>
  <p style=""font-size: 16px;"">F = YES &nbsp;&nbsp;&nbsp; J = NO</p>
","j","html-keyboard-response","60","2.1.0","156069","F=YES, J=NO","3jrofzjyhk","0","73","70","75","","","","","","lextale","false","false","","","","","","","",""
"16607","
      <h2>LexTALE Test Completed</h2>
      <p>Your LexTALE vocabulary score is: <strong>73%</strong></p>
      <p>Press any key to continue.</p>
    ","ArrowRight","html-keyboard-response","61","2.1.0","172677","F=YES, J=NO","3jrofzjyhk","0","73","70","75","","","","","","","","","","","","","","","",""
"42767","
    <div style=""max-width: 800px; margin: auto; text-align: left;"">
      <h2>Break Time</h2>
      <p>You have completed the first part of the study.</p>
      <p>You may take a short <strong>30-second break</strong> before continuing.</p>
      <p>When you’re ready, press any key to continue to the final task.</p>
    </div>
  ","ArrowRight","html-keyboard-response","62","2.1.0","215444","F=YES, J=NO","3jrofzjyhk","0","73","70","75","","","","","","","","","","","","","","","",""
"76182","
    <div style=""max-width: 800px; margin: auto; text-align: left;"">
      <h2>Part 2: Lexical Decision Task</h2>
      <p>You will now begin the second part of the study.</p>
      <p>Each trial will follow this sequence:</p>
      <ul>
        <li>A fixation cross (+) appears at the center of the screen.</li>
        <li>You will hear a short beep followed by a spoken word.</li>
        <li>A written word will appear briefly on the screen.</li>
      </ul>
      <p>Your task is to judge whether the <strong>written word</strong> is a real English word.</p>
      <p style=""margin-top: 1em;""><strong>Key responses:</strong></p>
      <ul>
        <li><strong>F</strong> = YES (real English word)</li>
        <li><strong>J</strong> = NO (not a real English word)</li>
      </ul>
      <p>Please respond as quickly and accurately as you can.</p>
      <p style=""margin-top: 2em;"">Press any key to continue.</p>
    </div>
  ","ArrowRight","html-keyboard-response","63","2.1.0","291627","F=YES, J=NO","3jrofzjyhk","0","73","70","75","","","","","","","","","","","","","","","",""
"6303","
    <div style=""max-width: 800px; margin: auto; text-align: left;"">
      <h2>Before You Begin</h2>
      <p>Make sure your sound is turned on.</p>
      <p>You will hear audio during each trial, but your decision should be based only on the <strong>written word</strong> you see on the screen.</p>
      <p><strong>Reminder:</strong></p>
      <ul>
        <li><strong>F</strong> = YES (real English word)</li>
        <li><strong>J</strong> = NO (not a real English word)</li>
      </ul>
      <p style=""margin-top: 2em;"">Press any key when you are ready to begin.</p>
    </div>
  ","ArrowLeft","html-keyboard-response","64","2.1.0","297931","F=YES, J=NO","3jrofzjyhk","0","73","70","75","","","","","","","","","","","","","","","",""
"2943","
    <div style=""max-width: 800px; margin: auto; text-align: left;"">
      <h2>Part 2: Practice Trials</h2>
      <p>You will now complete a few <strong>practice trials</strong> to get familiar with the task.</p>
      <p>These trials are <strong>not scored</strong> and are only to help you get used to the format.</p>
      <p style=""margin-top: 2em;"">Press any key to begin.</p>
    </div>
  ","ArrowRight","html-keyboard-response","65","2.1.0","300875","F=YES, J=NO","3jrofzjyhk","0","73","70","75","","","","","","","","","","","","","","","",""
"3431","<p>Starting practice block 1 of 2. Press any key to continue.</p>","ArrowRight","html-keyboard-response","66","2.1.0","304307","F=YES, J=NO","3jrofzjyhk","0","73","70","75","","","","","","","","","","","","","","","",""
"null","<p style=""font-size: 50px;"">+</p>","null","html-keyboard-response","67","2.1.0","304622","F=YES, J=NO","3jrofzjyhk","0","73","70","75","","","","","","","","","","","","","","","",""
"null","audio/beep-329314.mp3","null","audio-keyboard-response","68","2.1.0","306168","F=YES, J=NO","3jrofzjyhk","0","73","70","75","","","","","","","","","","","","","","","",""
"null","audio/dollar.wav","null","audio-keyboard-response","69","2.1.0","306547","F=YES, J=NO","3jrofzjyhk","0","73","70","75","","","","","","","","","","","","","","","",""
"927","
          <p id=""word"" style=""font-size: 40px;"">gliptism</p>
          <p style=""font-size: 16px;"">F = YES &nbsp;&nbsp;&nbsp; J = NO</p>
        ","j","html-keyboard-response","70","2.1.0","307475","F=YES, J=NO","3jrofzjyhk","0","73","70","75","","","","","","","","","gliptism","dollar","pseudoword","pseudoword","j","true","",""
"null","<p style=""font-size: 50px;"">+</p>","null","html-keyboard-response","71","2.1.0","307780","F=YES, J=NO","3jrofzjyhk","0","73","70","75","","","","","","","","","","","","","","","",""
"null","audio/beep-329314.mp3","null","audio-keyboard-response","72","2.1.0","309308","F=YES, J=NO","3jrofzjyhk","0","73","70","75","","","","","","","","","","","","","","","",""
"null","audio/fence.wav","null","audio-keyboard-response","73","2.1.0","309947","F=YES, J=NO","3jrofzjyhk","0","73","70","75","","","","","","","","","","","","","","","",""
"727","
          <p id=""word"" style=""font-size: 40px;"">trim</p>
          <p style=""font-size: 16px;"">F = YES &nbsp;&nbsp;&nbsp; J = NO</p>
        ","f","html-keyboard-response","74","2.1.0","310675","F=YES, J=NO","3jrofzjyhk","0","73","70","75","","","","","","","","","trim","fence","filler","filler","f","true","",""
"null","<p style=""font-size: 50px;"">+</p>","null","html-keyboard-response","75","2.1.0","310976","F=YES, J=NO","3jrofzjyhk","0","73","70","75","","","","","","","","","","","","","","","",""
"null","audio/beep-329314.mp3","null","audio-keyboard-response","76","2.1.0","312507","F=YES, J=NO","3jrofzjyhk","0","73","70","75","","","","","","","","","","","","","","","",""
"null","audio/voice.wav","null","audio-keyboard-response","77","2.1.0","313107","F=YES, J=NO","3jrofzjyhk","0","73","70","75","","","","","","","","","","","","","","","",""
"815","
          <p id=""word"" style=""font-size: 40px;"">grintle</p>
          <p style=""font-size: 16px;"">F = YES &nbsp;&nbsp;&nbsp; J = NO</p>
        ","j","html-keyboard-response","78","2.1.0","313923","F=YES, J=NO","3jrofzjyhk","0","73","70","75","","","","","","","","","grintle","voice","pseudoword","pseudoword","j","true","",""
"null","<p style=""font-size: 50px;"">+</p>","null","html-keyboard-response","79","2.1.0","314234","F=YES, J=NO","3jrofzjyhk","0","73","70","75","","","","","","","","","","","","","","","",""
"null","audio/beep-329314.mp3","null","audio-keyboard-response","80","2.1.0","315768","F=YES, J=NO","3jrofzjyhk","0","73","70","75","","","","","","","","","","","","","","","",""
"null","audio/novel.wav","null","audio-keyboard-response","81","2.1.0","316387","F=YES, J=NO","3jrofzjyhk","0","73","70","75","","","","","","","","","","","","","","","",""
"511","
          <p id=""word"" style=""font-size: 40px;"">type</p>
          <p style=""font-size: 16px;"">F = YES &nbsp;&nbsp;&nbsp; J = NO</p>
        ","f","html-keyboard-response","82","2.1.0","316899","F=YES, J=NO","3jrofzjyhk","0","73","70","75","","","","","","","","","type","novel","filler","filler","f","true","",""
"null","<p style=""font-size: 50px;"">+</p>","null","html-keyboard-response","83","2.1.0","317202","F=YES, J=NO","3jrofzjyhk","0","73","70","75","","","","","","","","","","","","","","","",""
"null","audio/beep-329314.mp3","null","audio-keyboard-response","84","2.1.0","318727","F=YES, J=NO","3jrofzjyhk","0","73","70","75","","","","","","","","","","","","","","","",""
"null","audio/age1.wav","null","audio-keyboard-response","85","2.1.0","319267","F=YES, J=NO","3jrofzjyhk","0","73","70","75","","","","","","","","","","","","","","","",""
"655","
          <p id=""word"" style=""font-size: 40px;"">bake</p>
          <p style=""font-size: 16px;"">F = YES &nbsp;&nbsp;&nbsp; J = NO</p>
        ","f","html-keyboard-response","86","2.1.0","319923","F=YES, J=NO","3jrofzjyhk","0","73","70","75","","","","","","","","","bake","age1","filler","filler","f","true","",""
"null","<p style=""font-size: 50px;"">+</p>","null","html-keyboard-response","87","2.1.0","320238","F=YES, J=NO","3jrofzjyhk","0","73","70","75","","","","","","","","","","","","","","","",""
"null","audio/beep-329314.mp3","null","audio-keyboard-response","88","2.1.0","321767","F=YES, J=NO","3jrofzjyhk","0","73","70","75","","","","","","","","","","","","","","","",""
"null","audio/beach1.wav","null","audio-keyboard-response","89","2.1.0","322527","F=YES, J=NO","3jrofzjyhk","0","73","70","75","","","","","","","","","","","","","","","",""
"563","
          <p id=""word"" style=""font-size: 40px;"">drive</p>
          <p style=""font-size: 16px;"">F = YES &nbsp;&nbsp;&nbsp; J = NO</p>
        ","f","html-keyboard-response","90","2.1.0","323091","F=YES, J=NO","3jrofzjyhk","0","73","70","75","","","","","","","","","drive","beach1","filler","filler","f","true","",""
"null","<p style=""font-size: 50px;"">+</p>","null","html-keyboard-response","91","2.1.0","323394","F=YES, J=NO","3jrofzjyhk","0","73","70","75","","","","","","","","","","","","","","","",""
"null","audio/beep-329314.mp3","null","audio-keyboard-response","92","2.1.0","324927","F=YES, J=NO","3jrofzjyhk","0","73","70","75","","","","","","","","","","","","","","","",""
"null","audio/baby.wav","null","audio-keyboard-response","93","2.1.0","325567","F=YES, J=NO","3jrofzjyhk","0","73","70","75","","","","","","","","","","","","","","","",""
"707","
          <p id=""word"" style=""font-size: 40px;"">lift</p>
          <p style=""font-size: 16px;"">F = YES &nbsp;&nbsp;&nbsp; J = NO</p>
        ","f","html-keyboard-response","94","2.1.0","326275","F=YES, J=NO","3jrofzjyhk","0","73","70","75","","","","","","","","","lift","baby","filler","filler","f","true","",""
"null","<p style=""font-size: 50px;"">+</p>","null","html-keyboard-response","95","2.1.0","326590","F=YES, J=NO","3jrofzjyhk","0","73","70","75","","","","","","","","","","","","","","","",""
"null","audio/beep-329314.mp3","null","audio-keyboard-response","96","2.1.0","328127","F=YES, J=NO","3jrofzjyhk","0","73","70","75","","","","","","","","","","","","","","","",""
"null","audio/road.wav","null","audio-keyboard-response","97","2.1.0","328707","F=YES, J=NO","3jrofzjyhk","0","73","70","75","","","","","","","","","","","","","","","",""
"1231","
          <p id=""word"" style=""font-size: 40px;"">wappings</p>
          <p style=""font-size: 16px;"">F = YES &nbsp;&nbsp;&nbsp; J = NO</p>
        ","j","html-keyboard-response","98","2.1.0","329939","F=YES, J=NO","3jrofzjyhk","0","73","70","75","","","","","","","","","wappings","road","pseudoword","pseudoword","j","true","",""
"null","<p style=""font-size: 50px;"">+</p>","null","html-keyboard-response","99","2.1.0","330253","F=YES, J=NO","3jrofzjyhk","0","73","70","75","","","","","","","","","","","","","","","",""
"null","audio/beep-329314.mp3","null","audio-keyboard-response","100","2.1.0","331787","F=YES, J=NO","3jrofzjyhk","0","73","70","75","","","","","","","","","","","","","","","",""
"null","audio/strength.wav","null","audio-keyboard-response","101","2.1.0","332687","F=YES, J=NO","3jrofzjyhk","0","73","70","75","","","","","","","","","","","","","","","",""
"819","
          <p id=""word"" style=""font-size: 40px;"">plabet</p>
          <p style=""font-size: 16px;"">F = YES &nbsp;&nbsp;&nbsp; J = NO</p>
        ","j","html-keyboard-response","102","2.1.0","333507","F=YES, J=NO","3jrofzjyhk","0","73","70","75","","","","","","","","","plabet","strength","pseudoword","pseudoword","j","true","",""
"null","<p style=""font-size: 50px;"">+</p>","null","html-keyboard-response","103","2.1.0","333810","F=YES, J=NO","3jrofzjyhk","0","73","70","75","","","","","","","","","","","","","","","",""
"null","audio/beep-329314.mp3","null","audio-keyboard-response","104","2.1.0","335347","F=YES, J=NO","3jrofzjyhk","0","73","70","75","","","","","","","","","","","","","","","",""
"null","audio/alarm1.wav","null","audio-keyboard-response","105","2.1.0","336087","F=YES, J=NO","3jrofzjyhk","0","73","70","75","","","","","","","","","","","","","","","",""
"707","
          <p id=""word"" style=""font-size: 40px;"">swetp</p>
          <p style=""font-size: 16px;"">F = YES &nbsp;&nbsp;&nbsp; J = NO</p>
        ","j","html-keyboard-response","106","2.1.0","336795","F=YES, J=NO","3jrofzjyhk","0","73","70","75","","","","","","","","","swetp","alarm1","pseudoword","pseudoword","j","true","",""
"null","<p style=""font-size: 50px;"">+</p>","null","html-keyboard-response","107","2.1.0","337098","F=YES, J=NO","3jrofzjyhk","0","73","70","75","","","","","","","","","","","","","","","",""
"null","audio/beep-329314.mp3","null","audio-keyboard-response","108","2.1.0","338627","F=YES, J=NO","3jrofzjyhk","0","73","70","75","","","","","","","","","","","","","","","",""
"null","audio/scar.wav","null","audio-keyboard-response","109","2.1.0","339367","F=YES, J=NO","3jrofzjyhk","0","73","70","75","","","","","","","","","","","","","","","",""
"1067","
          <p id=""word"" style=""font-size: 40px;"">adelineate</p>
          <p style=""font-size: 16px;"">F = YES &nbsp;&nbsp;&nbsp; J = NO</p>
        ","j","html-keyboard-response","110","2.1.0","340435","F=YES, J=NO","3jrofzjyhk","0","73","70","75","","","","","","","","","adelineate","scar","pseudoword","pseudoword","j","true","",""
"null","<p style=""font-size: 50px;"">+</p>","null","html-keyboard-response","111","2.1.0","340737","F=YES, J=NO","3jrofzjyhk","0","73","70","75","","","","","","","","","","","","","","","",""
"null","audio/beep-329314.mp3","null","audio-keyboard-response","112","2.1.0","342267","F=YES, J=NO","3jrofzjyhk","0","73","70","75","","","","","","","","","","","","","","","",""
"null","audio/breath.wav","null","audio-keyboard-response","113","2.1.0","342827","F=YES, J=NO","3jrofzjyhk","0","73","70","75","","","","","","","","","","","","","","","",""
"775","
          <p id=""word"" style=""font-size: 40px;"">twets</p>
          <p style=""font-size: 16px;"">F = YES &nbsp;&nbsp;&nbsp; J = NO</p>
        ","j","html-keyboard-response","114","2.1.0","343603","F=YES, J=NO","3jrofzjyhk","0","73","70","75","","","","","","","","","twets","breath","pseudoword","pseudoword","j","true","",""
"1375","<p>Starting practice block 2 of 2. Press any key to continue.</p>","j","html-keyboard-response","115","2.1.0","344979","F=YES, J=NO","3jrofzjyhk","0","73","70","75","","","","","","","","","","","","","","","",""
"null","<p style=""font-size: 50px;"">+</p>","null","html-keyboard-response","116","2.1.0","345282","F=YES, J=NO","3jrofzjyhk","0","73","70","75","","","","","","","","","","","","","","","",""
"null","audio/beep-329314.mp3","null","audio-keyboard-response","117","2.1.0","346807","F=YES, J=NO","3jrofzjyhk","0","73","70","75","","","","","","","","","","","","","","","",""
"null","audio/mouth1.wav","null","audio-keyboard-response","118","2.1.0","347367","F=YES, J=NO","3jrofzjyhk","0","73","70","75","","","","","","","","","","","","","","","",""
"707","
          <p id=""word"" style=""font-size: 40px;"">spolial</p>
          <p style=""font-size: 16px;"">F = YES &nbsp;&nbsp;&nbsp; J = NO</p>
        ","j","html-keyboard-response","119","2.1.0","348075","F=YES, J=NO","3jrofzjyhk","0","73","70","75","","","","","","","","","spolial","mouth1","pseudoword","pseudoword","j","true","",""
"null","<p style=""font-size: 50px;"">+</p>","null","html-keyboard-response","120","2.1.0","348391","F=YES, J=NO","3jrofzjyhk","0","73","70","75","","","","","","","","","","","","","","","",""
"null","audio/beep-329314.mp3","null","audio-keyboard-response","121","2.1.0","349927","F=YES, J=NO","3jrofzjyhk","0","73","70","75","","","","","","","","","","","","","","","",""
"null","audio/birth1.wav","null","audio-keyboard-response","122","2.1.0","350627","F=YES, J=NO","3jrofzjyhk","0","73","70","75","","","","","","","","","","","","","","","",""
"647","
          <p id=""word"" style=""font-size: 40px;"">peel</p>
          <p style=""font-size: 16px;"">F = YES &nbsp;&nbsp;&nbsp; J = NO</p>
        ","f","html-keyboard-response","123","2.1.0","351275","F=YES, J=NO","3jrofzjyhk","0","73","70","75","","","","","","","","","peel","birth1","filler","filler","f","true","",""
"null","<p style=""font-size: 50px;"">+</p>","null","html-keyboard-response","124","2.1.0","351577","F=YES, J=NO","3jrofzjyhk","0","73","70","75","","","","","","","","","","","","","","","",""
"null","audio/beep-329314.mp3","null","audio-keyboard-response","125","2.1.0","353107","F=YES, J=NO","3jrofzjyhk","0","73","70","75","","","","","","","","","","","","","","","",""
"null","audio/butter1.wav","null","audio-keyboard-response","126","2.1.0","353707","F=YES, J=NO","3jrofzjyhk","0","73","70","75","","","","","","","","","","","","","","","",""
"607","
          <p id=""word"" style=""font-size: 40px;"">chew</p>
          <p style=""font-size: 16px;"">F = YES &nbsp;&nbsp;&nbsp; J = NO</p>
        ","f","html-keyboard-response","127","2.1.0","354315","F=YES, J=NO","3jrofzjyhk","0","73","70","75","","","","","","","","","chew","butter1","filler","filler","f","true","",""
"null","<p style=""font-size: 50px;"">+</p>","null","html-keyboard-response","128","2.1.0","354615","F=YES, J=NO","3jrofzjyhk","0","73","70","75","","","","","","","","","","","","","","","",""
"null","audio/beep-329314.mp3","null","audio-keyboard-response","129","2.1.0","356147","F=YES, J=NO","3jrofzjyhk","0","73","70","75","","","","","","","","","","","","","","","",""
"null","audio/alarm1.wav","null","audio-keyboard-response","130","2.1.0","356727","F=YES, J=NO","3jrofzjyhk","0","73","70","75","","","","","","","","","","","","","","","",""
"555","
          <p id=""word"" style=""font-size: 40px;"">lock</p>
          <p style=""font-size: 16px;"">F = YES &nbsp;&nbsp;&nbsp; J = NO</p>
        ","f","html-keyboard-response","131","2.1.0","357283","F=YES, J=NO","3jrofzjyhk","0","73","70","75","","","","","","","","","lock","alarm1","filler","filler","f","true","",""
"null","<p style=""font-size: 50px;"">+</p>","null","html-keyboard-response","132","2.1.0","357599","F=YES, J=NO","3jrofzjyhk","0","73","70","75","","","","","","","","","","","","","","","",""
"null","audio/beep-329314.mp3","null","audio-keyboard-response","133","2.1.0","359127","F=YES, J=NO","3jrofzjyhk","0","73","70","75","","","","","","","","","","","","","","","",""
"null","audio/camera1.wav","null","audio-keyboard-response","134","2.1.0","359787","F=YES, J=NO","3jrofzjyhk","0","73","70","75","","","","","","","","","","","","","","","",""
"743","
          <p id=""word"" style=""font-size: 40px;"">stir</p>
          <p style=""font-size: 16px;"">F = YES &nbsp;&nbsp;&nbsp; J = NO</p>
        ","f","html-keyboard-response","135","2.1.0","360531","F=YES, J=NO","3jrofzjyhk","0","73","70","75","","","","","","","","","stir","camera1","filler","filler","f","true","",""
"null","<p style=""font-size: 50px;"">+</p>","null","html-keyboard-response","136","2.1.0","360835","F=YES, J=NO","3jrofzjyhk","0","73","70","75","","","","","","","","","","","","","","","",""
"null","audio/beep-329314.mp3","null","audio-keyboard-response","137","2.1.0","362367","F=YES, J=NO","3jrofzjyhk","0","73","70","75","","","","","","","","","","","","","","","",""
"null","audio/empire.wav","null","audio-keyboard-response","138","2.1.0","362987","F=YES, J=NO","3jrofzjyhk","0","73","70","75","","","","","","","","","","","","","","","",""
"687","
          <p id=""word"" style=""font-size: 40px;"">slorby</p>
          <p style=""font-size: 16px;"">F = YES &nbsp;&nbsp;&nbsp; J = NO</p>
        ","j","html-keyboard-response","139","2.1.0","363674","F=YES, J=NO","3jrofzjyhk","0","73","70","75","","","","","","","","","slorby","empire","pseudoword","pseudoword","j","true","",""
"null","<p style=""font-size: 50px;"">+</p>","null","html-keyboard-response","140","2.1.0","363977","F=YES, J=NO","3jrofzjyhk","0","73","70","75","","","","","","","","","","","","","","","",""
"null","audio/beep-329314.mp3","null","audio-keyboard-response","141","2.1.0","365507","F=YES, J=NO","3jrofzjyhk","0","73","70","75","","","","","","","","","","","","","","","",""
"null","audio/flaw.wav","null","audio-keyboard-response","142","2.1.0","366127","F=YES, J=NO","3jrofzjyhk","0","73","70","75","","","","","","","","","","","","","","","",""
"715","
          <p id=""word"" style=""font-size: 40px;"">thwool</p>
          <p style=""font-size: 16px;"">F = YES &nbsp;&nbsp;&nbsp; J = NO</p>
        ","j","html-keyboard-response","143","2.1.0","366842","F=YES, J=NO","3jrofzjyhk","0","73","70","75","","","","","","","","","thwool","flaw","pseudoword","pseudoword","j","true","",""
"null","<p style=""font-size: 50px;"">+</p>","null","html-keyboard-response","144","2.1.0","367159","F=YES, J=NO","3jrofzjyhk","0","73","70","75","","","","","","","","","","","","","","","",""
"null","audio/beep-329314.mp3","null","audio-keyboard-response","145","2.1.0","368687","F=YES, J=NO","3jrofzjyhk","0","73","70","75","","","","","","","","","","","","","","","",""
"null","audio/bishop1.wav","null","audio-keyboard-response","146","2.1.0","369447","F=YES, J=NO","3jrofzjyhk","0","73","70","75","","","","","","","","","","","","","","","",""
"475","
          <p id=""word"" style=""font-size: 40px;"">play</p>
          <p style=""font-size: 16px;"">F = YES &nbsp;&nbsp;&nbsp; J = NO</p>
        ","f","html-keyboard-response","147","2.1.0","369922","F=YES, J=NO","3jrofzjyhk","0","73","70","75","","","","","","","","","play","bishop1","filler","filler","f","true","",""
"null","<p style=""font-size: 50px;"">+</p>","null","html-keyboard-response","148","2.1.0","370225","F=YES, J=NO","3jrofzjyhk","0","73","70","75","","","","","","","","","","","","","","","",""
"null","audio/beep-329314.mp3","null","audio-keyboard-response","149","2.1.0","371747","F=YES, J=NO","3jrofzjyhk","0","73","70","75","","","","","","","","","","","","","","","",""
"null","audio/window1.wav","null","audio-keyboard-response","150","2.1.0","372507","F=YES, J=NO","3jrofzjyhk","0","73","70","75","","","","","","","","","","","","","","","",""
"639","
          <p id=""word"" style=""font-size: 40px;"">toss</p>
          <p style=""font-size: 16px;"">F = YES &nbsp;&nbsp;&nbsp; J = NO</p>
        ","f","html-keyboard-response","151","2.1.0","373147","F=YES, J=NO","3jrofzjyhk","0","73","70","75","","","","","","","","","toss","window1","filler","filler","f","true","",""
"null","<p style=""font-size: 50px;"">+</p>","null","html-keyboard-response","152","2.1.0","373451","F=YES, J=NO","3jrofzjyhk","0","73","70","75","","","","","","","","","","","","","","","",""
"null","audio/beep-329314.mp3","null","audio-keyboard-response","153","2.1.0","374987","F=YES, J=NO","3jrofzjyhk","0","73","70","75","","","","","","","","","","","","","","","",""
"null","audio/heart1.wav","null","audio-keyboard-response","154","2.1.0","375607","F=YES, J=NO","3jrofzjyhk","0","73","70","75","","","","","","","","","","","","","","","",""
"659","
          <p id=""word"" style=""font-size: 40px;"">dralm</p>
          <p style=""font-size: 16px;"">F = YES &nbsp;&nbsp;&nbsp; J = NO</p>
        ","j","html-keyboard-response","155","2.1.0","376266","F=YES, J=NO","3jrofzjyhk","0","73","70","75","","","","","","","","","dralm","heart1","pseudoword","pseudoword","j","true","",""
"null","<p style=""font-size: 50px;"">+</p>","null","html-keyboard-response","156","2.1.0","376569","F=YES, J=NO","3jrofzjyhk","0","73","70","75","","","","","","","","","","","","","","","",""
"null","audio/beep-329314.mp3","null","audio-keyboard-response","157","2.1.0","378107","F=YES, J=NO","3jrofzjyhk","0","73","70","75","","","","","","","","","","","","","","","",""
"null","audio/cancer1.wav","null","audio-keyboard-response","158","2.1.0","378647","F=YES, J=NO","3jrofzjyhk","0","73","70","75","","","","","","","","","","","","","","","",""
"531","
          <p id=""word"" style=""font-size: 40px;"">draw</p>
          <p style=""font-size: 16px;"">F = YES &nbsp;&nbsp;&nbsp; J = NO</p>
        ","f","html-keyboard-response","159","2.1.0","379178","F=YES, J=NO","3jrofzjyhk","0","73","70","75","","","","","","","","","draw","cancer1","filler","filler","f","true","",""
"null","<p style=""font-size: 50px;"">+</p>","null","html-keyboard-response","160","2.1.0","379483","F=YES, J=NO","3jrofzjyhk","0","73","70","75","","","","","","","","","","","","","","","",""
"null","audio/beep-329314.mp3","null","audio-keyboard-response","161","2.1.0","381007","F=YES, J=NO","3jrofzjyhk","0","73","70","75","","","","","","","","","","","","","","","",""
"null","audio/burden.wav","null","audio-keyboard-response","162","2.1.0","381507","F=YES, J=NO","3jrofzjyhk","0","73","70","75","","","","","","","","","","","","","","","",""
"655","
          <p id=""word"" style=""font-size: 40px;"">whotth</p>
          <p style=""font-size: 16px;"">F = YES &nbsp;&nbsp;&nbsp; J = NO</p>
        ","j","html-keyboard-response","163","2.1.0","382162","F=YES, J=NO","3jrofzjyhk","0","73","70","75","","","","","","","","","whotth","burden","pseudoword","pseudoword","j","true","",""
"22215","
    <div style=""max-width: 800px; margin: auto; text-align: left;"">
      <h2>Part 2: Main Trials</h2>
      <p>Great job on the practice trials!</p>
      <p>You will now begin the <strong>main set of trials</strong>.</p>
      <p>Remember your key assignments:</p>
      <ul>
        <li><strong>F</strong> = YES (real English word)</li>
        <li><strong>J</strong> = NO (not a real English word)</li>
      </ul>
      <p>Try to respond as <strong>quickly and accurately</strong> as possible.</p>
      <p style=""margin-top: 2em;"">Press any key to begin the main trials.</p>
    </div>
  ","ArrowLeft","html-keyboard-response","164","2.1.0","404378","F=YES, J=NO","3jrofzjyhk","0","73","70","75","","","","","","","","","","","","","","","",""
"3255","<p>Starting main block 1 of 8. Press any key to continue.</p>","j","html-keyboard-response","165","2.1.0","407634","F=YES, J=NO","3jrofzjyhk","0","73","70","75","","","","","","","","","","","","","","","",""
"null","<p style=""font-size: 50px;"">+</p>","null","html-keyboard-response","166","2.1.0","407943","F=YES, J=NO","3jrofzjyhk","0","73","70","75","","","","","","","","","","","","","","","",""
"null","audio/beep-329314.mp3","null","audio-keyboard-response","167","2.1.0","409466","F=YES, J=NO","3jrofzjyhk","0","73","70","75","","","","","","","","","","","","","","","",""
"null","audio/key1.wav","null","audio-keyboard-response","168","2.1.0","409817","F=YES, J=NO","3jrofzjyhk","0","73","70","75","","","","","","","","","","","","","","","",""
"528","
          <p id=""word"" style=""font-size: 40px;"">lose</p>
          <p style=""font-size: 16px;"">F = YES &nbsp;&nbsp;&nbsp; J = NO</p>
        ","f","html-keyboard-response","169","2.1.0","410346","F=YES, J=NO","3jrofzjyhk","0","73","70","75","","","","","","","","","lose","key1","literal","experimental","f","true","",""
"null","<p style=""font-size: 50px;"">+</p>","null","html-keyboard-response","170","2.1.0","410659","F=YES, J=NO","3jrofzjyhk","0","73","70","75","","","","","","","","","","","","","","","",""
"null","audio/beep-329314.mp3","null","audio-keyboard-response","171","2.1.0","412186","F=YES, J=NO","3jrofzjyhk","0","73","70","75","","","","","","","","","","","","","","","",""
"null","audio/neck.wav","null","audio-keyboard-response","172","2.1.0","412736","F=YES, J=NO","3jrofzjyhk","0","73","70","75","","","","","","","","","","","","","","","",""
"633","
          <p id=""word"" style=""font-size: 40px;"">werling</p>
          <p style=""font-size: 16px;"">F = YES &nbsp;&nbsp;&nbsp; J = NO</p>
        ","j","html-keyboard-response","173","2.1.0","413370","F=YES, J=NO","3jrofzjyhk","0","73","70","75","","","","","","","","","werling","neck","pseudoword","pseudoword","j","true","",""
"null","<p style=""font-size: 50px;"">+</p>","null","html-keyboard-response","174","2.1.0","413671","F=YES, J=NO","3jrofzjyhk","0","73","70","75","","","","","","","","","","","","","","","",""
"null","audio/beep-329314.mp3","null","audio-keyboard-response","175","2.1.0","415206","F=YES, J=NO","3jrofzjyhk","0","73","70","75","","","","","","","","","","","","","","","",""
"null","audio/brain.wav","null","audio-keyboard-response","176","2.1.0","415697","F=YES, J=NO","3jrofzjyhk","0","73","70","75","","","","","","","","","","","","","","","",""
"592","
          <p id=""word"" style=""font-size: 40px;"">throw</p>
          <p style=""font-size: 16px;"">F = YES &nbsp;&nbsp;&nbsp; J = NO</p>
        ","f","html-keyboard-response","177","2.1.0","416290","F=YES, J=NO","3jrofzjyhk","0","73","70","75","","","","","","","","","throw","brain","filler","filler","f","true","",""
"null","<p style=""font-size: 50px;"">+</p>","null","html-keyboard-response","178","2.1.0","416601","F=YES, J=NO","3jrofzjyhk","0","73","70","75","","","","","","","","","","","","","","","",""
"null","audio/beep-329314.mp3","null","audio-keyboard-response","179","2.1.0","418126","F=YES, J=NO","3jrofzjyhk","0","73","70","75","","","","","","","","","","","","","","","",""
"null","audio/wool1.wav","null","audio-keyboard-response","180","2.1.0","418496","F=YES, J=NO","3jrofzjyhk","0","73","70","75","","","","","","","","","","","","","","","",""
"1001","
          <p id=""word"" style=""font-size: 40px;"">weave</p>
          <p style=""font-size: 16px;"">F = YES &nbsp;&nbsp;&nbsp; J = NO</p>
        ","f","html-keyboard-response","181","2.1.0","419498","F=YES, J=NO","3jrofzjyhk","0","73","70","75","","","","","","","","","weave","wool1","literal","experimental","f","true","",""
"null","<p style=""font-size: 50px;"">+</p>","null","html-keyboard-response","182","2.1.0","419814","F=YES, J=NO","3jrofzjyhk","0","73","70","75","","","","","","","","","","","","","","","",""
"null","audio/beep-329314.mp3","null","audio-keyboard-response","183","2.1.0","421346","F=YES, J=NO","3jrofzjyhk","0","73","70","75","","","","","","","","","","","","","","","",""
"null","audio/theory1.wav","null","audio-keyboard-response","184","2.1.0","421996","F=YES, J=NO","3jrofzjyhk","0","73","70","75","","","","","","","","","","","","","","","",""
"837","
          <p id=""word"" style=""font-size: 40px;"">construct</p>
          <p style=""font-size: 16px;"">F = YES &nbsp;&nbsp;&nbsp; J = NO</p>
        ","f","html-keyboard-response","185","2.1.0","422834","F=YES, J=NO","3jrofzjyhk","0","73","70","75","","","","","","","","","construct","theory1","metaphor","experimental","f","true","",""
"null","<p style=""font-size: 50px;"">+</p>","null","html-keyboard-response","186","2.1.0","423150","F=YES, J=NO","3jrofzjyhk","0","73","70","75","","","","","","","","","","","","","","","",""
"null","audio/beep-329314.mp3","null","audio-keyboard-response","187","2.1.0","424686","F=YES, J=NO","3jrofzjyhk","0","73","70","75","","","","","","","","","","","","","","","",""
"null","audio/truth1.wav","null","audio-keyboard-response","188","2.1.0","425236","F=YES, J=NO","3jrofzjyhk","0","73","70","75","","","","","","","","","","","","","","","",""
"605","
          <p id=""word"" style=""font-size: 40px;"">calitom</p>
          <p style=""font-size: 16px;"">F = YES &nbsp;&nbsp;&nbsp; J = NO</p>
        ","j","html-keyboard-response","189","2.1.0","425842","F=YES, J=NO","3jrofzjyhk","0","73","70","75","","","","","","","","","calitom","truth1","pseudoword","pseudoword","j","true","",""
"null","<p style=""font-size: 50px;"">+</p>","null","html-keyboard-response","190","2.1.0","426142","F=YES, J=NO","3jrofzjyhk","0","73","70","75","","","","","","","","","","","","","","","",""
"null","audio/beep-329314.mp3","null","audio-keyboard-response","191","2.1.0","427666","F=YES, J=NO","3jrofzjyhk","0","73","70","75","","","","","","","","","","","","","","","",""
"null","audio/desire.wav","null","audio-keyboard-response","192","2.1.0","428297","F=YES, J=NO","3jrofzjyhk","0","73","70","75","","","","","","","","","","","","","","","",""
"616","
          <p id=""word"" style=""font-size: 40px;"">nophed</p>
          <p style=""font-size: 16px;"">F = YES &nbsp;&nbsp;&nbsp; J = NO</p>
        ","j","html-keyboard-response","193","2.1.0","428914","F=YES, J=NO","3jrofzjyhk","0","73","70","75","","","","","","","","","nophed","desire","pseudoword","pseudoword","j","true","",""
"null","<p style=""font-size: 50px;"">+</p>","null","html-keyboard-response","194","2.1.0","429226","F=YES, J=NO","3jrofzjyhk","0","73","70","75","","","","","","","","","","","","","","","",""
"null","audio/beep-329314.mp3","null","audio-keyboard-response","195","2.1.0","430766","F=YES, J=NO","3jrofzjyhk","0","73","70","75","","","","","","","","","","","","","","","",""
"null","audio/corpse1.wav","null","audio-keyboard-response","196","2.1.0","431396","F=YES, J=NO","3jrofzjyhk","0","73","70","75","","","","","","","","","","","","","","","",""
"477","
          <p id=""word"" style=""font-size: 40px;"">bury</p>
          <p style=""font-size: 16px;"">F = YES &nbsp;&nbsp;&nbsp; J = NO</p>
        ","f","html-keyboard-response","197","2.1.0","431874","F=YES, J=NO","3jrofzjyhk","0","73","70","75","","","","","","","","","bury","corpse1","literal","experimental","f","true","",""
"null","<p style=""font-size: 50px;"">+</p>","null","html-keyboard-response","198","2.1.0","432178","F=YES, J=NO","3jrofzjyhk","0","73","70","75","","","","","","","","","","","","","","","",""
"null","audio/beep-329314.mp3","null","audio-keyboard-response","199","2.1.0","433706","F=YES, J=NO","3jrofzjyhk","0","73","70","75","","","","","","","","","","","","","","","",""
"null","audio/corpse1.wav","null","audio-keyboard-response","200","2.1.0","434316","F=YES, J=NO","3jrofzjyhk","0","73","70","75","","","","","","","","","","","","","","","",""
"565","
          <p id=""word"" style=""font-size: 40px;"">glonet</p>
          <p style=""font-size: 16px;"">F = YES &nbsp;&nbsp;&nbsp; J = NO</p>
        ","j","html-keyboard-response","201","2.1.0","434882","F=YES, J=NO","3jrofzjyhk","0","73","70","75","","","","","","","","","glonet","corpse1","pseudoword","pseudoword","j","true","",""
"null","<p style=""font-size: 50px;"">+</p>","null","html-keyboard-response","202","2.1.0","435198","F=YES, J=NO","3jrofzjyhk","0","73","70","75","","","","","","","","","","","","","","","",""
"null","audio/beep-329314.mp3","null","audio-keyboard-response","203","2.1.0","436726","F=YES, J=NO","3jrofzjyhk","0","73","70","75","","","","","","","","","","","","","","","",""
"null","audio/trout1.wav","null","audio-keyboard-response","204","2.1.0","437316","F=YES, J=NO","3jrofzjyhk","0","73","70","75","","","","","","","","","","","","","","","",""
"709","
          <p id=""word"" style=""font-size: 40px;"">spimt</p>
          <p style=""font-size: 16px;"">F = YES &nbsp;&nbsp;&nbsp; J = NO</p>
        ","j","html-keyboard-response","205","2.1.0","438026","F=YES, J=NO","3jrofzjyhk","0","73","70","75","","","","","","","","","spimt","trout1","pseudoword","pseudoword","j","true","",""
"null","<p style=""font-size: 50px;"">+</p>","null","html-keyboard-response","206","2.1.0","438336","F=YES, J=NO","3jrofzjyhk","0","73","70","75","","","","","","","","","","","","","","","",""
"null","audio/beep-329314.mp3","null","audio-keyboard-response","207","2.1.0","439866","F=YES, J=NO","3jrofzjyhk","0","73","70","75","","","","","","","","","","","","","","","",""
"null","audio/uncle1.wav","null","audio-keyboard-response","208","2.1.0","440356","F=YES, J=NO","3jrofzjyhk","0","73","70","75","","","","","","","","","","","","","","","",""
"765","
          <p id=""word"" style=""font-size: 40px;"">dramble</p>
          <p style=""font-size: 16px;"">F = YES &nbsp;&nbsp;&nbsp; J = NO</p>
        ","j","html-keyboard-response","209","2.1.0","441122","F=YES, J=NO","3jrofzjyhk","0","73","70","75","","","","","","","","","dramble","uncle1","pseudoword","pseudoword","j","true","",""
"null","<p style=""font-size: 50px;"">+</p>","null","html-keyboard-response","210","2.1.0","441438","F=YES, J=NO","3jrofzjyhk","0","73","70","75","","","","","","","","","","","","","","","",""
"null","audio/beep-329314.mp3","null","audio-keyboard-response","211","2.1.0","442966","F=YES, J=NO","3jrofzjyhk","0","73","70","75","","","","","","","","","","","","","","","",""
"null","audio/battle1.wav","null","audio-keyboard-response","212","2.1.0","443436","F=YES, J=NO","3jrofzjyhk","0","73","70","75","","","","","","","","","","","","","","","",""
"501","
          <p id=""word"" style=""font-size: 40px;"">boil</p>
          <p style=""font-size: 16px;"">F = YES &nbsp;&nbsp;&nbsp; J = NO</p>
        ","f","html-keyboard-response","213","2.1.0","443938","F=YES, J=NO","3jrofzjyhk","0","73","70","75","","","","","","","","","boil","battle1","filler","filler","f","true","",""
"null","<p style=""font-size: 50px;"">+</p>","null","html-keyboard-response","214","2.1.0","444254","F=YES, J=NO","3jrofzjyhk","0","73","70","75","","","","","","","","","","","","","","","",""
"null","audio/beep-329314.mp3","null","audio-keyboard-response","215","2.1.0","445786","F=YES, J=NO","3jrofzjyhk","0","73","70","75","","","","","","","","","","","","","","","",""
"null","audio/sand.wav","null","audio-keyboard-response","216","2.1.0","446436","F=YES, J=NO","3jrofzjyhk","0","73","70","75","","","","","","","","","","","","","","","",""
"669","
          <p id=""word"" style=""font-size: 40px;"">proted</p>
          <p style=""font-size: 16px;"">F = YES &nbsp;&nbsp;&nbsp; J = NO</p>
        ","j","html-keyboard-response","217","2.1.0","447105","F=YES, J=NO","3jrofzjyhk","0","73","70","75","","","","","","","","","proted","sand","pseudoword","pseudoword","j","true","",""
"null","<p style=""font-size: 50px;"">+</p>","null","html-keyboard-response","218","2.1.0","447410","F=YES, J=NO","3jrofzjyhk","0","73","70","75","","","","","","","","","","","","","","","",""
"null","audio/beep-329314.mp3","null","audio-keyboard-response","219","2.1.0","448946","F=YES, J=NO","3jrofzjyhk","0","73","70","75","","","","","","","","","","","","","","","",""
"null","audio/pattern.wav","null","audio-keyboard-response","220","2.1.0","449456","F=YES, J=NO","3jrofzjyhk","0","73","70","75","","","","","","","","","","","","","","","",""
"801","
          <p id=""word"" style=""font-size: 40px;"">tug</p>
          <p style=""font-size: 16px;"">F = YES &nbsp;&nbsp;&nbsp; J = NO</p>
        ","f","html-keyboard-response","221","2.1.0","450257","F=YES, J=NO","3jrofzjyhk","0","73","70","75","","","","","","","","","tug","pattern","filler","filler","f","true","",""
"null","<p style=""font-size: 50px;"">+</p>","null","html-keyboard-response","222","2.1.0","450564","F=YES, J=NO","3jrofzjyhk","0","73","70","75","","","","","","","","","","","","","","","",""
"null","audio/beep-329314.mp3","null","audio-keyboard-response","223","2.1.0","452086","F=YES, J=NO","3jrofzjyhk","0","73","70","75","","","","","","","","","","","","","","","",""
"null","audio/meal.wav","null","audio-keyboard-response","224","2.1.0","452536","F=YES, J=NO","3jrofzjyhk","0","73","70","75","","","","","","","","","","","","","","","",""
"841","
          <p id=""word"" style=""font-size: 40px;"">gallite</p>
          <p style=""font-size: 16px;"">F = YES &nbsp;&nbsp;&nbsp; J = NO</p>
        ","j","html-keyboard-response","225","2.1.0","453378","F=YES, J=NO","3jrofzjyhk","0","73","70","75","","","","","","","","","gallite","meal","pseudoword","pseudoword","j","true","",""
"null","<p style=""font-size: 50px;"">+</p>","null","html-keyboard-response","226","2.1.0","453682","F=YES, J=NO","3jrofzjyhk","0","73","70","75","","","","","","","","","","","","","","","",""
"null","audio/beep-329314.mp3","null","audio-keyboard-response","227","2.1.0","455206","F=YES, J=NO","3jrofzjyhk","0","73","70","75","","","","","","","","","","","","","","","",""
"null","audio/bomb1.wav","null","audio-keyboard-response","228","2.1.0","455596","F=YES, J=NO","3jrofzjyhk","0","73","70","75","","","","","","","","","","","","","","","",""
"445","
          <p id=""word"" style=""font-size: 40px;"">clean</p>
          <p style=""font-size: 16px;"">F = YES &nbsp;&nbsp;&nbsp; J = NO</p>
        ","f","html-keyboard-response","229","2.1.0","456041","F=YES, J=NO","3jrofzjyhk","0","73","70","75","","","","","","","","","clean","bomb1","filler","filler","f","true","",""
"24911","<p>Excellent! You have finished block 1 of 8.</p>
                     <p>Feel free to take a 30 second break.</p>
                     <p>Press any key when you're ready to continue.</p>","j","html-keyboard-response","230","2.1.0","480953","F=YES, J=NO","3jrofzjyhk","0","73","70","75","","","","","","","","","","","","","","","",""
"31","<p>Starting main block 2 of 8. Press any key to continue.</p>","f","html-keyboard-response","231","2.1.0","480985","F=YES, J=NO","3jrofzjyhk","0","73","70","75","","","","","","","","","","","","","","","",""
"null","<p style=""font-size: 50px;"">+</p>","null","html-keyboard-response","232","2.1.0","481293","F=YES, J=NO","3jrofzjyhk","0","73","70","75","","","","","","","","","","","","","","","",""
"null","audio/beep-329314.mp3","null","audio-keyboard-response","233","2.1.0","482817","F=YES, J=NO","3jrofzjyhk","0","73","70","75","","","","","","","","","","","","","","","",""
"null","audio/account1.wav","null","audio-keyboard-response","234","2.1.0","483497","F=YES, J=NO","3jrofzjyhk","0","73","70","75","","","","","","","","","","","","","","","",""
"519","
          <p id=""word"" style=""font-size: 40px;"">paint</p>
          <p style=""font-size: 16px;"">F = YES &nbsp;&nbsp;&nbsp; J = NO</p>
        ","f","html-keyboard-response","235","2.1.0","484017","F=YES, J=NO","3jrofzjyhk","0","73","70","75","","","","","","","","","paint","account1","filler","filler","f","true","",""
"null","<p style=""font-size: 50px;"">+</p>","null","html-keyboard-response","236","2.1.0","484333","F=YES, J=NO","3jrofzjyhk","0","73","70","75","","","","","","","","","","","","","","","",""
"null","audio/beep-329314.mp3","null","audio-keyboard-response","237","2.1.0","485857","F=YES, J=NO","3jrofzjyhk","0","73","70","75","","","","","","","","","","","","","","","",""
"null","audio/tomato.wav","null","audio-keyboard-response","238","2.1.0","486517","F=YES, J=NO","3jrofzjyhk","0","73","70","75","","","","","","","","","","","","","","","",""
"475","
          <p id=""word"" style=""font-size: 40px;"">grow</p>
          <p style=""font-size: 16px;"">F = YES &nbsp;&nbsp;&nbsp; J = NO</p>
        ","f","html-keyboard-response","239","2.1.0","486993","F=YES, J=NO","3jrofzjyhk","0","73","70","75","","","","","","","","","grow","tomato","literal","experimental","f","true","",""
"null","<p style=""font-size: 50px;"">+</p>","null","html-keyboard-response","240","2.1.0","487296","F=YES, J=NO","3jrofzjyhk","0","73","70","75","","","","","","","","","","","","","","","",""
"null","audio/beep-329314.mp3","null","audio-keyboard-response","241","2.1.0","488817","F=YES, J=NO","3jrofzjyhk","0","73","70","75","","","","","","","","","","","","","","","",""
"null","audio/pain1.wav","null","audio-keyboard-response","242","2.1.0","489257","F=YES, J=NO","3jrofzjyhk","0","73","70","75","","","","","","","","","","","","","","","",""
"647","
          <p id=""word"" style=""font-size: 40px;"">tritted</p>
          <p style=""font-size: 16px;"">F = YES &nbsp;&nbsp;&nbsp; J = NO</p>
        ","j","html-keyboard-response","243","2.1.0","489905","F=YES, J=NO","3jrofzjyhk","0","73","70","75","","","","","","","","","tritted","pain1","pseudoword","pseudoword","j","true","",""
"null","<p style=""font-size: 50px;"">+</p>","null","html-keyboard-response","244","2.1.0","490207","F=YES, J=NO","3jrofzjyhk","0","73","70","75","","","","","","","","","","","","","","","",""
"null","audio/beep-329314.mp3","null","audio-keyboard-response","245","2.1.0","491737","F=YES, J=NO","3jrofzjyhk","0","73","70","75","","","","","","","","","","","","","","","",""
"null","audio/test1.wav","null","audio-keyboard-response","246","2.1.0","492297","F=YES, J=NO","3jrofzjyhk","0","73","70","75","","","","","","","","","","","","","","","",""
"487","
          <p id=""word"" style=""font-size: 40px;"">twopch</p>
          <p style=""font-size: 16px;"">F = YES &nbsp;&nbsp;&nbsp; J = NO</p>
        ","j","html-keyboard-response","247","2.1.0","492785","F=YES, J=NO","3jrofzjyhk","0","73","70","75","","","","","","","","","twopch","test1","pseudoword","pseudoword","j","true","",""
"null","<p style=""font-size: 50px;"">+</p>","null","html-keyboard-response","248","2.1.0","493090","F=YES, J=NO","3jrofzjyhk","0","73","70","75","","","","","","","","","","","","","","","",""
"null","audio/beep-329314.mp3","null","audio-keyboard-response","249","2.1.0","494617","F=YES, J=NO","3jrofzjyhk","0","73","70","75","","","","","","","","","","","","","","","",""
"null","audio/handle.wav","null","audio-keyboard-response","250","2.1.0","495237","F=YES, J=NO","3jrofzjyhk","0","73","70","75","","","","","","","","","","","","","","","",""
"587","
          <p id=""word"" style=""font-size: 40px;"">grasp</p>
          <p style=""font-size: 16px;"">F = YES &nbsp;&nbsp;&nbsp; J = NO</p>
        ","f","html-keyboard-response","251","2.1.0","495825","F=YES, J=NO","3jrofzjyhk","0","73","70","75","","","","","","","","","grasp","handle","literal","experimental","f","true","",""
"null","<p style=""font-size: 50px;"">+</p>","null","html-keyboard-response","252","2.1.0","496127","F=YES, J=NO","3jrofzjyhk","0","73","70","75","","","","","","","","","","","","","","","",""
"null","audio/beep-329314.mp3","null","audio-keyboard-response","253","2.1.0","497657","F=YES, J=NO","3jrofzjyhk","0","73","70","75","","","","","","","","","","","","","","","",""
"null","audio/planet1.wav","null","audio-keyboard-response","254","2.1.0","498237","F=YES, J=NO","3jrofzjyhk","0","73","70","75","","","","","","","","","","","","","","","",""
"803","
          <p id=""word"" style=""font-size: 40px;"">cratched</p>
          <p style=""font-size: 16px;"">F = YES &nbsp;&nbsp;&nbsp; J = NO</p>
        ","f","html-keyboard-response","255","2.1.0","499041","F=YES, J=NO","3jrofzjyhk","0","73","70","75","","","","","","","","","cratched","planet1","pseudoword","pseudoword","j","false","",""
"null","<p style=""font-size: 50px;"">+</p>","null","html-keyboard-response","256","2.1.0","499342","F=YES, J=NO","3jrofzjyhk","0","73","70","75","","","","","","","","","","","","","","","",""
"null","audio/beep-329314.mp3","null","audio-keyboard-response","257","2.1.0","500877","F=YES, J=NO","3jrofzjyhk","0","73","70","75","","","","","","","","","","","","","","","",""
"null","audio/grass.wav","null","audio-keyboard-response","258","2.1.0","501517","F=YES, J=NO","3jrofzjyhk","0","73","70","75","","","","","","","","","","","","","","","",""
"635","
          <p id=""word"" style=""font-size: 40px;"">milames</p>
          <p style=""font-size: 16px;"">F = YES &nbsp;&nbsp;&nbsp; J = NO</p>
        ","j","html-keyboard-response","259","2.1.0","502153","F=YES, J=NO","3jrofzjyhk","0","73","70","75","","","","","","","","","milames","grass","pseudoword","pseudoword","j","true","",""
"null","<p style=""font-size: 50px;"">+</p>","null","html-keyboard-response","260","2.1.0","502455","F=YES, J=NO","3jrofzjyhk","0","73","70","75","","","","","","","","","","","","","","","",""
"null","audio/beep-329314.mp3","null","audio-keyboard-response","261","2.1.0","503977","F=YES, J=NO","3jrofzjyhk","0","73","70","75","","","","","","","","","","","","","","","",""
"null","audio/pain1.wav","null","audio-keyboard-response","262","2.1.0","504417","F=YES, J=NO","3jrofzjyhk","0","73","70","75","","","","","","","","","","","","","","","",""
"479","
          <p id=""word"" style=""font-size: 40px;"">sell</p>
          <p style=""font-size: 16px;"">F = YES &nbsp;&nbsp;&nbsp; J = NO</p>
        ","f","html-keyboard-response","263","2.1.0","504897","F=YES, J=NO","3jrofzjyhk","0","73","70","75","","","","","","","","","sell","pain1","unrelated","experimental","f","true","",""
"null","<p style=""font-size: 50px;"">+</p>","null","html-keyboard-response","264","2.1.0","505197","F=YES, J=NO","3jrofzjyhk","0","73","70","75","","","","","","","","","","","","","","","",""
"null","audio/beep-329314.mp3","null","audio-keyboard-response","265","2.1.0","506737","F=YES, J=NO","3jrofzjyhk","0","73","70","75","","","","","","","","","","","","","","","",""
"null","audio/mile1.wav","null","audio-keyboard-response","266","2.1.0","507217","F=YES, J=NO","3jrofzjyhk","0","73","70","75","","","","","","","","","","","","","","","",""
"463","
          <p id=""word"" style=""font-size: 40px;"">run</p>
          <p style=""font-size: 16px;"">F = YES &nbsp;&nbsp;&nbsp; J = NO</p>
        ","f","html-keyboard-response","267","2.1.0","507681","F=YES, J=NO","3jrofzjyhk","0","73","70","75","","","","","","","","","run","mile1","literal","experimental","f","true","",""
"null","<p style=""font-size: 50px;"">+</p>","null","html-keyboard-response","268","2.1.0","507987","F=YES, J=NO","3jrofzjyhk","0","73","70","75","","","","","","","","","","","","","","","",""
"null","audio/beep-329314.mp3","null","audio-keyboard-response","269","2.1.0","509517","F=YES, J=NO","3jrofzjyhk","0","73","70","75","","","","","","","","","","","","","","","",""
"null","audio/stain.wav","null","audio-keyboard-response","270","2.1.0","510157","F=YES, J=NO","3jrofzjyhk","0","73","70","75","","","","","","","","","","","","","","","",""
"571","
          <p id=""word"" style=""font-size: 40px;"">rumpsied</p>
          <p style=""font-size: 16px;"">F = YES &nbsp;&nbsp;&nbsp; J = NO</p>
        ","j","html-keyboard-response","271","2.1.0","510729","F=YES, J=NO","3jrofzjyhk","0","73","70","75","","","","","","","","","rumpsied","stain","pseudoword","pseudoword","j","true","",""
"null","<p style=""font-size: 50px;"">+</p>","null","html-keyboard-response","272","2.1.0","511041","F=YES, J=NO","3jrofzjyhk","0","73","70","75","","","","","","","","","","","","","","","",""
"null","audio/beep-329314.mp3","null","audio-keyboard-response","273","2.1.0","512577","F=YES, J=NO","3jrofzjyhk","0","73","70","75","","","","","","","","","","","","","","","",""
"null","audio/burden.wav","null","audio-keyboard-response","274","2.1.0","513077","F=YES, J=NO","3jrofzjyhk","0","73","70","75","","","","","","","","","","","","","","","",""
"555","
          <p id=""word"" style=""font-size: 40px;"">carry</p>
          <p style=""font-size: 16px;"">F = YES &nbsp;&nbsp;&nbsp; J = NO</p>
        ","f","html-keyboard-response","275","2.1.0","513633","F=YES, J=NO","3jrofzjyhk","0","73","70","75","","","","","","","","","carry","burden","metaphor","experimental","f","true","",""
"null","<p style=""font-size: 50px;"">+</p>","null","html-keyboard-response","276","2.1.0","513937","F=YES, J=NO","3jrofzjyhk","0","73","70","75","","","","","","","","","","","","","","","",""
"null","audio/beep-329314.mp3","null","audio-keyboard-response","277","2.1.0","515477","F=YES, J=NO","3jrofzjyhk","0","73","70","75","","","","","","","","","","","","","","","",""
"null","audio/uncle1.wav","null","audio-keyboard-response","278","2.1.0","515957","F=YES, J=NO","3jrofzjyhk","0","73","70","75","","","","","","","","","","","","","","","",""
"515","
          <p id=""word"" style=""font-size: 40px;"">break</p>
          <p style=""font-size: 16px;"">F = YES &nbsp;&nbsp;&nbsp; J = NO</p>
        ","f","html-keyboard-response","279","2.1.0","516473","F=YES, J=NO","3jrofzjyhk","0","73","70","75","","","","","","","","","break","uncle1","unrelated","experimental","f","true","",""
"null","<p style=""font-size: 50px;"">+</p>","null","html-keyboard-response","280","2.1.0","516787","F=YES, J=NO","3jrofzjyhk","0","73","70","75","","","","","","","","","","","","","","","",""
"null","audio/beep-329314.mp3","null","audio-keyboard-response","281","2.1.0","518317","F=YES, J=NO","3jrofzjyhk","0","73","70","75","","","","","","","","","","","","","","","",""
"null","audio/budget1.wav","null","audio-keyboard-response","282","2.1.0","518917","F=YES, J=NO","3jrofzjyhk","0","73","70","75","","","","","","","","","","","","","","","",""
"595","
          <p id=""word"" style=""font-size: 40px;"">sulist</p>
          <p style=""font-size: 16px;"">F = YES &nbsp;&nbsp;&nbsp; J = NO</p>
        ","j","html-keyboard-response","283","2.1.0","519513","F=YES, J=NO","3jrofzjyhk","0","73","70","75","","","","","","","","","sulist","budget1","pseudoword","pseudoword","j","true","",""
"null","<p style=""font-size: 50px;"">+</p>","null","html-keyboard-response","284","2.1.0","519827","F=YES, J=NO","3jrofzjyhk","0","73","70","75","","","","","","","","","","","","","","","",""
"null","audio/beep-329314.mp3","null","audio-keyboard-response","285","2.1.0","521357","F=YES, J=NO","3jrofzjyhk","0","73","70","75","","","","","","","","","","","","","","","",""
"null","audio/empire.wav","null","audio-keyboard-response","286","2.1.0","521977","F=YES, J=NO","3jrofzjyhk","0","73","70","75","","","","","","","","","","","","","","","",""
"431","
          <p id=""word"" style=""font-size: 40px;"">bring</p>
          <p style=""font-size: 16px;"">F = YES &nbsp;&nbsp;&nbsp; J = NO</p>
        ","f","html-keyboard-response","287","2.1.0","522409","F=YES, J=NO","3jrofzjyhk","0","73","70","75","","","","","","","","","bring","empire","unrelated","experimental","f","true","",""
"null","<p style=""font-size: 50px;"">+</p>","null","html-keyboard-response","288","2.1.0","522721","F=YES, J=NO","3jrofzjyhk","0","73","70","75","","","","","","","","","","","","","","","",""
"null","audio/beep-329314.mp3","null","audio-keyboard-response","289","2.1.0","524257","F=YES, J=NO","3jrofzjyhk","0","73","70","75","","","","","","","","","","","","","","","",""
"null","audio/client1.wav","null","audio-keyboard-response","290","2.1.0","524937","F=YES, J=NO","3jrofzjyhk","0","73","70","75","","","","","","","","","","","","","","","",""
"423","
          <p id=""word"" style=""font-size: 40px;"">droothe</p>
          <p style=""font-size: 16px;"">F = YES &nbsp;&nbsp;&nbsp; J = NO</p>
        ","j","html-keyboard-response","291","2.1.0","525360","F=YES, J=NO","3jrofzjyhk","0","73","70","75","","","","","","","","","droothe","client1","pseudoword","pseudoword","j","true","",""
"null","<p style=""font-size: 50px;"">+</p>","null","html-keyboard-response","292","2.1.0","525663","F=YES, J=NO","3jrofzjyhk","0","73","70","75","","","","","","","","","","","","","","","",""
"null","audio/beep-329314.mp3","null","audio-keyboard-response","293","2.1.0","527197","F=YES, J=NO","3jrofzjyhk","0","73","70","75","","","","","","","","","","","","","","","",""
"null","audio/arm.wav","null","audio-keyboard-response","294","2.1.0","527737","F=YES, J=NO","3jrofzjyhk","0","73","70","75","","","","","","","","","","","","","","","",""
"599","
          <p id=""word"" style=""font-size: 40px;"">fold</p>
          <p style=""font-size: 16px;"">F = YES &nbsp;&nbsp;&nbsp; J = NO</p>
        ","f","html-keyboard-response","295","2.1.0","528336","F=YES, J=NO","3jrofzjyhk","0","73","70","75","","","","","","","","","fold","arm","filler","filler","f","true","",""
"1456","<p>Excellent! You have finished block 2 of 8.</p>
                     <p>Feel free to take a 30 second break.</p>
                     <p>Press any key when you're ready to continue.</p>","j","html-keyboard-response","296","2.1.0","529792","F=YES, J=NO","3jrofzjyhk","0","73","70","75","","","","","","","","","","","","","","","",""
"2808","<p>Starting main block 3 of 8. Press any key to continue.</p>","f","html-keyboard-response","297","2.1.0","532601","F=YES, J=NO","3jrofzjyhk","0","73","70","75","","","","","","","","","","","","","","","",""
"null","<p style=""font-size: 50px;"">+</p>","null","html-keyboard-response","298","2.1.0","532916","F=YES, J=NO","3jrofzjyhk","0","73","70","75","","","","","","","","","","","","","","","",""
"null","audio/beep-329314.mp3","null","audio-keyboard-response","299","2.1.0","534457","F=YES, J=NO","3jrofzjyhk","0","73","70","75","","","","","","","","","","","","","","","",""
"null","audio/smirk1.wav","null","audio-keyboard-response","300","2.1.0","535177","F=YES, J=NO","3jrofzjyhk","0","73","70","75","","","","","","","","","","","","","","","",""
"495","
          <p id=""word"" style=""font-size: 40px;"">snopt</p>
          <p style=""font-size: 16px;"">F = YES &nbsp;&nbsp;&nbsp; J = NO</p>
        ","j","html-keyboard-response","301","2.1.0","535672","F=YES, J=NO","3jrofzjyhk","0","73","70","75","","","","","","","","","snopt","smirk1","pseudoword","pseudoword","j","true","",""
"null","<p style=""font-size: 50px;"">+</p>","null","html-keyboard-response","302","2.1.0","535977","F=YES, J=NO","3jrofzjyhk","0","73","70","75","","","","","","","","","","","","","","","",""
"null","audio/beep-329314.mp3","null","audio-keyboard-response","303","2.1.0","537517","F=YES, J=NO","3jrofzjyhk","0","73","70","75","","","","","","","","","","","","","","","",""
"null","audio/flaw.wav","null","audio-keyboard-response","304","2.1.0","538137","F=YES, J=NO","3jrofzjyhk","0","73","70","75","","","","","","","","","","","","","","","",""
"511","
          <p id=""word"" style=""font-size: 40px;"">hide</p>
          <p style=""font-size: 16px;"">F = YES &nbsp;&nbsp;&nbsp; J = NO</p>
        ","f","html-keyboard-response","305","2.1.0","538648","F=YES, J=NO","3jrofzjyhk","0","73","70","75","","","","","","","","","hide","flaw","metaphor","experimental","f","true","",""
"null","<p style=""font-size: 50px;"">+</p>","null","html-keyboard-response","306","2.1.0","538949","F=YES, J=NO","3jrofzjyhk","0","73","70","75","","","","","","","","","","","","","","","",""
"null","audio/beep-329314.mp3","null","audio-keyboard-response","307","2.1.0","540477","F=YES, J=NO","3jrofzjyhk","0","73","70","75","","","","","","","","","","","","","","","",""
"null","audio/ankle1.wav","null","audio-keyboard-response","308","2.1.0","540997","F=YES, J=NO","3jrofzjyhk","0","73","70","75","","","","","","","","","","","","","","","",""
"563","
          <p id=""word"" style=""font-size: 40px;"">kick</p>
          <p style=""font-size: 16px;"">F = YES &nbsp;&nbsp;&nbsp; J = NO</p>
        ","f","html-keyboard-response","309","2.1.0","541560","F=YES, J=NO","3jrofzjyhk","0","73","70","75","","","","","","","","","kick","ankle1","filler","filler","f","true","",""
"null","<p style=""font-size: 50px;"">+</p>","null","html-keyboard-response","310","2.1.0","541861","F=YES, J=NO","3jrofzjyhk","0","73","70","75","","","","","","","","","","","","","","","",""
"null","audio/beep-329314.mp3","null","audio-keyboard-response","311","2.1.0","543397","F=YES, J=NO","3jrofzjyhk","0","73","70","75","","","","","","","","","","","","","","","",""
"null","audio/size1.wav","null","audio-keyboard-response","312","2.1.0","544137","F=YES, J=NO","3jrofzjyhk","0","73","70","75","","","","","","","","","","","","","","","",""
"495","
          <p id=""word"" style=""font-size: 40px;"">clear</p>
          <p style=""font-size: 16px;"">F = YES &nbsp;&nbsp;&nbsp; J = NO</p>
        ","f","html-keyboard-response","313","2.1.0","544632","F=YES, J=NO","3jrofzjyhk","0","73","70","75","","","","","","","","","clear","size1","unrelated","experimental","f","true","",""
"null","<p style=""font-size: 50px;"">+</p>","null","html-keyboard-response","314","2.1.0","544937","F=YES, J=NO","3jrofzjyhk","0","73","70","75","","","","","","","","","","","","","","","",""
"null","audio/beep-329314.mp3","null","audio-keyboard-response","315","2.1.0","546477","F=YES, J=NO","3jrofzjyhk","0","73","70","75","","","","","","","","","","","","","","","",""
"null","audio/trust.wav","null","audio-keyboard-response","316","2.1.0","547096","F=YES, J=NO","3jrofzjyhk","0","73","70","75","","","","","","","","","","","","","","","",""
"655","
          <p id=""word"" style=""font-size: 40px;"">swint</p>
          <p style=""font-size: 16px;"">F = YES &nbsp;&nbsp;&nbsp; J = NO</p>
        ","j","html-keyboard-response","317","2.1.0","547752","F=YES, J=NO","3jrofzjyhk","0","73","70","75","","","","","","","","","swint","trust","pseudoword","pseudoword","j","true","",""
"null","<p style=""font-size: 50px;"">+</p>","null","html-keyboard-response","318","2.1.0","548055","F=YES, J=NO","3jrofzjyhk","0","73","70","75","","","","","","","","","","","","","","","",""
"null","audio/beep-329314.mp3","null","audio-keyboard-response","319","2.1.0","549576","F=YES, J=NO","3jrofzjyhk","0","73","70","75","","","","","","","","","","","","","","","",""
"null","audio/terrain.wav","null","audio-keyboard-response","320","2.1.0","550156","F=YES, J=NO","3jrofzjyhk","0","73","70","75","","","","","","","","","","","","","","","",""
"459","
          <p id=""word"" style=""font-size: 40px;"">twist</p>
          <p style=""font-size: 16px;"">F = YES &nbsp;&nbsp;&nbsp; J = NO</p>
        ","f","html-keyboard-response","321","2.1.0","550616","F=YES, J=NO","3jrofzjyhk","0","73","70","75","","","","","","","","","twist","terrain","filler","filler","f","true","",""
"null","<p style=""font-size: 50px;"">+</p>","null","html-keyboard-response","322","2.1.0","550932","F=YES, J=NO","3jrofzjyhk","0","73","70","75","","","","","","","","","","","","","","","",""
"null","audio/beep-329314.mp3","null","audio-keyboard-response","323","2.1.0","552456","F=YES, J=NO","3jrofzjyhk","0","73","70","75","","","","","","","","","","","","","","","",""
"null","audio/handle.wav","null","audio-keyboard-response","324","2.1.0","553076","F=YES, J=NO","3jrofzjyhk","0","73","70","75","","","","","","","","","","","","","","","",""
"675","
          <p id=""word"" style=""font-size: 40px;"">moutes</p>
          <p style=""font-size: 16px;"">F = YES &nbsp;&nbsp;&nbsp; J = NO</p>
        ","j","html-keyboard-response","325","2.1.0","553752","F=YES, J=NO","3jrofzjyhk","0","73","70","75","","","","","","","","","moutes","handle","pseudoword","pseudoword","j","true","",""
"null","<p style=""font-size: 50px;"">+</p>","null","html-keyboard-response","326","2.1.0","554069","F=YES, J=NO","3jrofzjyhk","0","73","70","75","","","","","","","","","","","","","","","",""
"null","audio/beep-329314.mp3","null","audio-keyboard-response","327","2.1.0","555596","F=YES, J=NO","3jrofzjyhk","0","73","70","75","","","","","","","","","","","","","","","",""
"null","audio/trust.wav","null","audio-keyboard-response","328","2.1.0","556216","F=YES, J=NO","3jrofzjyhk","0","73","70","75","","","","","","","","","","","","","","","",""
"543","
          <p id=""word"" style=""font-size: 40px;"">build</p>
          <p style=""font-size: 16px;"">F = YES &nbsp;&nbsp;&nbsp; J = NO</p>
        ","f","html-keyboard-response","329","2.1.0","556760","F=YES, J=NO","3jrofzjyhk","0","73","70","75","","","","","","","","","build","trust","metaphor","experimental","f","true","",""
"null","<p style=""font-size: 50px;"">+</p>","null","html-keyboard-response","330","2.1.0","557063","F=YES, J=NO","3jrofzjyhk","0","73","70","75","","","","","","","","","","","","","","","",""
"null","audio/beep-329314.mp3","null","audio-keyboard-response","331","2.1.0","558596","F=YES, J=NO","3jrofzjyhk","0","73","70","75","","","","","","","","","","","","","","","",""
"null","audio/bridge.wav","null","audio-keyboard-response","332","2.1.0","559136","F=YES, J=NO","3jrofzjyhk","0","73","70","75","","","","","","","","","","","","","","","",""
"559","
          <p id=""word"" style=""font-size: 40px;"">crack</p>
          <p style=""font-size: 16px;"">F = YES &nbsp;&nbsp;&nbsp; J = NO</p>
        ","f","html-keyboard-response","333","2.1.0","559696","F=YES, J=NO","3jrofzjyhk","0","73","70","75","","","","","","","","","crack","bridge","filler","filler","f","true","",""
"null","<p style=""font-size: 50px;"">+</p>","null","html-keyboard-response","334","2.1.0","559999","F=YES, J=NO","3jrofzjyhk","0","73","70","75","","","","","","","","","","","","","","","",""
"null","audio/beep-329314.mp3","null","audio-keyboard-response","335","2.1.0","561536","F=YES, J=NO","3jrofzjyhk","0","73","70","75","","","","","","","","","","","","","","","",""
"null","audio/gossip1.wav","null","audio-keyboard-response","336","2.1.0","562156","F=YES, J=NO","3jrofzjyhk","0","73","70","75","","","","","","","","","","","","","","","",""
"611","
          <p id=""word"" style=""font-size: 40px;"">camerish</p>
          <p style=""font-size: 16px;"">F = YES &nbsp;&nbsp;&nbsp; J = NO</p>
        ","j","html-keyboard-response","337","2.1.0","562768","F=YES, J=NO","3jrofzjyhk","0","73","70","75","","","","","","","","","camerish","gossip1","pseudoword","pseudoword","j","true","",""
"null","<p style=""font-size: 50px;"">+</p>","null","html-keyboard-response","338","2.1.0","563084","F=YES, J=NO","3jrofzjyhk","0","73","70","75","","","","","","","","","","","","","","","",""
"null","audio/beep-329314.mp3","null","audio-keyboard-response","339","2.1.0","564616","F=YES, J=NO","3jrofzjyhk","0","73","70","75","","","","","","","","","","","","","","","",""
"null","audio/sand.wav","null","audio-keyboard-response","340","2.1.0","565256","F=YES, J=NO","3jrofzjyhk","0","73","70","75","","","","","","","","","","","","","","","",""
"663","
          <p id=""word"" style=""font-size: 40px;"">possess</p>
          <p style=""font-size: 16px;"">F = YES &nbsp;&nbsp;&nbsp; J = NO</p>
        ","f","html-keyboard-response","341","2.1.0","565920","F=YES, J=NO","3jrofzjyhk","0","73","70","75","","","","","","","","","possess","sand","unrelated","experimental","f","true","",""
"null","<p style=""font-size: 50px;"">+</p>","null","html-keyboard-response","342","2.1.0","566223","F=YES, J=NO","3jrofzjyhk","0","73","70","75","","","","","","","","","","","","","","","",""
"null","audio/beep-329314.mp3","null","audio-keyboard-response","343","2.1.0","567756","F=YES, J=NO","3jrofzjyhk","0","73","70","75","","","","","","","","","","","","","","","",""
"null","audio/truth1.wav","null","audio-keyboard-response","344","2.1.0","568296","F=YES, J=NO","3jrofzjyhk","0","73","70","75","","","","","","","","","","","","","","","",""
"479","
          <p id=""word"" style=""font-size: 40px;"">expose</p>
          <p style=""font-size: 16px;"">F = YES &nbsp;&nbsp;&nbsp; J = NO</p>
        ","f","html-keyboard-response","345","2.1.0","568776","F=YES, J=NO","3jrofzjyhk","0","73","70","75","","","","","","","","","expose","truth1","metaphor","experimental","f","true","",""
"null","<p style=""font-size: 50px;"">+</p>","null","html-keyboard-response","346","2.1.0","569085","F=YES, J=NO","3jrofzjyhk","0","73","70","75","","","","","","","","","","","","","","","",""
"null","audio/beep-329314.mp3","null","audio-keyboard-response","347","2.1.0","570616","F=YES, J=NO","3jrofzjyhk","0","73","70","75","","","","","","","","","","","","","","","",""
"null","audio/arm.wav","null","audio-keyboard-response","348","2.1.0","571156","F=YES, J=NO","3jrofzjyhk","0","73","70","75","","","","","","","","","","","","","","","",""
"531","
          <p id=""word"" style=""font-size: 40px;"">pigne</p>
          <p style=""font-size: 16px;"">F = YES &nbsp;&nbsp;&nbsp; J = NO</p>
        ","j","html-keyboard-response","349","2.1.0","571688","F=YES, J=NO","3jrofzjyhk","0","73","70","75","","","","","","","","","pigne","arm","pseudoword","pseudoword","j","true","",""
"null","<p style=""font-size: 50px;"">+</p>","null","html-keyboard-response","350","2.1.0","571992","F=YES, J=NO","3jrofzjyhk","0","73","70","75","","","","","","","","","","","","","","","",""
"null","audio/beep-329314.mp3","null","audio-keyboard-response","351","2.1.0","573516","F=YES, J=NO","3jrofzjyhk","0","73","70","75","","","","","","","","","","","","","","","",""
"null","audio/holiday1.wav","null","audio-keyboard-response","352","2.1.0","574136","F=YES, J=NO","3jrofzjyhk","0","73","70","75","","","","","","","","","","","","","","","",""
"607","
          <p id=""word"" style=""font-size: 40px;"">drivets</p>
          <p style=""font-size: 16px;"">F = YES &nbsp;&nbsp;&nbsp; J = NO</p>
        ","j","html-keyboard-response","353","2.1.0","574744","F=YES, J=NO","3jrofzjyhk","0","73","70","75","","","","","","","","","drivets","holiday1","pseudoword","pseudoword","j","true","",""
"null","<p style=""font-size: 50px;"">+</p>","null","html-keyboard-response","354","2.1.0","575048","F=YES, J=NO","3jrofzjyhk","0","73","70","75","","","","","","","","","","","","","","","",""
"null","audio/beep-329314.mp3","null","audio-keyboard-response","355","2.1.0","576576","F=YES, J=NO","3jrofzjyhk","0","73","70","75","","","","","","","","","","","","","","","",""
"null","audio/ego.wav","null","audio-keyboard-response","356","2.1.0","577116","F=YES, J=NO","3jrofzjyhk","0","73","70","75","","","","","","","","","","","","","","","",""
"643","
          <p id=""word"" style=""font-size: 40px;"">bruite</p>
          <p style=""font-size: 16px;"">F = YES &nbsp;&nbsp;&nbsp; J = NO</p>
        ","j","html-keyboard-response","357","2.1.0","577760","F=YES, J=NO","3jrofzjyhk","0","73","70","75","","","","","","","","","bruite","ego","pseudoword","pseudoword","j","true","",""
"null","<p style=""font-size: 50px;"">+</p>","null","html-keyboard-response","358","2.1.0","578070","F=YES, J=NO","3jrofzjyhk","0","73","70","75","","","","","","","","","","","","","","","",""
"null","audio/beep-329314.mp3","null","audio-keyboard-response","359","2.1.0","579596","F=YES, J=NO","3jrofzjyhk","0","73","70","75","","","","","","","","","","","","","","","",""
"null","audio/tax1.wav","null","audio-keyboard-response","360","2.1.0","580196","F=YES, J=NO","3jrofzjyhk","0","73","70","75","","","","","","","","","","","","","","","",""
"643","
          <p id=""word"" style=""font-size: 40px;"">snate</p>
          <p style=""font-size: 16px;"">F = YES &nbsp;&nbsp;&nbsp; J = NO</p>
        ","j","html-keyboard-response","361","2.1.0","580840","F=YES, J=NO","3jrofzjyhk","0","73","70","75","","","","","","","","","snate","tax1","pseudoword","pseudoword","j","true","",""
"2839","<p>Excellent! You have finished block 3 of 8.</p>
                     <p>Feel free to take a 30 second break.</p>
                     <p>Press any key when you're ready to continue.</p>","j","html-keyboard-response","362","2.1.0","583680","F=YES, J=NO","3jrofzjyhk","0","73","70","75","","","","","","","","","","","","","","","",""
"2415","<p>Starting main block 4 of 8. Press any key to continue.</p>","j","html-keyboard-response","363","2.1.0","586096","F=YES, J=NO","3jrofzjyhk","0","73","70","75","","","","","","","","","","","","","","","",""
"null","<p style=""font-size: 50px;"">+</p>","null","html-keyboard-response","364","2.1.0","586398","F=YES, J=NO","3jrofzjyhk","0","73","70","75","","","","","","","","","","","","","","","",""
"null","audio/beep-329314.mp3","null","audio-keyboard-response","365","2.1.0","587936","F=YES, J=NO","3jrofzjyhk","0","73","70","75","","","","","","","","","","","","","","","",""
"null","audio/key1.wav","null","audio-keyboard-response","366","2.1.0","588296","F=YES, J=NO","3jrofzjyhk","0","73","70","75","","","","","","","","","","","","","","","",""
"551","
          <p id=""word"" style=""font-size: 40px;"">sminsh</p>
          <p style=""font-size: 16px;"">F = YES &nbsp;&nbsp;&nbsp; J = NO</p>
        ","j","html-keyboard-response","367","2.1.0","588848","F=YES, J=NO","3jrofzjyhk","0","73","70","75","","","","","","","","","sminsh","key1","pseudoword","pseudoword","j","true","",""
"null","<p style=""font-size: 50px;"">+</p>","null","html-keyboard-response","368","2.1.0","589152","F=YES, J=NO","3jrofzjyhk","0","73","70","75","","","","","","","","","","","","","","","",""
"null","audio/beep-329314.mp3","null","audio-keyboard-response","369","2.1.0","590676","F=YES, J=NO","3jrofzjyhk","0","73","70","75","","","","","","","","","","","","","","","",""
"null","audio/plane1.wav","null","audio-keyboard-response","370","2.1.0","591116","F=YES, J=NO","3jrofzjyhk","0","73","70","75","","","","","","","","","","","","","","","",""
"531","
          <p id=""word"" style=""font-size: 40px;"">land</p>
          <p style=""font-size: 16px;"">F = YES &nbsp;&nbsp;&nbsp; J = NO</p>
        ","f","html-keyboard-response","371","2.1.0","591648","F=YES, J=NO","3jrofzjyhk","0","73","70","75","","","","","","","","","land","plane1","literal","experimental","f","true","",""
"null","<p style=""font-size: 50px;"">+</p>","null","html-keyboard-response","372","2.1.0","591964","F=YES, J=NO","3jrofzjyhk","0","73","70","75","","","","","","","","","","","","","","","",""
"null","audio/beep-329314.mp3","null","audio-keyboard-response","373","2.1.0","593496","F=YES, J=NO","3jrofzjyhk","0","73","70","75","","","","","","","","","","","","","","","",""
"null","audio/plot1.wav","null","audio-keyboard-response","374","2.1.0","594036","F=YES, J=NO","3jrofzjyhk","0","73","70","75","","","","","","","","","","","","","","","",""
"579","
          <p id=""word"" style=""font-size: 40px;"">glenter</p>
          <p style=""font-size: 16px;"">F = YES &nbsp;&nbsp;&nbsp; J = NO</p>
        ","j","html-keyboard-response","375","2.1.0","594616","F=YES, J=NO","3jrofzjyhk","0","73","70","75","","","","","","","","","glenter","plot1","pseudoword","pseudoword","j","true","",""
"null","<p style=""font-size: 50px;"">+</p>","null","html-keyboard-response","376","2.1.0","594920","F=YES, J=NO","3jrofzjyhk","0","73","70","75","","","","","","","","","","","","","","","",""
"null","audio/beep-329314.mp3","null","audio-keyboard-response","377","2.1.0","596456","F=YES, J=NO","3jrofzjyhk","0","73","70","75","","","","","","","","","","","","","","","",""
"null","audio/train.wav","null","audio-keyboard-response","378","2.1.0","596956","F=YES, J=NO","3jrofzjyhk","0","73","70","75","","","","","","","","","","","","","","","",""
"427","
          <p id=""word"" style=""font-size: 40px;"">catch</p>
          <p style=""font-size: 16px;"">F = YES &nbsp;&nbsp;&nbsp; J = NO</p>
        ","f","html-keyboard-response","379","2.1.0","597384","F=YES, J=NO","3jrofzjyhk","0","73","70","75","","","","","","","","","catch","train","metaphor","experimental","f","true","",""
"null","<p style=""font-size: 50px;"">+</p>","null","html-keyboard-response","380","2.1.0","597686","F=YES, J=NO","3jrofzjyhk","0","73","70","75","","","","","","","","","","","","","","","",""
"null","audio/beep-329314.mp3","null","audio-keyboard-response","381","2.1.0","599216","F=YES, J=NO","3jrofzjyhk","0","73","70","75","","","","","","","","","","","","","","","",""
"null","audio/age1.wav","null","audio-keyboard-response","382","2.1.0","599756","F=YES, J=NO","3jrofzjyhk","0","73","70","75","","","","","","","","","","","","","","","",""
"587","
          <p id=""word"" style=""font-size: 40px;"">lachry</p>
          <p style=""font-size: 16px;"">F = YES &nbsp;&nbsp;&nbsp; J = NO</p>
        ","j","html-keyboard-response","383","2.1.0","600343","F=YES, J=NO","3jrofzjyhk","0","73","70","75","","","","","","","","","lachry","age1","pseudoword","pseudoword","j","true","",""
"null","<p style=""font-size: 50px;"">+</p>","null","html-keyboard-response","384","2.1.0","600654","F=YES, J=NO","3jrofzjyhk","0","73","70","75","","","","","","","","","","","","","","","",""
"null","audio/beep-329314.mp3","null","audio-keyboard-response","385","2.1.0","602176","F=YES, J=NO","3jrofzjyhk","0","73","70","75","","","","","","","","","","","","","","","",""
"null","audio/breath.wav","null","audio-keyboard-response","386","2.1.0","602736","F=YES, J=NO","3jrofzjyhk","0","73","70","75","","","","","","","","","","","","","","","",""
"447","
          <p id=""word"" style=""font-size: 40px;"">pack</p>
          <p style=""font-size: 16px;"">F = YES &nbsp;&nbsp;&nbsp; J = NO</p>
        ","f","html-keyboard-response","387","2.1.0","603184","F=YES, J=NO","3jrofzjyhk","0","73","70","75","","","","","","","","","pack","breath","filler","filler","f","true","",""
"null","<p style=""font-size: 50px;"">+</p>","null","html-keyboard-response","388","2.1.0","603488","F=YES, J=NO","3jrofzjyhk","0","73","70","75","","","","","","","","","","","","","","","",""
"null","audio/beep-329314.mp3","null","audio-keyboard-response","389","2.1.0","605016","F=YES, J=NO","3jrofzjyhk","0","73","70","75","","","","","","","","","","","","","","","",""
"null","audio/topic.wav","null","audio-keyboard-response","390","2.1.0","605576","F=YES, J=NO","3jrofzjyhk","0","73","70","75","","","","","","","","","","","","","","","",""
"671","
          <p id=""word"" style=""font-size: 40px;"">infortuitist</p>
          <p style=""font-size: 16px;"">F = YES &nbsp;&nbsp;&nbsp; J = NO</p>
