"rt","stimulus","response","trial_type","trial_index","plugin_version","time_elapsed","response_mapping","subject_id","list_index","lextale_score","lextale_word_score","lextale_nonword_score","success","timeout","failed_images","failed_audio","failed_video","task","isWord","isDummy","target","prime","prime_type","stimulus_type","correct_response","correct","section","question_order"
"4795","
    <div style=""max-width: 800px; margin: auto; text-align: left;"">
      <h2>STANFORD UNIVERSITY</h2>
      <h3>Research Information Sheet</h3>
      <p><strong>Protocol Director:</strong> Robert Hawkins<br>
      <strong>Protocol Title:</strong> Communication and social cognition in natural audiovisual contexts<br>
      <strong>IRB#:</strong> 77226</p>

      <p><strong>DESCRIPTION:</strong> You are invited to participate in a research study about language and communication. The purpose of the research is to understand how you interact and communicate with other people in naturalistic settings as a fluent English speaker. This research will be conducted through the Prolific platform, including participants from the US, UK, and Canada. If you decide to participate in this research, you will play a communication game in a group with one or more partners.</p>

      <p><strong>TIME INVOLVEMENT:</strong> The task will last the amount of time advertised on Prolific. You are free to withdraw from the study at any time.</p>

      <p><strong>RISKS AND BENEFITS:</strong> You may become frustrated if your partner gets distracted, or experience discomfort if other participants in your group send text that is inappropriate for the task. We ask you to please be respectful of other participants you might be interacting with to mitigate these risks. You may also experience discomfort when being asked to discuss or challenge emotionally salient political beliefs. Study data will be stored securely, in compliance with Stanford University standards, minimizing the risk of confidentiality breach. This study advances our scientific understanding of how people communicate and collaborate in naturalistic settings. This study may lead to further insights about what can go wrong in teamwork, suggest potential interventions to overcome these barriers, and help to develop assistive technologies that collaborate with human partners. We cannot and do not guarantee or promise that you will receive any benefits from this study.</p>

      <p><strong>PAYMENTS:</strong> You will receive payment in the amount advertised on Prolific. If you do not complete this study, you will receive prorated payment based on the time that you have spent. Additionally, you may be eligible for bonus payments as described in the instructions.</p>

      <p><strong>PARTICIPANT’S RIGHTS:</strong> If you have read this form and have decided to participate in this project, please understand your participation is voluntary and you have the right to withdraw your consent or discontinue participation at any time without penalty or loss of benefits to which you are otherwise entitled. The alternative is not to participate. You have the right to refuse to answer particular questions. The results of this research study may be presented at scientific or professional meetings or published in scientific journals. Your individual privacy will be maintained in all published and written data resulting from the study. In accordance with scientific norms, the data from this study may be used or shared with other researchers for future research (after removing personally identifying information) without additional consent from you.</p>

      <p><strong>CONTACT INFORMATION:</strong><br>
      Questions: If you have any questions, concerns or complaints about this research, its procedures, risks and benefits, contact the Protocol Director, Robert Hawkins (<a href=""mailto:rdhawkins@stanford.edu"">rdhawkins@stanford.edu</a>, 217-549-6923).<br>
      Independent Contact: If you are not satisfied with how this study is being conducted, or if you have any concerns, complaints, or general questions about the research or your rights as a participant, please contact the Stanford Institutional Review Board (IRB) to speak to someone independent of the research team at 650-723-2480 or toll free at 1-866-680-2906, or email at <a href=""mailto:irbnon-med@stanford.edu"">irbnon-med@stanford.edu</a>. You can also write to the Stanford IRB, Stanford University, 1705 El Camino Real, Palo Alto, CA 94306.</p>

      <p><strong>Please save or print a copy of this page for your records.</strong></p>
      <p>If you agree to participate in this research, click ""Continue"" below.</p>
    </div>
  ","0","html-button-response","0","2.1.0","4804","J=YES, F=NO","3r6p8l760g","2","71","78","65","","","","","","","","","","","","","","","",""
"46306","
    <div style=""max-width: 800px; margin: auto; text-align: left;"">
      <h2>Welcome!</h2>
      <p>Thank you for participating in this study. The experiment consists of three parts:</p>
      <ol>
        <li>An English vocabulary test</li>
        <li>A main task in which you will hear and see words, and decide whether the written word is a real English word</li>
        <li>A brief survey about your background</li>
      </ol>
      <p>Each part will be introduced before it begins.</p>
      <p>Please make sure you are in a quiet environment and can hear audio clearly for the final task.</p>
      <p style=""margin-top: 2em;"">Press any key to begin.</p>
    </div>
  "," ","html-keyboard-response","1","2.1.0","51111","J=YES, F=NO","3r6p8l760g","2","71","78","65","","","","","","","","","","","","","","","",""
"","","","preload","2","2.1.0","51387","J=YES, F=NO","3r6p8l760g","2","71","78","65","true","false","[]","[]","[]","","","","","","","","","","",""
"4154","
    <div style=""max-width: 800px; margin: auto; text-align: left;"">
      <h2>Part 1: Vocabulary Test</h2>
      <p>You will now complete the first part of the study: a short English vocabulary test.</p>
      <p>This test is called <strong>LexTALE</strong> and helps us get a general sense of your English proficiency.</p>
      <p style=""margin-top: 2em;"">Press any key to continue.</p>
    </div>
  ","w","html-keyboard-response","3","2.1.0","55542","J=YES, F=NO","3r6p8l760g","2","71","78","65","","","","","","","","","","","","","","","",""
"4302","
    <div style=""max-width: 800px; margin: auto; text-align: left;"">
      <h2>LexTALE Vocabulary Test</h2>
      <p>In this test, you will see a series of letter strings—one at a time.</p>
      <p>Your task is to decide whether each string is a real English word.</p>
      <p><strong>Key responses:</strong></p>
      <ul>
        <li><strong>J</strong> = YES (real English word)</li>
        <li><strong>F</strong> = NO (not a real English word)</li>
      </ul>
      <p>There is no time limit, but please try to be accurate.</p>
      <p style=""margin-top: 2em;"">Press any key to begin.</p>
    </div>
  ","j","html-keyboard-response","4","2.1.0","59846","J=YES, F=NO","3r6p8l760g","2","71","78","65","","","","","","","","","","","","","","","",""
"1783","
  <p style=""font-size: 40px;"">platery</p>
  <p style=""font-size: 16px;"">J = YES &nbsp;&nbsp;&nbsp; F = NO</p>
","j","html-keyboard-response","5","2.1.0","61631","J=YES, F=NO","3r6p8l760g","2","71","78","65","","","","","","lextale","false","true","","","","","","","",""
"1158","
  <p style=""font-size: 40px;"">denial</p>
  <p style=""font-size: 16px;"">J = YES &nbsp;&nbsp;&nbsp; F = NO</p>
","j","html-keyboard-response","6","2.1.0","62791","J=YES, F=NO","3r6p8l760g","2","71","78","65","","","","","","lextale","true","true","","","","","","","",""
"1060","
  <p style=""font-size: 40px;"">marrit</p>
  <p style=""font-size: 16px;"">J = YES &nbsp;&nbsp;&nbsp; F = NO</p>
","f","html-keyboard-response","7","2.1.0","63851","J=YES, F=NO","3r6p8l760g","2","71","78","65","","","","","","lextale","false","true","","","","","","","",""
"1330","
  <p style=""font-size: 40px;"">bottle</p>
  <p style=""font-size: 16px;"">J = YES &nbsp;&nbsp;&nbsp; F = NO</p>
","j","html-keyboard-response","8","2.1.0","65181","J=YES, F=NO","3r6p8l760g","2","71","78","65","","","","","","lextale","true","false","","","","","","","",""
"1210","
  <p style=""font-size: 40px;"">birst</p>
  <p style=""font-size: 16px;"">J = YES &nbsp;&nbsp;&nbsp; F = NO</p>
","f","html-keyboard-response","9","2.1.0","66393","J=YES, F=NO","3r6p8l760g","2","71","78","65","","","","","","lextale","false","false","","","","","","","",""
"1033","
  <p style=""font-size: 40px;"">envy</p>
  <p style=""font-size: 16px;"">J = YES &nbsp;&nbsp;&nbsp; F = NO</p>
","j","html-keyboard-response","10","2.1.0","67427","J=YES, F=NO","3r6p8l760g","2","71","78","65","","","","","","lextale","true","false","","","","","","","",""
"1524","
  <p style=""font-size: 40px;"">brang</p>
  <p style=""font-size: 16px;"">J = YES &nbsp;&nbsp;&nbsp; F = NO</p>
","f","html-keyboard-response","11","2.1.0","68950","J=YES, F=NO","3r6p8l760g","2","71","78","65","","","","","","lextale","false","false","","","","","","","",""
"736","
  <p style=""font-size: 40px;"">huge</p>
  <p style=""font-size: 16px;"">J = YES &nbsp;&nbsp;&nbsp; F = NO</p>
","j","html-keyboard-response","12","2.1.0","69687","J=YES, F=NO","3r6p8l760g","2","71","78","65","","","","","","lextale","true","false","","","","","","","",""
"789","
  <p style=""font-size: 40px;"">plove</p>
  <p style=""font-size: 16px;"">J = YES &nbsp;&nbsp;&nbsp; F = NO</p>
","f","html-keyboard-response","13","2.1.0","70476","J=YES, F=NO","3r6p8l760g","2","71","78","65","","","","","","lextale","false","false","","","","","","","",""
"640","
  <p style=""font-size: 40px;"">border</p>
  <p style=""font-size: 16px;"">J = YES &nbsp;&nbsp;&nbsp; F = NO</p>
","j","html-keyboard-response","14","2.1.0","71117","J=YES, F=NO","3r6p8l760g","2","71","78","65","","","","","","lextale","true","false","","","","","","","",""
"1401","
  <p style=""font-size: 40px;"">flimsy</p>
  <p style=""font-size: 16px;"">J = YES &nbsp;&nbsp;&nbsp; F = NO</p>
","j","html-keyboard-response","15","2.1.0","72518","J=YES, F=NO","3r6p8l760g","2","71","78","65","","","","","","lextale","true","false","","","","","","","",""
"2317","
  <p style=""font-size: 40px;"">drain</p>
  <p style=""font-size: 16px;"">J = YES &nbsp;&nbsp;&nbsp; F = NO</p>
","j","html-keyboard-response","16","2.1.0","74837","J=YES, F=NO","3r6p8l760g","2","71","78","65","","","","","","lextale","true","false","","","","","","","",""
"939","
  <p style=""font-size: 40px;"">twindle</p>
  <p style=""font-size: 16px;"">J = YES &nbsp;&nbsp;&nbsp; F = NO</p>
","j","html-keyboard-response","17","2.1.0","75776","J=YES, F=NO","3r6p8l760g","2","71","78","65","","","","","","lextale","false","false","","","","","","","",""
"673","
  <p style=""font-size: 40px;"">propose</p>
  <p style=""font-size: 16px;"">J = YES &nbsp;&nbsp;&nbsp; F = NO</p>
","j","html-keyboard-response","18","2.1.0","76451","J=YES, F=NO","3r6p8l760g","2","71","78","65","","","","","","lextale","true","false","","","","","","","",""
"1607","
  <p style=""font-size: 40px;"">forlay</p>
  <p style=""font-size: 16px;"">J = YES &nbsp;&nbsp;&nbsp; F = NO</p>
","j","html-keyboard-response","19","2.1.0","78059","J=YES, F=NO","3r6p8l760g","2","71","78","65","","","","","","lextale","false","false","","","","","","","",""
"1317","
  <p style=""font-size: 40px;"">tenant</p>
  <p style=""font-size: 16px;"">J = YES &nbsp;&nbsp;&nbsp; F = NO</p>
","j","html-keyboard-response","20","2.1.0","79376","J=YES, F=NO","3r6p8l760g","2","71","78","65","","","","","","lextale","true","false","","","","","","","",""
"700","
  <p style=""font-size: 40px;"">strain</p>
  <p style=""font-size: 16px;"">J = YES &nbsp;&nbsp;&nbsp; F = NO</p>
","j","html-keyboard-response","21","2.1.0","80077","J=YES, F=NO","3r6p8l760g","2","71","78","65","","","","","","lextale","true","false","","","","","","","",""
"1968","
  <p style=""font-size: 40px;"">holster</p>
  <p style=""font-size: 16px;"">J = YES &nbsp;&nbsp;&nbsp; F = NO</p>
","j","html-keyboard-response","22","2.1.0","82047","J=YES, F=NO","3r6p8l760g","2","71","78","65","","","","","","lextale","true","false","","","","","","","",""
"690","
  <p style=""font-size: 40px;"">hinder</p>
  <p style=""font-size: 16px;"">J = YES &nbsp;&nbsp;&nbsp; F = NO</p>
","j","html-keyboard-response","23","2.1.0","82736","J=YES, F=NO","3r6p8l760g","2","71","78","65","","","","","","lextale","true","false","","","","","","","",""
"824","
  <p style=""font-size: 40px;"">swindle</p>
  <p style=""font-size: 16px;"">J = YES &nbsp;&nbsp;&nbsp; F = NO</p>
","j","html-keyboard-response","24","2.1.0","83562","J=YES, F=NO","3r6p8l760g","2","71","78","65","","","","","","lextale","true","false","","","","","","","",""
"1010","
  <p style=""font-size: 40px;"">nuder</p>
  <p style=""font-size: 16px;"">J = YES &nbsp;&nbsp;&nbsp; F = NO</p>
","f","html-keyboard-response","25","2.1.0","84573","J=YES, F=NO","3r6p8l760g","2","71","78","65","","","","","","lextale","false","false","","","","","","","",""
"593","
  <p style=""font-size: 40px;"">pillow</p>
  <p style=""font-size: 16px;"">J = YES &nbsp;&nbsp;&nbsp; F = NO</p>
","j","html-keyboard-response","26","2.1.0","85167","J=YES, F=NO","3r6p8l760g","2","71","78","65","","","","","","lextale","true","false","","","","","","","",""
"741","
  <p style=""font-size: 40px;"">shumble</p>
  <p style=""font-size: 16px;"">J = YES &nbsp;&nbsp;&nbsp; F = NO</p>
","j","html-keyboard-response","27","2.1.0","85908","J=YES, F=NO","3r6p8l760g","2","71","78","65","","","","","","lextale","false","false","","","","","","","",""
"823","
  <p style=""font-size: 40px;"">thirst</p>
  <p style=""font-size: 16px;"">J = YES &nbsp;&nbsp;&nbsp; F = NO</p>
","j","html-keyboard-response","28","2.1.0","86733","J=YES, F=NO","3r6p8l760g","2","71","78","65","","","","","","lextale","true","false","","","","","","","",""
"1734","
  <p style=""font-size: 40px;"">unsail</p>
  <p style=""font-size: 16px;"">J = YES &nbsp;&nbsp;&nbsp; F = NO</p>
","f","html-keyboard-response","29","2.1.0","88467","J=YES, F=NO","3r6p8l760g","2","71","78","65","","","","","","lextale","false","false","","","","","","","",""
"695","
  <p style=""font-size: 40px;"">rifle</p>
  <p style=""font-size: 16px;"">J = YES &nbsp;&nbsp;&nbsp; F = NO</p>
","j","html-keyboard-response","30","2.1.0","89161","J=YES, F=NO","3r6p8l760g","2","71","78","65","","","","","","lextale","true","false","","","","","","","",""
"964","
  <p style=""font-size: 40px;"">mush</p>
  <p style=""font-size: 16px;"">J = YES &nbsp;&nbsp;&nbsp; F = NO</p>
","j","html-keyboard-response","31","2.1.0","90126","J=YES, F=NO","3r6p8l760g","2","71","78","65","","","","","","lextale","false","false","","","","","","","",""
"580","
  <p style=""font-size: 40px;"">drench</p>
  <p style=""font-size: 16px;"">J = YES &nbsp;&nbsp;&nbsp; F = NO</p>
","j","html-keyboard-response","32","2.1.0","90707","J=YES, F=NO","3r6p8l760g","2","71","78","65","","","","","","lextale","true","false","","","","","","","",""
"1053","
  <p style=""font-size: 40px;"">snirt</p>
  <p style=""font-size: 16px;"">J = YES &nbsp;&nbsp;&nbsp; F = NO</p>
","f","html-keyboard-response","33","2.1.0","91762","J=YES, F=NO","3r6p8l760g","2","71","78","65","","","","","","lextale","false","false","","","","","","","",""
"1114","
  <p style=""font-size: 40px;"">bitter</p>
  <p style=""font-size: 16px;"">J = YES &nbsp;&nbsp;&nbsp; F = NO</p>
","j","html-keyboard-response","34","2.1.0","92877","J=YES, F=NO","3r6p8l760g","2","71","78","65","","","","","","lextale","true","false","","","","","","","",""
"945","
  <p style=""font-size: 40px;"">pliff</p>
  <p style=""font-size: 16px;"">J = YES &nbsp;&nbsp;&nbsp; F = NO</p>
","f","html-keyboard-response","35","2.1.0","93821","J=YES, F=NO","3r6p8l760g","2","71","78","65","","","","","","lextale","false","false","","","","","","","",""
"539","
  <p style=""font-size: 40px;"">tablet</p>
  <p style=""font-size: 16px;"">J = YES &nbsp;&nbsp;&nbsp; F = NO</p>
","j","html-keyboard-response","36","2.1.0","94362","J=YES, F=NO","3r6p8l760g","2","71","78","65","","","","","","lextale","true","false","","","","","","","",""
"724","
  <p style=""font-size: 40px;"">glimmer</p>
  <p style=""font-size: 16px;"">J = YES &nbsp;&nbsp;&nbsp; F = NO</p>
","j","html-keyboard-response","37","2.1.0","95087","J=YES, F=NO","3r6p8l760g","2","71","78","65","","","","","","lextale","true","false","","","","","","","",""
"740","
  <p style=""font-size: 40px;"">slink</p>
  <p style=""font-size: 16px;"">J = YES &nbsp;&nbsp;&nbsp; F = NO</p>
","j","html-keyboard-response","38","2.1.0","95826","J=YES, F=NO","3r6p8l760g","2","71","78","65","","","","","","lextale","true","false","","","","","","","",""
"639","
  <p style=""font-size: 40px;"">clever</p>
  <p style=""font-size: 16px;"">J = YES &nbsp;&nbsp;&nbsp; F = NO</p>
","j","html-keyboard-response","39","2.1.0","96467","J=YES, F=NO","3r6p8l760g","2","71","78","65","","","","","","lextale","true","false","","","","","","","",""
"994","
  <p style=""font-size: 40px;"">grum</p>
  <p style=""font-size: 16px;"">J = YES &nbsp;&nbsp;&nbsp; F = NO</p>
","j","html-keyboard-response","40","2.1.0","97462","J=YES, F=NO","3r6p8l760g","2","71","78","65","","","","","","lextale","false","false","","","","","","","",""
"789","
  <p style=""font-size: 40px;"">string</p>
  <p style=""font-size: 16px;"">J = YES &nbsp;&nbsp;&nbsp; F = NO</p>
","j","html-keyboard-response","41","2.1.0","98252","J=YES, F=NO","3r6p8l760g","2","71","78","65","","","","","","lextale","true","false","","","","","","","",""
"1484","
  <p style=""font-size: 40px;"">plim</p>
  <p style=""font-size: 16px;"">J = YES &nbsp;&nbsp;&nbsp; F = NO</p>
","f","html-keyboard-response","42","2.1.0","99737","J=YES, F=NO","3r6p8l760g","2","71","78","65","","","","","","lextale","false","false","","","","","","","",""
"585","
  <p style=""font-size: 40px;"">cable</p>
  <p style=""font-size: 16px;"">J = YES &nbsp;&nbsp;&nbsp; F = NO</p>
","j","html-keyboard-response","43","2.1.0","100323","J=YES, F=NO","3r6p8l760g","2","71","78","65","","","","","","lextale","true","false","","","","","","","",""
"1703","
  <p style=""font-size: 40px;"">shrivel</p>
  <p style=""font-size: 16px;"">J = YES &nbsp;&nbsp;&nbsp; F = NO</p>
","f","html-keyboard-response","44","2.1.0","102027","J=YES, F=NO","3r6p8l760g","2","71","78","65","","","","","","lextale","true","false","","","","","","","",""
"1109","
  <p style=""font-size: 40px;"">tarnish</p>
  <p style=""font-size: 16px;"">J = YES &nbsp;&nbsp;&nbsp; F = NO</p>
","j","html-keyboard-response","45","2.1.0","103137","J=YES, F=NO","3r6p8l760g","2","71","78","65","","","","","","lextale","true","false","","","","","","","",""
"1464","
  <p style=""font-size: 40px;"">blim</p>
  <p style=""font-size: 16px;"">J = YES &nbsp;&nbsp;&nbsp; F = NO</p>
","j","html-keyboard-response","46","2.1.0","104602","J=YES, F=NO","3r6p8l760g","2","71","78","65","","","","","","lextale","false","false","","","","","","","",""
"1084","
  <p style=""font-size: 40px;"">stifle</p>
  <p style=""font-size: 16px;"">J = YES &nbsp;&nbsp;&nbsp; F = NO</p>
","f","html-keyboard-response","47","2.1.0","105686","J=YES, F=NO","3r6p8l760g","2","71","78","65","","","","","","lextale","true","false","","","","","","","",""
"895","
  <p style=""font-size: 40px;"">bint</p>
  <p style=""font-size: 16px;"">J = YES &nbsp;&nbsp;&nbsp; F = NO</p>
","f","html-keyboard-response","48","2.1.0","106582","J=YES, F=NO","3r6p8l760g","2","71","78","65","","","","","","lextale","false","false","","","","","","","",""
"704","
  <p style=""font-size: 40px;"">purple</p>
  <p style=""font-size: 16px;"">J = YES &nbsp;&nbsp;&nbsp; F = NO</p>
","j","html-keyboard-response","49","2.1.0","107286","J=YES, F=NO","3r6p8l760g","2","71","78","65","","","","","","lextale","true","false","","","","","","","",""
"1185","
  <p style=""font-size: 40px;"">wriggle</p>
  <p style=""font-size: 16px;"">J = YES &nbsp;&nbsp;&nbsp; F = NO</p>
","f","html-keyboard-response","50","2.1.0","108472","J=YES, F=NO","3r6p8l760g","2","71","78","65","","","","","","lextale","true","false","","","","","","","",""
"1165","
  <p style=""font-size: 40px;"">mangle</p>
  <p style=""font-size: 16px;"">J = YES &nbsp;&nbsp;&nbsp; F = NO</p>
","j","html-keyboard-response","51","2.1.0","109636","J=YES, F=NO","3r6p8l760g","2","71","78","65","","","","","","lextale","true","false","","","","","","","",""
"914","
  <p style=""font-size: 40px;"">shramp</p>
  <p style=""font-size: 16px;"">J = YES &nbsp;&nbsp;&nbsp; F = NO</p>
","f","html-keyboard-response","52","2.1.0","110552","J=YES, F=NO","3r6p8l760g","2","71","78","65","","","","","","lextale","false","false","","","","","","","",""
"625","
  <p style=""font-size: 40px;"">flirt</p>
  <p style=""font-size: 16px;"">J = YES &nbsp;&nbsp;&nbsp; F = NO</p>
","j","html-keyboard-response","53","2.1.0","111177","J=YES, F=NO","3r6p8l760g","2","71","78","65","","","","","","lextale","true","false","","","","","","","",""
"861","
  <p style=""font-size: 40px;"">frip</p>
  <p style=""font-size: 16px;"">J = YES &nbsp;&nbsp;&nbsp; F = NO</p>
","f","html-keyboard-response","54","2.1.0","112038","J=YES, F=NO","3r6p8l760g","2","71","78","65","","","","","","lextale","false","false","","","","","","","",""
"578","
  <p style=""font-size: 40px;"">tangle</p>
  <p style=""font-size: 16px;"">J = YES &nbsp;&nbsp;&nbsp; F = NO</p>
","j","html-keyboard-response","55","2.1.0","112618","J=YES, F=NO","3r6p8l760g","2","71","78","65","","","","","","lextale","true","false","","","","","","","",""
"774","
  <p style=""font-size: 40px;"">crumble</p>
  <p style=""font-size: 16px;"">J = YES &nbsp;&nbsp;&nbsp; F = NO</p>
","j","html-keyboard-response","56","2.1.0","113392","J=YES, F=NO","3r6p8l760g","2","71","78","65","","","","","","lextale","true","false","","","","","","","",""
"664","
  <p style=""font-size: 40px;"">wrinkle</p>
  <p style=""font-size: 16px;"">J = YES &nbsp;&nbsp;&nbsp; F = NO</p>
","j","html-keyboard-response","57","2.1.0","114057","J=YES, F=NO","3r6p8l760g","2","71","78","65","","","","","","lextale","true","false","","","","","","","",""
"960","
  <p style=""font-size: 40px;"">slumb</p>
  <p style=""font-size: 16px;"">J = YES &nbsp;&nbsp;&nbsp; F = NO</p>
","f","html-keyboard-response","58","2.1.0","115018","J=YES, F=NO","3r6p8l760g","2","71","78","65","","","","","","lextale","false","false","","","","","","","",""
"609","
  <p style=""font-size: 40px;"">jungle</p>
  <p style=""font-size: 16px;"">J = YES &nbsp;&nbsp;&nbsp; F = NO</p>
","j","html-keyboard-response","59","2.1.0","115627","J=YES, F=NO","3r6p8l760g","2","71","78","65","","","","","","lextale","true","false","","","","","","","",""
"1220","
  <p style=""font-size: 40px;"">frolick</p>
  <p style=""font-size: 16px;"">J = YES &nbsp;&nbsp;&nbsp; F = NO</p>
","f","html-keyboard-response","60","2.1.0","116849","J=YES, F=NO","3r6p8l760g","2","71","78","65","","","","","","lextale","false","false","","","","","","","",""
"2042","
      <h2>LexTALE Test Completed</h2>
      <p>Your LexTALE vocabulary score is: <strong>71%</strong></p>
      <p>Press any key to continue.</p>
    ","j","html-keyboard-response","61","2.1.0","118891","J=YES, F=NO","3r6p8l760g","2","71","78","65","","","","","","","","","","","","","","","",""
"2731","
    <div style=""max-width: 800px; margin: auto; text-align: left;"">
      <h2>Break Time</h2>
      <p>You have completed the first part of the study.</p>
      <p>You may take a short <strong>30-second break</strong> before continuing.</p>
      <p>When you’re ready, press any key to continue to the final task.</p>
    </div>
  ","j","html-keyboard-response","62","2.1.0","121624","J=YES, F=NO","3r6p8l760g","2","71","78","65","","","","","","","","","","","","","","","",""
"2889","
    <div style=""max-width: 800px; margin: auto; text-align: left;"">
      <h2>Part 2: Lexical Decision Task</h2>
      <p>You will now begin the second part of the study.</p>
      <p>Each trial will follow this sequence:</p>
      <ul>
        <li>A fixation cross (+) appears at the center of the screen.</li>
        <li>You will hear a short beep followed by a spoken word.</li>
        <li>A written word will appear briefly on the screen.</li>
      </ul>
      <p>Your task is to judge whether the <strong>written word</strong> is a real English word.</p>
      <p style=""margin-top: 1em;""><strong>Key responses:</strong></p>
      <ul>
        <li><strong>J</strong> = YES (real English word)</li>
        <li><strong>F</strong> = NO (not a real English word)</li>
      </ul>
      <p>Please respond as quickly and accurately as you can.</p>
      <p style=""margin-top: 2em;"">Press any key to continue.</p>
    </div>
  ","j","html-keyboard-response","63","2.1.0","124513","J=YES, F=NO","3r6p8l760g","2","71","78","65","","","","","","","","","","","","","","","",""
"1405","
    <div style=""max-width: 800px; margin: auto; text-align: left;"">
      <h2>Before You Begin</h2>
      <p>Make sure your sound is turned on.</p>
      <p>You will hear audio during each trial, but your decision should be based only on the <strong>written word</strong> you see on the screen.</p>
      <p><strong>Reminder:</strong></p>
      <ul>
        <li><strong>J</strong> = YES (real English word)</li>
        <li><strong>F</strong> = NO (not a real English word)</li>
      </ul>
      <p style=""margin-top: 2em;"">Press any key when you are ready to begin.</p>
    </div>
  ","j","html-keyboard-response","64","2.1.0","125919","J=YES, F=NO","3r6p8l760g","2","71","78","65","","","","","","","","","","","","","","","",""
"934","
    <div style=""max-width: 800px; margin: auto; text-align: left;"">
      <h2>Part 2: Practice Trials</h2>
      <p>You will now complete a few <strong>practice trials</strong> to get familiar with the task.</p>
      <p>These trials are <strong>not scored</strong> and are only to help you get used to the format.</p>
      <p style=""margin-top: 2em;"">Press any key to begin.</p>
    </div>
  ","j","html-keyboard-response","65","2.1.0","126853","J=YES, F=NO","3r6p8l760g","2","71","78","65","","","","","","","","","","","","","","","",""
"1055","<p>Starting practice block 1 of 2. Press any key to continue.</p>","j","html-keyboard-response","66","2.1.0","127908","J=YES, F=NO","3r6p8l760g","2","71","78","65","","","","","","","","","","","","","","","",""
"null","<p style=""font-size: 50px;"">+</p>","null","html-keyboard-response","67","2.1.0","128210","J=YES, F=NO","3r6p8l760g","2","71","78","65","","","","","","","","","","","","","","","",""
"null","audio/beep-329314.mp3","null","audio-keyboard-response","68","2.1.0","130048","J=YES, F=NO","3r6p8l760g","2","71","78","65","","","","","","","","","","","","","","","",""
"null","audio/bridge.wav","null","audio-keyboard-response","69","2.1.0","130538","J=YES, F=NO","3r6p8l760g","2","71","78","65","","","","","","","","","","","","","","","",""
"null","
          <p id=""word"" style=""font-size: 40px;"">crack</p>
          <p style=""font-size: 16px;"">J = YES &nbsp;&nbsp;&nbsp; F = NO</p>
        ","null","html-keyboard-response","70","2.1.0","132049","J=YES, F=NO","3r6p8l760g","2","71","78","65","","","","","","","","","crack","bridge","filler","filler","j","false","",""
"null","<p style=""font-size: 50px;"">+</p>","null","html-keyboard-response","71","2.1.0","132358","J=YES, F=NO","3r6p8l760g","2","71","78","65","","","","","","","","","","","","","","","",""
"null","audio/beep-329314.mp3","null","audio-keyboard-response","72","2.1.0","133846","J=YES, F=NO","3r6p8l760g","2","71","78","65","","","","","","","","","","","","","","","",""
"null","audio/bomb1.wav","null","audio-keyboard-response","73","2.1.0","134217","J=YES, F=NO","3r6p8l760g","2","71","78","65","","","","","","","","","","","","","","","",""
"875","
          <p id=""word"" style=""font-size: 40px;"">clean</p>
          <p style=""font-size: 16px;"">J = YES &nbsp;&nbsp;&nbsp; F = NO</p>
        ","f","html-keyboard-response","74","2.1.0","135093","J=YES, F=NO","3r6p8l760g","2","71","78","65","","","","","","","","","clean","bomb1","filler","filler","j","false","",""
"null","<p style=""font-size: 50px;"">+</p>","null","html-keyboard-response","75","2.1.0","135407","J=YES, F=NO","3r6p8l760g","2","71","78","65","","","","","","","","","","","","","","","",""
"null","audio/beep-329314.mp3","null","audio-keyboard-response","76","2.1.0","136908","J=YES, F=NO","3r6p8l760g","2","71","78","65","","","","","","","","","","","","","","","",""
"null","audio/floor.wav","null","audio-keyboard-response","77","2.1.0","137447","J=YES, F=NO","3r6p8l760g","2","71","78","65","","","","","","","","","","","","","","","",""
"845","
          <p id=""word"" style=""font-size: 40px;"">mop</p>
          <p style=""font-size: 16px;"">J = YES &nbsp;&nbsp;&nbsp; F = NO</p>
        ","f","html-keyboard-response","78","2.1.0","138293","J=YES, F=NO","3r6p8l760g","2","71","78","65","","","","","","","","","mop","floor","filler","filler","j","false","",""
"null","<p style=""font-size: 50px;"">+</p>","null","html-keyboard-response","79","2.1.0","138608","J=YES, F=NO","3r6p8l760g","2","71","78","65","","","","","","","","","","","","","","","",""
"null","audio/beep-329314.mp3","null","audio-keyboard-response","80","2.1.0","140097","J=YES, F=NO","3r6p8l760g","2","71","78","65","","","","","","","","","","","","","","","",""
"null","audio/battle1.wav","null","audio-keyboard-response","81","2.1.0","140497","J=YES, F=NO","3r6p8l760g","2","71","78","65","","","","","","","","","","","","","","","",""
"711","
          <p id=""word"" style=""font-size: 40px;"">boil</p>
          <p style=""font-size: 16px;"">J = YES &nbsp;&nbsp;&nbsp; F = NO</p>
        ","f","html-keyboard-response","82","2.1.0","141208","J=YES, F=NO","3r6p8l760g","2","71","78","65","","","","","","","","","boil","battle1","filler","filler","j","false","",""
"null","<p style=""font-size: 50px;"">+</p>","null","html-keyboard-response","83","2.1.0","141518","J=YES, F=NO","3r6p8l760g","2","71","78","65","","","","","","","","","","","","","","","",""
"null","audio/beep-329314.mp3","null","audio-keyboard-response","84","2.1.0","143003","J=YES, F=NO","3r6p8l760g","2","71","78","65","","","","","","","","","","","","","","","",""
"null","audio/tax1.wav","null","audio-keyboard-response","85","2.1.0","143593","J=YES, F=NO","3r6p8l760g","2","71","78","65","","","","","","","","","","","","","","","",""
"574","
          <p id=""word"" style=""font-size: 40px;"">snate</p>
          <p style=""font-size: 16px;"">J = YES &nbsp;&nbsp;&nbsp; F = NO</p>
        ","f","html-keyboard-response","86","2.1.0","144168","J=YES, F=NO","3r6p8l760g","2","71","78","65","","","","","","","","","snate","tax1","pseudoword","pseudoword","f","true","",""
"null","<p style=""font-size: 50px;"">+</p>","null","html-keyboard-response","87","2.1.0","144478","J=YES, F=NO","3r6p8l760g","2","71","78","65","","","","","","","","","","","","","","","",""
"null","audio/beep-329314.mp3","null","audio-keyboard-response","88","2.1.0","145967","J=YES, F=NO","3r6p8l760g","2","71","78","65","","","","","","","","","","","","","","","",""
"null","audio/birth1.wav","null","audio-keyboard-response","89","2.1.0","146447","J=YES, F=NO","3r6p8l760g","2","71","78","65","","","","","","","","","","","","","","","",""
"794","
          <p id=""word"" style=""font-size: 40px;"">peel</p>
          <p style=""font-size: 16px;"">J = YES &nbsp;&nbsp;&nbsp; F = NO</p>
        ","f","html-keyboard-response","90","2.1.0","147243","J=YES, F=NO","3r6p8l760g","2","71","78","65","","","","","","","","","peel","birth1","filler","filler","j","false","",""
"null","<p style=""font-size: 50px;"">+</p>","null","html-keyboard-response","91","2.1.0","147555","J=YES, F=NO","3r6p8l760g","2","71","78","65","","","","","","","","","","","","","","","",""
"null","audio/beep-329314.mp3","null","audio-keyboard-response","92","2.1.0","149046","J=YES, F=NO","3r6p8l760g","2","71","78","65","","","","","","","","","","","","","","","",""
"null","audio/dollar.wav","null","audio-keyboard-response","93","2.1.0","149417","J=YES, F=NO","3r6p8l760g","2","71","78","65","","","","","","","","","","","","","","","",""
"805","
          <p id=""word"" style=""font-size: 40px;"">gliptism</p>
          <p style=""font-size: 16px;"">J = YES &nbsp;&nbsp;&nbsp; F = NO</p>
        ","f","html-keyboard-response","94","2.1.0","150223","J=YES, F=NO","3r6p8l760g","2","71","78","65","","","","","","","","","gliptism","dollar","pseudoword","pseudoword","f","true","",""
"null","<p style=""font-size: 50px;"">+</p>","null","html-keyboard-response","95","2.1.0","150526","J=YES, F=NO","3r6p8l760g","2","71","78","65","","","","","","","","","","","","","","","",""
"null","audio/beep-329314.mp3","null","audio-keyboard-response","96","2.1.0","152029","J=YES, F=NO","3r6p8l760g","2","71","78","65","","","","","","","","","","","","","","","",""
"null","audio/voice.wav","null","audio-keyboard-response","97","2.1.0","152708","J=YES, F=NO","3r6p8l760g","2","71","78","65","","","","","","","","","","","","","","","",""
"1293","
          <p id=""word"" style=""font-size: 40px;"">grintle</p>
          <p style=""font-size: 16px;"">J = YES &nbsp;&nbsp;&nbsp; F = NO</p>
        ","f","html-keyboard-response","98","2.1.0","154002","J=YES, F=NO","3r6p8l760g","2","71","78","65","","","","","","","","","grintle","voice","pseudoword","pseudoword","f","true","",""
"null","<p style=""font-size: 50px;"">+</p>","null","html-keyboard-response","99","2.1.0","154303","J=YES, F=NO","3r6p8l760g","2","71","78","65","","","","","","","","","","","","","","","",""
"null","audio/beep-329314.mp3","null","audio-keyboard-response","100","2.1.0","155811","J=YES, F=NO","3r6p8l760g","2","71","78","65","","","","","","","","","","","","","","","",""
"null","audio/tunnel.wav","null","audio-keyboard-response","101","2.1.0","156221","J=YES, F=NO","3r6p8l760g","2","71","78","65","","","","","","","","","","","","","","","",""
"744","
          <p id=""word"" style=""font-size: 40px;"">gred</p>
          <p style=""font-size: 16px;"">J = YES &nbsp;&nbsp;&nbsp; F = NO</p>
        ","f","html-keyboard-response","102","2.1.0","156965","J=YES, F=NO","3r6p8l760g","2","71","78","65","","","","","","","","","gred","tunnel","pseudoword","pseudoword","f","true","",""
"null","<p style=""font-size: 50px;"">+</p>","null","html-keyboard-response","103","2.1.0","157276","J=YES, F=NO","3r6p8l760g","2","71","78","65","","","","","","","","","","","","","","","",""
"null","audio/beep-329314.mp3","null","audio-keyboard-response","104","2.1.0","158765","J=YES, F=NO","3r6p8l760g","2","71","78","65","","","","","","","","","","","","","","","",""
"null","audio/belief.wav","null","audio-keyboard-response","105","2.1.0","159486","J=YES, F=NO","3r6p8l760g","2","71","78","65","","","","","","","","","","","","","","","",""
"1203","
          <p id=""word"" style=""font-size: 40px;"">read</p>
          <p style=""font-size: 16px;"">J = YES &nbsp;&nbsp;&nbsp; F = NO</p>
        ","f","html-keyboard-response","106","2.1.0","160689","J=YES, F=NO","3r6p8l760g","2","71","78","65","","","","","","","","","read","belief","filler","filler","j","false","",""
"null","<p style=""font-size: 50px;"">+</p>","null","html-keyboard-response","107","2.1.0","161005","J=YES, F=NO","3r6p8l760g","2","71","78","65","","","","","","","","","","","","","","","",""
"null","audio/beep-329314.mp3","null","audio-keyboard-response","108","2.1.0","162493","J=YES, F=NO","3r6p8l760g","2","71","78","65","","","","","","","","","","","","","","","",""
"null","audio/topic.wav","null","audio-keyboard-response","109","2.1.0","163054","J=YES, F=NO","3r6p8l760g","2","71","78","65","","","","","","","","","","","","","","","",""
"1204","
          <p id=""word"" style=""font-size: 40px;"">infortuitist</p>
          <p style=""font-size: 16px;"">J = YES &nbsp;&nbsp;&nbsp; F = NO</p>
        ","f","html-keyboard-response","110","2.1.0","164259","J=YES, F=NO","3r6p8l760g","2","71","78","65","","","","","","","","","infortuitist","topic","pseudoword","pseudoword","f","true","",""
"null","<p style=""font-size: 50px;"">+</p>","null","html-keyboard-response","111","2.1.0","164562","J=YES, F=NO","3r6p8l760g","2","71","78","65","","","","","","","","","","","","","","","",""
"null","audio/beep-329314.mp3","null","audio-keyboard-response","112","2.1.0","166059","J=YES, F=NO","3r6p8l760g","2","71","78","65","","","","","","","","","","","","","","","",""
"null","audio/window1.wav","null","audio-keyboard-response","113","2.1.0","166609","J=YES, F=NO","3r6p8l760g","2","71","78","65","","","","","","","","","","","","","","","",""
"699","
          <p id=""word"" style=""font-size: 40px;"">toss</p>
          <p style=""font-size: 16px;"">J = YES &nbsp;&nbsp;&nbsp; F = NO</p>
        ","f","html-keyboard-response","114","2.1.0","167309","J=YES, F=NO","3r6p8l760g","2","71","78","65","","","","","","","","","toss","window1","filler","filler","j","false","",""
"1228","<p>Starting practice block 2 of 2. Press any key to continue.</p>","f","html-keyboard-response","115","2.1.0","168538","J=YES, F=NO","3r6p8l760g","2","71","78","65","","","","","","","","","","","","","","","",""
"null","<p style=""font-size: 50px;"">+</p>","null","html-keyboard-response","116","2.1.0","168844","J=YES, F=NO","3r6p8l760g","2","71","78","65","","","","","","","","","","","","","","","",""
"null","audio/beep-329314.mp3","null","audio-keyboard-response","117","2.1.0","170330","J=YES, F=NO","3r6p8l760g","2","71","78","65","","","","","","","","","","","","","","","",""
"null","audio/brain.wav","null","audio-keyboard-response","118","2.1.0","170790","J=YES, F=NO","3r6p8l760g","2","71","78","65","","","","","","","","","","","","","","","",""
"724","
          <p id=""word"" style=""font-size: 40px;"">throw</p>
          <p style=""font-size: 16px;"">J = YES &nbsp;&nbsp;&nbsp; F = NO</p>
        ","f","html-keyboard-response","119","2.1.0","171514","J=YES, F=NO","3r6p8l760g","2","71","78","65","","","","","","","","","throw","brain","filler","filler","j","false","",""
"null","<p style=""font-size: 50px;"">+</p>","null","html-keyboard-response","120","2.1.0","171828","J=YES, F=NO","3r6p8l760g","2","71","78","65","","","","","","","","","","","","","","","",""
"null","audio/beep-329314.mp3","null","audio-keyboard-response","121","2.1.0","173334","J=YES, F=NO","3r6p8l760g","2","71","78","65","","","","","","","","","","","","","","","",""
"null","audio/strength.wav","null","audio-keyboard-response","122","2.1.0","174064","J=YES, F=NO","3r6p8l760g","2","71","78","65","","","","","","","","","","","","","","","",""
"1154","
          <p id=""word"" style=""font-size: 40px;"">plabet</p>
          <p style=""font-size: 16px;"">J = YES &nbsp;&nbsp;&nbsp; F = NO</p>
        ","j","html-keyboard-response","123","2.1.0","175218","J=YES, F=NO","3r6p8l760g","2","71","78","65","","","","","","","","","plabet","strength","pseudoword","pseudoword","f","false","",""
"null","<p style=""font-size: 50px;"">+</p>","null","html-keyboard-response","124","2.1.0","175529","J=YES, F=NO","3r6p8l760g","2","71","78","65","","","","","","","","","","","","","","","",""
"null","audio/beep-329314.mp3","null","audio-keyboard-response","125","2.1.0","177022","J=YES, F=NO","3r6p8l760g","2","71","78","65","","","","","","","","","","","","","","","",""
"null","audio/breath.wav","null","audio-keyboard-response","126","2.1.0","177521","J=YES, F=NO","3r6p8l760g","2","71","78","65","","","","","","","","","","","","","","","",""
"637","
          <p id=""word"" style=""font-size: 40px;"">twets</p>
          <p style=""font-size: 16px;"">J = YES &nbsp;&nbsp;&nbsp; F = NO</p>
        ","f","html-keyboard-response","127","2.1.0","178159","J=YES, F=NO","3r6p8l760g","2","71","78","65","","","","","","","","","twets","breath","pseudoword","pseudoword","f","true","",""
"null","<p style=""font-size: 50px;"">+</p>","null","html-keyboard-response","128","2.1.0","178466","J=YES, F=NO","3r6p8l760g","2","71","78","65","","","","","","","","","","","","","","","",""
"null","audio/beep-329314.mp3","null","audio-keyboard-response","129","2.1.0","179974","J=YES, F=NO","3r6p8l760g","2","71","78","65","","","","","","","","","","","","","","","",""
"null","audio/menu.wav","null","audio-keyboard-response","130","2.1.0","180533","J=YES, F=NO","3r6p8l760g","2","71","78","65","","","","","","","","","","","","","","","",""
"915","
          <p id=""word"" style=""font-size: 40px;"">slice</p>
          <p style=""font-size: 16px;"">J = YES &nbsp;&nbsp;&nbsp; F = NO</p>
        ","j","html-keyboard-response","131","2.1.0","181448","J=YES, F=NO","3r6p8l760g","2","71","78","65","","","","","","","","","slice","menu","filler","filler","j","true","",""
"null","<p style=""font-size: 50px;"">+</p>","null","html-keyboard-response","132","2.1.0","181760","J=YES, F=NO","3r6p8l760g","2","71","78","65","","","","","","","","","","","","","","","",""
"null","audio/beep-329314.mp3","null","audio-keyboard-response","133","2.1.0","183277","J=YES, F=NO","3r6p8l760g","2","71","78","65","","","","","","","","","","","","","","","",""
"null","audio/heart1.wav","null","audio-keyboard-response","134","2.1.0","183880","J=YES, F=NO","3r6p8l760g","2","71","78","65","","","","","","","","","","","","","","","",""
"null","
          <p id=""word"" style=""font-size: 40px;"">dralm</p>
          <p style=""font-size: 16px;"">J = YES &nbsp;&nbsp;&nbsp; F = NO</p>
        ","null","html-keyboard-response","135","2.1.0","185382","J=YES, F=NO","3r6p8l760g","2","71","78","65","","","","","","","","","dralm","heart1","pseudoword","pseudoword","f","false","",""
"null","<p style=""font-size: 50px;"">+</p>","null","html-keyboard-response","136","2.1.0","185690","J=YES, F=NO","3r6p8l760g","2","71","78","65","","","","","","","","","","","","","","","",""
"null","audio/beep-329314.mp3","null","audio-keyboard-response","137","2.1.0","187180","J=YES, F=NO","3r6p8l760g","2","71","78","65","","","","","","","","","","","","","","","",""
"null","audio/winter.wav","null","audio-keyboard-response","138","2.1.0","187739","J=YES, F=NO","3r6p8l760g","2","71","78","65","","","","","","","","","","","","","","","",""
"884","
          <p id=""word"" style=""font-size: 40px;"">straven</p>
          <p style=""font-size: 16px;"">J = YES &nbsp;&nbsp;&nbsp; F = NO</p>
        ","f","html-keyboard-response","139","2.1.0","188624","J=YES, F=NO","3r6p8l760g","2","71","78","65","","","","","","","","","straven","winter","pseudoword","pseudoword","f","true","",""
"null","<p style=""font-size: 50px;"">+</p>","null","html-keyboard-response","140","2.1.0","188927","J=YES, F=NO","3r6p8l760g","2","71","78","65","","","","","","","","","","","","","","","",""
"null","audio/beep-329314.mp3","null","audio-keyboard-response","141","2.1.0","190434","J=YES, F=NO","3r6p8l760g","2","71","78","65","","","","","","","","","","","","","","","",""
"null","audio/prisoner.wav","null","audio-keyboard-response","142","2.1.0","190924","J=YES, F=NO","3r6p8l760g","2","71","78","65","","","","","","","","","","","","","","","",""
"756","
          <p id=""word"" style=""font-size: 40px;"">egotian</p>
          <p style=""font-size: 16px;"">J = YES &nbsp;&nbsp;&nbsp; F = NO</p>
        ","j","html-keyboard-response","143","2.1.0","191680","J=YES, F=NO","3r6p8l760g","2","71","78","65","","","","","","","","","egotian","prisoner","pseudoword","pseudoword","f","false","",""
"null","<p style=""font-size: 50px;"">+</p>","null","html-keyboard-response","144","2.1.0","191992","J=YES, F=NO","3r6p8l760g","2","71","78","65","","","","","","","","","","","","","","","",""
"null","audio/beep-329314.mp3","null","audio-keyboard-response","145","2.1.0","193504","J=YES, F=NO","3r6p8l760g","2","71","78","65","","","","","","","","","","","","","","","",""
"null","audio/ankle1.wav","null","audio-keyboard-response","146","2.1.0","193973","J=YES, F=NO","3r6p8l760g","2","71","78","65","","","","","","","","","","","","","","","",""
"830","
          <p id=""word"" style=""font-size: 40px;"">kick</p>
          <p style=""font-size: 16px;"">J = YES &nbsp;&nbsp;&nbsp; F = NO</p>
        ","j","html-keyboard-response","147","2.1.0","194805","J=YES, F=NO","3r6p8l760g","2","71","78","65","","","","","","","","","kick","ankle1","filler","filler","j","true","",""
"null","<p style=""font-size: 50px;"">+</p>","null","html-keyboard-response","148","2.1.0","195116","J=YES, F=NO","3r6p8l760g","2","71","78","65","","","","","","","","","","","","","","","",""
"null","audio/beep-329314.mp3","null","audio-keyboard-response","149","2.1.0","196596","J=YES, F=NO","3r6p8l760g","2","71","78","65","","","","","","","","","","","","","","","",""
"null","audio/arm.wav","null","audio-keyboard-response","150","2.1.0","197076","J=YES, F=NO","3r6p8l760g","2","71","78","65","","","","","","","","","","","","","","","",""
"672","
          <p id=""word"" style=""font-size: 40px;"">fold</p>
          <p style=""font-size: 16px;"">J = YES &nbsp;&nbsp;&nbsp; F = NO</p>
        ","j","html-keyboard-response","151","2.1.0","197748","J=YES, F=NO","3r6p8l760g","2","71","78","65","","","","","","","","","fold","arm","filler","filler","j","true","",""
"null","<p style=""font-size: 50px;"">+</p>","null","html-keyboard-response","152","2.1.0","198055","J=YES, F=NO","3r6p8l760g","2","71","78","65","","","","","","","","","","","","","","","",""
"null","audio/beep-329314.mp3","null","audio-keyboard-response","153","2.1.0","199553","J=YES, F=NO","3r6p8l760g","2","71","78","65","","","","","","","","","","","","","","","",""
"null","audio/noise1.wav","null","audio-keyboard-response","154","2.1.0","200142","J=YES, F=NO","3r6p8l760g","2","71","78","65","","","","","","","","","","","","","","","",""
"781","
          <p id=""word"" style=""font-size: 40px;"">slintered</p>
          <p style=""font-size: 16px;"">J = YES &nbsp;&nbsp;&nbsp; F = NO</p>
        ","j","html-keyboard-response","155","2.1.0","200924","J=YES, F=NO","3r6p8l760g","2","71","78","65","","","","","","","","","slintered","noise1","pseudoword","pseudoword","f","false","",""
"null","<p style=""font-size: 50px;"">+</p>","null","html-keyboard-response","156","2.1.0","201230","J=YES, F=NO","3r6p8l760g","2","71","78","65","","","","","","","","","","","","","","","",""
"null","audio/beep-329314.mp3","null","audio-keyboard-response","157","2.1.0","202716","J=YES, F=NO","3r6p8l760g","2","71","78","65","","","","","","","","","","","","","","","",""
"null","audio/weight1.wav","null","audio-keyboard-response","158","2.1.0","203225","J=YES, F=NO","3r6p8l760g","2","71","78","65","","","","","","","","","","","","","","","",""
"773","
          <p id=""word"" style=""font-size: 40px;"">crimsh</p>
          <p style=""font-size: 16px;"">J = YES &nbsp;&nbsp;&nbsp; F = NO</p>
        ","j","html-keyboard-response","159","2.1.0","204000","J=YES, F=NO","3r6p8l760g","2","71","78","65","","","","","","","","","crimsh","weight1","pseudoword","pseudoword","f","false","",""
"null","<p style=""font-size: 50px;"">+</p>","null","html-keyboard-response","160","2.1.0","204312","J=YES, F=NO","3r6p8l760g","2","71","78","65","","","","","","","","","","","","","","","",""
"null","audio/beep-329314.mp3","null","audio-keyboard-response","161","2.1.0","205812","J=YES, F=NO","3r6p8l760g","2","71","78","65","","","","","","","","","","","","","","","",""
"null","audio/alarm1.wav","null","audio-keyboard-response","162","2.1.0","206332","J=YES, F=NO","3r6p8l760g","2","71","78","65","","","","","","","","","","","","","","","",""
"843","
          <p id=""word"" style=""font-size: 40px;"">lock</p>
          <p style=""font-size: 16px;"">J = YES &nbsp;&nbsp;&nbsp; F = NO</p>
        ","j","html-keyboard-response","163","2.1.0","207174","J=YES, F=NO","3r6p8l760g","2","71","78","65","","","","","","","","","lock","alarm1","filler","filler","j","true","",""
"3185","
    <div style=""max-width: 800px; margin: auto; text-align: left;"">
      <h2>Part 2: Main Trials</h2>
      <p>Great job on the practice trials!</p>
      <p>You will now begin the <strong>main set of trials</strong>.</p>
      <p>Remember your key assignments:</p>
      <ul>
        <li><strong>J</strong> = YES (real English word)</li>
        <li><strong>F</strong> = NO (not a real English word)</li>
      </ul>
      <p>Try to respond as <strong>quickly and accurately</strong> as possible.</p>
      <p style=""margin-top: 2em;"">Press any key to begin the main trials.</p>
    </div>
  ","j","html-keyboard-response","164","2.1.0","210360","J=YES, F=NO","3r6p8l760g","2","71","78","65","","","","","","","","","","","","","","","",""
"1313","<p>Starting main block 1 of 8. Press any key to continue.</p>","j","html-keyboard-response","165","2.1.0","211674","J=YES, F=NO","3r6p8l760g","2","71","78","65","","","","","","","","","","","","","","","",""
"null","<p style=""font-size: 50px;"">+</p>","null","html-keyboard-response","166","2.1.0","211990","J=YES, F=NO","3r6p8l760g","2","71","78","65","","","","","","","","","","","","","","","",""
"null","audio/beep-329314.mp3","null","audio-keyboard-response","167","2.1.0","213486","J=YES, F=NO","3r6p8l760g","2","71","78","65","","","","","","","","","","","","","","","",""
"null","audio/card1.wav","null","audio-keyboard-response","168","2.1.0","213967","J=YES, F=NO","3r6p8l760g","2","71","78","65","","","","","","","","","","","","","","","",""
"997","
          <p id=""word"" style=""font-size: 40px;"">land</p>
          <p style=""font-size: 16px;"">J = YES &nbsp;&nbsp;&nbsp; F = NO</p>
        ","j","html-keyboard-response","169","2.1.0","214964","J=YES, F=NO","3r6p8l760g","2","71","78","65","","","","","","","","","land","card1","unrelated","experimental","j","true","",""
"null","<p style=""font-size: 50px;"">+</p>","null","html-keyboard-response","170","2.1.0","215266","J=YES, F=NO","3r6p8l760g","2","71","78","65","","","","","","","","","","","","","","","",""
"null","audio/beep-329314.mp3","null","audio-keyboard-response","171","2.1.0","216750","J=YES, F=NO","3r6p8l760g","2","71","78","65","","","","","","","","","","","","","","","",""
"null","audio/road.wav","null","audio-keyboard-response","172","2.1.0","217121","J=YES, F=NO","3r6p8l760g","2","71","78","65","","","","","","","","","","","","","","","",""
"783","
          <p id=""word"" style=""font-size: 40px;"">wappings</p>
          <p style=""font-size: 16px;"">J = YES &nbsp;&nbsp;&nbsp; F = NO</p>
        ","j","html-keyboard-response","173","2.1.0","217905","J=YES, F=NO","3r6p8l760g","2","71","78","65","","","","","","","","","wappings","road","pseudoword","pseudoword","f","false","",""
"null","<p style=""font-size: 50px;"">+</p>","null","html-keyboard-response","174","2.1.0","218207","J=YES, F=NO","3r6p8l760g","2","71","78","65","","","","","","","","","","","","","","","",""
"null","audio/beep-329314.mp3","null","audio-keyboard-response","175","2.1.0","219706","J=YES, F=NO","3r6p8l760g","2","71","78","65","","","","","","","","","","","","","","","",""
"null","audio/account1.wav","null","audio-keyboard-response","176","2.1.0","220326","J=YES, F=NO","3r6p8l760g","2","71","78","65","","","","","","","","","","","","","","","",""
"414","
          <p id=""word"" style=""font-size: 40px;"">open</p>
          <p style=""font-size: 16px;"">J = YES &nbsp;&nbsp;&nbsp; F = NO</p>
        ","j","html-keyboard-response","177","2.1.0","220740","J=YES, F=NO","3r6p8l760g","2","71","78","65","","","","","","","","","open","account1","metaphor","experimental","j","true","",""
"null","<p style=""font-size: 50px;"">+</p>","null","html-keyboard-response","178","2.1.0","221073","J=YES, F=NO","3r6p8l760g","2","71","78","65","","","","","","","","","","","","","","","",""
"null","audio/beep-329314.mp3","null","audio-keyboard-response","179","2.1.0","222573","J=YES, F=NO","3r6p8l760g","2","71","78","65","","","","","","","","","","","","","","","",""
"null","audio/tomato.wav","null","audio-keyboard-response","180","2.1.0","223183","J=YES, F=NO","3r6p8l760g","2","71","78","65","","","","","","","","","","","","","","","",""
"437","
          <p id=""word"" style=""font-size: 40px;"">gladies</p>
          <p style=""font-size: 16px;"">J = YES &nbsp;&nbsp;&nbsp; F = NO</p>
        ","j","html-keyboard-response","181","2.1.0","223620","J=YES, F=NO","3r6p8l760g","2","71","78","65","","","","","","","","","gladies","tomato","pseudoword","pseudoword","f","false","",""
"null","<p style=""font-size: 50px;"">+</p>","null","html-keyboard-response","182","2.1.0","223936","J=YES, F=NO","3r6p8l760g","2","71","78","65","","","","","","","","","","","","","","","",""
"null","audio/beep-329314.mp3","null","audio-keyboard-response","183","2.1.0","225425","J=YES, F=NO","3r6p8l760g","2","71","78","65","","","","","","","","","","","","","","","",""
"null","audio/mouth1.wav","null","audio-keyboard-response","184","2.1.0","225936","J=YES, F=NO","3r6p8l760g","2","71","78","65","","","","","","","","","","","","","","","",""
"624","
          <p id=""word"" style=""font-size: 40px;"">spolial</p>
          <p style=""font-size: 16px;"">J = YES &nbsp;&nbsp;&nbsp; F = NO</p>
        ","j","html-keyboard-response","185","2.1.0","226560","J=YES, F=NO","3r6p8l760g","2","71","78","65","","","","","","","","","spolial","mouth1","pseudoword","pseudoword","f","false","",""
"null","<p style=""font-size: 50px;"">+</p>","null","html-keyboard-response","186","2.1.0","226875","J=YES, F=NO","3r6p8l760g","2","71","78","65","","","","","","","","","","","","","","","",""
"null","audio/beep-329314.mp3","null","audio-keyboard-response","187","2.1.0","228369","J=YES, F=NO","3r6p8l760g","2","71","78","65","","","","","","","","","","","","","","","",""
"null","audio/sugar1.wav","null","audio-keyboard-response","188","2.1.0","228788","J=YES, F=NO","3r6p8l760g","2","71","78","65","","","","","","","","","","","","","","","",""
"470","
          <p id=""word"" style=""font-size: 40px;"">glung</p>
          <p style=""font-size: 16px;"">J = YES &nbsp;&nbsp;&nbsp; F = NO</p>
        ","j","html-keyboard-response","189","2.1.0","229260","J=YES, F=NO","3r6p8l760g","2","71","78","65","","","","","","","","","glung","sugar1","pseudoword","pseudoword","f","false","",""
"null","<p style=""font-size: 50px;"">+</p>","null","html-keyboard-response","190","2.1.0","229566","J=YES, F=NO","3r6p8l760g","2","71","78","65","","","","","","","","","","","","","","","",""
"null","audio/beep-329314.mp3","null","audio-keyboard-response","191","2.1.0","231059","J=YES, F=NO","3r6p8l760g","2","71","78","65","","","","","","","","","","","","","","","",""
"null","audio/life1.wav","null","audio-keyboard-response","192","2.1.0","231561","J=YES, F=NO","3r6p8l760g","2","71","78","65","","","","","","","","","","","","","","","",""
"614","
          <p id=""word"" style=""font-size: 40px;"">give</p>
          <p style=""font-size: 16px;"">J = YES &nbsp;&nbsp;&nbsp; F = NO</p>
        ","j","html-keyboard-response","193","2.1.0","232175","J=YES, F=NO","3r6p8l760g","2","71","78","65","","","","","","","","","give","life1","metaphor","experimental","j","true","",""
"null","<p style=""font-size: 50px;"">+</p>","null","html-keyboard-response","194","2.1.0","232476","J=YES, F=NO","3r6p8l760g","2","71","78","65","","","","","","","","","","","","","","","",""
"null","audio/beep-329314.mp3","null","audio-keyboard-response","195","2.1.0","233986","J=YES, F=NO","3r6p8l760g","2","71","78","65","","","","","","","","","","","","","","","",""
"null","audio/golf1.wav","null","audio-keyboard-response","196","2.1.0","234485","J=YES, F=NO","3r6p8l760g","2","71","78","65","","","","","","","","","","","","","","","",""
"475","
          <p id=""word"" style=""font-size: 40px;"">drabble</p>
          <p style=""font-size: 16px;"">J = YES &nbsp;&nbsp;&nbsp; F = NO</p>
        ","j","html-keyboard-response","197","2.1.0","234962","J=YES, F=NO","3r6p8l760g","2","71","78","65","","","","","","","","","drabble","golf1","pseudoword","pseudoword","f","false","",""
"null","<p style=""font-size: 50px;"">+</p>","null","html-keyboard-response","198","2.1.0","235276","J=YES, F=NO","3r6p8l760g","2","71","78","65","","","","","","","","","","","","","","","",""
"null","audio/beep-329314.mp3","null","audio-keyboard-response","199","2.1.0","236771","J=YES, F=NO","3r6p8l760g","2","71","78","65","","","","","","","","","","","","","","","",""
"null","audio/essence1.wav","null","audio-keyboard-response","200","2.1.0","237390","J=YES, F=NO","3r6p8l760g","2","71","78","65","","","","","","","","","","","","","","","",""
"650","
          <p id=""word"" style=""font-size: 40px;"">grasp</p>
          <p style=""font-size: 16px;"">J = YES &nbsp;&nbsp;&nbsp; F = NO</p>
        ","j","html-keyboard-response","201","2.1.0","238040","J=YES, F=NO","3r6p8l760g","2","71","78","65","","","","","","","","","grasp","essence1","metaphor","experimental","j","true","",""
"null","<p style=""font-size: 50px;"">+</p>","null","html-keyboard-response","202","2.1.0","238341","J=YES, F=NO","3r6p8l760g","2","71","78","65","","","","","","","","","","","","","","","",""
"null","audio/beep-329314.mp3","null","audio-keyboard-response","203","2.1.0","239849","J=YES, F=NO","3r6p8l760g","2","71","78","65","","","","","","","","","","","","","","","",""
"null","audio/foot1.wav","null","audio-keyboard-response","204","2.1.0","240350","J=YES, F=NO","3r6p8l760g","2","71","78","65","","","","","","","","","","","","","","","",""
"1469","
          <p id=""word"" style=""font-size: 40px;"">thrutt</p>
          <p style=""font-size: 16px;"">J = YES &nbsp;&nbsp;&nbsp; F = NO</p>
        ","j","html-keyboard-response","205","2.1.0","241820","J=YES, F=NO","3r6p8l760g","2","71","78","65","","","","","","","","","thrutt","foot1","pseudoword","pseudoword","f","false","",""
"null","<p style=""font-size: 50px;"">+</p>","null","html-keyboard-response","206","2.1.0","242134","J=YES, F=NO","3r6p8l760g","2","71","78","65","","","","","","","","","","","","","","","",""
"null","audio/beep-329314.mp3","null","audio-keyboard-response","207","2.1.0","243630","J=YES, F=NO","3r6p8l760g","2","71","78","65","","","","","","","","","","","","","","","",""
"null","audio/scar.wav","null","audio-keyboard-response","208","2.1.0","244170","J=YES, F=NO","3r6p8l760g","2","71","78","65","","","","","","","","","","","","","","","",""
"1353","
          <p id=""word"" style=""font-size: 40px;"">adelineate</p>
          <p style=""font-size: 16px;"">J = YES &nbsp;&nbsp;&nbsp; F = NO</p>
        ","f","html-keyboard-response","209","2.1.0","245525","J=YES, F=NO","3r6p8l760g","2","71","78","65","","","","","","","","","adelineate","scar","pseudoword","pseudoword","f","true","",""
"null","<p style=""font-size: 50px;"">+</p>","null","html-keyboard-response","210","2.1.0","245831","J=YES, F=NO","3r6p8l760g","2","71","78","65","","","","","","","","","","","","","","","",""
"null","audio/beep-329314.mp3","null","audio-keyboard-response","211","2.1.0","247316","J=YES, F=NO","3r6p8l760g","2","71","78","65","","","","","","","","","","","","","","","",""
"null","audio/hotel1.wav","null","audio-keyboard-response","212","2.1.0","247877","J=YES, F=NO","3r6p8l760g","2","71","78","65","","","","","","","","","","","","","","","",""
"1293","
          <p id=""word"" style=""font-size: 40px;"">flanter</p>
          <p style=""font-size: 16px;"">J = YES &nbsp;&nbsp;&nbsp; F = NO</p>
        ","f","html-keyboard-response","213","2.1.0","249170","J=YES, F=NO","3r6p8l760g","2","71","78","65","","","","","","","","","flanter","hotel1","pseudoword","pseudoword","f","true","",""
"null","<p style=""font-size: 50px;"">+</p>","null","html-keyboard-response","214","2.1.0","249485","J=YES, F=NO","3r6p8l760g","2","71","78","65","","","","","","","","","","","","","","","",""
"null","audio/beep-329314.mp3","null","audio-keyboard-response","215","2.1.0","250989","J=YES, F=NO","3r6p8l760g","2","71","78","65","","","","","","","","","","","","","","","",""
"null","audio/pattern.wav","null","audio-keyboard-response","216","2.1.0","251438","J=YES, F=NO","3r6p8l760g","2","71","78","65","","","","","","","","","","","","","","","",""
"1005","
          <p id=""word"" style=""font-size: 40px;"">tug</p>
          <p style=""font-size: 16px;"">J = YES &nbsp;&nbsp;&nbsp; F = NO</p>
        ","f","html-keyboard-response","217","2.1.0","252445","J=YES, F=NO","3r6p8l760g","2","71","78","65","","","","","","","","","tug","pattern","filler","filler","j","false","",""
"null","<p style=""font-size: 50px;"">+</p>","null","html-keyboard-response","218","2.1.0","252751","J=YES, F=NO","3r6p8l760g","2","71","78","65","","","","","","","","","","","","","","","",""
"null","audio/beep-329314.mp3","null","audio-keyboard-response","219","2.1.0","254257","J=YES, F=NO","3r6p8l760g","2","71","78","65","","","","","","","","","","","","","","","",""
"null","audio/theory1.wav","null","audio-keyboard-response","220","2.1.0","254836","J=YES, F=NO","3r6p8l760g","2","71","78","65","","","","","","","","","","","","","","","",""
"683","
          <p id=""word"" style=""font-size: 40px;"">scolve</p>
          <p style=""font-size: 16px;"">J = YES &nbsp;&nbsp;&nbsp; F = NO</p>
        ","f","html-keyboard-response","221","2.1.0","255520","J=YES, F=NO","3r6p8l760g","2","71","78","65","","","","","","","","","scolve","theory1","pseudoword","pseudoword","f","true","",""
"null","<p style=""font-size: 50px;"">+</p>","null","html-keyboard-response","222","2.1.0","255860","J=YES, F=NO","3r6p8l760g","2","71","78","65","","","","","","","","","","","","","","","",""
"null","audio/beep-329314.mp3","null","audio-keyboard-response","223","2.1.0","257363","J=YES, F=NO","3r6p8l760g","2","71","78","65","","","","","","","","","","","","","","","",""
"null","audio/relief.wav","null","audio-keyboard-response","224","2.1.0","257952","J=YES, F=NO","3r6p8l760g","2","71","78","65","","","","","","","","","","","","","","","",""
"null","
          <p id=""word"" style=""font-size: 40px;"">grigg</p>
          <p style=""font-size: 16px;"">J = YES &nbsp;&nbsp;&nbsp; F = NO</p>
        ","null","html-keyboard-response","225","2.1.0","259466","J=YES, F=NO","3r6p8l760g","2","71","78","65","","","","","","","","","grigg","relief","pseudoword","pseudoword","f","false","",""
"null","<p style=""font-size: 50px;"">+</p>","null","html-keyboard-response","226","2.1.0","259775","J=YES, F=NO","3r6p8l760g","2","71","78","65","","","","","","","","","","","","","","","",""
"null","audio/beep-329314.mp3","null","audio-keyboard-response","227","2.1.0","261269","J=YES, F=NO","3r6p8l760g","2","71","78","65","","","","","","","","","","","","","","","",""
"null","audio/birth1.wav","null","audio-keyboard-response","228","2.1.0","261749","J=YES, F=NO","3r6p8l760g","2","71","78","65","","","","","","","","","","","","","","","",""
"713","
          <p id=""word"" style=""font-size: 40px;"">drop</p>
          <p style=""font-size: 16px;"">J = YES &nbsp;&nbsp;&nbsp; F = NO</p>
        ","j","html-keyboard-response","229","2.1.0","262464","J=YES, F=NO","3r6p8l760g","2","71","78","65","","","","","","","","","drop","birth1","unrelated","experimental","j","true","",""
"3266","<p>Excellent! You have finished block 1 of 8.</p>
                     <p>Feel free to take a 30 second break.</p>
                     <p>Press any key when you're ready to continue.</p>","Control","html-keyboard-response","230","2.1.0","265731","J=YES, F=NO","3r6p8l760g","2","71","78","65","","","","","","","","","","","","","","","",""
"33","<p>Starting main block 2 of 8. Press any key to continue.</p>","Shift","html-keyboard-response","231","2.1.0","265765","J=YES, F=NO","3r6p8l760g","2","71","78","65","","","","","","","","","","","","","","","",""
"null","<p style=""font-size: 50px;"">+</p>","null","html-keyboard-response","232","2.1.0","266066","J=YES, F=NO","3r6p8l760g","2","71","78","65","","","","","","","","","","","","","","","",""
"null","audio/beep-329314.mp3","null","audio-keyboard-response","233","2.1.0","267556","J=YES, F=NO","3r6p8l760g","2","71","78","65","","","","","","","","","","","","","","","",""
"null","audio/meal.wav","null","audio-keyboard-response","234","2.1.0","267947","J=YES, F=NO","3r6p8l760g","2","71","78","65","","","","","","","","","","","","","","","",""
"null","
          <p id=""word"" style=""font-size: 40px;"">gallite</p>
          <p style=""font-size: 16px;"">J = YES &nbsp;&nbsp;&nbsp; F = NO</p>
        ","null","html-keyboard-response","235","2.1.0","269603","J=YES, F=NO","3r6p8l760g","2","71","78","65","","","","","","","","","gallite","meal","pseudoword","pseudoword","f","false","",""
"null","<p style=""font-size: 50px;"">+</p>","null","html-keyboard-response","236","2.1.0","270606","J=YES, F=NO","3r6p8l760g","2","71","78","65","","","","","","","","","","","","","","","",""
"null","audio/beep-329314.mp3","null","audio-keyboard-response","237","2.1.0","272114","J=YES, F=NO","3r6p8l760g","2","71","78","65","","","","","","","","","","","","","","","",""
"null","audio/bottle.wav","null","audio-keyboard-response","238","2.1.0","272515","J=YES, F=NO","3r6p8l760g","2","71","78","65","","","","","","","","","","","","","","","",""
"null","
          <p id=""word"" style=""font-size: 40px;"">watch</p>
          <p style=""font-size: 16px;"">J = YES &nbsp;&nbsp;&nbsp; F = NO</p>
        ","null","html-keyboard-response","239","2.1.0","274099","J=YES, F=NO","3r6p8l760g","2","71","78","65","","","","","","","","","watch","bottle","filler","filler","j","false","",""
"null","<p style=""font-size: 50px;"">+</p>","null","html-keyboard-response","240","2.1.0","274412","J=YES, F=NO","3r6p8l760g","2","71","78","65","","","","","","","","","","","","","","","",""
"null","audio/beep-329314.mp3","null","audio-keyboard-response","241","2.1.0","275918","J=YES, F=NO","3r6p8l760g","2","71","78","65","","","","","","","","","","","","","","","",""
"null","audio/planet1.wav","null","audio-keyboard-response","242","2.1.0","276459","J=YES, F=NO","3r6p8l760g","2","71","78","65","","","","","","","","","","","","","","","",""
"656","
          <p id=""word"" style=""font-size: 40px;"">cratched</p>
          <p style=""font-size: 16px;"">J = YES &nbsp;&nbsp;&nbsp; F = NO</p>
        ","j","html-keyboard-response","243","2.1.0","277115","J=YES, F=NO","3r6p8l760g","2","71","78","65","","","","","","","","","cratched","planet1","pseudoword","pseudoword","f","false","",""
"null","<p style=""font-size: 50px;"">+</p>","null","html-keyboard-response","244","2.1.0","277430","J=YES, F=NO","3r6p8l760g","2","71","78","65","","","","","","","","","","","","","","","",""
"null","audio/beep-329314.mp3","null","audio-keyboard-response","245","2.1.0","278941","J=YES, F=NO","3r6p8l760g","2","71","78","65","","","","","","","","","","","","","","","",""
"null","audio/emotion.wav","null","audio-keyboard-response","246","2.1.0","279541","J=YES, F=NO","3r6p8l760g","2","71","78","65","","","","","","","","","","","","","","","",""
"370","
          <p id=""word"" style=""font-size: 40px;"">bury</p>
          <p style=""font-size: 16px;"">J = YES &nbsp;&nbsp;&nbsp; F = NO</p>
        ","j","html-keyboard-response","247","2.1.0","279913","J=YES, F=NO","3r6p8l760g","2","71","78","65","","","","","","","","","bury","emotion","metaphor","experimental","j","true","",""
"null","<p style=""font-size: 50px;"">+</p>","null","html-keyboard-response","248","2.1.0","280219","J=YES, F=NO","3r6p8l760g","2","71","78","65","","","","","","","","","","","","","","","",""
"null","audio/beep-329314.mp3","null","audio-keyboard-response","249","2.1.0","281709","J=YES, F=NO","3r6p8l760g","2","71","78","65","","","","","","","","","","","","","","","",""
"null","audio/goal.wav","null","audio-keyboard-response","250","2.1.0","282059","J=YES, F=NO","3r6p8l760g","2","71","78","65","","","","","","","","","","","","","","","",""
"560","
          <p id=""word"" style=""font-size: 40px;"">support</p>
          <p style=""font-size: 16px;"">J = YES &nbsp;&nbsp;&nbsp; F = NO</p>
        ","j","html-keyboard-response","251","2.1.0","282621","J=YES, F=NO","3r6p8l760g","2","71","78","65","","","","","","","","","support","goal","metaphor","experimental","j","true","",""
"null","<p style=""font-size: 50px;"">+</p>","null","html-keyboard-response","252","2.1.0","282926","J=YES, F=NO","3r6p8l760g","2","71","78","65","","","","","","","","","","","","","","","",""
"null","audio/beep-329314.mp3","null","audio-keyboard-response","253","2.1.0","284430","J=YES, F=NO","3r6p8l760g","2","71","78","65","","","","","","","","","","","","","","","",""
"null","audio/key1.wav","null","audio-keyboard-response","254","2.1.0","284761","J=YES, F=NO","3r6p8l760g","2","71","78","65","","","","","","","","","","","","","","","",""
"540","
          <p id=""word"" style=""font-size: 40px;"">lose</p>
          <p style=""font-size: 16px;"">J = YES &nbsp;&nbsp;&nbsp; F = NO</p>
        ","j","html-keyboard-response","255","2.1.0","285302","J=YES, F=NO","3r6p8l760g","2","71","78","65","","","","","","","","","lose","key1","literal","experimental","j","true","",""
"null","<p style=""font-size: 50px;"">+</p>","null","html-keyboard-response","256","2.1.0","285604","J=YES, F=NO","3r6p8l760g","2","71","78","65","","","","","","","","","","","","","","","",""
"null","audio/beep-329314.mp3","null","audio-keyboard-response","257","2.1.0","287107","J=YES, F=NO","3r6p8l760g","2","71","78","65","","","","","","","","","","","","","","","",""
"null","audio/burden.wav","null","audio-keyboard-response","258","2.1.0","287566","J=YES, F=NO","3r6p8l760g","2","71","78","65","","","","","","","","","","","","","","","",""
"648","
          <p id=""word"" style=""font-size: 40px;"">carry</p>
          <p style=""font-size: 16px;"">J = YES &nbsp;&nbsp;&nbsp; F = NO</p>
        ","j","html-keyboard-response","259","2.1.0","288215","J=YES, F=NO","3r6p8l760g","2","71","78","65","","","","","","","","","carry","burden","metaphor","experimental","j","true","",""
"null","<p style=""font-size: 50px;"">+</p>","null","html-keyboard-response","260","2.1.0","288528","J=YES, F=NO","3r6p8l760g","2","71","78","65","","","","","","","","","","","","","","","",""
"null","audio/beep-329314.mp3","null","audio-keyboard-response","261","2.1.0","290019","J=YES, F=NO","3r6p8l760g","2","71","78","65","","","","","","","","","","","","","","","",""
"null","audio/mile1.wav","null","audio-keyboard-response","262","2.1.0","290438","J=YES, F=NO","3r6p8l760g","2","71","78","65","","","","","","","","","","","","","","","",""
"566","
          <p id=""word"" style=""font-size: 40px;"">writch</p>
          <p style=""font-size: 16px;"">J = YES &nbsp;&nbsp;&nbsp; F = NO</p>
        ","j","html-keyboard-response","263","2.1.0","291006","J=YES, F=NO","3r6p8l760g","2","71","78","65","","","","","","","","","writch","mile1","pseudoword","pseudoword","f","false","",""
"null","<p style=""font-size: 50px;"">+</p>","null","html-keyboard-response","264","2.1.0","291316","J=YES, F=NO","3r6p8l760g","2","71","78","65","","","","","","","","","","","","","","","",""
"null","audio/beep-329314.mp3","null","audio-keyboard-response","265","2.1.0","292811","J=YES, F=NO","3r6p8l760g","2","71","78","65","","","","","","","","","","","","","","","",""
"null","audio/pine.wav","null","audio-keyboard-response","266","2.1.0","293252","J=YES, F=NO","3r6p8l760g","2","71","78","65","","","","","","","","","","","","","","","",""
"887","
          <p id=""word"" style=""font-size: 40px;"">crebble</p>
          <p style=""font-size: 16px;"">J = YES &nbsp;&nbsp;&nbsp; F = NO</p>
        ","f","html-keyboard-response","267","2.1.0","294141","J=YES, F=NO","3r6p8l760g","2","71","78","65","","","","","","","","","crebble","pine","pseudoword","pseudoword","f","true","",""
"null","<p style=""font-size: 50px;"">+</p>","null","html-keyboard-response","268","2.1.0","294454","J=YES, F=NO","3r6p8l760g","2","71","78","65","","","","","","","","","","","","","","","",""
"null","audio/beep-329314.mp3","null","audio-keyboard-response","269","2.1.0","295951","J=YES, F=NO","3r6p8l760g","2","71","78","65","","","","","","","","","","","","","","","",""
"null","audio/test1.wav","null","audio-keyboard-response","270","2.1.0","296461","J=YES, F=NO","3r6p8l760g","2","71","78","65","","","","","","","","","","","","","","","",""
"714","
          <p id=""word"" style=""font-size: 40px;"">run</p>
          <p style=""font-size: 16px;"">J = YES &nbsp;&nbsp;&nbsp; F = NO</p>
        ","f","html-keyboard-response","271","2.1.0","297176","J=YES, F=NO","3r6p8l760g","2","71","78","65","","","","","","","","","run","test1","metaphor","experimental","j","false","",""
"null","<p style=""font-size: 50px;"">+</p>","null","html-keyboard-response","272","2.1.0","297485","J=YES, F=NO","3r6p8l760g","2","71","78","65","","","","","","","","","","","","","","","",""
"null","audio/beep-329314.mp3","null","audio-keyboard-response","273","2.1.0","298985","J=YES, F=NO","3r6p8l760g","2","71","78","65","","","","","","","","","","","","","","","",""
"null","audio/purpose.wav","null","audio-keyboard-response","274","2.1.0","299594","J=YES, F=NO","3r6p8l760g","2","71","78","65","","","","","","","","","","","","","","","",""
"395","
          <p id=""word"" style=""font-size: 40px;"">whigm</p>
          <p style=""font-size: 16px;"">J = YES &nbsp;&nbsp;&nbsp; F = NO</p>
        ","j","html-keyboard-response","275","2.1.0","299991","J=YES, F=NO","3r6p8l760g","2","71","78","65","","","","","","","","","whigm","purpose","pseudoword","pseudoword","f","false","",""
"null","<p style=""font-size: 50px;"">+</p>","null","html-keyboard-response","276","2.1.0","300303","J=YES, F=NO","3r6p8l760g","2","71","78","65","","","","","","","","","","","","","","","",""
"null","audio/beep-329314.mp3","null","audio-keyboard-response","277","2.1.0","301801","J=YES, F=NO","3r6p8l760g","2","71","78","65","","","","","","","","","","","","","","","",""
"null","audio/emotion.wav","null","audio-keyboard-response","278","2.1.0","302402","J=YES, F=NO","3r6p8l760g","2","71","78","65","","","","","","","","","","","","","","","",""
"510","
          <p id=""word"" style=""font-size: 40px;"">devering</p>
          <p style=""font-size: 16px;"">J = YES &nbsp;&nbsp;&nbsp; F = NO</p>
        ","j","html-keyboard-response","279","2.1.0","302911","J=YES, F=NO","3r6p8l760g","2","71","78","65","","","","","","","","","devering","emotion","pseudoword","pseudoword","f","false","",""
"null","<p style=""font-size: 50px;"">+</p>","null","html-keyboard-response","280","2.1.0","303215","J=YES, F=NO","3r6p8l760g","2","71","78","65","","","","","","","","","","","","","","","",""
"null","audio/beep-329314.mp3","null","audio-keyboard-response","281","2.1.0","304718","J=YES, F=NO","3r6p8l760g","2","71","78","65","","","","","","","","","","","","","","","",""
"null","audio/survey1.wav","null","audio-keyboard-response","282","2.1.0","305388","J=YES, F=NO","3r6p8l760g","2","71","78","65","","","","","","","","","","","","","","","",""
"446","
          <p id=""word"" style=""font-size: 40px;"">release</p>
          <p style=""font-size: 16px;"">J = YES &nbsp;&nbsp;&nbsp; F = NO</p>
        ","j","html-keyboard-response","283","2.1.0","305835","J=YES, F=NO","3r6p8l760g","2","71","78","65","","","","","","","","","release","survey1","metaphor","experimental","j","true","",""
"null","<p style=""font-size: 50px;"">+</p>","null","html-keyboard-response","284","2.1.0","306138","J=YES, F=NO","3r6p8l760g","2","71","78","65","","","","","","","","","","","","","","","",""
"null","audio/beep-329314.mp3","null","audio-keyboard-response","285","2.1.0","307633","J=YES, F=NO","3r6p8l760g","2","71","78","65","","","","","","","","","","","","","","","",""
"null","audio/kettle1.wav","null","audio-keyboard-response","286","2.1.0","308034","J=YES, F=NO","3r6p8l760g","2","71","78","65","","","","","","","","","","","","","","","",""
"837","
          <p id=""word"" style=""font-size: 40px;"">navigate</p>
          <p style=""font-size: 16px;"">J = YES &nbsp;&nbsp;&nbsp; F = NO</p>
        ","f","html-keyboard-response","287","2.1.0","308872","J=YES, F=NO","3r6p8l760g","2","71","78","65","","","","","","","","","navigate","kettle1","unrelated","experimental","j","false","",""
"null","<p style=""font-size: 50px;"">+</p>","null","html-keyboard-response","288","2.1.0","309184","J=YES, F=NO","3r6p8l760g","2","71","78","65","","","","","","","","","","","","","","","",""
"null","audio/beep-329314.mp3","null","audio-keyboard-response","289","2.1.0","310678","J=YES, F=NO","3r6p8l760g","2","71","78","65","","","","","","","","","","","","","","","",""
"null","audio/pig.wav","null","audio-keyboard-response","290","2.1.0","310998","J=YES, F=NO","3r6p8l760g","2","71","78","65","","","","","","","","","","","","","","","",""
"628","
          <p id=""word"" style=""font-size: 40px;"">tirlike</p>
          <p style=""font-size: 16px;"">J = YES &nbsp;&nbsp;&nbsp; F = NO</p>
        ","j","html-keyboard-response","291","2.1.0","311627","J=YES, F=NO","3r6p8l760g","2","71","78","65","","","","","","","","","tirlike","pig","pseudoword","pseudoword","f","false","",""
"null","<p style=""font-size: 50px;"">+</p>","null","html-keyboard-response","292","2.1.0","311933","J=YES, F=NO","3r6p8l760g","2","71","78","65","","","","","","","","","","","","","","","",""
"null","audio/beep-329314.mp3","null","audio-keyboard-response","293","2.1.0","313434","J=YES, F=NO","3r6p8l760g","2","71","78","65","","","","","","","","","","","","","","","",""
"null","audio/farm1.wav","null","audio-keyboard-response","294","2.1.0","313954","J=YES, F=NO","3r6p8l760g","2","71","78","65","","","","","","","","","","","","","","","",""
"517","
          <p id=""word"" style=""font-size: 40px;"">catch</p>
          <p style=""font-size: 16px;"">J = YES &nbsp;&nbsp;&nbsp; F = NO</p>
        ","j","html-keyboard-response","295","2.1.0","314471","J=YES, F=NO","3r6p8l760g","2","71","78","65","","","","","","","","","catch","farm1","unrelated","experimental","j","true","",""
"1301","<p>Excellent! You have finished block 2 of 8.</p>
                     <p>Feel free to take a 30 second break.</p>
                     <p>Press any key when you're ready to continue.</p>","j","html-keyboard-response","296","2.1.0","315772","J=YES, F=NO","3r6p8l760g","2","71","78","65","","","","","","","","","","","","","","","",""
"564","<p>Starting main block 3 of 8. Press any key to continue.</p>","j","html-keyboard-response","297","2.1.0","316337","J=YES, F=NO","3r6p8l760g","2","71","78","65","","","","","","","","","","","","","","","",""
"null","<p style=""font-size: 50px;"">+</p>","null","html-keyboard-response","298","2.1.0","316639","J=YES, F=NO","3r6p8l760g","2","71","78","65","","","","","","","","","","","","","","","",""
"null","audio/beep-329314.mp3","null","audio-keyboard-response","299","2.1.0","318128","J=YES, F=NO","3r6p8l760g","2","71","78","65","","","","","","","","","","","","","","","",""
"null","audio/cave1.wav","null","audio-keyboard-response","300","2.1.0","318618","J=YES, F=NO","3r6p8l760g","2","71","78","65","","","","","","","","","","","","","","","",""
"432","
          <p id=""word"" style=""font-size: 40px;"">blacket</p>
          <p style=""font-size: 16px;"">J = YES &nbsp;&nbsp;&nbsp; F = NO</p>
        ","j","html-keyboard-response","301","2.1.0","319051","J=YES, F=NO","3r6p8l760g","2","71","78","65","","","","","","","","","blacket","cave1","pseudoword","pseudoword","f","false","",""
"null","<p style=""font-size: 50px;"">+</p>","null","html-keyboard-response","302","2.1.0","319352","J=YES, F=NO","3r6p8l760g","2","71","78","65","","","","","","","","","","","","","","","",""
"null","audio/beep-329314.mp3","null","audio-keyboard-response","303","2.1.0","320846","J=YES, F=NO","3r6p8l760g","2","71","78","65","","","","","","","","","","","","","","","",""
"null","audio/cinema1.wav","null","audio-keyboard-response","304","2.1.0","321396","J=YES, F=NO","3r6p8l760g","2","71","78","65","","","","","","","","","","","","","","","",""
"1220","
          <p id=""word"" style=""font-size: 40px;"">grow</p>
          <p style=""font-size: 16px;"">J = YES &nbsp;&nbsp;&nbsp; F = NO</p>
        ","j","html-keyboard-response","305","2.1.0","322617","J=YES, F=NO","3r6p8l760g","2","71","78","65","","","","","","","","","grow","cinema1","unrelated","experimental","j","true","",""
"null","<p style=""font-size: 50px;"">+</p>","null","html-keyboard-response","306","2.1.0","322928","J=YES, F=NO","3r6p8l760g","2","71","78","65","","","","","","","","","","","","","","","",""
"null","audio/beep-329314.mp3","null","audio-keyboard-response","307","2.1.0","324426","J=YES, F=NO","3r6p8l760g","2","71","78","65","","","","","","","","","","","","","","","",""
"null","audio/window1.wav","null","audio-keyboard-response","308","2.1.0","324976","J=YES, F=NO","3r6p8l760g","2","71","78","65","","","","","","","","","","","","","","","",""
"550","
          <p id=""word"" style=""font-size: 40px;"">break</p>
          <p style=""font-size: 16px;"">J = YES &nbsp;&nbsp;&nbsp; F = NO</p>
        ","j","html-keyboard-response","309","2.1.0","325527","J=YES, F=NO","3r6p8l760g","2","71","78","65","","","","","","","","","break","window1","literal","experimental","j","true","",""
"null","<p style=""font-size: 50px;"">+</p>","null","html-keyboard-response","310","2.1.0","325837","J=YES, F=NO","3r6p8l760g","2","71","78","65","","","","","","","","","","","","","","","",""
"null","audio/beep-329314.mp3","null","audio-keyboard-response","311","2.1.0","327328","J=YES, F=NO","3r6p8l760g","2","71","78","65","","","","","","","","","","","","","","","",""
"null","audio/alarm1.wav","null","audio-keyboard-response","312","2.1.0","327850","J=YES, F=NO","3r6p8l760g","2","71","78","65","","","","","","","","","","","","","","","",""
"609","
          <p id=""word"" style=""font-size: 40px;"">swetp</p>
          <p style=""font-size: 16px;"">J = YES &nbsp;&nbsp;&nbsp; F = NO</p>
        ","j","html-keyboard-response","313","2.1.0","328460","J=YES, F=NO","3r6p8l760g","2","71","78","65","","","","","","","","","swetp","alarm1","pseudoword","pseudoword","f","false","",""
"null","<p style=""font-size: 50px;"">+</p>","null","html-keyboard-response","314","2.1.0","328774","J=YES, F=NO","3r6p8l760g","2","71","78","65","","","","","","","","","","","","","","","",""
"null","audio/beep-329314.mp3","null","audio-keyboard-response","315","2.1.0","330269","J=YES, F=NO","3r6p8l760g","2","71","78","65","","","","","","","","","","","","","","","",""
"null","audio/smirk1.wav","null","audio-keyboard-response","316","2.1.0","330929","J=YES, F=NO","3r6p8l760g","2","71","78","65","","","","","","","","","","","","","","","",""
"738","
          <p id=""word"" style=""font-size: 40px;"">snopt</p>
          <p style=""font-size: 16px;"">J = YES &nbsp;&nbsp;&nbsp; F = NO</p>
        ","f","html-keyboard-response","317","2.1.0","331667","J=YES, F=NO","3r6p8l760g","2","71","78","65","","","","","","","","","snopt","smirk1","pseudoword","pseudoword","f","true","",""
"null","<p style=""font-size: 50px;"">+</p>","null","html-keyboard-response","318","2.1.0","331974","J=YES, F=NO","3r6p8l760g","2","71","78","65","","","","","","","","","","","","","","","",""
"null","audio/beep-329314.mp3","null","audio-keyboard-response","319","2.1.0","333475","J=YES, F=NO","3r6p8l760g","2","71","78","65","","","","","","","","","","","","","","","",""
"null","audio/empire.wav","null","audio-keyboard-response","320","2.1.0","334054","J=YES, F=NO","3r6p8l760g","2","71","78","65","","","","","","","","","","","","","","","",""
"811","
          <p id=""word"" style=""font-size: 40px;"">bring</p>
          <p style=""font-size: 16px;"">J = YES &nbsp;&nbsp;&nbsp; F = NO</p>
        ","j","html-keyboard-response","321","2.1.0","334867","J=YES, F=NO","3r6p8l760g","2","71","78","65","","","","","","","","","bring","empire","unrelated","experimental","j","true","",""
"null","<p style=""font-size: 50px;"">+</p>","null","html-keyboard-response","322","2.1.0","335174","J=YES, F=NO","3r6p8l760g","2","71","78","65","","","","","","","","","","","","","","","",""
"null","audio/beep-329314.mp3","null","audio-keyboard-response","323","2.1.0","336681","J=YES, F=NO","3r6p8l760g","2","71","78","65","","","","","","","","","","","","","","","",""
"null","audio/meal.wav","null","audio-keyboard-response","324","2.1.0","337071","J=YES, F=NO","3r6p8l760g","2","71","78","65","","","","","","","","","","","","","","","",""
"564","
          <p id=""word"" style=""font-size: 40px;"">share</p>
          <p style=""font-size: 16px;"">J = YES &nbsp;&nbsp;&nbsp; F = NO</p>
        ","j","html-keyboard-response","325","2.1.0","337636","J=YES, F=NO","3r6p8l760g","2","71","78","65","","","","","","","","","share","meal","literal","experimental","j","true","",""
"null","<p style=""font-size: 50px;"">+</p>","null","html-keyboard-response","326","2.1.0","337941","J=YES, F=NO","3r6p8l760g","2","71","78","65","","","","","","","","","","","","","","","",""
"null","audio/beep-329314.mp3","null","audio-keyboard-response","327","2.1.0","339433","J=YES, F=NO","3r6p8l760g","2","71","78","65","","","","","","","","","","","","","","","",""
"null","audio/vehicle1.wav","null","audio-keyboard-response","328","2.1.0","340023","J=YES, F=NO","3r6p8l760g","2","71","78","65","","","","","","","","","","","","","","","",""
"594","
          <p id=""word"" style=""font-size: 40px;"">dropt</p>
          <p style=""font-size: 16px;"">J = YES &nbsp;&nbsp;&nbsp; F = NO</p>
        ","f","html-keyboard-response","329","2.1.0","340617","J=YES, F=NO","3r6p8l760g","2","71","78","65","","","","","","","","","dropt","vehicle1","pseudoword","pseudoword","f","true","",""
"null","<p style=""font-size: 50px;"">+</p>","null","html-keyboard-response","330","2.1.0","340942","J=YES, F=NO","3r6p8l760g","2","71","78","65","","","","","","","","","","","","","","","",""
"null","audio/beep-329314.mp3","null","audio-keyboard-response","331","2.1.0","342429","J=YES, F=NO","3r6p8l760g","2","71","78","65","","","","","","","","","","","","","","","",""
"null","audio/fence.wav","null","audio-keyboard-response","332","2.1.0","343028","J=YES, F=NO","3r6p8l760g","2","71","78","65","","","","","","","","","","","","","","","",""
"682","
          <p id=""word"" style=""font-size: 40px;"">trim</p>
          <p style=""font-size: 16px;"">J = YES &nbsp;&nbsp;&nbsp; F = NO</p>
        ","j","html-keyboard-response","333","2.1.0","343711","J=YES, F=NO","3r6p8l760g","2","71","78","65","","","","","","","","","trim","fence","filler","filler","j","true","",""
"null","<p style=""font-size: 50px;"">+</p>","null","html-keyboard-response","334","2.1.0","344023","J=YES, F=NO","3r6p8l760g","2","71","78","65","","","","","","","","","","","","","","","",""
"null","audio/beep-329314.mp3","null","audio-keyboard-response","335","2.1.0","345512","J=YES, F=NO","3r6p8l760g","2","71","78","65","","","","","","","","","","","","","","","",""
"null","audio/road.wav","null","audio-keyboard-response","336","2.1.0","345883","J=YES, F=NO","3r6p8l760g","2","71","78","65","","","","","","","","","","","","","","","",""
"649","
          <p id=""word"" style=""font-size: 40px;"">flood</p>
          <p style=""font-size: 16px;"">J = YES &nbsp;&nbsp;&nbsp; F = NO</p>
        ","j","html-keyboard-response","337","2.1.0","346533","J=YES, F=NO","3r6p8l760g","2","71","78","65","","","","","","","","","flood","road","literal","experimental","j","true","",""
"null","<p style=""font-size: 50px;"">+</p>","null","html-keyboard-response","338","2.1.0","346841","J=YES, F=NO","3r6p8l760g","2","71","78","65","","","","","","","","","","","","","","","",""
"null","audio/beep-329314.mp3","null","audio-keyboard-response","339","2.1.0","348339","J=YES, F=NO","3r6p8l760g","2","71","78","65","","","","","","","","","","","","","","","",""
"null","audio/fortune1.wav","null","audio-keyboard-response","340","2.1.0","349049","J=YES, F=NO","3r6p8l760g","2","71","78","65","","","","","","","","","","","","","","","",""
"543","
          <p id=""word"" style=""font-size: 40px;"">spend</p>
          <p style=""font-size: 16px;"">J = YES &nbsp;&nbsp;&nbsp; F = NO</p>
        ","f","html-keyboard-response","341","2.1.0","349592","J=YES, F=NO","3r6p8l760g","2","71","78","65","","","","","","","","","spend","fortune1","literal","experimental","j","false","",""
"null","<p style=""font-size: 50px;"">+</p>","null","html-keyboard-response","342","2.1.0","349904","J=YES, F=NO","3r6p8l760g","2","71","78","65","","","","","","","","","","","","","","","",""
"null","audio/beep-329314.mp3","null","audio-keyboard-response","343","2.1.0","351394","J=YES, F=NO","3r6p8l760g","2","71","78","65","","","","","","","","","","","","","","","",""
"null","audio/account1.wav","null","audio-keyboard-response","344","2.1.0","352014","J=YES, F=NO","3r6p8l760g","2","71","78","65","","","","","","","","","","","","","","","",""
"413","
          <p id=""word"" style=""font-size: 40px;"">paint</p>
          <p style=""font-size: 16px;"">J = YES &nbsp;&nbsp;&nbsp; F = NO</p>
        ","j","html-keyboard-response","345","2.1.0","352427","J=YES, F=NO","3r6p8l760g","2","71","78","65","","","","","","","","","paint","account1","filler","filler","j","true","",""
"null","<p style=""font-size: 50px;"">+</p>","null","html-keyboard-response","346","2.1.0","352737","J=YES, F=NO","3r6p8l760g","2","71","78","65","","","","","","","","","","","","","","","",""
"null","audio/beep-329314.mp3","null","audio-keyboard-response","347","2.1.0","354234","J=YES, F=NO","3r6p8l760g","2","71","78","65","","","","","","","","","","","","","","","",""
"null","audio/uncle1.wav","null","audio-keyboard-response","348","2.1.0","354653","J=YES, F=NO","3r6p8l760g","2","71","78","65","","","","","","","","","","","","","","","",""
"421","
          <p id=""word"" style=""font-size: 40px;"">dramble</p>
          <p style=""font-size: 16px;"">J = YES &nbsp;&nbsp;&nbsp; F = NO</p>
        ","j","html-keyboard-response","349","2.1.0","355074","J=YES, F=NO","3r6p8l760g","2","71","78","65","","","","","","","","","dramble","uncle1","pseudoword","pseudoword","f","false","",""
"null","<p style=""font-size: 50px;"">+</p>","null","html-keyboard-response","350","2.1.0","355381","J=YES, F=NO","3r6p8l760g","2","71","78","65","","","","","","","","","","","","","","","",""
"null","audio/beep-329314.mp3","null","audio-keyboard-response","351","2.1.0","356873","J=YES, F=NO","3r6p8l760g","2","71","78","65","","","","","","","","","","","","","","","",""
"null","audio/ship.wav","null","audio-keyboard-response","352","2.1.0","357353","J=YES, F=NO","3r6p8l760g","2","71","78","65","","","","","","","","","","","","","","","",""
"774","
          <p id=""word"" style=""font-size: 40px;"">scrap</p>
          <p style=""font-size: 16px;"">J = YES &nbsp;&nbsp;&nbsp; F = NO</p>
        ","j","html-keyboard-response","353","2.1.0","358126","J=YES, F=NO","3r6p8l760g","2","71","78","65","","","","","","","","","scrap","ship","literal","experimental","j","true","",""
"null","<p style=""font-size: 50px;"">+</p>","null","html-keyboard-response","354","2.1.0","358427","J=YES, F=NO","3r6p8l760g","2","71","78","65","","","","","","","","","","","","","","","",""
"null","audio/beep-329314.mp3","null","audio-keyboard-response","355","2.1.0","359940","J=YES, F=NO","3r6p8l760g","2","71","78","65","","","","","","","","","","","","","","","",""
"null","audio/cloud1.wav","null","audio-keyboard-response","356","2.1.0","360441","J=YES, F=NO","3r6p8l760g","2","71","78","65","","","","","","","","","","","","","","","",""
"null","
          <p id=""word"" style=""font-size: 40px;"">brotant</p>
          <p style=""font-size: 16px;"">J = YES &nbsp;&nbsp;&nbsp; F = NO</p>
        ","null","html-keyboard-response","357","2.1.0","361952","J=YES, F=NO","3r6p8l760g","2","71","78","65","","","","","","","","","brotant","cloud1","pseudoword","pseudoword","f","false","",""
"null","<p style=""font-size: 50px;"">+</p>","null","html-keyboard-response","358","2.1.0","362260","J=YES, F=NO","3r6p8l760g","2","71","78","65","","","","","","","","","","","","","","","",""
"null","audio/beep-329314.mp3","null","audio-keyboard-response","359","2.1.0","363758","J=YES, F=NO","3r6p8l760g","2","71","78","65","","","","","","","","","","","","","","","",""
"null","audio/foe1.wav","null","audio-keyboard-response","360","2.1.0","364207","J=YES, F=NO","3r6p8l760g","2","71","78","65","","","","","","","","","","","","","","","",""
"396","
          <p id=""word"" style=""font-size: 40px;"">creth</p>
          <p style=""font-size: 16px;"">J = YES &nbsp;&nbsp;&nbsp; F = NO</p>
        ","j","html-keyboard-response","361","2.1.0","364603","J=YES, F=NO","3r6p8l760g","2","71","78","65","","","","","","","","","creth","foe1","pseudoword","pseudoword","f","false","",""
"829","<p>Excellent! You have finished block 3 of 8.</p>
                     <p>Feel free to take a 30 second break.</p>
                     <p>Press any key when you're ready to continue.</p>","f","html-keyboard-response","362","2.1.0","365433","J=YES, F=NO","3r6p8l760g","2","71","78","65","","","","","","","","","","","","","","","",""
"530","<p>Starting main block 4 of 8. Press any key to continue.</p>","f","html-keyboard-response","363","2.1.0","365963","J=YES, F=NO","3r6p8l760g","2","71","78","65","","","","","","","","","","","","","","","",""
"null","<p style=""font-size: 50px;"">+</p>","null","html-keyboard-response","364","2.1.0","366267","J=YES, F=NO","3r6p8l760g","2","71","78","65","","","","","","","","","","","","","","","",""
"null","audio/beep-329314.mp3","null","audio-keyboard-response","365","2.1.0","367778","J=YES, F=NO","3r6p8l760g","2","71","78","65","","","","","","","","","","","","","","","",""
"null","audio/age1.wav","null","audio-keyboard-response","366","2.1.0","368268","J=YES, F=NO","3r6p8l760g","2","71","78","65","","","","","","","","","","","","","","","",""
"854","
          <p id=""word"" style=""font-size: 40px;"">lachry</p>
          <p style=""font-size: 16px;"">J = YES &nbsp;&nbsp;&nbsp; F = NO</p>
        ","f","html-keyboard-response","367","2.1.0","369123","J=YES, F=NO","3r6p8l760g","2","71","78","65","","","","","","","","","lachry","age1","pseudoword","pseudoword","f","true","",""
"null","<p style=""font-size: 50px;"">+</p>","null","html-keyboard-response","368","2.1.0","369439","J=YES, F=NO","3r6p8l760g","2","71","78","65","","","","","","","","","","","","","","","",""
"null","audio/beep-329314.mp3","null","audio-keyboard-response","369","2.1.0","370924","J=YES, F=NO","3r6p8l760g","2","71","78","65","","","","","","","","","","","","","","","",""
"null","audio/life1.wav","null","audio-keyboard-response","370","2.1.0","371425","J=YES, F=NO","3r6p8l760g","2","71","78","65","","","","","","","","","","","","","","","",""
"808","
          <p id=""word"" style=""font-size: 40px;"">flimch</p>
          <p style=""font-size: 16px;"">J = YES &nbsp;&nbsp;&nbsp; F = NO</p>
        ","f","html-keyboard-response","371","2.1.0","372232","J=YES, F=NO","3r6p8l760g","2","71","78","65","","","","","","","","","flimch","life1","pseudoword","pseudoword","f","true","",""
"null","<p style=""font-size: 50px;"">+</p>","null","html-keyboard-response","372","2.1.0","372546","J=YES, F=NO","3r6p8l760g","2","71","78","65","","","","","","","","","","","","","","","",""
"null","audio/beep-329314.mp3","null","audio-keyboard-response","373","2.1.0","374039","J=YES, F=NO","3r6p8l760g","2","71","78","65","","","","","","","","","","","","","","","",""
"null","audio/key1.wav","null","audio-keyboard-response","374","2.1.0","374359","J=YES, F=NO","3r6p8l760g","2","71","78","65","","","","","","","","","","","","","","","",""
"617","
          <p id=""word"" style=""font-size: 40px;"">sminsh</p>
          <p style=""font-size: 16px;"">J = YES &nbsp;&nbsp;&nbsp; F = NO</p>
        ","f","html-keyboard-response","375","2.1.0","374977","J=YES, F=NO","3r6p8l760g","2","71","78","65","","","","","","","","","sminsh","key1","pseudoword","pseudoword","f","true","",""
"null","<p style=""font-size: 50px;"">+</p>","null","html-keyboard-response","376","2.1.0","375283","J=YES, F=NO","3r6p8l760g","2","71","78","65","","","","","","","","","","","","","","","",""
"null","audio/beep-329314.mp3","null","audio-keyboard-response","377","2.1.0","376775","J=YES, F=NO","3r6p8l760g","2","71","78","65","","","","","","","","","","","","","","","",""
"null","audio/trout1.wav","null","audio-keyboard-response","378","2.1.0","377306","J=YES, F=NO","3r6p8l760g","2","71","78","65","","","","","","","","","","","","","","","",""
"487","
          <p id=""word"" style=""font-size: 40px;"">spimt</p>
          <p style=""font-size: 16px;"">J = YES &nbsp;&nbsp;&nbsp; F = NO</p>
        ","f","html-keyboard-response","379","2.1.0","377793","J=YES, F=NO","3r6p8l760g","2","71","78","65","","","","","","","","","spimt","trout1","pseudoword","pseudoword","f","true","",""
"null","<p style=""font-size: 50px;"">+</p>","null","html-keyboard-response","380","2.1.0","378101","J=YES, F=NO","3r6p8l760g","2","71","78","65","","","","","","","","","","","","","","","",""
"null","audio/beep-329314.mp3","null","audio-keyboard-response","381","2.1.0","379584","J=YES, F=NO","3r6p8l760g","2","71","78","65","","","","","","","","","","","","","","","",""
"null","audio/arm.wav","null","audio-keyboard-response","382","2.1.0","380063","J=YES, F=NO","3r6p8l760g","2","71","78","65","","","","","","","","","","","","","","","",""
"494","
          <p id=""word"" style=""font-size: 40px;"">seize</p>
          <p style=""font-size: 16px;"">J = YES &nbsp;&nbsp;&nbsp; F = NO</p>
        ","f","html-keyboard-response","383","2.1.0","380558","J=YES, F=NO","3r6p8l760g","2","71","78","65","","","","","","","","","seize","arm","literal","experimental","j","false","",""
"null","<p style=""font-size: 50px;"">+</p>","null","html-keyboard-response","384","2.1.0","380872","J=YES, F=NO","3r6p8l760g","2","71","78","65","","","","","","","","","","","","","","","",""
"null","audio/beep-329314.mp3","null","audio-keyboard-response","385","2.1.0","382373","J=YES, F=NO","3r6p8l760g","2","71","78","65","","","","","","","","","","","","","","","",""
"null","audio/gossip1.wav","null","audio-keyboard-response","386","2.1.0","382943","J=YES, F=NO","3r6p8l760g","2","71","78","65","","","","","","","","","","","","","","","",""
"950","
          <p id=""word"" style=""font-size: 40px;"">wrestle</p>
          <p style=""font-size: 16px;"">J = YES &nbsp;&nbsp;&nbsp; F = NO</p>
        ","j","html-keyboard-response","387","2.1.0","383892","J=YES, F=NO","3r6p8l760g","2","71","78","65","","","","","","","","","wrestle","gossip1","unrelated","experimental","j","true","",""
"null","<p style=""font-size: 50px;"">+</p>","null","html-keyboard-response","388","2.1.0","384199","J=YES, F=NO","3r6p8l760g","2","71","78","65","","","","","","","","","","","","","","","",""
"null","audio/beep-329314.mp3","null","audio-keyboard-response","389","2.1.0","385700","J=YES, F=NO","3r6p8l760g","2","71","78","65","","","","","","","","","","","","","","","",""
"null","audio/bridge.wav","null","audio-keyboard-response","390","2.1.0","386179","J=YES, F=NO","3r6p8l760g","2","71","78","65","","","","","","","","","","","","","","","",""
"493","
          <p id=""word"" style=""font-size: 40px;"">build</p>
          <p style=""font-size: 16px;"">J = YES &nbsp;&nbsp;&nbsp; F = NO</p>
