"rt","stimulus","response","trial_type","trial_index","plugin_version","time_elapsed","response_mapping","subject_id","list_index","lextale_score","lextale_word_score","lextale_nonword_score","success","timeout","failed_images","failed_audio","failed_video","task","isWord","isDummy","target","prime","prime_type","stimulus_type","correct_response","correct","section","question_order"
"46745","
    <div style=""max-width: 800px; margin: auto; text-align: left;"">
      <h2>STANFORD UNIVERSITY</h2>
      <h3>Research Information Sheet</h3>
      <p><strong>Protocol Director:</strong> Robert Hawkins<br>
      <strong>Protocol Title:</strong> Communication and social cognition in natural audiovisual contexts<br>
      <strong>IRB#:</strong> 77226</p>

      <p><strong>DESCRIPTION:</strong> You are invited to participate in a research study about language and communication. The purpose of the research is to understand how you interact and communicate with other people in naturalistic settings as a fluent English speaker. This research will be conducted through the Prolific platform, including participants from the US, UK, and Canada. If you decide to participate in this research, you will play a communication game in a group with one or more partners.</p>

      <p><strong>TIME INVOLVEMENT:</strong> The task will last the amount of time advertised on Prolific. You are free to withdraw from the study at any time.</p>

      <p><strong>RISKS AND BENEFITS:</strong> You may become frustrated if your partner gets distracted, or experience discomfort if other participants in your group send text that is inappropriate for the task. We ask you to please be respectful of other participants you might be interacting with to mitigate these risks. You may also experience discomfort when being asked to discuss or challenge emotionally salient political beliefs. Study data will be stored securely, in compliance with Stanford University standards, minimizing the risk of confidentiality breach. This study advances our scientific understanding of how people communicate and collaborate in naturalistic settings. This study may lead to further insights about what can go wrong in teamwork, suggest potential interventions to overcome these barriers, and help to develop assistive technologies that collaborate with human partners. We cannot and do not guarantee or promise that you will receive any benefits from this study.</p>

      <p><strong>PAYMENTS:</strong> You will receive payment in the amount advertised on Prolific. If you do not complete this study, you will receive prorated payment based on the time that you have spent. Additionally, you may be eligible for bonus payments as described in the instructions.</p>

      <p><strong>PARTICIPANT’S RIGHTS:</strong> If you have read this form and have decided to participate in this project, please understand your participation is voluntary and you have the right to withdraw your consent or discontinue participation at any time without penalty or loss of benefits to which you are otherwise entitled. The alternative is not to participate. You have the right to refuse to answer particular questions. The results of this research study may be presented at scientific or professional meetings or published in scientific journals. Your individual privacy will be maintained in all published and written data resulting from the study. In accordance with scientific norms, the data from this study may be used or shared with other researchers for future research (after removing personally identifying information) without additional consent from you.</p>

      <p><strong>CONTACT INFORMATION:</strong><br>
      Questions: If you have any questions, concerns or complaints about this research, its procedures, risks and benefits, contact the Protocol Director, Robert Hawkins (<a href=""mailto:rdhawkins@stanford.edu"">rdhawkins@stanford.edu</a>, 217-549-6923).<br>
      Independent Contact: If you are not satisfied with how this study is being conducted, or if you have any concerns, complaints, or general questions about the research or your rights as a participant, please contact the Stanford Institutional Review Board (IRB) to speak to someone independent of the research team at 650-723-2480 or toll free at 1-866-680-2906, or email at <a href=""mailto:irbnon-med@stanford.edu"">irbnon-med@stanford.edu</a>. You can also write to the Stanford IRB, Stanford University, 1705 El Camino Real, Palo Alto, CA 94306.</p>

      <p><strong>Please save or print a copy of this page for your records.</strong></p>
      <p>If you agree to participate in this research, click ""Continue"" below.</p>
    </div>
  ","0","html-button-response","0","2.1.0","46767","F=YES, J=NO","3sgc31pv5f","2","71","73","70","","","","","","","","","","","","","","","",""
"11363","
    <div style=""max-width: 800px; margin: auto; text-align: left;"">
      <h2>Welcome!</h2>
      <p>Thank you for participating in this study. The experiment consists of three parts:</p>
      <ol>
        <li>An English vocabulary test</li>
        <li>A main task in which you will hear and see words, and decide whether the written word is a real English word</li>
        <li>A brief survey about your background</li>
      </ol>
      <p>Each part will be introduced before it begins.</p>
      <p>Please make sure you are in a quiet environment and can hear audio clearly for the final task.</p>
      <p style=""margin-top: 2em;"">Press any key to begin.</p>
    </div>
  "," ","html-keyboard-response","1","2.1.0","58138","F=YES, J=NO","3sgc31pv5f","2","71","73","70","","","","","","","","","","","","","","","",""
"","","","preload","2","2.1.0","59633","F=YES, J=NO","3sgc31pv5f","2","71","73","70","true","false","[]","[]","[]","","","","","","","","","","",""
"11482","
    <div style=""max-width: 800px; margin: auto; text-align: left;"">
      <h2>Part 1: Vocabulary Test</h2>
      <p>You will now complete the first part of the study: a short English vocabulary test.</p>
      <p>This test is called <strong>LexTALE</strong> and helps us get a general sense of your English proficiency.</p>
      <p style=""margin-top: 2em;"">Press any key to continue.</p>
    </div>
  "," ","html-keyboard-response","3","2.1.0","71117","F=YES, J=NO","3sgc31pv5f","2","71","73","70","","","","","","","","","","","","","","","",""
"21854","
    <div style=""max-width: 800px; margin: auto; text-align: left;"">
      <h2>LexTALE Vocabulary Test</h2>
      <p>In this test, you will see a series of letter strings—one at a time.</p>
      <p>Your task is to decide whether each string is a real English word.</p>
      <p><strong>Key responses:</strong></p>
      <ul>
        <li><strong>F</strong> = YES (real English word)</li>
        <li><strong>J</strong> = NO (not a real English word)</li>
      </ul>
      <p>There is no time limit, but please try to be accurate.</p>
      <p style=""margin-top: 2em;"">Press any key to begin.</p>
    </div>
  ","MediaPlayPause","html-keyboard-response","4","2.1.0","92975","F=YES, J=NO","3sgc31pv5f","2","71","73","70","","","","","","","","","","","","","","","",""
"15065","
  <p style=""font-size: 40px;"">platery</p>
  <p style=""font-size: 16px;"">F = YES &nbsp;&nbsp;&nbsp; J = NO</p>
","f","html-keyboard-response","5","2.1.0","108042","F=YES, J=NO","3sgc31pv5f","2","71","73","70","","","","","","lextale","false","true","","","","","","","",""
"1077","
  <p style=""font-size: 40px;"">denial</p>
  <p style=""font-size: 16px;"">F = YES &nbsp;&nbsp;&nbsp; J = NO</p>
","f","html-keyboard-response","6","2.1.0","109120","F=YES, J=NO","3sgc31pv5f","2","71","73","70","","","","","","lextale","true","true","","","","","","","",""
"1042","
  <p style=""font-size: 40px;"">marrit</p>
  <p style=""font-size: 16px;"">F = YES &nbsp;&nbsp;&nbsp; J = NO</p>
","f","html-keyboard-response","7","2.1.0","110165","F=YES, J=NO","3sgc31pv5f","2","71","73","70","","","","","","lextale","false","true","","","","","","","",""
"1032","
  <p style=""font-size: 40px;"">bottle</p>
  <p style=""font-size: 16px;"">F = YES &nbsp;&nbsp;&nbsp; J = NO</p>
","f","html-keyboard-response","8","2.1.0","111201","F=YES, J=NO","3sgc31pv5f","2","71","73","70","","","","","","lextale","true","false","","","","","","","",""
"1582","
  <p style=""font-size: 40px;"">birst</p>
  <p style=""font-size: 16px;"">F = YES &nbsp;&nbsp;&nbsp; J = NO</p>
","j","html-keyboard-response","9","2.1.0","112784","F=YES, J=NO","3sgc31pv5f","2","71","73","70","","","","","","lextale","false","false","","","","","","","",""
"820","
  <p style=""font-size: 40px;"">envy</p>
  <p style=""font-size: 16px;"">F = YES &nbsp;&nbsp;&nbsp; J = NO</p>
","f","html-keyboard-response","10","2.1.0","113605","F=YES, J=NO","3sgc31pv5f","2","71","73","70","","","","","","lextale","true","false","","","","","","","",""
"1028","
  <p style=""font-size: 40px;"">brang</p>
  <p style=""font-size: 16px;"">F = YES &nbsp;&nbsp;&nbsp; J = NO</p>
","j","html-keyboard-response","11","2.1.0","114636","F=YES, J=NO","3sgc31pv5f","2","71","73","70","","","","","","lextale","false","false","","","","","","","",""
"664","
  <p style=""font-size: 40px;"">huge</p>
  <p style=""font-size: 16px;"">F = YES &nbsp;&nbsp;&nbsp; J = NO</p>
","f","html-keyboard-response","12","2.1.0","115302","F=YES, J=NO","3sgc31pv5f","2","71","73","70","","","","","","lextale","true","false","","","","","","","",""
"1227","
  <p style=""font-size: 40px;"">plove</p>
  <p style=""font-size: 16px;"">F = YES &nbsp;&nbsp;&nbsp; J = NO</p>
","j","html-keyboard-response","13","2.1.0","116530","F=YES, J=NO","3sgc31pv5f","2","71","73","70","","","","","","lextale","false","false","","","","","","","",""
"702","
  <p style=""font-size: 40px;"">border</p>
  <p style=""font-size: 16px;"">F = YES &nbsp;&nbsp;&nbsp; J = NO</p>
","f","html-keyboard-response","14","2.1.0","117234","F=YES, J=NO","3sgc31pv5f","2","71","73","70","","","","","","lextale","true","false","","","","","","","",""
"1421","
  <p style=""font-size: 40px;"">flimsy</p>
  <p style=""font-size: 16px;"">F = YES &nbsp;&nbsp;&nbsp; J = NO</p>
","f","html-keyboard-response","15","2.1.0","118657","F=YES, J=NO","3sgc31pv5f","2","71","73","70","","","","","","lextale","true","false","","","","","","","",""
"731","
  <p style=""font-size: 40px;"">drain</p>
  <p style=""font-size: 16px;"">F = YES &nbsp;&nbsp;&nbsp; J = NO</p>
","f","html-keyboard-response","16","2.1.0","119391","F=YES, J=NO","3sgc31pv5f","2","71","73","70","","","","","","lextale","true","false","","","","","","","",""
"1464","
  <p style=""font-size: 40px;"">twindle</p>
  <p style=""font-size: 16px;"">F = YES &nbsp;&nbsp;&nbsp; J = NO</p>
","f","html-keyboard-response","17","2.1.0","120856","F=YES, J=NO","3sgc31pv5f","2","71","73","70","","","","","","lextale","false","false","","","","","","","",""
"606","
  <p style=""font-size: 40px;"">propose</p>
  <p style=""font-size: 16px;"">F = YES &nbsp;&nbsp;&nbsp; J = NO</p>
","f","html-keyboard-response","18","2.1.0","121463","F=YES, J=NO","3sgc31pv5f","2","71","73","70","","","","","","lextale","true","false","","","","","","","",""
"724","
  <p style=""font-size: 40px;"">forlay</p>
  <p style=""font-size: 16px;"">F = YES &nbsp;&nbsp;&nbsp; J = NO</p>
","j","html-keyboard-response","19","2.1.0","122190","F=YES, J=NO","3sgc31pv5f","2","71","73","70","","","","","","lextale","false","false","","","","","","","",""
"1287","
  <p style=""font-size: 40px;"">tenant</p>
  <p style=""font-size: 16px;"">F = YES &nbsp;&nbsp;&nbsp; J = NO</p>
","f","html-keyboard-response","20","2.1.0","123478","F=YES, J=NO","3sgc31pv5f","2","71","73","70","","","","","","lextale","true","false","","","","","","","",""
"1868","
  <p style=""font-size: 40px;"">strain</p>
  <p style=""font-size: 16px;"">F = YES &nbsp;&nbsp;&nbsp; J = NO</p>
","f","html-keyboard-response","21","2.1.0","125348","F=YES, J=NO","3sgc31pv5f","2","71","73","70","","","","","","lextale","true","false","","","","","","","",""
"787","
  <p style=""font-size: 40px;"">holster</p>
  <p style=""font-size: 16px;"">F = YES &nbsp;&nbsp;&nbsp; J = NO</p>
","f","html-keyboard-response","22","2.1.0","126137","F=YES, J=NO","3sgc31pv5f","2","71","73","70","","","","","","lextale","true","false","","","","","","","",""
"1249","
  <p style=""font-size: 40px;"">hinder</p>
  <p style=""font-size: 16px;"">F = YES &nbsp;&nbsp;&nbsp; J = NO</p>
","j","html-keyboard-response","23","2.1.0","127387","F=YES, J=NO","3sgc31pv5f","2","71","73","70","","","","","","lextale","true","false","","","","","","","",""
"766","
  <p style=""font-size: 40px;"">swindle</p>
  <p style=""font-size: 16px;"">F = YES &nbsp;&nbsp;&nbsp; J = NO</p>
","j","html-keyboard-response","24","2.1.0","128156","F=YES, J=NO","3sgc31pv5f","2","71","73","70","","","","","","lextale","true","false","","","","","","","",""
"1132","
  <p style=""font-size: 40px;"">nuder</p>
  <p style=""font-size: 16px;"">F = YES &nbsp;&nbsp;&nbsp; J = NO</p>
","j","html-keyboard-response","25","2.1.0","129289","F=YES, J=NO","3sgc31pv5f","2","71","73","70","","","","","","lextale","false","false","","","","","","","",""
"608","
  <p style=""font-size: 40px;"">pillow</p>
  <p style=""font-size: 16px;"">F = YES &nbsp;&nbsp;&nbsp; J = NO</p>
","f","html-keyboard-response","26","2.1.0","129900","F=YES, J=NO","3sgc31pv5f","2","71","73","70","","","","","","lextale","true","false","","","","","","","",""
"979","
  <p style=""font-size: 40px;"">shumble</p>
  <p style=""font-size: 16px;"">F = YES &nbsp;&nbsp;&nbsp; J = NO</p>
","j","html-keyboard-response","27","2.1.0","130881","F=YES, J=NO","3sgc31pv5f","2","71","73","70","","","","","","lextale","false","false","","","","","","","",""
"650","
  <p style=""font-size: 40px;"">thirst</p>
  <p style=""font-size: 16px;"">F = YES &nbsp;&nbsp;&nbsp; J = NO</p>
","f","html-keyboard-response","28","2.1.0","131533","F=YES, J=NO","3sgc31pv5f","2","71","73","70","","","","","","lextale","true","false","","","","","","","",""
"1078","
  <p style=""font-size: 40px;"">unsail</p>
  <p style=""font-size: 16px;"">F = YES &nbsp;&nbsp;&nbsp; J = NO</p>
","j","html-keyboard-response","29","2.1.0","132614","F=YES, J=NO","3sgc31pv5f","2","71","73","70","","","","","","lextale","false","false","","","","","","","",""
"846","
  <p style=""font-size: 40px;"">rifle</p>
  <p style=""font-size: 16px;"">F = YES &nbsp;&nbsp;&nbsp; J = NO</p>
","f","html-keyboard-response","30","2.1.0","133461","F=YES, J=NO","3sgc31pv5f","2","71","73","70","","","","","","lextale","true","false","","","","","","","",""
"893","
  <p style=""font-size: 40px;"">mush</p>
  <p style=""font-size: 16px;"">F = YES &nbsp;&nbsp;&nbsp; J = NO</p>
","f","html-keyboard-response","31","2.1.0","134356","F=YES, J=NO","3sgc31pv5f","2","71","73","70","","","","","","lextale","false","false","","","","","","","",""
"986","
  <p style=""font-size: 40px;"">drench</p>
  <p style=""font-size: 16px;"">F = YES &nbsp;&nbsp;&nbsp; J = NO</p>
","j","html-keyboard-response","32","2.1.0","135345","F=YES, J=NO","3sgc31pv5f","2","71","73","70","","","","","","lextale","true","false","","","","","","","",""
"1311","
  <p style=""font-size: 40px;"">snirt</p>
  <p style=""font-size: 16px;"">F = YES &nbsp;&nbsp;&nbsp; J = NO</p>
","j","html-keyboard-response","33","2.1.0","136658","F=YES, J=NO","3sgc31pv5f","2","71","73","70","","","","","","lextale","false","false","","","","","","","",""
"777","
  <p style=""font-size: 40px;"">bitter</p>
  <p style=""font-size: 16px;"">F = YES &nbsp;&nbsp;&nbsp; J = NO</p>
","f","html-keyboard-response","34","2.1.0","137437","F=YES, J=NO","3sgc31pv5f","2","71","73","70","","","","","","lextale","true","false","","","","","","","",""
"716","
  <p style=""font-size: 40px;"">pliff</p>
  <p style=""font-size: 16px;"">F = YES &nbsp;&nbsp;&nbsp; J = NO</p>
","j","html-keyboard-response","35","2.1.0","138155","F=YES, J=NO","3sgc31pv5f","2","71","73","70","","","","","","lextale","false","false","","","","","","","",""
"560","
  <p style=""font-size: 40px;"">tablet</p>
  <p style=""font-size: 16px;"">F = YES &nbsp;&nbsp;&nbsp; J = NO</p>
","f","html-keyboard-response","36","2.1.0","138718","F=YES, J=NO","3sgc31pv5f","2","71","73","70","","","","","","lextale","true","false","","","","","","","",""
"1044","
  <p style=""font-size: 40px;"">glimmer</p>
  <p style=""font-size: 16px;"">F = YES &nbsp;&nbsp;&nbsp; J = NO</p>
","f","html-keyboard-response","37","2.1.0","139764","F=YES, J=NO","3sgc31pv5f","2","71","73","70","","","","","","lextale","true","false","","","","","","","",""
"1083","
  <p style=""font-size: 40px;"">slink</p>
  <p style=""font-size: 16px;"">F = YES &nbsp;&nbsp;&nbsp; J = NO</p>
","f","html-keyboard-response","38","2.1.0","140849","F=YES, J=NO","3sgc31pv5f","2","71","73","70","","","","","","lextale","true","false","","","","","","","",""
"703","
  <p style=""font-size: 40px;"">clever</p>
  <p style=""font-size: 16px;"">F = YES &nbsp;&nbsp;&nbsp; J = NO</p>
","f","html-keyboard-response","39","2.1.0","141554","F=YES, J=NO","3sgc31pv5f","2","71","73","70","","","","","","lextale","true","false","","","","","","","",""
"961","
  <p style=""font-size: 40px;"">grum</p>
  <p style=""font-size: 16px;"">F = YES &nbsp;&nbsp;&nbsp; J = NO</p>
","f","html-keyboard-response","40","2.1.0","142517","F=YES, J=NO","3sgc31pv5f","2","71","73","70","","","","","","lextale","false","false","","","","","","","",""
"1306","
  <p style=""font-size: 40px;"">string</p>
  <p style=""font-size: 16px;"">F = YES &nbsp;&nbsp;&nbsp; J = NO</p>
","f","html-keyboard-response","41","2.1.0","143824","F=YES, J=NO","3sgc31pv5f","2","71","73","70","","","","","","lextale","true","false","","","","","","","",""
"1998","
  <p style=""font-size: 40px;"">plim</p>
  <p style=""font-size: 16px;"">F = YES &nbsp;&nbsp;&nbsp; J = NO</p>
","f","html-keyboard-response","42","2.1.0","145825","F=YES, J=NO","3sgc31pv5f","2","71","73","70","","","","","","lextale","false","false","","","","","","","",""
"693","
  <p style=""font-size: 40px;"">cable</p>
  <p style=""font-size: 16px;"">F = YES &nbsp;&nbsp;&nbsp; J = NO</p>
","f","html-keyboard-response","43","2.1.0","146520","F=YES, J=NO","3sgc31pv5f","2","71","73","70","","","","","","lextale","true","false","","","","","","","",""
"720","
  <p style=""font-size: 40px;"">shrivel</p>
  <p style=""font-size: 16px;"">F = YES &nbsp;&nbsp;&nbsp; J = NO</p>
","j","html-keyboard-response","44","2.1.0","147242","F=YES, J=NO","3sgc31pv5f","2","71","73","70","","","","","","lextale","true","false","","","","","","","",""
"1046","
  <p style=""font-size: 40px;"">tarnish</p>
  <p style=""font-size: 16px;"">F = YES &nbsp;&nbsp;&nbsp; J = NO</p>
","f","html-keyboard-response","45","2.1.0","148289","F=YES, J=NO","3sgc31pv5f","2","71","73","70","","","","","","lextale","true","false","","","","","","","",""
"1006","
  <p style=""font-size: 40px;"">blim</p>
  <p style=""font-size: 16px;"">F = YES &nbsp;&nbsp;&nbsp; J = NO</p>
","j","html-keyboard-response","46","2.1.0","149295","F=YES, J=NO","3sgc31pv5f","2","71","73","70","","","","","","lextale","false","false","","","","","","","",""
"1057","
  <p style=""font-size: 40px;"">stifle</p>
  <p style=""font-size: 16px;"">F = YES &nbsp;&nbsp;&nbsp; J = NO</p>
","j","html-keyboard-response","47","2.1.0","150354","F=YES, J=NO","3sgc31pv5f","2","71","73","70","","","","","","lextale","true","false","","","","","","","",""
"836","
  <p style=""font-size: 40px;"">bint</p>
  <p style=""font-size: 16px;"">F = YES &nbsp;&nbsp;&nbsp; J = NO</p>
","j","html-keyboard-response","48","2.1.0","151193","F=YES, J=NO","3sgc31pv5f","2","71","73","70","","","","","","lextale","false","false","","","","","","","",""
"593","
  <p style=""font-size: 40px;"">purple</p>
  <p style=""font-size: 16px;"">F = YES &nbsp;&nbsp;&nbsp; J = NO</p>
","f","html-keyboard-response","49","2.1.0","151788","F=YES, J=NO","3sgc31pv5f","2","71","73","70","","","","","","lextale","true","false","","","","","","","",""
"807","
  <p style=""font-size: 40px;"">wriggle</p>
  <p style=""font-size: 16px;"">F = YES &nbsp;&nbsp;&nbsp; J = NO</p>
","f","html-keyboard-response","50","2.1.0","152596","F=YES, J=NO","3sgc31pv5f","2","71","73","70","","","","","","lextale","true","false","","","","","","","",""
"1567","
  <p style=""font-size: 40px;"">mangle</p>
  <p style=""font-size: 16px;"">F = YES &nbsp;&nbsp;&nbsp; J = NO</p>
","f","html-keyboard-response","51","2.1.0","154165","F=YES, J=NO","3sgc31pv5f","2","71","73","70","","","","","","lextale","true","false","","","","","","","",""
"1089","
  <p style=""font-size: 40px;"">shramp</p>
  <p style=""font-size: 16px;"">F = YES &nbsp;&nbsp;&nbsp; J = NO</p>
","f","html-keyboard-response","52","2.1.0","155256","F=YES, J=NO","3sgc31pv5f","2","71","73","70","","","","","","lextale","false","false","","","","","","","",""
"768","
  <p style=""font-size: 40px;"">flirt</p>
  <p style=""font-size: 16px;"">F = YES &nbsp;&nbsp;&nbsp; J = NO</p>
","f","html-keyboard-response","53","2.1.0","156026","F=YES, J=NO","3sgc31pv5f","2","71","73","70","","","","","","lextale","true","false","","","","","","","",""
"877","
  <p style=""font-size: 40px;"">frip</p>
  <p style=""font-size: 16px;"">F = YES &nbsp;&nbsp;&nbsp; J = NO</p>
","j","html-keyboard-response","54","2.1.0","156905","F=YES, J=NO","3sgc31pv5f","2","71","73","70","","","","","","lextale","false","false","","","","","","","",""
"967","
  <p style=""font-size: 40px;"">tangle</p>
  <p style=""font-size: 16px;"">F = YES &nbsp;&nbsp;&nbsp; J = NO</p>
","f","html-keyboard-response","55","2.1.0","157875","F=YES, J=NO","3sgc31pv5f","2","71","73","70","","","","","","lextale","true","false","","","","","","","",""
"905","
  <p style=""font-size: 40px;"">crumble</p>
  <p style=""font-size: 16px;"">F = YES &nbsp;&nbsp;&nbsp; J = NO</p>
","f","html-keyboard-response","56","2.1.0","158783","F=YES, J=NO","3sgc31pv5f","2","71","73","70","","","","","","lextale","true","false","","","","","","","",""
"696","
  <p style=""font-size: 40px;"">wrinkle</p>
  <p style=""font-size: 16px;"">F = YES &nbsp;&nbsp;&nbsp; J = NO</p>
","f","html-keyboard-response","57","2.1.0","159480","F=YES, J=NO","3sgc31pv5f","2","71","73","70","","","","","","lextale","true","false","","","","","","","",""
"1052","
  <p style=""font-size: 40px;"">slumb</p>
  <p style=""font-size: 16px;"">F = YES &nbsp;&nbsp;&nbsp; J = NO</p>
","j","html-keyboard-response","58","2.1.0","160535","F=YES, J=NO","3sgc31pv5f","2","71","73","70","","","","","","lextale","false","false","","","","","","","",""
"1759","
  <p style=""font-size: 40px;"">jungle</p>
  <p style=""font-size: 16px;"">F = YES &nbsp;&nbsp;&nbsp; J = NO</p>
","f","html-keyboard-response","59","2.1.0","162296","F=YES, J=NO","3sgc31pv5f","2","71","73","70","","","","","","lextale","true","false","","","","","","","",""
"784","
  <p style=""font-size: 40px;"">frolick</p>
  <p style=""font-size: 16px;"">F = YES &nbsp;&nbsp;&nbsp; J = NO</p>
","j","html-keyboard-response","60","2.1.0","163082","F=YES, J=NO","3sgc31pv5f","2","71","73","70","","","","","","lextale","false","false","","","","","","","",""
"3475","
      <h2>LexTALE Test Completed</h2>
      <p>Your LexTALE vocabulary score is: <strong>71%</strong></p>
      <p>Press any key to continue.</p>
    "," ","html-keyboard-response","61","2.1.0","166561","F=YES, J=NO","3sgc31pv5f","2","71","73","70","","","","","","","","","","","","","","","",""
"3330","
    <div style=""max-width: 800px; margin: auto; text-align: left;"">
      <h2>Break Time</h2>
      <p>You have completed the first part of the study.</p>
      <p>You may take a short <strong>30-second break</strong> before continuing.</p>
      <p>When you’re ready, press any key to continue to the final task.</p>
    </div>
  "," ","html-keyboard-response","62","2.1.0","169894","F=YES, J=NO","3sgc31pv5f","2","71","73","70","","","","","","","","","","","","","","","",""
"20760","
    <div style=""max-width: 800px; margin: auto; text-align: left;"">
      <h2>Part 2: Lexical Decision Task</h2>
      <p>You will now begin the second part of the study.</p>
      <p>Each trial will follow this sequence:</p>
      <ul>
        <li>A fixation cross (+) appears at the center of the screen.</li>
        <li>You will hear a short beep followed by a spoken word.</li>
        <li>A written word will appear briefly on the screen.</li>
      </ul>
      <p>Your task is to judge whether the <strong>written word</strong> is a real English word.</p>
      <p style=""margin-top: 1em;""><strong>Key responses:</strong></p>
      <ul>
        <li><strong>F</strong> = YES (real English word)</li>
        <li><strong>J</strong> = NO (not a real English word)</li>
      </ul>
      <p>Please respond as quickly and accurately as you can.</p>
      <p style=""margin-top: 2em;"">Press any key to continue.</p>
    </div>
  "," ","html-keyboard-response","63","2.1.0","190655","F=YES, J=NO","3sgc31pv5f","2","71","73","70","","","","","","","","","","","","","","","",""
"3817","
    <div style=""max-width: 800px; margin: auto; text-align: left;"">
      <h2>Before You Begin</h2>
      <p>Make sure your sound is turned on.</p>
      <p>You will hear audio during each trial, but your decision should be based only on the <strong>written word</strong> you see on the screen.</p>
      <p><strong>Reminder:</strong></p>
      <ul>
        <li><strong>F</strong> = YES (real English word)</li>
        <li><strong>J</strong> = NO (not a real English word)</li>
      </ul>
      <p style=""margin-top: 2em;"">Press any key when you are ready to begin.</p>
    </div>
  "," ","html-keyboard-response","64","2.1.0","194474","F=YES, J=NO","3sgc31pv5f","2","71","73","70","","","","","","","","","","","","","","","",""
"6030","
    <div style=""max-width: 800px; margin: auto; text-align: left;"">
      <h2>Part 2: Practice Trials</h2>
      <p>You will now complete a few <strong>practice trials</strong> to get familiar with the task.</p>
      <p>These trials are <strong>not scored</strong> and are only to help you get used to the format.</p>
      <p style=""margin-top: 2em;"">Press any key to begin.</p>
    </div>
  "," ","html-keyboard-response","65","2.1.0","200506","F=YES, J=NO","3sgc31pv5f","2","71","73","70","","","","","","","","","","","","","","","",""
"2408","<p>Starting practice block 1 of 2. Press any key to continue.</p>"," ","html-keyboard-response","66","2.1.0","202916","F=YES, J=NO","3sgc31pv5f","2","71","73","70","","","","","","","","","","","","","","","",""
"null","<p style=""font-size: 50px;"">+</p>","null","html-keyboard-response","67","2.1.0","203233","F=YES, J=NO","3sgc31pv5f","2","71","73","70","","","","","","","","","","","","","","","",""
"null","audio/beep-329314.mp3","null","audio-keyboard-response","68","2.1.0","204782","F=YES, J=NO","3sgc31pv5f","2","71","73","70","","","","","","","","","","","","","","","",""
"null","audio/gossip1.wav","null","audio-keyboard-response","69","2.1.0","205404","F=YES, J=NO","3sgc31pv5f","2","71","73","70","","","","","","","","","","","","","","","",""
"1033","
          <p id=""word"" style=""font-size: 40px;"">camerish</p>
          <p style=""font-size: 16px;"">F = YES &nbsp;&nbsp;&nbsp; J = NO</p>
        ","j","html-keyboard-response","70","2.1.0","206440","F=YES, J=NO","3sgc31pv5f","2","71","73","70","","","","","","","","","camerish","gossip1","pseudoword","pseudoword","j","true","",""
"null","<p style=""font-size: 50px;"">+</p>","null","html-keyboard-response","71","2.1.0","206749","F=YES, J=NO","3sgc31pv5f","2","71","73","70","","","","","","","","","","","","","","","",""
"null","audio/beep-329314.mp3","null","audio-keyboard-response","72","2.1.0","208286","F=YES, J=NO","3sgc31pv5f","2","71","73","70","","","","","","","","","","","","","","","",""
"null","audio/truth1.wav","null","audio-keyboard-response","73","2.1.0","208845","F=YES, J=NO","3sgc31pv5f","2","71","73","70","","","","","","","","","","","","","","","",""
"535","
          <p id=""word"" style=""font-size: 40px;"">calitom</p>
          <p style=""font-size: 16px;"">F = YES &nbsp;&nbsp;&nbsp; J = NO</p>
        ","j","html-keyboard-response","74","2.1.0","209383","F=YES, J=NO","3sgc31pv5f","2","71","73","70","","","","","","","","","calitom","truth1","pseudoword","pseudoword","j","true","",""
"null","<p style=""font-size: 50px;"">+</p>","null","html-keyboard-response","75","2.1.0","209695","F=YES, J=NO","3sgc31pv5f","2","71","73","70","","","","","","","","","","","","","","","",""
"null","audio/beep-329314.mp3","null","audio-keyboard-response","76","2.1.0","211225","F=YES, J=NO","3sgc31pv5f","2","71","73","70","","","","","","","","","","","","","","","",""
"null","audio/cancer1.wav","null","audio-keyboard-response","77","2.1.0","211822","F=YES, J=NO","3sgc31pv5f","2","71","73","70","","","","","","","","","","","","","","","",""
"585","
          <p id=""word"" style=""font-size: 40px;"">draw</p>
          <p style=""font-size: 16px;"">F = YES &nbsp;&nbsp;&nbsp; J = NO</p>
        ","f","html-keyboard-response","78","2.1.0","212408","F=YES, J=NO","3sgc31pv5f","2","71","73","70","","","","","","","","","draw","cancer1","filler","filler","f","true","",""
"null","<p style=""font-size: 50px;"">+</p>","null","html-keyboard-response","79","2.1.0","212720","F=YES, J=NO","3sgc31pv5f","2","71","73","70","","","","","","","","","","","","","","","",""
"null","audio/beep-329314.mp3","null","audio-keyboard-response","80","2.1.0","214242","F=YES, J=NO","3sgc31pv5f","2","71","73","70","","","","","","","","","","","","","","","",""
"null","audio/baby.wav","null","audio-keyboard-response","81","2.1.0","214743","F=YES, J=NO","3sgc31pv5f","2","71","73","70","","","","","","","","","","","","","","","",""
"775","
          <p id=""word"" style=""font-size: 40px;"">lift</p>
          <p style=""font-size: 16px;"">F = YES &nbsp;&nbsp;&nbsp; J = NO</p>
        ","f","html-keyboard-response","82","2.1.0","215519","F=YES, J=NO","3sgc31pv5f","2","71","73","70","","","","","","","","","lift","baby","filler","filler","f","true","",""
"null","<p style=""font-size: 50px;"">+</p>","null","html-keyboard-response","83","2.1.0","215828","F=YES, J=NO","3sgc31pv5f","2","71","73","70","","","","","","","","","","","","","","","",""
"null","audio/beep-329314.mp3","null","audio-keyboard-response","84","2.1.0","217361","F=YES, J=NO","3sgc31pv5f","2","71","73","70","","","","","","","","","","","","","","","",""
"null","audio/alarm1.wav","null","audio-keyboard-response","85","2.1.0","217942","F=YES, J=NO","3sgc31pv5f","2","71","73","70","","","","","","","","","","","","","","","",""
"481","
          <p id=""word"" style=""font-size: 40px;"">lock</p>
          <p style=""font-size: 16px;"">F = YES &nbsp;&nbsp;&nbsp; J = NO</p>
        ","f","html-keyboard-response","86","2.1.0","218424","F=YES, J=NO","3sgc31pv5f","2","71","73","70","","","","","","","","","lock","alarm1","filler","filler","f","true","",""
"null","<p style=""font-size: 50px;"">+</p>","null","html-keyboard-response","87","2.1.0","218727","F=YES, J=NO","3sgc31pv5f","2","71","73","70","","","","","","","","","","","","","","","",""
"null","audio/beep-329314.mp3","null","audio-keyboard-response","88","2.1.0","220265","F=YES, J=NO","3sgc31pv5f","2","71","73","70","","","","","","","","","","","","","","","",""
"null","audio/vehicle1.wav","null","audio-keyboard-response","89","2.1.0","220905","F=YES, J=NO","3sgc31pv5f","2","71","73","70","","","","","","","","","","","","","","","",""
"528","
          <p id=""word"" style=""font-size: 40px;"">dropt</p>
          <p style=""font-size: 16px;"">F = YES &nbsp;&nbsp;&nbsp; J = NO</p>
        ","j","html-keyboard-response","90","2.1.0","221434","F=YES, J=NO","3sgc31pv5f","2","71","73","70","","","","","","","","","dropt","vehicle1","pseudoword","pseudoword","j","true","",""
"null","<p style=""font-size: 50px;"">+</p>","null","html-keyboard-response","91","2.1.0","221746","F=YES, J=NO","3sgc31pv5f","2","71","73","70","","","","","","","","","","","","","","","",""
"null","audio/beep-329314.mp3","null","audio-keyboard-response","92","2.1.0","223285","F=YES, J=NO","3sgc31pv5f","2","71","73","70","","","","","","","","","","","","","","","",""
"null","audio/age1.wav","null","audio-keyboard-response","93","2.1.0","223984","F=YES, J=NO","3sgc31pv5f","2","71","73","70","","","","","","","","","","","","","","","",""
"522","
          <p id=""word"" style=""font-size: 40px;"">bake</p>
          <p style=""font-size: 16px;"">F = YES &nbsp;&nbsp;&nbsp; J = NO</p>
        ","f","html-keyboard-response","94","2.1.0","224509","F=YES, J=NO","3sgc31pv5f","2","71","73","70","","","","","","","","","bake","age1","filler","filler","f","true","",""
"null","<p style=""font-size: 50px;"">+</p>","null","html-keyboard-response","95","2.1.0","224816","F=YES, J=NO","3sgc31pv5f","2","71","73","70","","","","","","","","","","","","","","","",""
"null","audio/beep-329314.mp3","null","audio-keyboard-response","96","2.1.0","226345","F=YES, J=NO","3sgc31pv5f","2","71","73","70","","","","","","","","","","","","","","","",""
"null","audio/stain.wav","null","audio-keyboard-response","97","2.1.0","227024","F=YES, J=NO","3sgc31pv5f","2","71","73","70","","","","","","","","","","","","","","","",""
"640","
          <p id=""word"" style=""font-size: 40px;"">rumpsied</p>
          <p style=""font-size: 16px;"">F = YES &nbsp;&nbsp;&nbsp; J = NO</p>
        ","j","html-keyboard-response","98","2.1.0","227667","F=YES, J=NO","3sgc31pv5f","2","71","73","70","","","","","","","","","rumpsied","stain","pseudoword","pseudoword","j","true","",""
"null","<p style=""font-size: 50px;"">+</p>","null","html-keyboard-response","99","2.1.0","227983","F=YES, J=NO","3sgc31pv5f","2","71","73","70","","","","","","","","","","","","","","","",""
"null","audio/beep-329314.mp3","null","audio-keyboard-response","100","2.1.0","229525","F=YES, J=NO","3sgc31pv5f","2","71","73","70","","","","","","","","","","","","","","","",""
"null","audio/dome.wav","null","audio-keyboard-response","101","2.1.0","229943","F=YES, J=NO","3sgc31pv5f","2","71","73","70","","","","","","","","","","","","","","","",""
"792","
          <p id=""word"" style=""font-size: 40px;"">scrupliness</p>
          <p style=""font-size: 16px;"">F = YES &nbsp;&nbsp;&nbsp; J = NO</p>
        ","f","html-keyboard-response","102","2.1.0","230737","F=YES, J=NO","3sgc31pv5f","2","71","73","70","","","","","","","","","scrupliness","dome","pseudoword","pseudoword","j","false","",""
"null","<p style=""font-size: 50px;"">+</p>","null","html-keyboard-response","103","2.1.0","231051","F=YES, J=NO","3sgc31pv5f","2","71","73","70","","","","","","","","","","","","","","","",""
"null","audio/beep-329314.mp3","null","audio-keyboard-response","104","2.1.0","232586","F=YES, J=NO","3sgc31pv5f","2","71","73","70","","","","","","","","","","","","","","","",""
"null","audio/flaw.wav","null","audio-keyboard-response","105","2.1.0","233245","F=YES, J=NO","3sgc31pv5f","2","71","73","70","","","","","","","","","","","","","","","",""
"655","
          <p id=""word"" style=""font-size: 40px;"">thwool</p>
          <p style=""font-size: 16px;"">F = YES &nbsp;&nbsp;&nbsp; J = NO</p>
        ","f","html-keyboard-response","106","2.1.0","233903","F=YES, J=NO","3sgc31pv5f","2","71","73","70","","","","","","","","","thwool","flaw","pseudoword","pseudoword","j","false","",""
"null","<p style=""font-size: 50px;"">+</p>","null","html-keyboard-response","107","2.1.0","234216","F=YES, J=NO","3sgc31pv5f","2","71","73","70","","","","","","","","","","","","","","","",""
"null","audio/beep-329314.mp3","null","audio-keyboard-response","108","2.1.0","235745","F=YES, J=NO","3sgc31pv5f","2","71","73","70","","","","","","","","","","","","","","","",""
"null","audio/weight1.wav","null","audio-keyboard-response","109","2.1.0","236305","F=YES, J=NO","3sgc31pv5f","2","71","73","70","","","","","","","","","","","","","","","",""
"669","
          <p id=""word"" style=""font-size: 40px;"">crimsh</p>
          <p style=""font-size: 16px;"">F = YES &nbsp;&nbsp;&nbsp; J = NO</p>
        ","f","html-keyboard-response","110","2.1.0","236976","F=YES, J=NO","3sgc31pv5f","2","71","73","70","","","","","","","","","crimsh","weight1","pseudoword","pseudoword","j","false","",""
"null","<p style=""font-size: 50px;"">+</p>","null","html-keyboard-response","111","2.1.0","237284","F=YES, J=NO","3sgc31pv5f","2","71","73","70","","","","","","","","","","","","","","","",""
"null","audio/beep-329314.mp3","null","audio-keyboard-response","112","2.1.0","238826","F=YES, J=NO","3sgc31pv5f","2","71","73","70","","","","","","","","","","","","","","","",""
"null","audio/bottle.wav","null","audio-keyboard-response","113","2.1.0","239343","F=YES, J=NO","3sgc31pv5f","2","71","73","70","","","","","","","","","","","","","","","",""
"540","
          <p id=""word"" style=""font-size: 40px;"">watch</p>
          <p style=""font-size: 16px;"">F = YES &nbsp;&nbsp;&nbsp; J = NO</p>
        ","f","html-keyboard-response","114","2.1.0","239884","F=YES, J=NO","3sgc31pv5f","2","71","73","70","","","","","","","","","watch","bottle","filler","filler","f","true","",""
"4751","<p>Starting practice block 2 of 2. Press any key to continue.</p>"," ","html-keyboard-response","115","2.1.0","244637","F=YES, J=NO","3sgc31pv5f","2","71","73","70","","","","","","","","","","","","","","","",""
"null","<p style=""font-size: 50px;"">+</p>","null","html-keyboard-response","116","2.1.0","244947","F=YES, J=NO","3sgc31pv5f","2","71","73","70","","","","","","","","","","","","","","","",""
"null","audio/beep-329314.mp3","null","audio-keyboard-response","117","2.1.0","246485","F=YES, J=NO","3sgc31pv5f","2","71","73","70","","","","","","","","","","","","","","","",""
"null","audio/bishop1.wav","null","audio-keyboard-response","118","2.1.0","247225","F=YES, J=NO","3sgc31pv5f","2","71","73","70","","","","","","","","","","","","","","","",""
"381","
          <p id=""word"" style=""font-size: 40px;"">play</p>
          <p style=""font-size: 16px;"">F = YES &nbsp;&nbsp;&nbsp; J = NO</p>
        ","f","html-keyboard-response","119","2.1.0","247607","F=YES, J=NO","3sgc31pv5f","2","71","73","70","","","","","","","","","play","bishop1","filler","filler","f","true","",""
"null","<p style=""font-size: 50px;"">+</p>","null","html-keyboard-response","120","2.1.0","247916","F=YES, J=NO","3sgc31pv5f","2","71","73","70","","","","","","","","","","","","","","","",""
"null","audio/beep-329314.mp3","null","audio-keyboard-response","121","2.1.0","249444","F=YES, J=NO","3sgc31pv5f","2","71","73","70","","","","","","","","","","","","","","","",""
"null","audio/brain.wav","null","audio-keyboard-response","122","2.1.0","250084","F=YES, J=NO","3sgc31pv5f","2","71","73","70","","","","","","","","","","","","","","","",""
"444","
          <p id=""word"" style=""font-size: 40px;"">throw</p>
          <p style=""font-size: 16px;"">F = YES &nbsp;&nbsp;&nbsp; J = NO</p>
        ","f","html-keyboard-response","123","2.1.0","250531","F=YES, J=NO","3sgc31pv5f","2","71","73","70","","","","","","","","","throw","brain","filler","filler","f","true","",""
"null","<p style=""font-size: 50px;"">+</p>","null","html-keyboard-response","124","2.1.0","250848","F=YES, J=NO","3sgc31pv5f","2","71","73","70","","","","","","","","","","","","","","","",""
"null","audio/beep-329314.mp3","null","audio-keyboard-response","125","2.1.0","252386","F=YES, J=NO","3sgc31pv5f","2","71","73","70","","","","","","","","","","","","","","","",""
"null","audio/effort.wav","null","audio-keyboard-response","126","2.1.0","253004","F=YES, J=NO","3sgc31pv5f","2","71","73","70","","","","","","","","","","","","","","","",""
"633","
          <p id=""word"" style=""font-size: 40px;"">whonk</p>
          <p style=""font-size: 16px;"">F = YES &nbsp;&nbsp;&nbsp; J = NO</p>
        ","f","html-keyboard-response","127","2.1.0","253639","F=YES, J=NO","3sgc31pv5f","2","71","73","70","","","","","","","","","whonk","effort","pseudoword","pseudoword","j","false","",""
"null","<p style=""font-size: 50px;"">+</p>","null","html-keyboard-response","128","2.1.0","253951","F=YES, J=NO","3sgc31pv5f","2","71","73","70","","","","","","","","","","","","","","","",""
"null","audio/beep-329314.mp3","null","audio-keyboard-response","129","2.1.0","255486","F=YES, J=NO","3sgc31pv5f","2","71","73","70","","","","","","","","","","","","","","","",""
"null","audio/cash1.wav","null","audio-keyboard-response","130","2.1.0","256085","F=YES, J=NO","3sgc31pv5f","2","71","73","70","","","","","","","","","","","","","","","",""
"579","
          <p id=""word"" style=""font-size: 40px;"">splear</p>
          <p style=""font-size: 16px;"">F = YES &nbsp;&nbsp;&nbsp; J = NO</p>
        ","j","html-keyboard-response","131","2.1.0","256666","F=YES, J=NO","3sgc31pv5f","2","71","73","70","","","","","","","","","splear","cash1","pseudoword","pseudoword","j","true","",""
"null","<p style=""font-size: 50px;"">+</p>","null","html-keyboard-response","132","2.1.0","256977","F=YES, J=NO","3sgc31pv5f","2","71","73","70","","","","","","","","","","","","","","","",""
"null","audio/beep-329314.mp3","null","audio-keyboard-response","133","2.1.0","258505","F=YES, J=NO","3sgc31pv5f","2","71","73","70","","","","","","","","","","","","","","","",""
"null","audio/table1.wav","null","audio-keyboard-response","134","2.1.0","259145","F=YES, J=NO","3sgc31pv5f","2","71","73","70","","","","","","","","","","","","","","","",""
"443","
          <p id=""word"" style=""font-size: 40px;"">stimb</p>
          <p style=""font-size: 16px;"">F = YES &nbsp;&nbsp;&nbsp; J = NO</p>
        ","f","html-keyboard-response","135","2.1.0","259590","F=YES, J=NO","3sgc31pv5f","2","71","73","70","","","","","","","","","stimb","table1","pseudoword","pseudoword","j","false","",""
"null","<p style=""font-size: 50px;"">+</p>","null","html-keyboard-response","136","2.1.0","259902","F=YES, J=NO","3sgc31pv5f","2","71","73","70","","","","","","","","","","","","","","","",""
"null","audio/beep-329314.mp3","null","audio-keyboard-response","137","2.1.0","261445","F=YES, J=NO","3sgc31pv5f","2","71","73","70","","","","","","","","","","","","","","","",""
"null","audio/sand.wav","null","audio-keyboard-response","138","2.1.0","262123","F=YES, J=NO","3sgc31pv5f","2","71","73","70","","","","","","","","","","","","","","","",""
"470","
          <p id=""word"" style=""font-size: 40px;"">proted</p>
          <p style=""font-size: 16px;"">F = YES &nbsp;&nbsp;&nbsp; J = NO</p>
        ","f","html-keyboard-response","139","2.1.0","262594","F=YES, J=NO","3sgc31pv5f","2","71","73","70","","","","","","","","","proted","sand","pseudoword","pseudoword","j","false","",""
"null","<p style=""font-size: 50px;"">+</p>","null","html-keyboard-response","140","2.1.0","262897","F=YES, J=NO","3sgc31pv5f","2","71","73","70","","","","","","","","","","","","","","","",""
"null","audio/beep-329314.mp3","null","audio-keyboard-response","141","2.1.0","264423","F=YES, J=NO","3sgc31pv5f","2","71","73","70","","","","","","","","","","","","","","","",""
"null","audio/floor.wav","null","audio-keyboard-response","142","2.1.0","265124","F=YES, J=NO","3sgc31pv5f","2","71","73","70","","","","","","","","","","","","","","","",""
"673","
          <p id=""word"" style=""font-size: 40px;"">mop</p>
          <p style=""font-size: 16px;"">F = YES &nbsp;&nbsp;&nbsp; J = NO</p>
        ","f","html-keyboard-response","143","2.1.0","265800","F=YES, J=NO","3sgc31pv5f","2","71","73","70","","","","","","","","","mop","floor","filler","filler","f","true","",""
"null","<p style=""font-size: 50px;"">+</p>","null","html-keyboard-response","144","2.1.0","266116","F=YES, J=NO","3sgc31pv5f","2","71","73","70","","","","","","","","","","","","","","","",""
"null","audio/beep-329314.mp3","null","audio-keyboard-response","145","2.1.0","267642","F=YES, J=NO","3sgc31pv5f","2","71","73","70","","","","","","","","","","","","","","","",""
"null","audio/kettle1.wav","null","audio-keyboard-response","146","2.1.0","268265","F=YES, J=NO","3sgc31pv5f","2","71","73","70","","","","","","","","","","","","","","","",""
"529","
          <p id=""word"" style=""font-size: 40px;"">wrap</p>
          <p style=""font-size: 16px;"">F = YES &nbsp;&nbsp;&nbsp; J = NO</p>
        ","f","html-keyboard-response","147","2.1.0","268796","F=YES, J=NO","3sgc31pv5f","2","71","73","70","","","","","","","","","wrap","kettle1","filler","filler","f","true","",""
"null","<p style=""font-size: 50px;"">+</p>","null","html-keyboard-response","148","2.1.0","269112","F=YES, J=NO","3sgc31pv5f","2","71","73","70","","","","","","","","","","","","","","","",""
"null","audio/beep-329314.mp3","null","audio-keyboard-response","149","2.1.0","270644","F=YES, J=NO","3sgc31pv5f","2","71","73","70","","","","","","","","","","","","","","","",""
"null","audio/ankle1.wav","null","audio-keyboard-response","150","2.1.0","271224","F=YES, J=NO","3sgc31pv5f","2","71","73","70","","","","","","","","","","","","","","","",""
"486","
          <p id=""word"" style=""font-size: 40px;"">kick</p>
          <p style=""font-size: 16px;"">F = YES &nbsp;&nbsp;&nbsp; J = NO</p>
        ","f","html-keyboard-response","151","2.1.0","271713","F=YES, J=NO","3sgc31pv5f","2","71","73","70","","","","","","","","","kick","ankle1","filler","filler","f","true","",""
"null","<p style=""font-size: 50px;"">+</p>","null","html-keyboard-response","152","2.1.0","272020","F=YES, J=NO","3sgc31pv5f","2","71","73","70","","","","","","","","","","","","","","","",""
"null","audio/beep-329314.mp3","null","audio-keyboard-response","153","2.1.0","273545","F=YES, J=NO","3sgc31pv5f","2","71","73","70","","","","","","","","","","","","","","","",""
"null","audio/handle.wav","null","audio-keyboard-response","154","2.1.0","274185","F=YES, J=NO","3sgc31pv5f","2","71","73","70","","","","","","","","","","","","","","","",""
"629","
          <p id=""word"" style=""font-size: 40px;"">moutes</p>
          <p style=""font-size: 16px;"">F = YES &nbsp;&nbsp;&nbsp; J = NO</p>
        ","j","html-keyboard-response","155","2.1.0","274816","F=YES, J=NO","3sgc31pv5f","2","71","73","70","","","","","","","","","moutes","handle","pseudoword","pseudoword","j","true","",""
"null","<p style=""font-size: 50px;"">+</p>","null","html-keyboard-response","156","2.1.0","275130","F=YES, J=NO","3sgc31pv5f","2","71","73","70","","","","","","","","","","","","","","","",""
"null","audio/beep-329314.mp3","null","audio-keyboard-response","157","2.1.0","276666","F=YES, J=NO","3sgc31pv5f","2","71","73","70","","","","","","","","","","","","","","","",""
"null","audio/birth1.wav","null","audio-keyboard-response","158","2.1.0","277262","F=YES, J=NO","3sgc31pv5f","2","71","73","70","","","","","","","","","","","","","","","",""
"614","
          <p id=""word"" style=""font-size: 40px;"">peel</p>
          <p style=""font-size: 16px;"">F = YES &nbsp;&nbsp;&nbsp; J = NO</p>
        ","f","html-keyboard-response","159","2.1.0","277876","F=YES, J=NO","3sgc31pv5f","2","71","73","70","","","","","","","","","peel","birth1","filler","filler","f","true","",""
"null","<p style=""font-size: 50px;"">+</p>","null","html-keyboard-response","160","2.1.0","278181","F=YES, J=NO","3sgc31pv5f","2","71","73","70","","","","","","","","","","","","","","","",""
"null","audio/beep-329314.mp3","null","audio-keyboard-response","161","2.1.0","279725","F=YES, J=NO","3sgc31pv5f","2","71","73","70","","","","","","","","","","","","","","","",""
"null","audio/belief.wav","null","audio-keyboard-response","162","2.1.0","280401","F=YES, J=NO","3sgc31pv5f","2","71","73","70","","","","","","","","","","","","","","","",""
"475","
          <p id=""word"" style=""font-size: 40px;"">read</p>
          <p style=""font-size: 16px;"">F = YES &nbsp;&nbsp;&nbsp; J = NO</p>
        ","f","html-keyboard-response","163","2.1.0","280877","F=YES, J=NO","3sgc31pv5f","2","71","73","70","","","","","","","","","read","belief","filler","filler","f","true","",""
"23074","
    <div style=""max-width: 800px; margin: auto; text-align: left;"">
      <h2>Part 2: Main Trials</h2>
      <p>Great job on the practice trials!</p>
      <p>You will now begin the <strong>main set of trials</strong>.</p>
      <p>Remember your key assignments:</p>
      <ul>
        <li><strong>F</strong> = YES (real English word)</li>
        <li><strong>J</strong> = NO (not a real English word)</li>
      </ul>
      <p>Try to respond as <strong>quickly and accurately</strong> as possible.</p>
      <p style=""margin-top: 2em;"">Press any key to begin the main trials.</p>
    </div>
  "," ","html-keyboard-response","164","2.1.0","303953","F=YES, J=NO","3sgc31pv5f","2","71","73","70","","","","","","","","","","","","","","","",""
"1730","<p>Starting main block 1 of 8. Press any key to continue.</p>"," ","html-keyboard-response","165","2.1.0","305685","F=YES, J=NO","3sgc31pv5f","2","71","73","70","","","","","","","","","","","","","","","",""
"null","<p style=""font-size: 50px;"">+</p>","null","html-keyboard-response","166","2.1.0","305992","F=YES, J=NO","3sgc31pv5f","2","71","73","70","","","","","","","","","","","","","","","",""
"null","audio/beep-329314.mp3","null","audio-keyboard-response","167","2.1.0","308326","F=YES, J=NO","3sgc31pv5f","2","71","73","70","","","","","","","","","","","","","","","",""
"null","audio/trout1.wav","null","audio-keyboard-response","168","2.1.0","308917","F=YES, J=NO","3sgc31pv5f","2","71","73","70","","","","","","","","","","","","","","","",""
"382","
          <p id=""word"" style=""font-size: 40px;"">catch</p>
          <p style=""font-size: 16px;"">F = YES &nbsp;&nbsp;&nbsp; J = NO</p>
        ","f","html-keyboard-response","169","2.1.0","309302","F=YES, J=NO","3sgc31pv5f","2","71","73","70","","","","","","","","","catch","trout1","literal","experimental","f","true","",""
"null","<p style=""font-size: 50px;"">+</p>","null","html-keyboard-response","170","2.1.0","309611","F=YES, J=NO","3sgc31pv5f","2","71","73","70","","","","","","","","","","","","","","","",""
"null","audio/beep-329314.mp3","null","audio-keyboard-response","171","2.1.0","311148","F=YES, J=NO","3sgc31pv5f","2","71","73","70","","","","","","","","","","","","","","","",""
"null","audio/tax1.wav","null","audio-keyboard-response","172","2.1.0","311757","F=YES, J=NO","3sgc31pv5f","2","71","73","70","","","","","","","","","","","","","","","",""
"341","
          <p id=""word"" style=""font-size: 40px;"">snate</p>
          <p style=""font-size: 16px;"">F = YES &nbsp;&nbsp;&nbsp; J = NO</p>
        ","f","html-keyboard-response","173","2.1.0","312100","F=YES, J=NO","3sgc31pv5f","2","71","73","70","","","","","","","","","snate","tax1","pseudoword","pseudoword","j","false","",""
"null","<p style=""font-size: 50px;"">+</p>","null","html-keyboard-response","174","2.1.0","312413","F=YES, J=NO","3sgc31pv5f","2","71","73","70","","","","","","","","","","","","","","","",""
"null","audio/beep-329314.mp3","null","audio-keyboard-response","175","2.1.0","313948","F=YES, J=NO","3sgc31pv5f","2","71","73","70","","","","","","","","","","","","","","","",""
"null","audio/client1.wav","null","audio-keyboard-response","176","2.1.0","314675","F=YES, J=NO","3sgc31pv5f","2","71","73","70","","","","","","","","","","","","","","","",""
"408","
          <p id=""word"" style=""font-size: 40px;"">land</p>
          <p style=""font-size: 16px;"">F = YES &nbsp;&nbsp;&nbsp; J = NO</p>
        ","f","html-keyboard-response","177","2.1.0","315085","F=YES, J=NO","3sgc31pv5f","2","71","73","70","","","","","","","","","land","client1","metaphor","experimental","f","true","",""
"null","<p style=""font-size: 50px;"">+</p>","null","html-keyboard-response","178","2.1.0","315402","F=YES, J=NO","3sgc31pv5f","2","71","73","70","","","","","","","","","","","","","","","",""
"null","audio/beep-329314.mp3","null","audio-keyboard-response","179","2.1.0","316928","F=YES, J=NO","3sgc31pv5f","2","71","73","70","","","","","","","","","","","","","","","",""
"null","audio/dollar.wav","null","audio-keyboard-response","180","2.1.0","317318","F=YES, J=NO","3sgc31pv5f","2","71","73","70","","","","","","","","","","","","","","","",""
"434","
          <p id=""word"" style=""font-size: 40px;"">save</p>
          <p style=""font-size: 16px;"">F = YES &nbsp;&nbsp;&nbsp; J = NO</p>
        ","f","html-keyboard-response","181","2.1.0","317754","F=YES, J=NO","3sgc31pv5f","2","71","73","70","","","","","","","","","save","dollar","literal","experimental","f","true","",""
"null","<p style=""font-size: 50px;"">+</p>","null","html-keyboard-response","182","2.1.0","318065","F=YES, J=NO","3sgc31pv5f","2","71","73","70","","","","","","","","","","","","","","","",""
"null","audio/beep-329314.mp3","null","audio-keyboard-response","183","2.1.0","319605","F=YES, J=NO","3sgc31pv5f","2","71","73","70","","","","","","","","","","","","","","","",""
"null","audio/pine.wav","null","audio-keyboard-response","184","2.1.0","320098","F=YES, J=NO","3sgc31pv5f","2","71","73","70","","","","","","","","","","","","","","","",""
"415","
          <p id=""word"" style=""font-size: 40px;"">crebble</p>
          <p style=""font-size: 16px;"">F = YES &nbsp;&nbsp;&nbsp; J = NO</p>
        ","j","html-keyboard-response","185","2.1.0","320515","F=YES, J=NO","3sgc31pv5f","2","71","73","70","","","","","","","","","crebble","pine","pseudoword","pseudoword","j","true","",""
"null","<p style=""font-size: 50px;"">+</p>","null","html-keyboard-response","186","2.1.0","320819","F=YES, J=NO","3sgc31pv5f","2","71","73","70","","","","","","","","","","","","","","","",""
"null","audio/beep-329314.mp3","null","audio-keyboard-response","187","2.1.0","322348","F=YES, J=NO","3sgc31pv5f","2","71","73","70","","","","","","","","","","","","","","","",""
"null","audio/gossip1.wav","null","audio-keyboard-response","188","2.1.0","322957","F=YES, J=NO","3sgc31pv5f","2","71","73","70","","","","","","","","","","","","","","","",""
"599","
          <p id=""word"" style=""font-size: 40px;"">wrestle</p>
          <p style=""font-size: 16px;"">F = YES &nbsp;&nbsp;&nbsp; J = NO</p>
        ","j","html-keyboard-response","189","2.1.0","323558","F=YES, J=NO","3sgc31pv5f","2","71","73","70","","","","","","","","","wrestle","gossip1","unrelated","experimental","f","false","",""
"null","<p style=""font-size: 50px;"">+</p>","null","html-keyboard-response","190","2.1.0","323874","F=YES, J=NO","3sgc31pv5f","2","71","73","70","","","","","","","","","","","","","","","",""
"null","audio/beep-329314.mp3","null","audio-keyboard-response","191","2.1.0","325408","F=YES, J=NO","3sgc31pv5f","2","71","73","70","","","","","","","","","","","","","","","",""
"null","audio/breath.wav","null","audio-keyboard-response","192","2.1.0","326017","F=YES, J=NO","3sgc31pv5f","2","71","73","70","","","","","","","","","","","","","","","",""
"422","
          <p id=""word"" style=""font-size: 40px;"">pack</p>
          <p style=""font-size: 16px;"">F = YES &nbsp;&nbsp;&nbsp; J = NO</p>
        ","f","html-keyboard-response","193","2.1.0","326442","F=YES, J=NO","3sgc31pv5f","2","71","73","70","","","","","","","","","pack","breath","filler","filler","f","true","",""
"null","<p style=""font-size: 50px;"">+</p>","null","html-keyboard-response","194","2.1.0","326749","F=YES, J=NO","3sgc31pv5f","2","71","73","70","","","","","","","","","","","","","","","",""
"null","audio/beep-329314.mp3","null","audio-keyboard-response","195","2.1.0","328285","F=YES, J=NO","3sgc31pv5f","2","71","73","70","","","","","","","","","","","","","","","",""
"null","audio/golf1.wav","null","audio-keyboard-response","196","2.1.0","328897","F=YES, J=NO","3sgc31pv5f","2","71","73","70","","","","","","","","","","","","","","","",""
"466","
          <p id=""word"" style=""font-size: 40px;"">bury</p>
          <p style=""font-size: 16px;"">F = YES &nbsp;&nbsp;&nbsp; J = NO</p>
        ","j","html-keyboard-response","197","2.1.0","329365","F=YES, J=NO","3sgc31pv5f","2","71","73","70","","","","","","","","","bury","golf1","unrelated","experimental","f","false","",""
"null","<p style=""font-size: 50px;"">+</p>","null","html-keyboard-response","198","2.1.0","329674","F=YES, J=NO","3sgc31pv5f","2","71","73","70","","","","","","","","","","","","","","","",""
"null","audio/beep-329314.mp3","null","audio-keyboard-response","199","2.1.0","331207","F=YES, J=NO","3sgc31pv5f","2","71","73","70","","","","","","","","","","","","","","","",""
"null","audio/goal.wav","null","audio-keyboard-response","200","2.1.0","331615","F=YES, J=NO","3sgc31pv5f","2","71","73","70","","","","","","","","","","","","","","","",""
"408","
          <p id=""word"" style=""font-size: 40px;"">support</p>
          <p style=""font-size: 16px;"">F = YES &nbsp;&nbsp;&nbsp; J = NO</p>
        ","f","html-keyboard-response","201","2.1.0","332025","F=YES, J=NO","3sgc31pv5f","2","71","73","70","","","","","","","","","support","goal","metaphor","experimental","f","true","",""
"null","<p style=""font-size: 50px;"">+</p>","null","html-keyboard-response","202","2.1.0","332334","F=YES, J=NO","3sgc31pv5f","2","71","73","70","","","","","","","","","","","","","","","",""
"null","audio/beep-329314.mp3","null","audio-keyboard-response","203","2.1.0","333868","F=YES, J=NO","3sgc31pv5f","2","71","73","70","","","","","","","","","","","","","","","",""
"null","audio/rain.wav","null","audio-keyboard-response","204","2.1.0","334318","F=YES, J=NO","3sgc31pv5f","2","71","73","70","","","","","","","","","","","","","","","",""
"365","
          <p id=""word"" style=""font-size: 40px;"">lose</p>
          <p style=""font-size: 16px;"">F = YES &nbsp;&nbsp;&nbsp; J = NO</p>
        ","f","html-keyboard-response","205","2.1.0","334686","F=YES, J=NO","3sgc31pv5f","2","71","73","70","","","","","","","","","lose","rain","unrelated","experimental","f","true","",""
"null","<p style=""font-size: 50px;"">+</p>","null","html-keyboard-response","206","2.1.0","334995","F=YES, J=NO","3sgc31pv5f","2","71","73","70","","","","","","","","","","","","","","","",""
"null","audio/beep-329314.mp3","null","audio-keyboard-response","207","2.1.0","336527","F=YES, J=NO","3sgc31pv5f","2","71","73","70","","","","","","","","","","","","","","","",""
"null","audio/mirror1.wav","null","audio-keyboard-response","208","2.1.0","336958","F=YES, J=NO","3sgc31pv5f","2","71","73","70","","","","","","","","","","","","","","","",""
"367","
          <p id=""word"" style=""font-size: 40px;"">fight</p>
          <p style=""font-size: 16px;"">F = YES &nbsp;&nbsp;&nbsp; J = NO</p>
        ","f","html-keyboard-response","209","2.1.0","337327","F=YES, J=NO","3sgc31pv5f","2","71","73","70","","","","","","","","","fight","mirror1","unrelated","experimental","f","true","",""
"null","<p style=""font-size: 50px;"">+</p>","null","html-keyboard-response","210","2.1.0","337630","F=YES, J=NO","3sgc31pv5f","2","71","73","70","","","","","","","","","","","","","","","",""
"null","audio/beep-329314.mp3","null","audio-keyboard-response","211","2.1.0","339168","F=YES, J=NO","3sgc31pv5f","2","71","73","70","","","","","","","","","","","","","","","",""
"null","audio/emotion.wav","null","audio-keyboard-response","212","2.1.0","339818","F=YES, J=NO","3sgc31pv5f","2","71","73","70","","","","","","","","","","","","","","","",""
"649","
          <p id=""word"" style=""font-size: 40px;"">devering</p>
          <p style=""font-size: 16px;"">F = YES &nbsp;&nbsp;&nbsp; J = NO</p>
        ","j","html-keyboard-response","213","2.1.0","340469","F=YES, J=NO","3sgc31pv5f","2","71","73","70","","","","","","","","","devering","emotion","pseudoword","pseudoword","j","true","",""
"null","<p style=""font-size: 50px;"">+</p>","null","html-keyboard-response","214","2.1.0","340773","F=YES, J=NO","3sgc31pv5f","2","71","73","70","","","","","","","","","","","","","","","",""
"null","audio/beep-329314.mp3","null","audio-keyboard-response","215","2.1.0","342308","F=YES, J=NO","3sgc31pv5f","2","71","73","70","","","","","","","","","","","","","","","",""
"null","audio/milk.wav","null","audio-keyboard-response","216","2.1.0","342875","F=YES, J=NO","3sgc31pv5f","2","71","73","70","","","","","","","","","","","","","","","",""
"672","
          <p id=""word"" style=""font-size: 40px;"">digest</p>
          <p style=""font-size: 16px;"">F = YES &nbsp;&nbsp;&nbsp; J = NO</p>
        ","f","html-keyboard-response","217","2.1.0","343549","F=YES, J=NO","3sgc31pv5f","2","71","73","70","","","","","","","","","digest","milk","literal","experimental","f","true","",""
"null","<p style=""font-size: 50px;"">+</p>","null","html-keyboard-response","218","2.1.0","343866","F=YES, J=NO","3sgc31pv5f","2","71","73","70","","","","","","","","","","","","","","","",""
"null","audio/beep-329314.mp3","null","audio-keyboard-response","219","2.1.0","345406","F=YES, J=NO","3sgc31pv5f","2","71","73","70","","","","","","","","","","","","","","","",""
"null","audio/price.wav","null","audio-keyboard-response","220","2.1.0","346035","F=YES, J=NO","3sgc31pv5f","2","71","73","70","","","","","","","","","","","","","","","",""
"420","
          <p id=""word"" style=""font-size: 40px;"">drop</p>
          <p style=""font-size: 16px;"">F = YES &nbsp;&nbsp;&nbsp; J = NO</p>
        ","f","html-keyboard-response","221","2.1.0","346456","F=YES, J=NO","3sgc31pv5f","2","71","73","70","","","","","","","","","drop","price","metaphor","experimental","f","true","",""
"null","<p style=""font-size: 50px;"">+</p>","null","html-keyboard-response","222","2.1.0","346768","F=YES, J=NO","3sgc31pv5f","2","71","73","70","","","","","","","","","","","","","","","",""
"null","audio/beep-329314.mp3","null","audio-keyboard-response","223","2.1.0","348305","F=YES, J=NO","3sgc31pv5f","2","71","73","70","","","","","","","","","","","","","","","",""
"null","audio/life1.wav","null","audio-keyboard-response","224","2.1.0","348875","F=YES, J=NO","3sgc31pv5f","2","71","73","70","","","","","","","","","","","","","","","",""
"588","
          <p id=""word"" style=""font-size: 40px;"">flimch</p>
          <p style=""font-size: 16px;"">F = YES &nbsp;&nbsp;&nbsp; J = NO</p>
        ","f","html-keyboard-response","225","2.1.0","349464","F=YES, J=NO","3sgc31pv5f","2","71","73","70","","","","","","","","","flimch","life1","pseudoword","pseudoword","j","false","",""
"null","<p style=""font-size: 50px;"">+</p>","null","html-keyboard-response","226","2.1.0","349767","F=YES, J=NO","3sgc31pv5f","2","71","73","70","","","","","","","","","","","","","","","",""
"null","audio/beep-329314.mp3","null","audio-keyboard-response","227","2.1.0","351305","F=YES, J=NO","3sgc31pv5f","2","71","73","70","","","","","","","","","","","","","","","",""
"null","audio/hawk1.wav","null","audio-keyboard-response","228","2.1.0","351918","F=YES, J=NO","3sgc31pv5f","2","71","73","70","","","","","","","","","","","","","","","",""
"604","
          <p id=""word"" style=""font-size: 40px;"">wipe</p>
          <p style=""font-size: 16px;"">F = YES &nbsp;&nbsp;&nbsp; J = NO</p>
        ","f","html-keyboard-response","229","2.1.0","352525","F=YES, J=NO","3sgc31pv5f","2","71","73","70","","","","","","","","","wipe","hawk1","unrelated","experimental","f","true","",""
"3137","<p>Excellent! You have finished block 1 of 8.</p>
                     <p>Feel free to take a 30 second break.</p>
                     <p>Press any key when you're ready to continue.</p>"," ","html-keyboard-response","230","2.1.0","355664","F=YES, J=NO","3sgc31pv5f","2","71","73","70","","","","","","","","","","","","","","","",""
"1422","<p>Starting main block 2 of 8. Press any key to continue.</p>"," ","html-keyboard-response","231","2.1.0","357087","F=YES, J=NO","3sgc31pv5f","2","71","73","70","","","","","","","","","","","","","","","",""
"null","<p style=""font-size: 50px;"">+</p>","null","html-keyboard-response","232","2.1.0","357399","F=YES, J=NO","3sgc31pv5f","2","71","73","70","","","","","","","","","","","","","","","",""
"null","audio/beep-329314.mp3","null","audio-keyboard-response","233","2.1.0","358927","F=YES, J=NO","3sgc31pv5f","2","71","73","70","","","","","","","","","","","","","","","",""
"null","audio/desire.wav","null","audio-keyboard-response","234","2.1.0","359537","F=YES, J=NO","3sgc31pv5f","2","71","73","70","","","","","","","","","","","","","","","",""
"368","
          <p id=""word"" style=""font-size: 40px;"">nophed</p>
          <p style=""font-size: 16px;"">F = YES &nbsp;&nbsp;&nbsp; J = NO</p>
        ","f","html-keyboard-response","235","2.1.0","359907","F=YES, J=NO","3sgc31pv5f","2","71","73","70","","","","","","","","","nophed","desire","pseudoword","pseudoword","j","false","",""
"null","<p style=""font-size: 50px;"">+</p>","null","html-keyboard-response","236","2.1.0","360224","F=YES, J=NO","3sgc31pv5f","2","71","73","70","","","","","","","","","","","","","","","",""
"null","audio/beep-329314.mp3","null","audio-keyboard-response","237","2.1.0","361748","F=YES, J=NO","3sgc31pv5f","2","71","73","70","","","","","","","","","","","","","","","",""
"null","audio/van1.wav","null","audio-keyboard-response","238","2.1.0","362237","F=YES, J=NO","3sgc31pv5f","2","71","73","70","","","","","","","","","","","","","","","",""
"511","
          <p id=""word"" style=""font-size: 40px;"">push</p>
          <p style=""font-size: 16px;"">F = YES &nbsp;&nbsp;&nbsp; J = NO</p>
        ","f","html-keyboard-response","239","2.1.0","362751","F=YES, J=NO","3sgc31pv5f","2","71","73","70","","","","","","","","","push","van1","filler","filler","f","true","",""
"null","<p style=""font-size: 50px;"">+</p>","null","html-keyboard-response","240","2.1.0","363058","F=YES, J=NO","3sgc31pv5f","2","71","73","70","","","","","","","","","","","","","","","",""
"null","audio/beep-329314.mp3","null","audio-keyboard-response","241","2.1.0","364589","F=YES, J=NO","3sgc31pv5f","2","71","73","70","","","","","","","","","","","","","","","",""
"null","audio/empire.wav","null","audio-keyboard-response","242","2.1.0","365217","F=YES, J=NO","3sgc31pv5f","2","71","73","70","","","","","","","","","","","","","","","",""
"582","
          <p id=""word"" style=""font-size: 40px;"">slorby</p>
          <p style=""font-size: 16px;"">F = YES &nbsp;&nbsp;&nbsp; J = NO</p>
        ","j","html-keyboard-response","243","2.1.0","365801","F=YES, J=NO","3sgc31pv5f","2","71","73","70","","","","","","","","","slorby","empire","pseudoword","pseudoword","j","true","",""
"null","<p style=""font-size: 50px;"">+</p>","null","html-keyboard-response","244","2.1.0","366106","F=YES, J=NO","3sgc31pv5f","2","71","73","70","","","","","","","","","","","","","","","",""
"null","audio/beep-329314.mp3","null","audio-keyboard-response","245","2.1.0","367646","F=YES, J=NO","3sgc31pv5f","2","71","73","70","","","","","","","","","","","","","","","",""
"null","audio/holiday1.wav","null","audio-keyboard-response","246","2.1.0","368418","F=YES, J=NO","3sgc31pv5f","2","71","73","70","","","","","","","","","","","","","","","",""
"617","
          <p id=""word"" style=""font-size: 40px;"">drivets</p>
          <p style=""font-size: 16px;"">F = YES &nbsp;&nbsp;&nbsp; J = NO</p>
        ","f","html-keyboard-response","247","2.1.0","369037","F=YES, J=NO","3sgc31pv5f","2","71","73","70","","","","","","","","","drivets","holiday1","pseudoword","pseudoword","j","false","",""
"null","<p style=""font-size: 50px;"">+</p>","null","html-keyboard-response","248","2.1.0","369350","F=YES, J=NO","3sgc31pv5f","2","71","73","70","","","","","","","","","","","","","","","",""
"null","audio/beep-329314.mp3","null","audio-keyboard-response","249","2.1.0","370889","F=YES, J=NO","3sgc31pv5f","2","71","73","70","","","","","","","","","","","","","","","",""
"null","audio/bomb1.wav","null","audio-keyboard-response","250","2.1.0","371278","F=YES, J=NO","3sgc31pv5f","2","71","73","70","","","","","","","","","","","","","","","",""
"423","
          <p id=""word"" style=""font-size: 40px;"">clean</p>
          <p style=""font-size: 16px;"">F = YES &nbsp;&nbsp;&nbsp; J = NO</p>
        ","f","html-keyboard-response","251","2.1.0","371704","F=YES, J=NO","3sgc31pv5f","2","71","73","70","","","","","","","","","clean","bomb1","filler","filler","f","true","",""
"null","<p style=""font-size: 50px;"">+</p>","null","html-keyboard-response","252","2.1.0","372010","F=YES, J=NO","3sgc31pv5f","2","71","73","70","","","","","","","","","","","","","","","",""
"null","audio/beep-329314.mp3","null","audio-keyboard-response","253","2.1.0","373548","F=YES, J=NO","3sgc31pv5f","2","71","73","70","","","","","","","","","","","","","","","",""
"null","audio/chance.wav","null","audio-keyboard-response","254","2.1.0","374198","F=YES, J=NO","3sgc31pv5f","2","71","73","70","","","","","","","","","","","","","","","",""
"501","
          <p id=""word"" style=""font-size: 40px;"">seize</p>
          <p style=""font-size: 16px;"">F = YES &nbsp;&nbsp;&nbsp; J = NO</p>
        ","j","html-keyboard-response","255","2.1.0","374702","F=YES, J=NO","3sgc31pv5f","2","71","73","70","","","","","","","","","seize","chance","metaphor","experimental","f","false","",""
"null","<p style=""font-size: 50px;"">+</p>","null","html-keyboard-response","256","2.1.0","375015","F=YES, J=NO","3sgc31pv5f","2","71","73","70","","","","","","","","","","","","","","","",""
"null","audio/beep-329314.mp3","null","audio-keyboard-response","257","2.1.0","376549","F=YES, J=NO","3sgc31pv5f","2","71","73","70","","","","","","","","","","","","","","","",""
"null","audio/novel.wav","null","audio-keyboard-response","258","2.1.0","377078","F=YES, J=NO","3sgc31pv5f","2","71","73","70","","","","","","","","","","","","","","","",""
"443","
          <p id=""word"" style=""font-size: 40px;"">type</p>
          <p style=""font-size: 16px;"">F = YES &nbsp;&nbsp;&nbsp; J = NO</p>
        ","f","html-keyboard-response","259","2.1.0","377524","F=YES, J=NO","3sgc31pv5f","2","71","73","70","","","","","","","","","type","novel","filler","filler","f","true","",""
"null","<p style=""font-size: 50px;"">+</p>","null","html-keyboard-response","260","2.1.0","377831","F=YES, J=NO","3sgc31pv5f","2","71","73","70","","","","","","","","","","","","","","","",""
"null","audio/beep-329314.mp3","null","audio-keyboard-response","261","2.1.0","379367","F=YES, J=NO","3sgc31pv5f","2","71","73","70","","","","","","","","","","","","","","","",""
"null","audio/bush1.wav","null","audio-keyboard-response","262","2.1.0","379836","F=YES, J=NO","3sgc31pv5f","2","71","73","70","","","","","","","","","","","","","","","",""
"456","
          <p id=""word"" style=""font-size: 40px;"">run</p>
          <p style=""font-size: 16px;"">F = YES &nbsp;&nbsp;&nbsp; J = NO</p>
        ","f","html-keyboard-response","263","2.1.0","380293","F=YES, J=NO","3sgc31pv5f","2","71","73","70","","","","","","","","","run","bush1","unrelated","experimental","f","true","",""
"null","<p style=""font-size: 50px;"">+</p>","null","html-keyboard-response","264","2.1.0","380605","F=YES, J=NO","3sgc31pv5f","2","71","73","70","","","","","","","","","","","","","","","",""
"null","audio/beep-329314.mp3","null","audio-keyboard-response","265","2.1.0","382148","F=YES, J=NO","3sgc31pv5f","2","71","73","70","","","","","","","","","","","","","","","",""
"null","audio/survey1.wav","null","audio-keyboard-response","266","2.1.0","382897","F=YES, J=NO","3sgc31pv5f","2","71","73","70","","","","","","","","","","","","","","","",""
"653","
          <p id=""word"" style=""font-size: 40px;"">imploth</p>
          <p style=""font-size: 16px;"">F = YES &nbsp;&nbsp;&nbsp; J = NO</p>
        ","j","html-keyboard-response","267","2.1.0","383554","F=YES, J=NO","3sgc31pv5f","2","71","73","70","","","","","","","","","imploth","survey1","pseudoword","pseudoword","j","true","",""
"null","<p style=""font-size: 50px;"">+</p>","null","html-keyboard-response","268","2.1.0","383869","F=YES, J=NO","3sgc31pv5f","2","71","73","70","","","","","","","","","","","","","","","",""
"null","audio/beep-329314.mp3","null","audio-keyboard-response","269","2.1.0","385408","F=YES, J=NO","3sgc31pv5f","2","71","73","70","","","","","","","","","","","","","","","",""
"null","audio/uncle1.wav","null","audio-keyboard-response","270","2.1.0","385878","F=YES, J=NO","3sgc31pv5f","2","71","73","70","","","","","","","","","","","","","","","",""
"932","
          <p id=""word"" style=""font-size: 40px;"">dramble</p>
          <p style=""font-size: 16px;"">F = YES &nbsp;&nbsp;&nbsp; J = NO</p>
        ","f","html-keyboard-response","271","2.1.0","386812","F=YES, J=NO","3sgc31pv5f","2","71","73","70","","","","","","","","","dramble","uncle1","pseudoword","pseudoword","j","false","",""
"null","<p style=""font-size: 50px;"">+</p>","null","html-keyboard-response","272","2.1.0","387125","F=YES, J=NO","3sgc31pv5f","2","71","73","70","","","","","","","","","","","","","","","",""
"null","audio/beep-329314.mp3","null","audio-keyboard-response","273","2.1.0","388645","F=YES, J=NO","3sgc31pv5f","2","71","73","70","","","","","","","","","","","","","","","",""
"null","audio/show.wav","null","audio-keyboard-response","274","2.1.0","389216","F=YES, J=NO","3sgc31pv5f","2","71","73","70","","","","","","","","","","","","","","","",""
"541","
          <p id=""word"" style=""font-size: 40px;"">hold</p>
          <p style=""font-size: 16px;"">F = YES &nbsp;&nbsp;&nbsp; J = NO</p>
        ","f","html-keyboard-response","275","2.1.0","389759","F=YES, J=NO","3sgc31pv5f","2","71","73","70","","","","","","","","","hold","show","metaphor","experimental","f","true","",""
"null","<p style=""font-size: 50px;"">+</p>","null","html-keyboard-response","276","2.1.0","390076","F=YES, J=NO","3sgc31pv5f","2","71","73","70","","","","","","","","","","","","","","","",""
"null","audio/beep-329314.mp3","null","audio-keyboard-response","277","2.1.0","391608","F=YES, J=NO","3sgc31pv5f","2","71","73","70","","","","","","","","","","","","","","","",""
"null","audio/mile1.wav","null","audio-keyboard-response","278","2.1.0","392097","F=YES, J=NO","3sgc31pv5f","2","71","73","70","","","","","","","","","","","","","","","",""
"792","
          <p id=""word"" style=""font-size: 40px;"">writch</p>
          <p style=""font-size: 16px;"">F = YES &nbsp;&nbsp;&nbsp; J = NO</p>
        ","j","html-keyboard-response","279","2.1.0","392891","F=YES, J=NO","3sgc31pv5f","2","71","73","70","","","","","","","","","writch","mile1","pseudoword","pseudoword","j","true","",""
"null","<p style=""font-size: 50px;"">+</p>","null","html-keyboard-response","280","2.1.0","393207","F=YES, J=NO","3sgc31pv5f","2","71","73","70","","","","","","","","","","","","","","","",""
"null","audio/beep-329314.mp3","null","audio-keyboard-response","281","2.1.0","394749","F=YES, J=NO","3sgc31pv5f","2","71","73","70","","","","","","","","","","","","","","","",""
"null","audio/vehicle1.wav","null","audio-keyboard-response","282","2.1.0","395377","F=YES, J=NO","3sgc31pv5f","2","71","73","70","","","","","","","","","","","","","","","",""
"517","
          <p id=""word"" style=""font-size: 40px;"">approach</p>
          <p style=""font-size: 16px;"">F = YES &nbsp;&nbsp;&nbsp; J = NO</p>
        ","f","html-keyboard-response","283","2.1.0","395897","F=YES, J=NO","3sgc31pv5f","2","71","73","70","","","","","","","","","approach","vehicle1","literal","experimental","f","true","",""
"null","<p style=""font-size: 50px;"">+</p>","null","html-keyboard-response","284","2.1.0","396202","F=YES, J=NO","3sgc31pv5f","2","71","73","70","","","","","","","","","","","","","","","",""
"null","audio/beep-329314.mp3","null","audio-keyboard-response","285","2.1.0","397728","F=YES, J=NO","3sgc31pv5f","2","71","73","70","","","","","","","","","","","","","","","",""
"null","audio/age1.wav","null","audio-keyboard-response","286","2.1.0","398257","F=YES, J=NO","3sgc31pv5f","2","71","73","70","","","","","","","","","","","","","","","",""
"581","
          <p id=""word"" style=""font-size: 40px;"">lachry</p>
          <p style=""font-size: 16px;"">F = YES &nbsp;&nbsp;&nbsp; J = NO</p>
        ","f","html-keyboard-response","287","2.1.0","398841","F=YES, J=NO","3sgc31pv5f","2","71","73","70","","","","","","","","","lachry","age1","pseudoword","pseudoword","j","false","",""
"null","<p style=""font-size: 50px;"">+</p>","null","html-keyboard-response","288","2.1.0","399144","F=YES, J=NO","3sgc31pv5f","2","71","73","70","","","","","","","","","","","","","","","",""
"null","audio/beep-329314.mp3","null","audio-keyboard-response","289","2.1.0","400665","F=YES, J=NO","3sgc31pv5f","2","71","73","70","","","","","","","","","","","","","","","",""
"null","audio/pig.wav","null","audio-keyboard-response","290","2.1.0","401038","F=YES, J=NO","3sgc31pv5f","2","71","73","70","","","","","","","","","","","","","","","",""
"628","
          <p id=""word"" style=""font-size: 40px;"">tirlike</p>
          <p style=""font-size: 16px;"">F = YES &nbsp;&nbsp;&nbsp; J = NO</p>
        ","j","html-keyboard-response","291","2.1.0","401668","F=YES, J=NO","3sgc31pv5f","2","71","73","70","","","","","","","","","tirlike","pig","pseudoword","pseudoword","j","true","",""
"null","<p style=""font-size: 50px;"">+</p>","null","html-keyboard-response","292","2.1.0","401977","F=YES, J=NO","3sgc31pv5f","2","71","73","70","","","","","","","","","","","","","","","",""
"null","audio/beep-329314.mp3","null","audio-keyboard-response","293","2.1.0","403508","F=YES, J=NO","3sgc31pv5f","2","71","73","70","","","","","","","","","","","","","","","",""
"null","audio/road.wav","null","audio-keyboard-response","294","2.1.0","403938","F=YES, J=NO","3sgc31pv5f","2","71","73","70","","","","","","","","","","","","","","","",""
"675","
          <p id=""word"" style=""font-size: 40px;"">wappings</p>
          <p style=""font-size: 16px;"">F = YES &nbsp;&nbsp;&nbsp; J = NO</p>
        ","f","html-keyboard-response","295","2.1.0","404615","F=YES, J=NO","3sgc31pv5f","2","71","73","70","","","","","","","","","wappings","road","pseudoword","pseudoword","j","false","",""
"1453","<p>Excellent! You have finished block 2 of 8.</p>
                     <p>Feel free to take a 30 second break.</p>
                     <p>Press any key when you're ready to continue.</p>"," ","html-keyboard-response","296","2.1.0","406071","F=YES, J=NO","3sgc31pv5f","2","71","73","70","","","","","","","","","","","","","","","",""
"568","<p>Starting main block 3 of 8. Press any key to continue.</p>"," ","html-keyboard-response","297","2.1.0","406640","F=YES, J=NO","3sgc31pv5f","2","71","73","70","","","","","","","","","","","","","","","",""
"null","<p style=""font-size: 50px;"">+</p>","null","html-keyboard-response","298","2.1.0","406945","F=YES, J=NO","3sgc31pv5f","2","71","73","70","","","","","","","","","","","","","","","",""
"null","audio/beep-329314.mp3","null","audio-keyboard-response","299","2.1.0","408487","F=YES, J=NO","3sgc31pv5f","2","71","73","70","","","","","","","","","","","","","","","",""
"null","audio/revenue1.wav","null","audio-keyboard-response","300","2.1.0","409297","F=YES, J=NO","3sgc31pv5f","2","71","73","70","","","","","","","","","","","","","","","",""
"443","
          <p id=""word"" style=""font-size: 40px;"">grow</p>
          <p style=""font-size: 16px;"">F = YES &nbsp;&nbsp;&nbsp; J = NO</p>
        ","f","html-keyboard-response","301","2.1.0","409743","F=YES, J=NO","3sgc31pv5f","2","71","73","70","","","","","","","","","grow","revenue1","metaphor","experimental","f","true","",""
"null","<p style=""font-size: 50px;"">+</p>","null","html-keyboard-response","302","2.1.0","410046","F=YES, J=NO","3sgc31pv5f","2","71","73","70","","","","","","","","","","","","","","","",""
"null","audio/beep-329314.mp3","null","audio-keyboard-response","303","2.1.0","411584","F=YES, J=NO","3sgc31pv5f","2","71","73","70","","","","","","","","","","","","","","","",""
"null","audio/winter.wav","null","audio-keyboard-response","304","2.1.0","412155","F=YES, J=NO","3sgc31pv5f","2","71","73","70","","","","","","","","","","","","","","","",""
"489","
          <p id=""word"" style=""font-size: 40px;"">straven</p>
          <p style=""font-size: 16px;"">F = YES &nbsp;&nbsp;&nbsp; J = NO</p>
        ","f","html-keyboard-response","305","2.1.0","412644","F=YES, J=NO","3sgc31pv5f","2","71","73","70","","","","","","","","","straven","winter","pseudoword","pseudoword","j","false","",""
"null","<p style=""font-size: 50px;"">+</p>","null","html-keyboard-response","306","2.1.0","412949","F=YES, J=NO","3sgc31pv5f","2","71","73","70","","","","","","","","","","","","","","","",""
"null","audio/beep-329314.mp3","null","audio-keyboard-response","307","2.1.0","414485","F=YES, J=NO","3sgc31pv5f","2","71","73","70","","","","","","","","","","","","","","","",""
"null","audio/bridge.wav","null","audio-keyboard-response","308","2.1.0","415054","F=YES, J=NO","3sgc31pv5f","2","71","73","70","","","","","","","","","","","","","","","",""
"444","
          <p id=""word"" style=""font-size: 40px;"">crack</p>
          <p style=""font-size: 16px;"">F = YES &nbsp;&nbsp;&nbsp; J = NO</p>
        ","f","html-keyboard-response","309","2.1.0","415499","F=YES, J=NO","3sgc31pv5f","2","71","73","70","","","","","","","","","crack","bridge","filler","filler","f","true","",""
"null","<p style=""font-size: 50px;"">+</p>","null","html-keyboard-response","310","2.1.0","415808","F=YES, J=NO","3sgc31pv5f","2","71","73","70","","","","","","","","","","","","","","","",""
"null","audio/beep-329314.mp3","null","audio-keyboard-response","311","2.1.0","417349","F=YES, J=NO","3sgc31pv5f","2","71","73","70","","","","","","","","","","","","","","","",""
"null","audio/breath.wav","null","audio-keyboard-response","312","2.1.0","417894","F=YES, J=NO","3sgc31pv5f","2","71","73","70","","","","","","","","","","","","","","","",""
"335","
          <p id=""word"" style=""font-size: 40px;"">twets</p>
          <p style=""font-size: 16px;"">F = YES &nbsp;&nbsp;&nbsp; J = NO</p>
        ","f","html-keyboard-response","313","2.1.0","418230","F=YES, J=NO","3sgc31pv5f","2","71","73","70","","","","","","","","","twets","breath","pseudoword","pseudoword","j","false","",""
"null","<p style=""font-size: 50px;"">+</p>","null","html-keyboard-response","314","2.1.0","418531","F=YES, J=NO","3sgc31pv5f","2","71","73","70","","","","","","","","","","","","","","","",""
"null","audio/beep-329314.mp3","null","audio-keyboard-response","315","2.1.0","420067","F=YES, J=NO","3sgc31pv5f","2","71","73","70","","","","","","","","","","","","","","","",""
"null","audio/battle1.wav","null","audio-keyboard-response","316","2.1.0","420577","F=YES, J=NO","3sgc31pv5f","2","71","73","70","","","","","","","","","","","","","","","",""
"622","
          <p id=""word"" style=""font-size: 40px;"">boil</p>
          <p style=""font-size: 16px;"">F = YES &nbsp;&nbsp;&nbsp; J = NO</p>
        ","f","html-keyboard-response","317","2.1.0","421202","F=YES, J=NO","3sgc31pv5f","2","71","73","70","","","","","","","","","boil","battle1","filler","filler","f","true","",""
"null","<p style=""font-size: 50px;"">+</p>","null","html-keyboard-response","318","2.1.0","421517","F=YES, J=NO","3sgc31pv5f","2","71","73","70","","","","","","","","","","","","","","","",""
"null","audio/beep-329314.mp3","null","audio-keyboard-response","319","2.1.0","423047","F=YES, J=NO","3sgc31pv5f","2","71","73","70","","","","","","","","","","","","","","","",""
"null","audio/brain.wav","null","audio-keyboard-response","320","2.1.0","423518","F=YES, J=NO","3sgc31pv5f","2","71","73","70","","","","","","","","","","","","","","","",""
"563","
          <p id=""word"" style=""font-size: 40px;"">flood</p>
          <p style=""font-size: 16px;"">F = YES &nbsp;&nbsp;&nbsp; J = NO</p>
        ","f","html-keyboard-response","321","2.1.0","424083","F=YES, J=NO","3sgc31pv5f","2","71","73","70","","","","","","","","","flood","brain","metaphor","experimental","f","true","",""
"null","<p style=""font-size: 50px;"">+</p>","null","html-keyboard-response","322","2.1.0","424396","F=YES, J=NO","3sgc31pv5f","2","71","73","70","","","","","","","","","","","","","","","",""
"null","audio/beep-329314.mp3","null","audio-keyboard-response","323","2.1.0","425928","F=YES, J=NO","3sgc31pv5f","2","71","73","70","","","","","","","","","","","","","","","",""
"null","audio/window1.wav","null","audio-keyboard-response","324","2.1.0","426575","F=YES, J=NO","3sgc31pv5f","2","71","73","70","","","","","","","","","","","","","","","",""
"888","
          <p id=""word"" style=""font-size: 40px;"">toss</p>
          <p style=""font-size: 16px;"">F = YES &nbsp;&nbsp;&nbsp; J = NO</p>
        ","f","html-keyboard-response","325","2.1.0","427464","F=YES, J=NO","3sgc31pv5f","2","71","73","70","","","","","","","","","toss","window1","filler","filler","f","true","",""
"null","<p style=""font-size: 50px;"">+</p>","null","html-keyboard-response","326","2.1.0","427778","F=YES, J=NO","3sgc31pv5f","2","71","73","70","","","","","","","","","","","","","","","",""
"null","audio/beep-329314.mp3","null","audio-keyboard-response","327","2.1.0","429308","F=YES, J=NO","3sgc31pv5f","2","71","73","70","","","","","","","","","","","","","","","",""
"null","audio/bush1.wav","null","audio-keyboard-response","328","2.1.0","429758","F=YES, J=NO","3sgc31pv5f","2","71","73","70","","","","","","","","","","","","","","","",""
"822","
          <p id=""word"" style=""font-size: 40px;"">platined</p>
          <p style=""font-size: 16px;"">F = YES &nbsp;&nbsp;&nbsp; J = NO</p>
        ","j","html-keyboard-response","329","2.1.0","430582","F=YES, J=NO","3sgc31pv5f","2","71","73","70","","","","","","","","","platined","bush1","pseudoword","pseudoword","j","true","",""
"null","<p style=""font-size: 50px;"">+</p>","null","html-keyboard-response","330","2.1.0","430886","F=YES, J=NO","3sgc31pv5f","2","71","73","70","","","","","","","","","","","","","","","",""
"null","audio/beep-329314.mp3","null","audio-keyboard-response","331","2.1.0","432429","F=YES, J=NO","3sgc31pv5f","2","71","73","70","","","","","","","","","","","","","","","",""
"null","audio/fence.wav","null","audio-keyboard-response","332","2.1.0","433078","F=YES, J=NO","3sgc31pv5f","2","71","73","70","","","","","","","","","","","","","","","",""
"581","
          <p id=""word"" style=""font-size: 40px;"">trim</p>
          <p style=""font-size: 16px;"">F = YES &nbsp;&nbsp;&nbsp; J = NO</p>
        ","f","html-keyboard-response","333","2.1.0","433661","F=YES, J=NO","3sgc31pv5f","2","71","73","70","","","","","","","","","trim","fence","filler","filler","f","true","",""
"null","<p style=""font-size: 50px;"">+</p>","null","html-keyboard-response","334","2.1.0","433969","F=YES, J=NO","3sgc31pv5f","2","71","73","70","","","","","","","","","","","","","","","",""
"null","audio/beep-329314.mp3","null","audio-keyboard-response","335","2.1.0","435505","F=YES, J=NO","3sgc31pv5f","2","71","73","70","","","","","","","","","","","","","","","",""
"null","audio/theory1.wav","null","audio-keyboard-response","336","2.1.0","436177","F=YES, J=NO","3sgc31pv5f","2","71","73","70","","","","","","","","","","","","","","","",""
"801","
          <p id=""word"" style=""font-size: 40px;"">scolve</p>
          <p style=""font-size: 16px;"">F = YES &nbsp;&nbsp;&nbsp; J = NO</p>
        ","j","html-keyboard-response","337","2.1.0","436980","F=YES, J=NO","3sgc31pv5f","2","71","73","70","","","","","","","","","scolve","theory1","pseudoword","pseudoword","j","true","",""
"null","<p style=""font-size: 50px;"">+</p>","null","html-keyboard-response","338","2.1.0","437289","F=YES, J=NO","3sgc31pv5f","2","71","73","70","","","","","","","","","","","","","","","",""
"null","audio/beep-329314.mp3","null","audio-keyboard-response","339","2.1.0","438828","F=YES, J=NO","3sgc31pv5f","2","71","73","70","","","","","","","","","","","","","","","",""
"null","audio/camera1.wav","null","audio-keyboard-response","340","2.1.0","439318","F=YES, J=NO","3sgc31pv5f","2","71","73","70","","","","","","","","","","","","","","","",""
"624","
          <p id=""word"" style=""font-size: 40px;"">stir</p>
          <p style=""font-size: 16px;"">F = YES &nbsp;&nbsp;&nbsp; J = NO</p>
        ","f","html-keyboard-response","341","2.1.0","439944","F=YES, J=NO","3sgc31pv5f","2","71","73","70","","","","","","","","","stir","camera1","filler","filler","f","true","",""
"null","<p style=""font-size: 50px;"">+</p>","null","html-keyboard-response","342","2.1.0","440260","F=YES, J=NO","3sgc31pv5f","2","71","73","70","","","","","","","","","","","","","","","",""
"null","audio/beep-329314.mp3","null","audio-keyboard-response","343","2.1.0","441788","F=YES, J=NO","3sgc31pv5f","2","71","73","70","","","","","","","","","","","","","","","",""
"null","audio/bridge.wav","null","audio-keyboard-response","344","2.1.0","442316","F=YES, J=NO","3sgc31pv5f","2","71","73","70","","","","","","","","","","","","","","","",""
"526","
          <p id=""word"" style=""font-size: 40px;"">build</p>
          <p style=""font-size: 16px;"">F = YES &nbsp;&nbsp;&nbsp; J = NO</p>
        ","f","html-keyboard-response","345","2.1.0","442844","F=YES, J=NO","3sgc31pv5f","2","71","73","70","","","","","","","","","build","bridge","literal","experimental","f","true","",""
"null","<p style=""font-size: 50px;"">+</p>","null","html-keyboard-response","346","2.1.0","443147","F=YES, J=NO","3sgc31pv5f","2","71","73","70","","","","","","","","","","","","","","","",""
"null","audio/beep-329314.mp3","null","audio-keyboard-response","347","2.1.0","444687","F=YES, J=NO","3sgc31pv5f","2","71","73","70","","","","","","","","","","","","","","","",""
"null","audio/dollar.wav","null","audio-keyboard-response","348","2.1.0","445056","F=YES, J=NO","3sgc31pv5f","2","71","73","70","","","","","","","","","","","","","","","",""
"589","
          <p id=""word"" style=""font-size: 40px;"">gliptism</p>
          <p style=""font-size: 16px;"">F = YES &nbsp;&nbsp;&nbsp; J = NO</p>
        ","j","html-keyboard-response","349","2.1.0","445646","F=YES, J=NO","3sgc31pv5f","2","71","73","70","","","","","","","","","gliptism","dollar","pseudoword","pseudoword","j","true","",""
"null","<p style=""font-size: 50px;"">+</p>","null","html-keyboard-response","350","2.1.0","445957","F=YES, J=NO","3sgc31pv5f","2","71","73","70","","","","","","","","","","","","","","","",""
"null","audio/beep-329314.mp3","null","audio-keyboard-response","351","2.1.0","447485","F=YES, J=NO","3sgc31pv5f","2","71","73","70","","","","","","","","","","","","","","","",""
"null","audio/radio1.wav","null","audio-keyboard-response","352","2.1.0","448077","F=YES, J=NO","3sgc31pv5f","2","71","73","70","","","","","","","","","","","","","","","",""
"632","
          <p id=""word"" style=""font-size: 40px;"">blanter</p>
          <p style=""font-size: 16px;"">F = YES &nbsp;&nbsp;&nbsp; J = NO</p>
        ","f","html-keyboard-response","353","2.1.0","448710","F=YES, J=NO","3sgc31pv5f","2","71","73","70","","","","","","","","","blanter","radio1","pseudoword","pseudoword","j","false","",""
"null","<p style=""font-size: 50px;"">+</p>","null","html-keyboard-response","354","2.1.0","449025","F=YES, J=NO","3sgc31pv5f","2","71","73","70","","","","","","","","","","","","","","","",""
"null","audio/beep-329314.mp3","null","audio-keyboard-response","355","2.1.0","450569","F=YES, J=NO","3sgc31pv5f","2","71","73","70","","","","","","","","","","","","","","","",""
"null","audio/garden1.wav","null","audio-keyboard-response","356","2.1.0","451238","F=YES, J=NO","3sgc31pv5f","2","71","73","70","","","","","","","","","","","","","","","",""
"564","
          <p id=""word"" style=""font-size: 40px;"">invest</p>
          <p style=""font-size: 16px;"">F = YES &nbsp;&nbsp;&nbsp; J = NO</p>
        ","f","html-keyboard-response","357","2.1.0","451805","F=YES, J=NO","3sgc31pv5f","2","71","73","70","","","","","","","","","invest","garden1","unrelated","experimental","f","true","",""
"null","<p style=""font-size: 50px;"">+</p>","null","html-keyboard-response","358","2.1.0","452116","F=YES, J=NO","3sgc31pv5f","2","71","73","70","","","","","","","","","","","","","","","",""
"null","audio/beep-329314.mp3","null","audio-keyboard-response","359","2.1.0","453645","F=YES, J=NO","3sgc31pv5f","2","71","73","70","","","","","","","","","","","","","","","",""
"null","audio/purpose.wav","null","audio-keyboard-response","360","2.1.0","454338","F=YES, J=NO","3sgc31pv5f","2","71","73","70","","","","","","","","","","","","","","","",""
"542","
          <p id=""word"" style=""font-size: 40px;"">defeat</p>
          <p style=""font-size: 16px;"">F = YES &nbsp;&nbsp;&nbsp; J = NO</p>
        ","f","html-keyboard-response","361","2.1.0","454883","F=YES, J=NO","3sgc31pv5f","2","71","73","70","","","","","","","","","defeat","purpose","metaphor","experimental","f","true","",""
"1196","<p>Excellent! You have finished block 3 of 8.</p>
                     <p>Feel free to take a 30 second break.</p>
                     <p>Press any key when you're ready to continue.</p>"," ","html-keyboard-response","362","2.1.0","456081","F=YES, J=NO","3sgc31pv5f","2","71","73","70","","","","","","","","","","","","","","","",""
"1053","<p>Starting main block 4 of 8. Press any key to continue.</p>"," ","html-keyboard-response","363","2.1.0","457135","F=YES, J=NO","3sgc31pv5f","2","71","73","70","","","","","","","","","","","","","","","",""
"null","<p style=""font-size: 50px;"">+</p>","null","html-keyboard-response","364","2.1.0","457452","F=YES, J=NO","3sgc31pv5f","2","71","73","70","","","","","","","","","","","","","","","",""
"null","audio/beep-329314.mp3","null","audio-keyboard-response","365","2.1.0","458988","F=YES, J=NO","3sgc31pv5f","2","71","73","70","","","","","","","","","","","","","","","",""
"null","audio/roof1.wav","null","audio-keyboard-response","366","2.1.0","459558","F=YES, J=NO","3sgc31pv5f","2","71","73","70","","","","","","","","","","","","","","","",""
"464","
          <p id=""word"" style=""font-size: 40px;"">construct</p>
          <p style=""font-size: 16px;"">F = YES &nbsp;&nbsp;&nbsp; J = NO</p>
        ","f","html-keyboard-response","367","2.1.0","460025","F=YES, J=NO","3sgc31pv5f","2","71","73","70","","","","","","","","","construct","roof1","literal","experimental","f","true","",""
"null","<p style=""font-size: 50px;"">+</p>","null","html-keyboard-response","368","2.1.0","460337","F=YES, J=NO","3sgc31pv5f","2","71","73","70","","","","","","","","","","","","","","","",""
"null","audio/beep-329314.mp3","null","audio-keyboard-response","369","2.1.0","461865","F=YES, J=NO","3sgc31pv5f","2","71","73","70","","","","","","","","","","","","","","","",""
"null","audio/ship.wav","null","audio-keyboard-response","370","2.1.0","462418","F=YES, J=NO","3sgc31pv5f","2","71","73","70","","","","","","","","","","","","","","","",""
"623","
          <p id=""word"" style=""font-size: 40px;"">scrap</p>
          <p style=""font-size: 16px;"">F = YES &nbsp;&nbsp;&nbsp; J = NO</p>
        ","f","html-keyboard-response","371","2.1.0","463044","F=YES, J=NO","3sgc31pv5f","2","71","73","70","","","","","","","","","scrap","ship","literal","experimental","f","true","",""
"null","<p style=""font-size: 50px;"">+</p>","null","html-keyboard-response","372","2.1.0","463357","F=YES, J=NO","3sgc31pv5f","2","71","73","70","","","","","","","","","","","","","","","",""
"null","audio/beep-329314.mp3","null","audio-keyboard-response","373","2.1.0","464889","F=YES, J=NO","3sgc31pv5f","2","71","73","70","","","","","","","","","","","","","","","",""
"null","audio/pain1.wav","null","audio-keyboard-response","374","2.1.0","465319","F=YES, J=NO","3sgc31pv5f","2","71","73","70","","","","","","","","","","","","","","","",""
"846","
          <p id=""word"" style=""font-size: 40px;"">tritted</p>
          <p style=""font-size: 16px;"">F = YES &nbsp;&nbsp;&nbsp; J = NO</p>
        ","f","html-keyboard-response","375","2.1.0","466167","F=YES, J=NO","3sgc31pv5f","2","71","73","70","","","","","","","","","tritted","pain1","pseudoword","pseudoword","j","false","",""
"null","<p style=""font-size: 50px;"">+</p>","null","html-keyboard-response","376","2.1.0","466483","F=YES, J=NO","3sgc31pv5f","2","71","73","70","","","","","","","","","","","","","","","",""
"null","audio/beep-329314.mp3","null","audio-keyboard-response","377","2.1.0","468006","F=YES, J=NO","3sgc31pv5f","2","71","73","70","","","","","","","","","","","","","","","",""
"null","audio/voice.wav","null","audio-keyboard-response","378","2.1.0","468596","F=YES, J=NO","3sgc31pv5f","2","71","73","70","","","","","","","","","","","","","","","",""
"628","
          <p id=""word"" style=""font-size: 40px;"">grintle</p>
          <p style=""font-size: 16px;"">F = YES &nbsp;&nbsp;&nbsp; J = NO</p>
        ","f","html-keyboard-response","379","2.1.0","469226","F=YES, J=NO","3sgc31pv5f","2","71","73","70","","","","","","","","","grintle","voice","pseudoword","pseudoword","j","false","",""
"null","<p style=""font-size: 50px;"">+</p>","null","html-keyboard-response","380","2.1.0","469539","F=YES, J=NO","3sgc31pv5f","2","71","73","70","","","","","","","","","","","","","","","",""
"null","audio/beep-329314.mp3","null","audio-keyboard-response","381","2.1.0","471068","F=YES, J=NO","3sgc31pv5f","2","71","73","70","","","","","","","","","","","","","","","",""
"null","audio/fence.wav","null","audio-keyboard-response","382","2.1.0","471697","F=YES, J=NO","3sgc31pv5f","2","71","73","70","","","","","","","","","","","","","","","",""
"443","
          <p id=""word"" style=""font-size: 40px;"">climb</p>
          <p style=""font-size: 16px;"">F = YES &nbsp;&nbsp;&nbsp; J = NO</p>
        ","f","html-keyboard-response","383","2.1.0","472142","F=YES, J=NO","3sgc31pv5f","2","71","73","70","","","","","","","","","climb","fence","literal","experimental","f","true","",""
"null","<p style=""font-size: 50px;"">+</p>","null","html-keyboard-response","384","2.1.0","472448","F=YES, J=NO","3sgc31pv5f","2","71","73","70","","","","","","","","","","","","","","","",""
"null","audio/beep-329314.mp3","null","audio-keyboard-response","385","2.1.0","473988","F=YES, J=NO","3sgc31pv5f","2","71","73","70","","","","","","","","","","","","","","","",""
"null","audio/smirk1.wav","null","audio-keyboard-response","386","2.1.0","474718","F=YES, J=NO","3sgc31pv5f","2","71","73","70","","","","","","","","","","","","","","","",""
"598","
          <p id=""word"" style=""font-size: 40px;"">snopt</p>
          <p style=""font-size: 16px;"">F = YES &nbsp;&nbsp;&nbsp; J = NO</p>
        ","j","html-keyboard-response","387","2.1.0","475318","F=YES, J=NO","3sgc31pv5f","2","71","73","70","","","","","","","","","snopt","smirk1","pseudoword","pseudoword","j","true","",""
"null","<p style=""font-size: 50px;"">+</p>","null","html-keyboard-response","388","2.1.0","475628","F=YES, J=NO","3sgc31pv5f","2","71","73","70","","","","","","","","","","","","","","","",""
"null","audio/beep-329314.mp3","null","audio-keyboard-response","389","2.1.0","477169","F=YES, J=NO","3sgc31pv5f","2","71","73","70","","","","","","","","","","","","","","","",""
"null","audio/gift1.wav","null","audio-keyboard-response","390","2.1.0","477678","F=YES, J=NO","3sgc31pv5f","2","71","73","70","","","","","","","","","","","","","","","",""
"780","
          <p id=""word"" style=""font-size: 40px;"">protsh</p>
          <p style=""font-size: 16px;"">F = YES &nbsp;&nbsp;&nbsp; J = NO</p>
        ","j","html-keyboard-response","391","2.1.0","478460","F=YES, J=NO","3sgc31pv5f","2","71","73","70","","","","","","","","","protsh","gift1","pseudoword","pseudoword","j","true","",""
