"rt","stimulus","response","trial_type","trial_index","plugin_version","time_elapsed","response_mapping","subject_id","list_index","lextale_score","lextale_word_score","lextale_nonword_score","success","timeout","failed_images","failed_audio","failed_video","task","isWord","isDummy","target","prime","prime_type","stimulus_type","correct_response","correct","section","question_order"
"9260","
    <div style=""max-width: 800px; margin: auto; text-align: left;"">
      <h2>STANFORD UNIVERSITY</h2>
      <h3>Research Information Sheet</h3>
      <p><strong>Protocol Director:</strong> Robert Hawkins<br>
      <strong>Protocol Title:</strong> Communication and social cognition in natural audiovisual contexts<br>
      <strong>IRB#:</strong> 77226</p>

      <p><strong>DESCRIPTION:</strong> You are invited to participate in a research study about language and communication. The purpose of the research is to understand how you interact and communicate with other people in naturalistic settings as a fluent English speaker. This research will be conducted through the Prolific platform, including participants from the US, UK, and Canada. If you decide to participate in this research, you will play a communication game in a group with one or more partners.</p>

      <p><strong>TIME INVOLVEMENT:</strong> The task will last the amount of time advertised on Prolific. You are free to withdraw from the study at any time.</p>

      <p><strong>RISKS AND BENEFITS:</strong> You may become frustrated if your partner gets distracted, or experience discomfort if other participants in your group send text that is inappropriate for the task. We ask you to please be respectful of other participants you might be interacting with to mitigate these risks. You may also experience discomfort when being asked to discuss or challenge emotionally salient political beliefs. Study data will be stored securely, in compliance with Stanford University standards, minimizing the risk of confidentiality breach. This study advances our scientific understanding of how people communicate and collaborate in naturalistic settings. This study may lead to further insights about what can go wrong in teamwork, suggest potential interventions to overcome these barriers, and help to develop assistive technologies that collaborate with human partners. We cannot and do not guarantee or promise that you will receive any benefits from this study.</p>

      <p><strong>PAYMENTS:</strong> You will receive payment in the amount advertised on Prolific. If you do not complete this study, you will receive prorated payment based on the time that you have spent. Additionally, you may be eligible for bonus payments as described in the instructions.</p>

      <p><strong>PARTICIPANT’S RIGHTS:</strong> If you have read this form and have decided to participate in this project, please understand your participation is voluntary and you have the right to withdraw your consent or discontinue participation at any time without penalty or loss of benefits to which you are otherwise entitled. The alternative is not to participate. You have the right to refuse to answer particular questions. The results of this research study may be presented at scientific or professional meetings or published in scientific journals. Your individual privacy will be maintained in all published and written data resulting from the study. In accordance with scientific norms, the data from this study may be used or shared with other researchers for future research (after removing personally identifying information) without additional consent from you.</p>

      <p><strong>CONTACT INFORMATION:</strong><br>
      Questions: If you have any questions, concerns or complaints about this research, its procedures, risks and benefits, contact the Protocol Director, Robert Hawkins (<a href=""mailto:rdhawkins@stanford.edu"">rdhawkins@stanford.edu</a>, 217-549-6923).<br>
      Independent Contact: If you are not satisfied with how this study is being conducted, or if you have any concerns, complaints, or general questions about the research or your rights as a participant, please contact the Stanford Institutional Review Board (IRB) to speak to someone independent of the research team at 650-723-2480 or toll free at 1-866-680-2906, or email at <a href=""mailto:irbnon-med@stanford.edu"">irbnon-med@stanford.edu</a>. You can also write to the Stanford IRB, Stanford University, 1705 El Camino Real, Palo Alto, CA 94306.</p>

      <p><strong>Please save or print a copy of this page for your records.</strong></p>
      <p>If you agree to participate in this research, click ""Continue"" below.</p>
    </div>
  ","0","html-button-response","0","2.1.0","9274","F=YES, J=NO","3shqkk4kwk","2","75","85","65","","","","","","","","","","","","","","","",""
"1925","
    <div style=""max-width: 800px; margin: auto; text-align: left;"">
      <h2>Welcome!</h2>
      <p>Thank you for participating in this study. The experiment consists of three parts:</p>
      <ol>
        <li>An English vocabulary test</li>
        <li>A main task in which you will hear and see words, and decide whether the written word is a real English word</li>
        <li>A brief survey about your background</li>
      </ol>
      <p>Each part will be introduced before it begins.</p>
      <p>Please make sure you are in a quiet environment and can hear audio clearly for the final task.</p>
      <p style=""margin-top: 2em;"">Press any key to begin.</p>
    </div>
  "," ","html-keyboard-response","1","2.1.0","11205","F=YES, J=NO","3shqkk4kwk","2","75","85","65","","","","","","","","","","","","","","","",""
"","","","preload","2","2.1.0","11932","F=YES, J=NO","3shqkk4kwk","2","75","85","65","true","false","[]","[]","[]","","","","","","","","","","",""
"1245","
    <div style=""max-width: 800px; margin: auto; text-align: left;"">
      <h2>Part 1: Vocabulary Test</h2>
      <p>You will now complete the first part of the study: a short English vocabulary test.</p>
      <p>This test is called <strong>LexTALE</strong> and helps us get a general sense of your English proficiency.</p>
      <p style=""margin-top: 2em;"">Press any key to continue.</p>
    </div>
  "," ","html-keyboard-response","3","2.1.0","13213","F=YES, J=NO","3shqkk4kwk","2","75","85","65","","","","","","","","","","","","","","","",""
"834","
    <div style=""max-width: 800px; margin: auto; text-align: left;"">
      <h2>LexTALE Vocabulary Test</h2>
      <p>In this test, you will see a series of letter strings—one at a time.</p>
      <p>Your task is to decide whether each string is a real English word.</p>
      <p><strong>Key responses:</strong></p>
      <ul>
        <li><strong>F</strong> = YES (real English word)</li>
        <li><strong>J</strong> = NO (not a real English word)</li>
      </ul>
      <p>There is no time limit, but please try to be accurate.</p>
      <p style=""margin-top: 2em;"">Press any key to begin.</p>
    </div>
  "," ","html-keyboard-response","4","2.1.0","14049","F=YES, J=NO","3shqkk4kwk","2","75","85","65","","","","","","","","","","","","","","","",""
"6595","
  <p style=""font-size: 40px;"">platery</p>
  <p style=""font-size: 16px;"">F = YES &nbsp;&nbsp;&nbsp; J = NO</p>
","f","html-keyboard-response","5","2.1.0","20652","F=YES, J=NO","3shqkk4kwk","2","75","85","65","","","","","","lextale","false","true","","","","","","","",""
"2499","
  <p style=""font-size: 40px;"">denial</p>
  <p style=""font-size: 16px;"">F = YES &nbsp;&nbsp;&nbsp; J = NO</p>
","f","html-keyboard-response","6","2.1.0","23156","F=YES, J=NO","3shqkk4kwk","2","75","85","65","","","","","","lextale","true","true","","","","","","","",""
"1471","
  <p style=""font-size: 40px;"">marrit</p>
  <p style=""font-size: 16px;"">F = YES &nbsp;&nbsp;&nbsp; J = NO</p>
","j","html-keyboard-response","7","2.1.0","24630","F=YES, J=NO","3shqkk4kwk","2","75","85","65","","","","","","lextale","false","true","","","","","","","",""
"822","
  <p style=""font-size: 40px;"">bottle</p>
  <p style=""font-size: 16px;"">F = YES &nbsp;&nbsp;&nbsp; J = NO</p>
","f","html-keyboard-response","8","2.1.0","25454","F=YES, J=NO","3shqkk4kwk","2","75","85","65","","","","","","lextale","true","false","","","","","","","",""
"2551","
  <p style=""font-size: 40px;"">birst</p>
  <p style=""font-size: 16px;"">F = YES &nbsp;&nbsp;&nbsp; J = NO</p>
","j","html-keyboard-response","9","2.1.0","28008","F=YES, J=NO","3shqkk4kwk","2","75","85","65","","","","","","lextale","false","false","","","","","","","",""
"957","
  <p style=""font-size: 40px;"">envy</p>
  <p style=""font-size: 16px;"">F = YES &nbsp;&nbsp;&nbsp; J = NO</p>
","f","html-keyboard-response","10","2.1.0","28967","F=YES, J=NO","3shqkk4kwk","2","75","85","65","","","","","","lextale","true","false","","","","","","","",""
"920","
  <p style=""font-size: 40px;"">brang</p>
  <p style=""font-size: 16px;"">F = YES &nbsp;&nbsp;&nbsp; J = NO</p>
","j","html-keyboard-response","11","2.1.0","29890","F=YES, J=NO","3shqkk4kwk","2","75","85","65","","","","","","lextale","false","false","","","","","","","",""
"1136","
  <p style=""font-size: 40px;"">huge</p>
  <p style=""font-size: 16px;"">F = YES &nbsp;&nbsp;&nbsp; J = NO</p>
","f","html-keyboard-response","12","2.1.0","31027","F=YES, J=NO","3shqkk4kwk","2","75","85","65","","","","","","lextale","true","false","","","","","","","",""
"1215","
  <p style=""font-size: 40px;"">plove</p>
  <p style=""font-size: 16px;"">F = YES &nbsp;&nbsp;&nbsp; J = NO</p>
","j","html-keyboard-response","13","2.1.0","32245","F=YES, J=NO","3shqkk4kwk","2","75","85","65","","","","","","lextale","false","false","","","","","","","",""
"632","
  <p style=""font-size: 40px;"">border</p>
  <p style=""font-size: 16px;"">F = YES &nbsp;&nbsp;&nbsp; J = NO</p>
","f","html-keyboard-response","14","2.1.0","32878","F=YES, J=NO","3shqkk4kwk","2","75","85","65","","","","","","lextale","true","false","","","","","","","",""
"642","
  <p style=""font-size: 40px;"">flimsy</p>
  <p style=""font-size: 16px;"">F = YES &nbsp;&nbsp;&nbsp; J = NO</p>
","f","html-keyboard-response","15","2.1.0","33521","F=YES, J=NO","3shqkk4kwk","2","75","85","65","","","","","","lextale","true","false","","","","","","","",""
"710","
  <p style=""font-size: 40px;"">drain</p>
  <p style=""font-size: 16px;"">F = YES &nbsp;&nbsp;&nbsp; J = NO</p>
","f","html-keyboard-response","16","2.1.0","34233","F=YES, J=NO","3shqkk4kwk","2","75","85","65","","","","","","lextale","true","false","","","","","","","",""
"617","
  <p style=""font-size: 40px;"">twindle</p>
  <p style=""font-size: 16px;"">F = YES &nbsp;&nbsp;&nbsp; J = NO</p>
","f","html-keyboard-response","17","2.1.0","34851","F=YES, J=NO","3shqkk4kwk","2","75","85","65","","","","","","lextale","false","false","","","","","","","",""
"649","
  <p style=""font-size: 40px;"">propose</p>
  <p style=""font-size: 16px;"">F = YES &nbsp;&nbsp;&nbsp; J = NO</p>
","f","html-keyboard-response","18","2.1.0","35502","F=YES, J=NO","3shqkk4kwk","2","75","85","65","","","","","","lextale","true","false","","","","","","","",""
"1226","
  <p style=""font-size: 40px;"">forlay</p>
  <p style=""font-size: 16px;"">F = YES &nbsp;&nbsp;&nbsp; J = NO</p>
","f","html-keyboard-response","19","2.1.0","36730","F=YES, J=NO","3shqkk4kwk","2","75","85","65","","","","","","lextale","false","false","","","","","","","",""
"2138","
  <p style=""font-size: 40px;"">tenant</p>
  <p style=""font-size: 16px;"">F = YES &nbsp;&nbsp;&nbsp; J = NO</p>
","f","html-keyboard-response","20","2.1.0","38870","F=YES, J=NO","3shqkk4kwk","2","75","85","65","","","","","","lextale","true","false","","","","","","","",""
"2204","
  <p style=""font-size: 40px;"">strain</p>
  <p style=""font-size: 16px;"">F = YES &nbsp;&nbsp;&nbsp; J = NO</p>
","f","html-keyboard-response","21","2.1.0","41075","F=YES, J=NO","3shqkk4kwk","2","75","85","65","","","","","","lextale","true","false","","","","","","","",""
"756","
  <p style=""font-size: 40px;"">holster</p>
  <p style=""font-size: 16px;"">F = YES &nbsp;&nbsp;&nbsp; J = NO</p>
","f","html-keyboard-response","22","2.1.0","41833","F=YES, J=NO","3shqkk4kwk","2","75","85","65","","","","","","lextale","true","false","","","","","","","",""
"875","
  <p style=""font-size: 40px;"">hinder</p>
  <p style=""font-size: 16px;"">F = YES &nbsp;&nbsp;&nbsp; J = NO</p>
","f","html-keyboard-response","23","2.1.0","42709","F=YES, J=NO","3shqkk4kwk","2","75","85","65","","","","","","lextale","true","false","","","","","","","",""
"697","
  <p style=""font-size: 40px;"">swindle</p>
  <p style=""font-size: 16px;"">F = YES &nbsp;&nbsp;&nbsp; J = NO</p>
","f","html-keyboard-response","24","2.1.0","43408","F=YES, J=NO","3shqkk4kwk","2","75","85","65","","","","","","lextale","true","false","","","","","","","",""
"1024","
  <p style=""font-size: 40px;"">nuder</p>
  <p style=""font-size: 16px;"">F = YES &nbsp;&nbsp;&nbsp; J = NO</p>
","j","html-keyboard-response","25","2.1.0","44433","F=YES, J=NO","3shqkk4kwk","2","75","85","65","","","","","","lextale","false","false","","","","","","","",""
"678","
  <p style=""font-size: 40px;"">pillow</p>
  <p style=""font-size: 16px;"">F = YES &nbsp;&nbsp;&nbsp; J = NO</p>
","f","html-keyboard-response","26","2.1.0","45113","F=YES, J=NO","3shqkk4kwk","2","75","85","65","","","","","","lextale","true","false","","","","","","","",""
"1225","
  <p style=""font-size: 40px;"">shumble</p>
  <p style=""font-size: 16px;"">F = YES &nbsp;&nbsp;&nbsp; J = NO</p>
","j","html-keyboard-response","27","2.1.0","46339","F=YES, J=NO","3shqkk4kwk","2","75","85","65","","","","","","lextale","false","false","","","","","","","",""
"1497","
  <p style=""font-size: 40px;"">thirst</p>
  <p style=""font-size: 16px;"">F = YES &nbsp;&nbsp;&nbsp; J = NO</p>
","f","html-keyboard-response","28","2.1.0","47837","F=YES, J=NO","3shqkk4kwk","2","75","85","65","","","","","","lextale","true","false","","","","","","","",""
"767","
  <p style=""font-size: 40px;"">unsail</p>
  <p style=""font-size: 16px;"">F = YES &nbsp;&nbsp;&nbsp; J = NO</p>
","j","html-keyboard-response","29","2.1.0","48605","F=YES, J=NO","3shqkk4kwk","2","75","85","65","","","","","","lextale","false","false","","","","","","","",""
"468","
  <p style=""font-size: 40px;"">rifle</p>
  <p style=""font-size: 16px;"">F = YES &nbsp;&nbsp;&nbsp; J = NO</p>
","f","html-keyboard-response","30","2.1.0","49073","F=YES, J=NO","3shqkk4kwk","2","75","85","65","","","","","","lextale","true","false","","","","","","","",""
"552","
  <p style=""font-size: 40px;"">mush</p>
  <p style=""font-size: 16px;"">F = YES &nbsp;&nbsp;&nbsp; J = NO</p>
","f","html-keyboard-response","31","2.1.0","49627","F=YES, J=NO","3shqkk4kwk","2","75","85","65","","","","","","lextale","false","false","","","","","","","",""
"531","
  <p style=""font-size: 40px;"">drench</p>
  <p style=""font-size: 16px;"">F = YES &nbsp;&nbsp;&nbsp; J = NO</p>
","f","html-keyboard-response","32","2.1.0","50159","F=YES, J=NO","3shqkk4kwk","2","75","85","65","","","","","","lextale","true","false","","","","","","","",""
"874","
  <p style=""font-size: 40px;"">snirt</p>
  <p style=""font-size: 16px;"">F = YES &nbsp;&nbsp;&nbsp; J = NO</p>
","j","html-keyboard-response","33","2.1.0","51033","F=YES, J=NO","3shqkk4kwk","2","75","85","65","","","","","","lextale","false","false","","","","","","","",""
"445","
  <p style=""font-size: 40px;"">bitter</p>
  <p style=""font-size: 16px;"">F = YES &nbsp;&nbsp;&nbsp; J = NO</p>
","f","html-keyboard-response","34","2.1.0","51479","F=YES, J=NO","3shqkk4kwk","2","75","85","65","","","","","","lextale","true","false","","","","","","","",""
"858","
  <p style=""font-size: 40px;"">pliff</p>
  <p style=""font-size: 16px;"">F = YES &nbsp;&nbsp;&nbsp; J = NO</p>
","j","html-keyboard-response","35","2.1.0","52337","F=YES, J=NO","3shqkk4kwk","2","75","85","65","","","","","","lextale","false","false","","","","","","","",""
"482","
  <p style=""font-size: 40px;"">tablet</p>
  <p style=""font-size: 16px;"">F = YES &nbsp;&nbsp;&nbsp; J = NO</p>
","f","html-keyboard-response","36","2.1.0","52822","F=YES, J=NO","3shqkk4kwk","2","75","85","65","","","","","","lextale","true","false","","","","","","","",""
"558","
  <p style=""font-size: 40px;"">glimmer</p>
  <p style=""font-size: 16px;"">F = YES &nbsp;&nbsp;&nbsp; J = NO</p>
","f","html-keyboard-response","37","2.1.0","53381","F=YES, J=NO","3shqkk4kwk","2","75","85","65","","","","","","lextale","true","false","","","","","","","",""
"1215","
  <p style=""font-size: 40px;"">slink</p>
  <p style=""font-size: 16px;"">F = YES &nbsp;&nbsp;&nbsp; J = NO</p>
","f","html-keyboard-response","38","2.1.0","54598","F=YES, J=NO","3shqkk4kwk","2","75","85","65","","","","","","lextale","true","false","","","","","","","",""
"566","
  <p style=""font-size: 40px;"">clever</p>
  <p style=""font-size: 16px;"">F = YES &nbsp;&nbsp;&nbsp; J = NO</p>
","f","html-keyboard-response","39","2.1.0","55166","F=YES, J=NO","3shqkk4kwk","2","75","85","65","","","","","","lextale","true","false","","","","","","","",""
"824","
  <p style=""font-size: 40px;"">grum</p>
  <p style=""font-size: 16px;"">F = YES &nbsp;&nbsp;&nbsp; J = NO</p>
","j","html-keyboard-response","40","2.1.0","55990","F=YES, J=NO","3shqkk4kwk","2","75","85","65","","","","","","lextale","false","false","","","","","","","",""
"563","
  <p style=""font-size: 40px;"">string</p>
  <p style=""font-size: 16px;"">F = YES &nbsp;&nbsp;&nbsp; J = NO</p>
","f","html-keyboard-response","41","2.1.0","56555","F=YES, J=NO","3shqkk4kwk","2","75","85","65","","","","","","lextale","true","false","","","","","","","",""
"879","
  <p style=""font-size: 40px;"">plim</p>
  <p style=""font-size: 16px;"">F = YES &nbsp;&nbsp;&nbsp; J = NO</p>
","j","html-keyboard-response","42","2.1.0","57437","F=YES, J=NO","3shqkk4kwk","2","75","85","65","","","","","","lextale","false","false","","","","","","","",""
"615","
  <p style=""font-size: 40px;"">cable</p>
  <p style=""font-size: 16px;"">F = YES &nbsp;&nbsp;&nbsp; J = NO</p>
","f","html-keyboard-response","43","2.1.0","58053","F=YES, J=NO","3shqkk4kwk","2","75","85","65","","","","","","lextale","true","false","","","","","","","",""
"602","
  <p style=""font-size: 40px;"">shrivel</p>
  <p style=""font-size: 16px;"">F = YES &nbsp;&nbsp;&nbsp; J = NO</p>
","f","html-keyboard-response","44","2.1.0","58657","F=YES, J=NO","3shqkk4kwk","2","75","85","65","","","","","","lextale","true","false","","","","","","","",""
"624","
  <p style=""font-size: 40px;"">tarnish</p>
  <p style=""font-size: 16px;"">F = YES &nbsp;&nbsp;&nbsp; J = NO</p>
","f","html-keyboard-response","45","2.1.0","59281","F=YES, J=NO","3shqkk4kwk","2","75","85","65","","","","","","lextale","true","false","","","","","","","",""
"822","
  <p style=""font-size: 40px;"">blim</p>
  <p style=""font-size: 16px;"">F = YES &nbsp;&nbsp;&nbsp; J = NO</p>
","j","html-keyboard-response","46","2.1.0","60104","F=YES, J=NO","3shqkk4kwk","2","75","85","65","","","","","","lextale","false","false","","","","","","","",""
"728","
  <p style=""font-size: 40px;"">stifle</p>
  <p style=""font-size: 16px;"">F = YES &nbsp;&nbsp;&nbsp; J = NO</p>
","f","html-keyboard-response","47","2.1.0","60834","F=YES, J=NO","3shqkk4kwk","2","75","85","65","","","","","","lextale","true","false","","","","","","","",""
"1063","
  <p style=""font-size: 40px;"">bint</p>
  <p style=""font-size: 16px;"">F = YES &nbsp;&nbsp;&nbsp; J = NO</p>
","f","html-keyboard-response","48","2.1.0","61898","F=YES, J=NO","3shqkk4kwk","2","75","85","65","","","","","","lextale","false","false","","","","","","","",""
"580","
  <p style=""font-size: 40px;"">purple</p>
  <p style=""font-size: 16px;"">F = YES &nbsp;&nbsp;&nbsp; J = NO</p>
","f","html-keyboard-response","49","2.1.0","62480","F=YES, J=NO","3shqkk4kwk","2","75","85","65","","","","","","lextale","true","false","","","","","","","",""
"562","
  <p style=""font-size: 40px;"">wriggle</p>
  <p style=""font-size: 16px;"">F = YES &nbsp;&nbsp;&nbsp; J = NO</p>
","f","html-keyboard-response","50","2.1.0","63042","F=YES, J=NO","3shqkk4kwk","2","75","85","65","","","","","","lextale","true","false","","","","","","","",""
"488","
  <p style=""font-size: 40px;"">mangle</p>
  <p style=""font-size: 16px;"">F = YES &nbsp;&nbsp;&nbsp; J = NO</p>
","f","html-keyboard-response","51","2.1.0","63531","F=YES, J=NO","3shqkk4kwk","2","75","85","65","","","","","","lextale","true","false","","","","","","","",""
"621","
  <p style=""font-size: 40px;"">shramp</p>
  <p style=""font-size: 16px;"">F = YES &nbsp;&nbsp;&nbsp; J = NO</p>
","f","html-keyboard-response","52","2.1.0","64153","F=YES, J=NO","3shqkk4kwk","2","75","85","65","","","","","","lextale","false","false","","","","","","","",""
"729","
  <p style=""font-size: 40px;"">flirt</p>
  <p style=""font-size: 16px;"">F = YES &nbsp;&nbsp;&nbsp; J = NO</p>
","f","html-keyboard-response","53","2.1.0","64883","F=YES, J=NO","3shqkk4kwk","2","75","85","65","","","","","","lextale","true","false","","","","","","","",""
"802","
  <p style=""font-size: 40px;"">frip</p>
  <p style=""font-size: 16px;"">F = YES &nbsp;&nbsp;&nbsp; J = NO</p>
","j","html-keyboard-response","54","2.1.0","65687","F=YES, J=NO","3shqkk4kwk","2","75","85","65","","","","","","lextale","false","false","","","","","","","",""
"534","
  <p style=""font-size: 40px;"">tangle</p>
  <p style=""font-size: 16px;"">F = YES &nbsp;&nbsp;&nbsp; J = NO</p>
","f","html-keyboard-response","55","2.1.0","66223","F=YES, J=NO","3shqkk4kwk","2","75","85","65","","","","","","lextale","true","false","","","","","","","",""
"1489","
  <p style=""font-size: 40px;"">crumble</p>
  <p style=""font-size: 16px;"">F = YES &nbsp;&nbsp;&nbsp; J = NO</p>
","f","html-keyboard-response","56","2.1.0","67719","F=YES, J=NO","3shqkk4kwk","2","75","85","65","","","","","","lextale","true","false","","","","","","","",""
"2036","
  <p style=""font-size: 40px;"">wrinkle</p>
  <p style=""font-size: 16px;"">F = YES &nbsp;&nbsp;&nbsp; J = NO</p>
","f","html-keyboard-response","57","2.1.0","69759","F=YES, J=NO","3shqkk4kwk","2","75","85","65","","","","","","lextale","true","false","","","","","","","",""
"752","
  <p style=""font-size: 40px;"">slumb</p>
  <p style=""font-size: 16px;"">F = YES &nbsp;&nbsp;&nbsp; J = NO</p>
","j","html-keyboard-response","58","2.1.0","70512","F=YES, J=NO","3shqkk4kwk","2","75","85","65","","","","","","lextale","false","false","","","","","","","",""
"944","
  <p style=""font-size: 40px;"">jungle</p>
  <p style=""font-size: 16px;"">F = YES &nbsp;&nbsp;&nbsp; J = NO</p>
","f","html-keyboard-response","59","2.1.0","71459","F=YES, J=NO","3shqkk4kwk","2","75","85","65","","","","","","lextale","true","false","","","","","","","",""
"1028","
  <p style=""font-size: 40px;"">frolick</p>
  <p style=""font-size: 16px;"">F = YES &nbsp;&nbsp;&nbsp; J = NO</p>
","f","html-keyboard-response","60","2.1.0","72489","F=YES, J=NO","3shqkk4kwk","2","75","85","65","","","","","","lextale","false","false","","","","","","","",""
"2005","
      <h2>LexTALE Test Completed</h2>
      <p>Your LexTALE vocabulary score is: <strong>75%</strong></p>
      <p>Press any key to continue.</p>
    "," ","html-keyboard-response","61","2.1.0","74497","F=YES, J=NO","3shqkk4kwk","2","75","85","65","","","","","","","","","","","","","","","",""
"1270","
    <div style=""max-width: 800px; margin: auto; text-align: left;"">
      <h2>Break Time</h2>
      <p>You have completed the first part of the study.</p>
      <p>You may take a short <strong>30-second break</strong> before continuing.</p>
      <p>When you’re ready, press any key to continue to the final task.</p>
    </div>
  "," ","html-keyboard-response","62","2.1.0","75769","F=YES, J=NO","3shqkk4kwk","2","75","85","65","","","","","","","","","","","","","","","",""
"402","
    <div style=""max-width: 800px; margin: auto; text-align: left;"">
      <h2>Part 2: Lexical Decision Task</h2>
      <p>You will now begin the second part of the study.</p>
      <p>Each trial will follow this sequence:</p>
      <ul>
        <li>A fixation cross (+) appears at the center of the screen.</li>
        <li>You will hear a short beep followed by a spoken word.</li>
        <li>A written word will appear briefly on the screen.</li>
      </ul>
      <p>Your task is to judge whether the <strong>written word</strong> is a real English word.</p>
      <p style=""margin-top: 1em;""><strong>Key responses:</strong></p>
      <ul>
        <li><strong>F</strong> = YES (real English word)</li>
        <li><strong>J</strong> = NO (not a real English word)</li>
      </ul>
      <p>Please respond as quickly and accurately as you can.</p>
      <p style=""margin-top: 2em;"">Press any key to continue.</p>
    </div>
  "," ","html-keyboard-response","63","2.1.0","76173","F=YES, J=NO","3shqkk4kwk","2","75","85","65","","","","","","","","","","","","","","","",""
"393","
    <div style=""max-width: 800px; margin: auto; text-align: left;"">
      <h2>Before You Begin</h2>
      <p>Make sure your sound is turned on.</p>
      <p>You will hear audio during each trial, but your decision should be based only on the <strong>written word</strong> you see on the screen.</p>
      <p><strong>Reminder:</strong></p>
      <ul>
        <li><strong>F</strong> = YES (real English word)</li>
        <li><strong>J</strong> = NO (not a real English word)</li>
      </ul>
      <p style=""margin-top: 2em;"">Press any key when you are ready to begin.</p>
    </div>
  "," ","html-keyboard-response","64","2.1.0","76568","F=YES, J=NO","3shqkk4kwk","2","75","85","65","","","","","","","","","","","","","","","",""
"378","
    <div style=""max-width: 800px; margin: auto; text-align: left;"">
      <h2>Part 2: Practice Trials</h2>
      <p>You will now complete a few <strong>practice trials</strong> to get familiar with the task.</p>
      <p>These trials are <strong>not scored</strong> and are only to help you get used to the format.</p>
      <p style=""margin-top: 2em;"">Press any key to begin.</p>
    </div>
  "," ","html-keyboard-response","65","2.1.0","76948","F=YES, J=NO","3shqkk4kwk","2","75","85","65","","","","","","","","","","","","","","","",""
"786","<p>Starting practice block 1 of 2. Press any key to continue.</p>"," ","html-keyboard-response","66","2.1.0","77737","F=YES, J=NO","3shqkk4kwk","2","75","85","65","","","","","","","","","","","","","","","",""
"null","<p style=""font-size: 50px;"">+</p>","null","html-keyboard-response","67","2.1.0","78049","F=YES, J=NO","3shqkk4kwk","2","75","85","65","","","","","","","","","","","","","","","",""
"null","audio/beep-329314.mp3","null","audio-keyboard-response","68","2.1.0","79585","F=YES, J=NO","3shqkk4kwk","2","75","85","65","","","","","","","","","","","","","","","",""
"null","audio/novel.wav","null","audio-keyboard-response","69","2.1.0","80085","F=YES, J=NO","3shqkk4kwk","2","75","85","65","","","","","","","","","","","","","","","",""
"null","
          <p id=""word"" style=""font-size: 40px;"">type</p>
          <p style=""font-size: 16px;"">F = YES &nbsp;&nbsp;&nbsp; J = NO</p>
        ","null","html-keyboard-response","70","2.1.0","81593","F=YES, J=NO","3shqkk4kwk","2","75","85","65","","","","","","","","","type","novel","filler","filler","f","false","",""
"null","<p style=""font-size: 50px;"">+</p>","null","html-keyboard-response","71","2.1.0","81902","F=YES, J=NO","3shqkk4kwk","2","75","85","65","","","","","","","","","","","","","","","",""
"null","audio/beep-329314.mp3","null","audio-keyboard-response","72","2.1.0","83435","F=YES, J=NO","3shqkk4kwk","2","75","85","65","","","","","","","","","","","","","","","",""
"null","audio/van1.wav","null","audio-keyboard-response","73","2.1.0","83916","F=YES, J=NO","3shqkk4kwk","2","75","85","65","","","","","","","","","","","","","","","",""
"null","
          <p id=""word"" style=""font-size: 40px;"">push</p>
          <p style=""font-size: 16px;"">F = YES &nbsp;&nbsp;&nbsp; J = NO</p>
        ","null","html-keyboard-response","74","2.1.0","85422","F=YES, J=NO","3shqkk4kwk","2","75","85","65","","","","","","","","","push","van1","filler","filler","f","false","",""
"null","<p style=""font-size: 50px;"">+</p>","null","html-keyboard-response","75","2.1.0","85732","F=YES, J=NO","3shqkk4kwk","2","75","85","65","","","","","","","","","","","","","","","",""
"null","audio/beep-329314.mp3","null","audio-keyboard-response","76","2.1.0","87266","F=YES, J=NO","3shqkk4kwk","2","75","85","65","","","","","","","","","","","","","","","",""
"null","audio/age1.wav","null","audio-keyboard-response","77","2.1.0","87816","F=YES, J=NO","3shqkk4kwk","2","75","85","65","","","","","","","","","","","","","","","",""
"787","
          <p id=""word"" style=""font-size: 40px;"">lachry</p>
          <p style=""font-size: 16px;"">F = YES &nbsp;&nbsp;&nbsp; J = NO</p>
        ","j","html-keyboard-response","78","2.1.0","88604","F=YES, J=NO","3shqkk4kwk","2","75","85","65","","","","","","","","","lachry","age1","pseudoword","pseudoword","j","true","",""
"null","<p style=""font-size: 50px;"">+</p>","null","html-keyboard-response","79","2.1.0","88913","F=YES, J=NO","3shqkk4kwk","2","75","85","65","","","","","","","","","","","","","","","",""
"null","audio/beep-329314.mp3","null","audio-keyboard-response","80","2.1.0","90445","F=YES, J=NO","3shqkk4kwk","2","75","85","65","","","","","","","","","","","","","","","",""
"null","audio/camera1.wav","null","audio-keyboard-response","81","2.1.0","90996","F=YES, J=NO","3shqkk4kwk","2","75","85","65","","","","","","","","","","","","","","","",""
"1021","
          <p id=""word"" style=""font-size: 40px;"">stir</p>
          <p style=""font-size: 16px;"">F = YES &nbsp;&nbsp;&nbsp; J = NO</p>
        ","j","html-keyboard-response","82","2.1.0","92020","F=YES, J=NO","3shqkk4kwk","2","75","85","65","","","","","","","","","stir","camera1","filler","filler","f","false","",""
"null","<p style=""font-size: 50px;"">+</p>","null","html-keyboard-response","83","2.1.0","92322","F=YES, J=NO","3shqkk4kwk","2","75","85","65","","","","","","","","","","","","","","","",""
"null","audio/beep-329314.mp3","null","audio-keyboard-response","84","2.1.0","93857","F=YES, J=NO","3shqkk4kwk","2","75","85","65","","","","","","","","","","","","","","","",""
"null","audio/floor.wav","null","audio-keyboard-response","85","2.1.0","94596","F=YES, J=NO","3shqkk4kwk","2","75","85","65","","","","","","","","","","","","","","","",""
"792","
          <p id=""word"" style=""font-size: 40px;"">mop</p>
          <p style=""font-size: 16px;"">F = YES &nbsp;&nbsp;&nbsp; J = NO</p>
        ","f","html-keyboard-response","86","2.1.0","95390","F=YES, J=NO","3shqkk4kwk","2","75","85","65","","","","","","","","","mop","floor","filler","filler","f","true","",""
"null","<p style=""font-size: 50px;"">+</p>","null","html-keyboard-response","87","2.1.0","95693","F=YES, J=NO","3shqkk4kwk","2","75","85","65","","","","","","","","","","","","","","","",""
"null","audio/beep-329314.mp3","null","audio-keyboard-response","88","2.1.0","97225","F=YES, J=NO","3shqkk4kwk","2","75","85","65","","","","","","","","","","","","","","","",""
"null","audio/hotel1.wav","null","audio-keyboard-response","89","2.1.0","97845","F=YES, J=NO","3shqkk4kwk","2","75","85","65","","","","","","","","","","","","","","","",""
"829","
          <p id=""word"" style=""font-size: 40px;"">flanter</p>
          <p style=""font-size: 16px;"">F = YES &nbsp;&nbsp;&nbsp; J = NO</p>
        ","j","html-keyboard-response","90","2.1.0","98676","F=YES, J=NO","3shqkk4kwk","2","75","85","65","","","","","","","","","flanter","hotel1","pseudoword","pseudoword","j","true","",""
"null","<p style=""font-size: 50px;"">+</p>","null","html-keyboard-response","91","2.1.0","98982","F=YES, J=NO","3shqkk4kwk","2","75","85","65","","","","","","","","","","","","","","","",""
"null","audio/beep-329314.mp3","null","audio-keyboard-response","92","2.1.0","100515","F=YES, J=NO","3shqkk4kwk","2","75","85","65","","","","","","","","","","","","","","","",""
"null","audio/ankle1.wav","null","audio-keyboard-response","93","2.1.0","101077","F=YES, J=NO","3shqkk4kwk","2","75","85","65","","","","","","","","","","","","","","","",""
"807","
          <p id=""word"" style=""font-size: 40px;"">switm</p>
          <p style=""font-size: 16px;"">F = YES &nbsp;&nbsp;&nbsp; J = NO</p>
        ","j","html-keyboard-response","94","2.1.0","101887","F=YES, J=NO","3shqkk4kwk","2","75","85","65","","","","","","","","","switm","ankle1","pseudoword","pseudoword","j","true","",""
"null","<p style=""font-size: 50px;"">+</p>","null","html-keyboard-response","95","2.1.0","102194","F=YES, J=NO","3shqkk4kwk","2","75","85","65","","","","","","","","","","","","","","","",""
"null","audio/beep-329314.mp3","null","audio-keyboard-response","96","2.1.0","103727","F=YES, J=NO","3shqkk4kwk","2","75","85","65","","","","","","","","","","","","","","","",""
"null","audio/cash1.wav","null","audio-keyboard-response","97","2.1.0","104277","F=YES, J=NO","3shqkk4kwk","2","75","85","65","","","","","","","","","","","","","","","",""
"915","
          <p id=""word"" style=""font-size: 40px;"">splear</p>
          <p style=""font-size: 16px;"">F = YES &nbsp;&nbsp;&nbsp; J = NO</p>
        ","j","html-keyboard-response","98","2.1.0","105194","F=YES, J=NO","3shqkk4kwk","2","75","85","65","","","","","","","","","splear","cash1","pseudoword","pseudoword","j","true","",""
"null","<p style=""font-size: 50px;"">+</p>","null","html-keyboard-response","99","2.1.0","105504","F=YES, J=NO","3shqkk4kwk","2","75","85","65","","","","","","","","","","","","","","","",""
"null","audio/beep-329314.mp3","null","audio-keyboard-response","100","2.1.0","107047","F=YES, J=NO","3shqkk4kwk","2","75","85","65","","","","","","","","","","","","","","","",""
"null","audio/birth1.wav","null","audio-keyboard-response","101","2.1.0","107639","F=YES, J=NO","3shqkk4kwk","2","75","85","65","","","","","","","","","","","","","","","",""
"786","
          <p id=""word"" style=""font-size: 40px;"">peel</p>
          <p style=""font-size: 16px;"">F = YES &nbsp;&nbsp;&nbsp; J = NO</p>
        ","f","html-keyboard-response","102","2.1.0","108428","F=YES, J=NO","3shqkk4kwk","2","75","85","65","","","","","","","","","peel","birth1","filler","filler","f","true","",""
"null","<p style=""font-size: 50px;"">+</p>","null","html-keyboard-response","103","2.1.0","108736","F=YES, J=NO","3shqkk4kwk","2","75","85","65","","","","","","","","","","","","","","","",""
"null","audio/beep-329314.mp3","null","audio-keyboard-response","104","2.1.0","110272","F=YES, J=NO","3shqkk4kwk","2","75","85","65","","","","","","","","","","","","","","","",""
"null","audio/ankle1.wav","null","audio-keyboard-response","105","2.1.0","110799","F=YES, J=NO","3shqkk4kwk","2","75","85","65","","","","","","","","","","","","","","","",""
"588","
          <p id=""word"" style=""font-size: 40px;"">kick</p>
          <p style=""font-size: 16px;"">F = YES &nbsp;&nbsp;&nbsp; J = NO</p>
        ","f","html-keyboard-response","106","2.1.0","111389","F=YES, J=NO","3shqkk4kwk","2","75","85","65","","","","","","","","","kick","ankle1","filler","filler","f","true","",""
"null","<p style=""font-size: 50px;"">+</p>","null","html-keyboard-response","107","2.1.0","111696","F=YES, J=NO","3shqkk4kwk","2","75","85","65","","","","","","","","","","","","","","","",""
"null","audio/beep-329314.mp3","null","audio-keyboard-response","108","2.1.0","113209","F=YES, J=NO","3shqkk4kwk","2","75","85","65","","","","","","","","","","","","","","","",""
"null","audio/trout1.wav","null","audio-keyboard-response","109","2.1.0","113800","F=YES, J=NO","3shqkk4kwk","2","75","85","65","","","","","","","","","","","","","","","",""
"657","
          <p id=""word"" style=""font-size: 40px;"">spimt</p>
          <p style=""font-size: 16px;"">F = YES &nbsp;&nbsp;&nbsp; J = NO</p>
        ","j","html-keyboard-response","110","2.1.0","114459","F=YES, J=NO","3shqkk4kwk","2","75","85","65","","","","","","","","","spimt","trout1","pseudoword","pseudoword","j","true","",""
"null","<p style=""font-size: 50px;"">+</p>","null","html-keyboard-response","111","2.1.0","114766","F=YES, J=NO","3shqkk4kwk","2","75","85","65","","","","","","","","","","","","","","","",""
"null","audio/beep-329314.mp3","null","audio-keyboard-response","112","2.1.0","116300","F=YES, J=NO","3shqkk4kwk","2","75","85","65","","","","","","","","","","","","","","","",""
"null","audio/strength.wav","null","audio-keyboard-response","113","2.1.0","117040","F=YES, J=NO","3shqkk4kwk","2","75","85","65","","","","","","","","","","","","","","","",""
"871","
          <p id=""word"" style=""font-size: 40px;"">plabet</p>
          <p style=""font-size: 16px;"">F = YES &nbsp;&nbsp;&nbsp; J = NO</p>
        ","j","html-keyboard-response","114","2.1.0","117913","F=YES, J=NO","3shqkk4kwk","2","75","85","65","","","","","","","","","plabet","strength","pseudoword","pseudoword","j","true","",""
"1368","<p>Starting practice block 2 of 2. Press any key to continue.</p>"," ","html-keyboard-response","115","2.1.0","119282","F=YES, J=NO","3shqkk4kwk","2","75","85","65","","","","","","","","","","","","","","","",""
"null","<p style=""font-size: 50px;"">+</p>","null","html-keyboard-response","116","2.1.0","119586","F=YES, J=NO","3shqkk4kwk","2","75","85","65","","","","","","","","","","","","","","","",""
"null","audio/beep-329314.mp3","null","audio-keyboard-response","117","2.1.0","121128","F=YES, J=NO","3shqkk4kwk","2","75","85","65","","","","","","","","","","","","","","","",""
"null","audio/budget1.wav","null","audio-keyboard-response","118","2.1.0","121779","F=YES, J=NO","3shqkk4kwk","2","75","85","65","","","","","","","","","","","","","","","",""
"696","
          <p id=""word"" style=""font-size: 40px;"">sulist</p>
          <p style=""font-size: 16px;"">F = YES &nbsp;&nbsp;&nbsp; J = NO</p>
        ","j","html-keyboard-response","119","2.1.0","122476","F=YES, J=NO","3shqkk4kwk","2","75","85","65","","","","","","","","","sulist","budget1","pseudoword","pseudoword","j","true","",""
"null","<p style=""font-size: 50px;"">+</p>","null","html-keyboard-response","120","2.1.0","122787","F=YES, J=NO","3shqkk4kwk","2","75","85","65","","","","","","","","","","","","","","","",""
"null","audio/beep-329314.mp3","null","audio-keyboard-response","121","2.1.0","124320","F=YES, J=NO","3shqkk4kwk","2","75","85","65","","","","","","","","","","","","","","","",""
"null","audio/bishop1.wav","null","audio-keyboard-response","122","2.1.0","125175","F=YES, J=NO","3shqkk4kwk","2","75","85","65","","","","","","","","","","","","","","","",""
"517","
          <p id=""word"" style=""font-size: 40px;"">play</p>
          <p style=""font-size: 16px;"">F = YES &nbsp;&nbsp;&nbsp; J = NO</p>
        ","f","html-keyboard-response","123","2.1.0","125694","F=YES, J=NO","3shqkk4kwk","2","75","85","65","","","","","","","","","play","bishop1","filler","filler","f","true","",""
"null","<p style=""font-size: 50px;"">+</p>","null","html-keyboard-response","124","2.1.0","125998","F=YES, J=NO","3shqkk4kwk","2","75","85","65","","","","","","","","","","","","","","","",""
"null","audio/beep-329314.mp3","null","audio-keyboard-response","125","2.1.0","127522","F=YES, J=NO","3shqkk4kwk","2","75","85","65","","","","","","","","","","","","","","","",""
"null","audio/menu.wav","null","audio-keyboard-response","126","2.1.0","128125","F=YES, J=NO","3shqkk4kwk","2","75","85","65","","","","","","","","","","","","","","","",""
"657","
          <p id=""word"" style=""font-size: 40px;"">slice</p>
          <p style=""font-size: 16px;"">F = YES &nbsp;&nbsp;&nbsp; J = NO</p>
        ","f","html-keyboard-response","127","2.1.0","128782","F=YES, J=NO","3shqkk4kwk","2","75","85","65","","","","","","","","","slice","menu","filler","filler","f","true","",""
"null","<p style=""font-size: 50px;"">+</p>","null","html-keyboard-response","128","2.1.0","129090","F=YES, J=NO","3shqkk4kwk","2","75","85","65","","","","","","","","","","","","","","","",""
"null","audio/beep-329314.mp3","null","audio-keyboard-response","129","2.1.0","130614","F=YES, J=NO","3shqkk4kwk","2","75","85","65","","","","","","","","","","","","","","","",""
"null","audio/alarm1.wav","null","audio-keyboard-response","130","2.1.0","131204","F=YES, J=NO","3shqkk4kwk","2","75","85","65","","","","","","","","","","","","","","","",""
"620","
          <p id=""word"" style=""font-size: 40px;"">swetp</p>
          <p style=""font-size: 16px;"">F = YES &nbsp;&nbsp;&nbsp; J = NO</p>
        ","j","html-keyboard-response","131","2.1.0","131825","F=YES, J=NO","3shqkk4kwk","2","75","85","65","","","","","","","","","swetp","alarm1","pseudoword","pseudoword","j","true","",""
"null","<p style=""font-size: 50px;"">+</p>","null","html-keyboard-response","132","2.1.0","132130","F=YES, J=NO","3shqkk4kwk","2","75","85","65","","","","","","","","","","","","","","","",""
"null","audio/beep-329314.mp3","null","audio-keyboard-response","133","2.1.0","133653","F=YES, J=NO","3shqkk4kwk","2","75","85","65","","","","","","","","","","","","","","","",""
"null","audio/grass.wav","null","audio-keyboard-response","134","2.1.0","134294","F=YES, J=NO","3shqkk4kwk","2","75","85","65","","","","","","","","","","","","","","","",""
"726","
          <p id=""word"" style=""font-size: 40px;"">milames</p>
          <p style=""font-size: 16px;"">F = YES &nbsp;&nbsp;&nbsp; J = NO</p>
        ","j","html-keyboard-response","135","2.1.0","135023","F=YES, J=NO","3shqkk4kwk","2","75","85","65","","","","","","","","","milames","grass","pseudoword","pseudoword","j","true","",""
"null","<p style=""font-size: 50px;"">+</p>","null","html-keyboard-response","136","2.1.0","135331","F=YES, J=NO","3shqkk4kwk","2","75","85","65","","","","","","","","","","","","","","","",""
"null","audio/beep-329314.mp3","null","audio-keyboard-response","137","2.1.0","136864","F=YES, J=NO","3shqkk4kwk","2","75","85","65","","","","","","","","","","","","","","","",""
"null","audio/window1.wav","null","audio-keyboard-response","138","2.1.0","137474","F=YES, J=NO","3shqkk4kwk","2","75","85","65","","","","","","","","","","","","","","","",""
"823","
          <p id=""word"" style=""font-size: 40px;"">toss</p>
          <p style=""font-size: 16px;"">F = YES &nbsp;&nbsp;&nbsp; J = NO</p>
        ","f","html-keyboard-response","139","2.1.0","138299","F=YES, J=NO","3shqkk4kwk","2","75","85","65","","","","","","","","","toss","window1","filler","filler","f","true","",""
"null","<p style=""font-size: 50px;"">+</p>","null","html-keyboard-response","140","2.1.0","138601","F=YES, J=NO","3shqkk4kwk","2","75","85","65","","","","","","","","","","","","","","","",""
"null","audio/beep-329314.mp3","null","audio-keyboard-response","141","2.1.0","140134","F=YES, J=NO","3shqkk4kwk","2","75","85","65","","","","","","","","","","","","","","","",""
"null","audio/roof1.wav","null","audio-keyboard-response","142","2.1.0","140663","F=YES, J=NO","3shqkk4kwk","2","75","85","65","","","","","","","","","","","","","","","",""
"725","
          <p id=""word"" style=""font-size: 40px;"">wronb</p>
          <p style=""font-size: 16px;"">F = YES &nbsp;&nbsp;&nbsp; J = NO</p>
        ","j","html-keyboard-response","143","2.1.0","141390","F=YES, J=NO","3shqkk4kwk","2","75","85","65","","","","","","","","","wronb","roof1","pseudoword","pseudoword","j","true","",""
"null","<p style=""font-size: 50px;"">+</p>","null","html-keyboard-response","144","2.1.0","141700","F=YES, J=NO","3shqkk4kwk","2","75","85","65","","","","","","","","","","","","","","","",""
"null","audio/beep-329314.mp3","null","audio-keyboard-response","145","2.1.0","143233","F=YES, J=NO","3shqkk4kwk","2","75","85","65","","","","","","","","","","","","","","","",""
"null","audio/vehicle1.wav","null","audio-keyboard-response","146","2.1.0","143953","F=YES, J=NO","3shqkk4kwk","2","75","85","65","","","","","","","","","","","","","","","",""
"732","
          <p id=""word"" style=""font-size: 40px;"">dropt</p>
          <p style=""font-size: 16px;"">F = YES &nbsp;&nbsp;&nbsp; J = NO</p>
        ","j","html-keyboard-response","147","2.1.0","144687","F=YES, J=NO","3shqkk4kwk","2","75","85","65","","","","","","","","","dropt","vehicle1","pseudoword","pseudoword","j","true","",""
"null","<p style=""font-size: 50px;"">+</p>","null","html-keyboard-response","148","2.1.0","144990","F=YES, J=NO","3shqkk4kwk","2","75","85","65","","","","","","","","","","","","","","","",""
"null","audio/beep-329314.mp3","null","audio-keyboard-response","149","2.1.0","146523","F=YES, J=NO","3shqkk4kwk","2","75","85","65","","","","","","","","","","","","","","","",""
"null","audio/fence.wav","null","audio-keyboard-response","150","2.1.0","147246","F=YES, J=NO","3shqkk4kwk","2","75","85","65","","","","","","","","","","","","","","","",""
"767","
          <p id=""word"" style=""font-size: 40px;"">trim</p>
          <p style=""font-size: 16px;"">F = YES &nbsp;&nbsp;&nbsp; J = NO</p>
        ","f","html-keyboard-response","151","2.1.0","148014","F=YES, J=NO","3shqkk4kwk","2","75","85","65","","","","","","","","","trim","fence","filler","filler","f","true","",""
"null","<p style=""font-size: 50px;"">+</p>","null","html-keyboard-response","152","2.1.0","148322","F=YES, J=NO","3shqkk4kwk","2","75","85","65","","","","","","","","","","","","","","","",""
"null","audio/beep-329314.mp3","null","audio-keyboard-response","153","2.1.0","149856","F=YES, J=NO","3shqkk4kwk","2","75","85","65","","","","","","","","","","","","","","","",""
"null","audio/table1.wav","null","audio-keyboard-response","154","2.1.0","150356","F=YES, J=NO","3shqkk4kwk","2","75","85","65","","","","","","","","","","","","","","","",""
"891","
          <p id=""word"" style=""font-size: 40px;"">stimb</p>
          <p style=""font-size: 16px;"">F = YES &nbsp;&nbsp;&nbsp; J = NO</p>
        ","j","html-keyboard-response","155","2.1.0","151248","F=YES, J=NO","3shqkk4kwk","2","75","85","65","","","","","","","","","stimb","table1","pseudoword","pseudoword","j","true","",""
"null","<p style=""font-size: 50px;"">+</p>","null","html-keyboard-response","156","2.1.0","151552","F=YES, J=NO","3shqkk4kwk","2","75","85","65","","","","","","","","","","","","","","","",""
"null","audio/beep-329314.mp3","null","audio-keyboard-response","157","2.1.0","153085","F=YES, J=NO","3shqkk4kwk","2","75","85","65","","","","","","","","","","","","","","","",""
"null","audio/bottle.wav","null","audio-keyboard-response","158","2.1.0","153577","F=YES, J=NO","3shqkk4kwk","2","75","85","65","","","","","","","","","","","","","","","",""
"728","
          <p id=""word"" style=""font-size: 40px;"">watch</p>
          <p style=""font-size: 16px;"">F = YES &nbsp;&nbsp;&nbsp; J = NO</p>
        ","f","html-keyboard-response","159","2.1.0","154308","F=YES, J=NO","3shqkk4kwk","2","75","85","65","","","","","","","","","watch","bottle","filler","filler","f","true","",""
"null","<p style=""font-size: 50px;"">+</p>","null","html-keyboard-response","160","2.1.0","154615","F=YES, J=NO","3shqkk4kwk","2","75","85","65","","","","","","","","","","","","","","","",""
"null","audio/beep-329314.mp3","null","audio-keyboard-response","161","2.1.0","156137","F=YES, J=NO","3shqkk4kwk","2","75","85","65","","","","","","","","","","","","","","","",""
"null","audio/cancer1.wav","null","audio-keyboard-response","162","2.1.0","156769","F=YES, J=NO","3shqkk4kwk","2","75","85","65","","","","","","","","","","","","","","","",""
"639","
          <p id=""word"" style=""font-size: 40px;"">draw</p>
          <p style=""font-size: 16px;"">F = YES &nbsp;&nbsp;&nbsp; J = NO</p>
        ","f","html-keyboard-response","163","2.1.0","157411","F=YES, J=NO","3shqkk4kwk","2","75","85","65","","","","","","","","","draw","cancer1","filler","filler","f","true","",""
"9350","
    <div style=""max-width: 800px; margin: auto; text-align: left;"">
      <h2>Part 2: Main Trials</h2>
      <p>Great job on the practice trials!</p>
      <p>You will now begin the <strong>main set of trials</strong>.</p>
      <p>Remember your key assignments:</p>
      <ul>
        <li><strong>F</strong> = YES (real English word)</li>
        <li><strong>J</strong> = NO (not a real English word)</li>
      </ul>
      <p>Try to respond as <strong>quickly and accurately</strong> as possible.</p>
      <p style=""margin-top: 2em;"">Press any key to begin the main trials.</p>
    </div>
  "," ","html-keyboard-response","164","2.1.0","166763","F=YES, J=NO","3shqkk4kwk","2","75","85","65","","","","","","","","","","","","","","","",""
"1126","<p>Starting main block 1 of 8. Press any key to continue.</p>"," ","html-keyboard-response","165","2.1.0","167891","F=YES, J=NO","3shqkk4kwk","2","75","85","65","","","","","","","","","","","","","","","",""
"null","<p style=""font-size: 50px;"">+</p>","null","html-keyboard-response","166","2.1.0","168198","F=YES, J=NO","3shqkk4kwk","2","75","85","65","","","","","","","","","","","","","","","",""
"null","audio/beep-329314.mp3","null","audio-keyboard-response","167","2.1.0","169732","F=YES, J=NO","3shqkk4kwk","2","75","85","65","","","","","","","","","","","","","","","",""
"null","audio/test1.wav","null","audio-keyboard-response","168","2.1.0","170311","F=YES, J=NO","3shqkk4kwk","2","75","85","65","","","","","","","","","","","","","","","",""
"617","
          <p id=""word"" style=""font-size: 40px;"">twopch</p>
          <p style=""font-size: 16px;"">F = YES &nbsp;&nbsp;&nbsp; J = NO</p>
        ","j","html-keyboard-response","169","2.1.0","170929","F=YES, J=NO","3shqkk4kwk","2","75","85","65","","","","","","","","","twopch","test1","pseudoword","pseudoword","j","true","",""
"null","<p style=""font-size: 50px;"">+</p>","null","html-keyboard-response","170","2.1.0","171239","F=YES, J=NO","3shqkk4kwk","2","75","85","65","","","","","","","","","","","","","","","",""
"null","audio/beep-329314.mp3","null","audio-keyboard-response","171","2.1.0","172761","F=YES, J=NO","3shqkk4kwk","2","75","85","65","","","","","","","","","","","","","","","",""
"null","audio/gossip1.wav","null","audio-keyboard-response","172","2.1.0","173391","F=YES, J=NO","3shqkk4kwk","2","75","85","65","","","","","","","","","","","","","","","",""
"759","
          <p id=""word"" style=""font-size: 40px;"">camerish</p>
          <p style=""font-size: 16px;"">F = YES &nbsp;&nbsp;&nbsp; J = NO</p>
        ","j","html-keyboard-response","173","2.1.0","174152","F=YES, J=NO","3shqkk4kwk","2","75","85","65","","","","","","","","","camerish","gossip1","pseudoword","pseudoword","j","true","",""
"null","<p style=""font-size: 50px;"">+</p>","null","html-keyboard-response","174","2.1.0","174458","F=YES, J=NO","3shqkk4kwk","2","75","85","65","","","","","","","","","","","","","","","",""
"null","audio/beep-329314.mp3","null","audio-keyboard-response","175","2.1.0","175992","F=YES, J=NO","3shqkk4kwk","2","75","85","65","","","","","","","","","","","","","","","",""
"null","audio/relief.wav","null","audio-keyboard-response","176","2.1.0","176642","F=YES, J=NO","3shqkk4kwk","2","75","85","65","","","","","","","","","","","","","","","",""
"660","
          <p id=""word"" style=""font-size: 40px;"">grigg</p>
          <p style=""font-size: 16px;"">F = YES &nbsp;&nbsp;&nbsp; J = NO</p>
        ","j","html-keyboard-response","177","2.1.0","177303","F=YES, J=NO","3shqkk4kwk","2","75","85","65","","","","","","","","","grigg","relief","pseudoword","pseudoword","j","true","",""
"null","<p style=""font-size: 50px;"">+</p>","null","html-keyboard-response","178","2.1.0","177608","F=YES, J=NO","3shqkk4kwk","2","75","85","65","","","","","","","","","","","","","","","",""
"null","audio/beep-329314.mp3","null","audio-keyboard-response","179","2.1.0","179141","F=YES, J=NO","3shqkk4kwk","2","75","85","65","","","","","","","","","","","","","","","",""
"null","audio/survey1.wav","null","audio-keyboard-response","180","2.1.0","179871","F=YES, J=NO","3shqkk4kwk","2","75","85","65","","","","","","","","","","","","","","","",""
"772","
          <p id=""word"" style=""font-size: 40px;"">imploth</p>
          <p style=""font-size: 16px;"">F = YES &nbsp;&nbsp;&nbsp; J = NO</p>
        ","j","html-keyboard-response","181","2.1.0","180644","F=YES, J=NO","3shqkk4kwk","2","75","85","65","","","","","","","","","imploth","survey1","pseudoword","pseudoword","j","true","",""
"null","<p style=""font-size: 50px;"">+</p>","null","html-keyboard-response","182","2.1.0","180950","F=YES, J=NO","3shqkk4kwk","2","75","85","65","","","","","","","","","","","","","","","",""
"null","audio/beep-329314.mp3","null","audio-keyboard-response","183","2.1.0","182487","F=YES, J=NO","3shqkk4kwk","2","75","85","65","","","","","","","","","","","","","","","",""
"null","audio/empire.wav","null","audio-keyboard-response","184","2.1.0","183156","F=YES, J=NO","3shqkk4kwk","2","75","85","65","","","","","","","","","","","","","","","",""
"562","
          <p id=""word"" style=""font-size: 40px;"">bring</p>
          <p style=""font-size: 16px;"">F = YES &nbsp;&nbsp;&nbsp; J = NO</p>
        ","f","html-keyboard-response","185","2.1.0","183720","F=YES, J=NO","3shqkk4kwk","2","75","85","65","","","","","","","","","bring","empire","unrelated","experimental","f","true","",""
"null","<p style=""font-size: 50px;"">+</p>","null","html-keyboard-response","186","2.1.0","184023","F=YES, J=NO","3shqkk4kwk","2","75","85","65","","","","","","","","","","","","","","","",""
"null","audio/beep-329314.mp3","null","audio-keyboard-response","187","2.1.0","185536","F=YES, J=NO","3shqkk4kwk","2","75","85","65","","","","","","","","","","","","","","","",""
"null","audio/noise1.wav","null","audio-keyboard-response","188","2.1.0","186146","F=YES, J=NO","3shqkk4kwk","2","75","85","65","","","","","","","","","","","","","","","",""
"875","
          <p id=""word"" style=""font-size: 40px;"">slintered</p>
          <p style=""font-size: 16px;"">F = YES &nbsp;&nbsp;&nbsp; J = NO</p>
        ","f","html-keyboard-response","189","2.1.0","187023","F=YES, J=NO","3shqkk4kwk","2","75","85","65","","","","","","","","","slintered","noise1","pseudoword","pseudoword","j","false","",""
"null","<p style=""font-size: 50px;"">+</p>","null","html-keyboard-response","190","2.1.0","187333","F=YES, J=NO","3shqkk4kwk","2","75","85","65","","","","","","","","","","","","","","","",""
"null","audio/beep-329314.mp3","null","audio-keyboard-response","191","2.1.0","188865","F=YES, J=NO","3shqkk4kwk","2","75","85","65","","","","","","","","","","","","","","","",""
"null","audio/grass.wav","null","audio-keyboard-response","192","2.1.0","189526","F=YES, J=NO","3shqkk4kwk","2","75","85","65","","","","","","","","","","","","","","","",""
"524","
          <p id=""word"" style=""font-size: 40px;"">cut</p>
          <p style=""font-size: 16px;"">F = YES &nbsp;&nbsp;&nbsp; J = NO</p>
        ","f","html-keyboard-response","193","2.1.0","190050","F=YES, J=NO","3shqkk4kwk","2","75","85","65","","","","","","","","","cut","grass","literal","experimental","f","true","",""
"null","<p style=""font-size: 50px;"">+</p>","null","html-keyboard-response","194","2.1.0","190352","F=YES, J=NO","3shqkk4kwk","2","75","85","65","","","","","","","","","","","","","","","",""
"null","audio/beep-329314.mp3","null","audio-keyboard-response","195","2.1.0","191866","F=YES, J=NO","3shqkk4kwk","2","75","85","65","","","","","","","","","","","","","","","",""
"null","audio/radio1.wav","null","audio-keyboard-response","196","2.1.0","192466","F=YES, J=NO","3shqkk4kwk","2","75","85","65","","","","","","","","","","","","","","","",""
"653","
          <p id=""word"" style=""font-size: 40px;"">blanter</p>
          <p style=""font-size: 16px;"">F = YES &nbsp;&nbsp;&nbsp; J = NO</p>
        ","f","html-keyboard-response","197","2.1.0","193120","F=YES, J=NO","3shqkk4kwk","2","75","85","65","","","","","","","","","blanter","radio1","pseudoword","pseudoword","j","false","",""
"null","<p style=""font-size: 50px;"">+</p>","null","html-keyboard-response","198","2.1.0","193422","F=YES, J=NO","3shqkk4kwk","2","75","85","65","","","","","","","","","","","","","","","",""
"null","audio/beep-329314.mp3","null","audio-keyboard-response","199","2.1.0","194956","F=YES, J=NO","3shqkk4kwk","2","75","85","65","","","","","","","","","","","","","","","",""
"null","audio/planet1.wav","null","audio-keyboard-response","200","2.1.0","195546","F=YES, J=NO","3shqkk4kwk","2","75","85","65","","","","","","","","","","","","","","","",""
"866","
          <p id=""word"" style=""font-size: 40px;"">cratched</p>
          <p style=""font-size: 16px;"">F = YES &nbsp;&nbsp;&nbsp; J = NO</p>
        ","j","html-keyboard-response","201","2.1.0","196413","F=YES, J=NO","3shqkk4kwk","2","75","85","65","","","","","","","","","cratched","planet1","pseudoword","pseudoword","j","true","",""
"null","<p style=""font-size: 50px;"">+</p>","null","html-keyboard-response","202","2.1.0","196723","F=YES, J=NO","3shqkk4kwk","2","75","85","65","","","","","","","","","","","","","","","",""
"null","audio/beep-329314.mp3","null","audio-keyboard-response","203","2.1.0","198255","F=YES, J=NO","3shqkk4kwk","2","75","85","65","","","","","","","","","","","","","","","",""
"null","audio/cash1.wav","null","audio-keyboard-response","204","2.1.0","198816","F=YES, J=NO","3shqkk4kwk","2","75","85","65","","","","","","","","","","","","","","","",""
"602","
          <p id=""word"" style=""font-size: 40px;"">invest</p>
          <p style=""font-size: 16px;"">F = YES &nbsp;&nbsp;&nbsp; J = NO</p>
        ","f","html-keyboard-response","205","2.1.0","199419","F=YES, J=NO","3shqkk4kwk","2","75","85","65","","","","","","","","","invest","cash1","literal","experimental","f","true","",""
"null","<p style=""font-size: 50px;"">+</p>","null","html-keyboard-response","206","2.1.0","199722","F=YES, J=NO","3shqkk4kwk","2","75","85","65","","","","","","","","","","","","","","","",""
"null","audio/beep-329314.mp3","null","audio-keyboard-response","207","2.1.0","201236","F=YES, J=NO","3shqkk4kwk","2","75","85","65","","","","","","","","","","","","","","","",""
"null","audio/cave1.wav","null","audio-keyboard-response","208","2.1.0","201786","F=YES, J=NO","3shqkk4kwk","2","75","85","65","","","","","","","","","","","","","","","",""
"623","
          <p id=""word"" style=""font-size: 40px;"">hurt</p>
          <p style=""font-size: 16px;"">F = YES &nbsp;&nbsp;&nbsp; J = NO</p>
        ","f","html-keyboard-response","209","2.1.0","202411","F=YES, J=NO","3shqkk4kwk","2","75","85","65","","","","","","","","","hurt","cave1","unrelated","experimental","f","true","",""
"null","<p style=""font-size: 50px;"">+</p>","null","html-keyboard-response","210","2.1.0","202713","F=YES, J=NO","3shqkk4kwk","2","75","85","65","","","","","","","","","","","","","","","",""
"null","audio/beep-329314.mp3","null","audio-keyboard-response","211","2.1.0","204236","F=YES, J=NO","3shqkk4kwk","2","75","85","65","","","","","","","","","","","","","","","",""
"null","audio/mouth1.wav","null","audio-keyboard-response","212","2.1.0","204796","F=YES, J=NO","3shqkk4kwk","2","75","85","65","","","","","","","","","","","","","","","",""
"730","
          <p id=""word"" style=""font-size: 40px;"">spolial</p>
          <p style=""font-size: 16px;"">F = YES &nbsp;&nbsp;&nbsp; J = NO</p>
        ","j","html-keyboard-response","213","2.1.0","205529","F=YES, J=NO","3shqkk4kwk","2","75","85","65","","","","","","","","","spolial","mouth1","pseudoword","pseudoword","j","true","",""
"null","<p style=""font-size: 50px;"">+</p>","null","html-keyboard-response","214","2.1.0","205833","F=YES, J=NO","3shqkk4kwk","2","75","85","65","","","","","","","","","","","","","","","",""
"null","audio/beep-329314.mp3","null","audio-keyboard-response","215","2.1.0","207365","F=YES, J=NO","3shqkk4kwk","2","75","85","65","","","","","","","","","","","","","","","",""
"null","audio/window1.wav","null","audio-keyboard-response","216","2.1.0","207976","F=YES, J=NO","3shqkk4kwk","2","75","85","65","","","","","","","","","","","","","","","",""
"518","
          <p id=""word"" style=""font-size: 40px;"">break</p>
          <p style=""font-size: 16px;"">F = YES &nbsp;&nbsp;&nbsp; J = NO</p>
        ","f","html-keyboard-response","217","2.1.0","208496","F=YES, J=NO","3shqkk4kwk","2","75","85","65","","","","","","","","","break","window1","literal","experimental","f","true","",""
"null","<p style=""font-size: 50px;"">+</p>","null","html-keyboard-response","218","2.1.0","208802","F=YES, J=NO","3shqkk4kwk","2","75","85","65","","","","","","","","","","","","","","","",""
"null","audio/beep-329314.mp3","null","audio-keyboard-response","219","2.1.0","210326","F=YES, J=NO","3shqkk4kwk","2","75","85","65","","","","","","","","","","","","","","","",""
"null","audio/arm.wav","null","audio-keyboard-response","220","2.1.0","210865","F=YES, J=NO","3shqkk4kwk","2","75","85","65","","","","","","","","","","","","","","","",""
"561","
          <p id=""word"" style=""font-size: 40px;"">fold</p>
          <p style=""font-size: 16px;"">F = YES &nbsp;&nbsp;&nbsp; J = NO</p>
        ","f","html-keyboard-response","221","2.1.0","211426","F=YES, J=NO","3shqkk4kwk","2","75","85","65","","","","","","","","","fold","arm","filler","filler","f","true","",""
"null","<p style=""font-size: 50px;"">+</p>","null","html-keyboard-response","222","2.1.0","211732","F=YES, J=NO","3shqkk4kwk","2","75","85","65","","","","","","","","","","","","","","","",""
"null","audio/beep-329314.mp3","null","audio-keyboard-response","223","2.1.0","213256","F=YES, J=NO","3shqkk4kwk","2","75","85","65","","","","","","","","","","","","","","","",""
"null","audio/alarm1.wav","null","audio-keyboard-response","224","2.1.0","213836","F=YES, J=NO","3shqkk4kwk","2","75","85","65","","","","","","","","","","","","","","","",""
"455","
          <p id=""word"" style=""font-size: 40px;"">lock</p>
          <p style=""font-size: 16px;"">F = YES &nbsp;&nbsp;&nbsp; J = NO</p>
        ","f","html-keyboard-response","225","2.1.0","214291","F=YES, J=NO","3shqkk4kwk","2","75","85","65","","","","","","","","","lock","alarm1","filler","filler","f","true","",""
"null","<p style=""font-size: 50px;"">+</p>","null","html-keyboard-response","226","2.1.0","214592","F=YES, J=NO","3shqkk4kwk","2","75","85","65","","","","","","","","","","","","","","","",""
"null","audio/beep-329314.mp3","null","audio-keyboard-response","227","2.1.0","216116","F=YES, J=NO","3shqkk4kwk","2","75","85","65","","","","","","","","","","","","","","","",""
"null","audio/mile1.wav","null","audio-keyboard-response","228","2.1.0","216586","F=YES, J=NO","3shqkk4kwk","2","75","85","65","","","","","","","","","","","","","","","",""
"596","
          <p id=""word"" style=""font-size: 40px;"">writch</p>
          <p style=""font-size: 16px;"">F = YES &nbsp;&nbsp;&nbsp; J = NO</p>
        ","f","html-keyboard-response","229","2.1.0","217183","F=YES, J=NO","3shqkk4kwk","2","75","85","65","","","","","","","","","writch","mile1","pseudoword","pseudoword","j","false","",""
"1814","<p>Excellent! You have finished block 1 of 8.</p>
                     <p>Feel free to take a 30 second break.</p>
                     <p>Press any key when you're ready to continue.</p>"," ","html-keyboard-response","230","2.1.0","218997","F=YES, J=NO","3shqkk4kwk","2","75","85","65","","","","","","","","","","","","","","","",""
"1730","<p>Starting main block 2 of 8. Press any key to continue.</p>"," ","html-keyboard-response","231","2.1.0","220730","F=YES, J=NO","3shqkk4kwk","2","75","85","65","","","","","","","","","","","","","","","",""
"null","<p style=""font-size: 50px;"">+</p>","null","html-keyboard-response","232","2.1.0","221033","F=YES, J=NO","3shqkk4kwk","2","75","85","65","","","","","","","","","","","","","","","",""
"null","audio/beep-329314.mp3","null","audio-keyboard-response","233","2.1.0","222575","F=YES, J=NO","3shqkk4kwk","2","75","85","65","","","","","","","","","","","","","","","",""
"null","audio/essence1.wav","null","audio-keyboard-response","234","2.1.0","223245","F=YES, J=NO","3shqkk4kwk","2","75","85","65","","","","","","","","","","","","","","","",""
"530","
          <p id=""word"" style=""font-size: 40px;"">grasp</p>
          <p style=""font-size: 16px;"">F = YES &nbsp;&nbsp;&nbsp; J = NO</p>
        ","f","html-keyboard-response","235","2.1.0","223778","F=YES, J=NO","3shqkk4kwk","2","75","85","65","","","","","","","","","grasp","essence1","metaphor","experimental","f","true","",""
"null","<p style=""font-size: 50px;"">+</p>","null","html-keyboard-response","236","2.1.0","224083","F=YES, J=NO","3shqkk4kwk","2","75","85","65","","","","","","","","","","","","","","","",""
"null","audio/beep-329314.mp3","null","audio-keyboard-response","237","2.1.0","225606","F=YES, J=NO","3shqkk4kwk","2","75","85","65","","","","","","","","","","","","","","","",""
"null","audio/storm1.wav","null","audio-keyboard-response","238","2.1.0","226215","F=YES, J=NO","3shqkk4kwk","2","75","85","65","","","","","","","","","","","","","","","",""
"565","
          <p id=""word"" style=""font-size: 40px;"">climb</p>
          <p style=""font-size: 16px;"">F = YES &nbsp;&nbsp;&nbsp; J = NO</p>
        ","f","html-keyboard-response","239","2.1.0","226782","F=YES, J=NO","3shqkk4kwk","2","75","85","65","","","","","","","","","climb","storm1","unrelated","experimental","f","true","",""
"null","<p style=""font-size: 50px;"">+</p>","null","html-keyboard-response","240","2.1.0","227092","F=YES, J=NO","3shqkk4kwk","2","75","85","65","","","","","","","","","","","","","","","",""
"null","audio/beep-329314.mp3","null","audio-keyboard-response","241","2.1.0","228606","F=YES, J=NO","3shqkk4kwk","2","75","85","65","","","","","","","","","","","","","","","",""
"null","audio/sand.wav","null","audio-keyboard-response","242","2.1.0","229255","F=YES, J=NO","3shqkk4kwk","2","75","85","65","","","","","","","","","","","","","","","",""
"768","
          <p id=""word"" style=""font-size: 40px;"">proted</p>
          <p style=""font-size: 16px;"">F = YES &nbsp;&nbsp;&nbsp; J = NO</p>
        ","j","html-keyboard-response","243","2.1.0","230024","F=YES, J=NO","3shqkk4kwk","2","75","85","65","","","","","","","","","proted","sand","pseudoword","pseudoword","j","true","",""
"null","<p style=""font-size: 50px;"">+</p>","null","html-keyboard-response","244","2.1.0","230332","F=YES, J=NO","3shqkk4kwk","2","75","85","65","","","","","","","","","","","","","","","",""
"null","audio/beep-329314.mp3","null","audio-keyboard-response","245","2.1.0","231865","F=YES, J=NO","3shqkk4kwk","2","75","85","65","","","","","","","","","","","","","","","",""
"null","audio/client1.wav","null","audio-keyboard-response","246","2.1.0","232538","F=YES, J=NO","3shqkk4kwk","2","75","85","65","","","","","","","","","","","","","","","",""
"670","
          <p id=""word"" style=""font-size: 40px;"">land</p>
          <p style=""font-size: 16px;"">F = YES &nbsp;&nbsp;&nbsp; J = NO</p>
        ","f","html-keyboard-response","247","2.1.0","233208","F=YES, J=NO","3shqkk4kwk","2","75","85","65","","","","","","","","","land","client1","metaphor","experimental","f","true","",""
"null","<p style=""font-size: 50px;"">+</p>","null","html-keyboard-response","248","2.1.0","233515","F=YES, J=NO","3shqkk4kwk","2","75","85","65","","","","","","","","","","","","","","","",""
"null","audio/beep-329314.mp3","null","audio-keyboard-response","249","2.1.0","235048","F=YES, J=NO","3shqkk4kwk","2","75","85","65","","","","","","","","","","","","","","","",""
"null","audio/smirk1.wav","null","audio-keyboard-response","250","2.1.0","235768","F=YES, J=NO","3shqkk4kwk","2","75","85","65","","","","","","","","","","","","","","","",""
"674","
          <p id=""word"" style=""font-size: 40px;"">snopt</p>
          <p style=""font-size: 16px;"">F = YES &nbsp;&nbsp;&nbsp; J = NO</p>
        ","j","html-keyboard-response","251","2.1.0","236443","F=YES, J=NO","3shqkk4kwk","2","75","85","65","","","","","","","","","snopt","smirk1","pseudoword","pseudoword","j","true","",""
"null","<p style=""font-size: 50px;"">+</p>","null","html-keyboard-response","252","2.1.0","236745","F=YES, J=NO","3shqkk4kwk","2","75","85","65","","","","","","","","","","","","","","","",""
"null","audio/beep-329314.mp3","null","audio-keyboard-response","253","2.1.0","238278","F=YES, J=NO","3shqkk4kwk","2","75","85","65","","","","","","","","","","","","","","","",""
"null","audio/breath.wav","null","audio-keyboard-response","254","2.1.0","238828","F=YES, J=NO","3shqkk4kwk","2","75","85","65","","","","","","","","","","","","","","","",""
"686","
          <p id=""word"" style=""font-size: 40px;"">twets</p>
          <p style=""font-size: 16px;"">F = YES &nbsp;&nbsp;&nbsp; J = NO</p>
        ","j","html-keyboard-response","255","2.1.0","239515","F=YES, J=NO","3shqkk4kwk","2","75","85","65","","","","","","","","","twets","breath","pseudoword","pseudoword","j","true","",""
"null","<p style=""font-size: 50px;"">+</p>","null","html-keyboard-response","256","2.1.0","239825","F=YES, J=NO","3shqkk4kwk","2","75","85","65","","","","","","","","","","","","","","","",""
"null","audio/beep-329314.mp3","null","audio-keyboard-response","257","2.1.0","241357","F=YES, J=NO","3shqkk4kwk","2","75","85","65","","","","","","","","","","","","","","","",""
"null","audio/news.wav","null","audio-keyboard-response","258","2.1.0","241998","F=YES, J=NO","3shqkk4kwk","2","75","85","65","","","","","","","","","","","","","","","",""
"605","
          <p id=""word"" style=""font-size: 40px;"">digest</p>
          <p style=""font-size: 16px;"">F = YES &nbsp;&nbsp;&nbsp; J = NO</p>
        ","f","html-keyboard-response","259","2.1.0","242604","F=YES, J=NO","3shqkk4kwk","2","75","85","65","","","","","","","","","digest","news","metaphor","experimental","f","true","",""
"null","<p style=""font-size: 50px;"">+</p>","null","html-keyboard-response","260","2.1.0","242915","F=YES, J=NO","3shqkk4kwk","2","75","85","65","","","","","","","","","","","","","","","",""
"null","audio/beep-329314.mp3","null","audio-keyboard-response","261","2.1.0","244448","F=YES, J=NO","3shqkk4kwk","2","75","85","65","","","","","","","","","","","","","","","",""
"null","audio/demon1.wav","null","audio-keyboard-response","262","2.1.0","244959","F=YES, J=NO","3shqkk4kwk","2","75","85","65","","","","","","","","","","","","","","","",""
"543","
          <p id=""word"" style=""font-size: 40px;"">wrestle</p>
          <p style=""font-size: 16px;"">F = YES &nbsp;&nbsp;&nbsp; J = NO</p>
        ","f","html-keyboard-response","263","2.1.0","245503","F=YES, J=NO","3shqkk4kwk","2","75","85","65","","","","","","","","","wrestle","demon1","metaphor","experimental","f","true","",""
"null","<p style=""font-size: 50px;"">+</p>","null","html-keyboard-response","264","2.1.0","245805","F=YES, J=NO","3shqkk4kwk","2","75","85","65","","","","","","","","","","","","","","","",""
"null","audio/beep-329314.mp3","null","audio-keyboard-response","265","2.1.0","247328","F=YES, J=NO","3shqkk4kwk","2","75","85","65","","","","","","","","","","","","","","","",""
"null","audio/mind.wav","null","audio-keyboard-response","266","2.1.0","247897","F=YES, J=NO","3shqkk4kwk","2","75","85","65","","","","","","","","","","","","","","","",""
"710","
          <p id=""word"" style=""font-size: 40px;"">crainate</p>
          <p style=""font-size: 16px;"">F = YES &nbsp;&nbsp;&nbsp; J = NO</p>
        ","j","html-keyboard-response","267","2.1.0","248610","F=YES, J=NO","3shqkk4kwk","2","75","85","65","","","","","","","","","crainate","mind","pseudoword","pseudoword","j","true","",""
"null","<p style=""font-size: 50px;"">+</p>","null","html-keyboard-response","268","2.1.0","248915","F=YES, J=NO","3shqkk4kwk","2","75","85","65","","","","","","","","","","","","","","","",""
"null","audio/beep-329314.mp3","null","audio-keyboard-response","269","2.1.0","250447","F=YES, J=NO","3shqkk4kwk","2","75","85","65","","","","","","","","","","","","","","","",""
"null","audio/test1.wav","null","audio-keyboard-response","270","2.1.0","251018","F=YES, J=NO","3shqkk4kwk","2","75","85","65","","","","","","","","","","","","","","","",""
"459","
          <p id=""word"" style=""font-size: 40px;"">run</p>
          <p style=""font-size: 16px;"">F = YES &nbsp;&nbsp;&nbsp; J = NO</p>
        ","f","html-keyboard-response","271","2.1.0","251480","F=YES, J=NO","3shqkk4kwk","2","75","85","65","","","","","","","","","run","test1","metaphor","experimental","f","true","",""
"null","<p style=""font-size: 50px;"">+</p>","null","html-keyboard-response","272","2.1.0","251785","F=YES, J=NO","3shqkk4kwk","2","75","85","65","","","","","","","","","","","","","","","",""
"null","audio/beep-329314.mp3","null","audio-keyboard-response","273","2.1.0","253307","F=YES, J=NO","3shqkk4kwk","2","75","85","65","","","","","","","","","","","","","","","",""
"null","audio/beach1.wav","null","audio-keyboard-response","274","2.1.0","253897","F=YES, J=NO","3shqkk4kwk","2","75","85","65","","","","","","","","","","","","","","","",""
"496","
          <p id=""word"" style=""font-size: 40px;"">drive</p>
          <p style=""font-size: 16px;"">F = YES &nbsp;&nbsp;&nbsp; J = NO</p>
        ","f","html-keyboard-response","275","2.1.0","254394","F=YES, J=NO","3shqkk4kwk","2","75","85","65","","","","","","","","","drive","beach1","filler","filler","f","true","",""
"null","<p style=""font-size: 50px;"">+</p>","null","html-keyboard-response","276","2.1.0","254704","F=YES, J=NO","3shqkk4kwk","2","75","85","65","","","","","","","","","","","","","","","",""
"null","audio/beep-329314.mp3","null","audio-keyboard-response","277","2.1.0","256228","F=YES, J=NO","3shqkk4kwk","2","75","85","65","","","","","","","","","","","","","","","",""
"null","audio/account1.wav","null","audio-keyboard-response","278","2.1.0","256898","F=YES, J=NO","3shqkk4kwk","2","75","85","65","","","","","","","","","","","","","","","",""
"499","
          <p id=""word"" style=""font-size: 40px;"">paint</p>
          <p style=""font-size: 16px;"">F = YES &nbsp;&nbsp;&nbsp; J = NO</p>
        ","f","html-keyboard-response","279","2.1.0","257399","F=YES, J=NO","3shqkk4kwk","2","75","85","65","","","","","","","","","paint","account1","filler","filler","f","true","",""
"null","<p style=""font-size: 50px;"">+</p>","null","html-keyboard-response","280","2.1.0","257704","F=YES, J=NO","3shqkk4kwk","2","75","85","65","","","","","","","","","","","","","","","",""
"null","audio/beep-329314.mp3","null","audio-keyboard-response","281","2.1.0","259218","F=YES, J=NO","3shqkk4kwk","2","75","85","65","","","","","","","","","","","","","","","",""
"null","audio/sugar1.wav","null","audio-keyboard-response","282","2.1.0","259708","F=YES, J=NO","3shqkk4kwk","2","75","85","65","","","","","","","","","","","","","","","",""
"719","
          <p id=""word"" style=""font-size: 40px;"">glung</p>
          <p style=""font-size: 16px;"">F = YES &nbsp;&nbsp;&nbsp; J = NO</p>
        ","j","html-keyboard-response","283","2.1.0","260428","F=YES, J=NO","3shqkk4kwk","2","75","85","65","","","","","","","","","glung","sugar1","pseudoword","pseudoword","j","true","",""
"null","<p style=""font-size: 50px;"">+</p>","null","html-keyboard-response","284","2.1.0","260734","F=YES, J=NO","3shqkk4kwk","2","75","85","65","","","","","","","","","","","","","","","",""
"null","audio/beep-329314.mp3","null","audio-keyboard-response","285","2.1.0","262258","F=YES, J=NO","3shqkk4kwk","2","75","85","65","","","","","","","","","","","","","","","",""
"null","audio/pig.wav","null","audio-keyboard-response","286","2.1.0","262628","F=YES, J=NO","3shqkk4kwk","2","75","85","65","","","","","","","","","","","","","","","",""
"697","
          <p id=""word"" style=""font-size: 40px;"">tirlike</p>
          <p style=""font-size: 16px;"">F = YES &nbsp;&nbsp;&nbsp; J = NO</p>
        ","j","html-keyboard-response","287","2.1.0","263327","F=YES, J=NO","3shqkk4kwk","2","75","85","65","","","","","","","","","tirlike","pig","pseudoword","pseudoword","j","true","",""
"null","<p style=""font-size: 50px;"">+</p>","null","html-keyboard-response","288","2.1.0","263635","F=YES, J=NO","3shqkk4kwk","2","75","85","65","","","","","","","","","","","","","","","",""
"null","audio/beep-329314.mp3","null","audio-keyboard-response","289","2.1.0","265158","F=YES, J=NO","3shqkk4kwk","2","75","85","65","","","","","","","","","","","","","","","",""
"null","audio/burden.wav","null","audio-keyboard-response","290","2.1.0","265667","F=YES, J=NO","3shqkk4kwk","2","75","85","65","","","","","","","","","","","","","","","",""
"655","
          <p id=""word"" style=""font-size: 40px;"">whotth</p>
          <p style=""font-size: 16px;"">F = YES &nbsp;&nbsp;&nbsp; J = NO</p>
        ","j","html-keyboard-response","291","2.1.0","266324","F=YES, J=NO","3shqkk4kwk","2","75","85","65","","","","","","","","","whotth","burden","pseudoword","pseudoword","j","true","",""
"null","<p style=""font-size: 50px;"">+</p>","null","html-keyboard-response","292","2.1.0","266634","F=YES, J=NO","3shqkk4kwk","2","75","85","65","","","","","","","","","","","","","","","",""
"null","audio/beep-329314.mp3","null","audio-keyboard-response","293","2.1.0","268161","F=YES, J=NO","3shqkk4kwk","2","75","85","65","","","","","","","","","","","","","","","",""
"null","audio/foot1.wav","null","audio-keyboard-response","294","2.1.0","268718","F=YES, J=NO","3shqkk4kwk","2","75","85","65","","","","","","","","","","","","","","","",""
"628","
          <p id=""word"" style=""font-size: 40px;"">thrutt</p>
          <p style=""font-size: 16px;"">F = YES &nbsp;&nbsp;&nbsp; J = NO</p>
        ","j","html-keyboard-response","295","2.1.0","269347","F=YES, J=NO","3shqkk4kwk","2","75","85","65","","","","","","","","","thrutt","foot1","pseudoword","pseudoword","j","true","",""
"839","<p>Excellent! You have finished block 2 of 8.</p>
                     <p>Feel free to take a 30 second break.</p>
                     <p>Press any key when you're ready to continue.</p>"," ","html-keyboard-response","296","2.1.0","270187","F=YES, J=NO","3shqkk4kwk","2","75","85","65","","","","","","","","","","","","","","","",""
"666","<p>Starting main block 3 of 8. Press any key to continue.</p>"," ","html-keyboard-response","297","2.1.0","270855","F=YES, J=NO","3shqkk4kwk","2","75","85","65","","","","","","","","","","","","","","","",""
"null","<p style=""font-size: 50px;"">+</p>","null","html-keyboard-response","298","2.1.0","271165","F=YES, J=NO","3shqkk4kwk","2","75","85","65","","","","","","","","","","","","","","","",""
"null","audio/beep-329314.mp3","null","audio-keyboard-response","299","2.1.0","272697","F=YES, J=NO","3shqkk4kwk","2","75","85","65","","","","","","","","","","","","","","","",""
"null","audio/roof1.wav","null","audio-keyboard-response","300","2.1.0","273238","F=YES, J=NO","3shqkk4kwk","2","75","85","65","","","","","","","","","","","","","","","",""
"539","
          <p id=""word"" style=""font-size: 40px;"">construct</p>
          <p style=""font-size: 16px;"">F = YES &nbsp;&nbsp;&nbsp; J = NO</p>
        ","f","html-keyboard-response","301","2.1.0","273778","F=YES, J=NO","3shqkk4kwk","2","75","85","65","","","","","","","","","construct","roof1","literal","experimental","f","true","",""
"null","<p style=""font-size: 50px;"">+</p>","null","html-keyboard-response","302","2.1.0","274085","F=YES, J=NO","3shqkk4kwk","2","75","85","65","","","","","","","","","","","","","","","",""
"null","audio/beep-329314.mp3","null","audio-keyboard-response","303","2.1.0","275608","F=YES, J=NO","3shqkk4kwk","2","75","85","65","","","","","","","","","","","","","","","",""
"null","audio/tomato.wav","null","audio-keyboard-response","304","2.1.0","276278","F=YES, J=NO","3shqkk4kwk","2","75","85","65","","","","","","","","","","","","","","","",""
"538","
          <p id=""word"" style=""font-size: 40px;"">grow</p>
          <p style=""font-size: 16px;"">F = YES &nbsp;&nbsp;&nbsp; J = NO</p>
        ","f","html-keyboard-response","305","2.1.0","276816","F=YES, J=NO","3shqkk4kwk","2","75","85","65","","","","","","","","","grow","tomato","literal","experimental","f","true","",""
"null","<p style=""font-size: 50px;"">+</p>","null","html-keyboard-response","306","2.1.0","277125","F=YES, J=NO","3shqkk4kwk","2","75","85","65","","","","","","","","","","","","","","","",""
"null","audio/beep-329314.mp3","null","audio-keyboard-response","307","2.1.0","278647","F=YES, J=NO","3shqkk4kwk","2","75","85","65","","","","","","","","","","","","","","","",""
"null","audio/trust.wav","null","audio-keyboard-response","308","2.1.0","279277","F=YES, J=NO","3shqkk4kwk","2","75","85","65","","","","","","","","","","","","","","","",""
"882","
          <p id=""word"" style=""font-size: 40px;"">swint</p>
          <p style=""font-size: 16px;"">F = YES &nbsp;&nbsp;&nbsp; J = NO</p>
        ","j","html-keyboard-response","309","2.1.0","280162","F=YES, J=NO","3shqkk4kwk","2","75","85","65","","","","","","","","","swint","trust","pseudoword","pseudoword","j","true","",""
"null","<p style=""font-size: 50px;"">+</p>","null","html-keyboard-response","310","2.1.0","280465","F=YES, J=NO","3shqkk4kwk","2","75","85","65","","","","","","","","","","","","","","","",""
"null","audio/beep-329314.mp3","null","audio-keyboard-response","311","2.1.0","281997","F=YES, J=NO","3shqkk4kwk","2","75","85","65","","","","","","","","","","","","","","","",""
"null","audio/van1.wav","null","audio-keyboard-response","312","2.1.0","282488","F=YES, J=NO","3shqkk4kwk","2","75","85","65","","","","","","","","","","","","","","","",""
"521","
          <p id=""word"" style=""font-size: 40px;"">support</p>
          <p style=""font-size: 16px;"">F = YES &nbsp;&nbsp;&nbsp; J = NO</p>
        ","f","html-keyboard-response","313","2.1.0","283010","F=YES, J=NO","3shqkk4kwk","2","75","85","65","","","","","","","","","support","van1","unrelated","experimental","f","true","",""
"null","<p style=""font-size: 50px;"">+</p>","null","html-keyboard-response","314","2.1.0","283314","F=YES, J=NO","3shqkk4kwk","2","75","85","65","","","","","","","","","","","","","","","",""
"null","audio/beep-329314.mp3","null","audio-keyboard-response","315","2.1.0","284838","F=YES, J=NO","3shqkk4kwk","2","75","85","65","","","","","","","","","","","","","","","",""
"null","audio/voice.wav","null","audio-keyboard-response","316","2.1.0","285437","F=YES, J=NO","3shqkk4kwk","2","75","85","65","","","","","","","","","","","","","","","",""
"745","
          <p id=""word"" style=""font-size: 40px;"">flood</p>
          <p style=""font-size: 16px;"">F = YES &nbsp;&nbsp;&nbsp; J = NO</p>
        ","f","html-keyboard-response","317","2.1.0","286183","F=YES, J=NO","3shqkk4kwk","2","75","85","65","","","","","","","","","flood","voice","unrelated","experimental","f","true","",""
"null","<p style=""font-size: 50px;"">+</p>","null","html-keyboard-response","318","2.1.0","286485","F=YES, J=NO","3shqkk4kwk","2","75","85","65","","","","","","","","","","","","","","","",""
"null","audio/beep-329314.mp3","null","audio-keyboard-response","319","2.1.0","288017","F=YES, J=NO","3shqkk4kwk","2","75","85","65","","","","","","","","","","","","","","","",""
"null","audio/corpse1.wav","null","audio-keyboard-response","320","2.1.0","288668","F=YES, J=NO","3shqkk4kwk","2","75","85","65","","","","","","","","","","","","","","","",""
"754","
          <p id=""word"" style=""font-size: 40px;"">glonet</p>
          <p style=""font-size: 16px;"">F = YES &nbsp;&nbsp;&nbsp; J = NO</p>
        ","j","html-keyboard-response","321","2.1.0","289423","F=YES, J=NO","3shqkk4kwk","2","75","85","65","","","","","","","","","glonet","corpse1","pseudoword","pseudoword","j","true","",""
"null","<p style=""font-size: 50px;"">+</p>","null","html-keyboard-response","322","2.1.0","289724","F=YES, J=NO","3shqkk4kwk","2","75","85","65","","","","","","","","","","","","","","","",""
"null","audio/beep-329314.mp3","null","audio-keyboard-response","323","2.1.0","291258","F=YES, J=NO","3shqkk4kwk","2","75","85","65","","","","","","","","","","","","","","","",""
"null","audio/empire.wav","null","audio-keyboard-response","324","2.1.0","291897","F=YES, J=NO","3shqkk4kwk","2","75","85","65","","","","","","","","","","","","","","","",""
"602","
          <p id=""word"" style=""font-size: 40px;"">slorby</p>
          <p style=""font-size: 16px;"">F = YES &nbsp;&nbsp;&nbsp; J = NO</p>
        ","j","html-keyboard-response","325","2.1.0","292501","F=YES, J=NO","3shqkk4kwk","2","75","85","65","","","","","","","","","slorby","empire","pseudoword","pseudoword","j","true","",""
"null","<p style=""font-size: 50px;"">+</p>","null","html-keyboard-response","326","2.1.0","292804","F=YES, J=NO","3shqkk4kwk","2","75","85","65","","","","","","","","","","","","","","","",""
"null","audio/beep-329314.mp3","null","audio-keyboard-response","327","2.1.0","294348","F=YES, J=NO","3shqkk4kwk","2","75","85","65","","","","","","","","","","","","","","","",""
"null","audio/novel.wav","null","audio-keyboard-response","328","2.1.0","294848","F=YES, J=NO","3shqkk4kwk","2","75","85","65","","","","","","","","","","","","","","","",""
"572","
          <p id=""word"" style=""font-size: 40px;"">devour</p>
          <p style=""font-size: 16px;"">F = YES &nbsp;&nbsp;&nbsp; J = NO</p>
        ","f","html-keyboard-response","329","2.1.0","295422","F=YES, J=NO","3shqkk4kwk","2","75","85","65","","","","","","","","","devour","novel","metaphor","experimental","f","true","",""
"null","<p style=""font-size: 50px;"">+</p>","null","html-keyboard-response","330","2.1.0","295724","F=YES, J=NO","3shqkk4kwk","2","75","85","65","","","","","","","","","","","","","","","",""
"null","audio/beep-329314.mp3","null","audio-keyboard-response","331","2.1.0","297248","F=YES, J=NO","3shqkk4kwk","2","75","85","65","","","","","","","","","","","","","","","",""
"null","audio/ship.wav","null","audio-keyboard-response","332","2.1.0","297787","F=YES, J=NO","3shqkk4kwk","2","75","85","65","","","","","","","","","","","","","","","",""
"688","
          <p id=""word"" style=""font-size: 40px;"">scrap</p>
          <p style=""font-size: 16px;"">F = YES &nbsp;&nbsp;&nbsp; J = NO</p>
        ","f","html-keyboard-response","333","2.1.0","298478","F=YES, J=NO","3shqkk4kwk","2","75","85","65","","","","","","","","","scrap","ship","literal","experimental","f","true","",""
"null","<p style=""font-size: 50px;"">+</p>","null","html-keyboard-response","334","2.1.0","298784","F=YES, J=NO","3shqkk4kwk","2","75","85","65","","","","","","","","","","","","","","","",""
"null","audio/beep-329314.mp3","null","audio-keyboard-response","335","2.1.0","300328","F=YES, J=NO","3shqkk4kwk","2","75","85","65","","","","","","","","","","","","","","","",""
"null","audio/road.wav","null","audio-keyboard-response","336","2.1.0","300759","F=YES, J=NO","3shqkk4kwk","2","75","85","65","","","","","","","","","","","","","","","",""
"609","
          <p id=""word"" style=""font-size: 40px;"">wappings</p>
          <p style=""font-size: 16px;"">F = YES &nbsp;&nbsp;&nbsp; J = NO</p>
        ","j","html-keyboard-response","337","2.1.0","301370","F=YES, J=NO","3shqkk4kwk","2","75","85","65","","","","","","","","","wappings","road","pseudoword","pseudoword","j","true","",""
"null","<p style=""font-size: 50px;"">+</p>","null","html-keyboard-response","338","2.1.0","301676","F=YES, J=NO","3shqkk4kwk","2","75","85","65","","","","","","","","","","","","","","","",""
"null","audio/beep-329314.mp3","null","audio-keyboard-response","339","2.1.0","303200","F=YES, J=NO","3shqkk4kwk","2","75","85","65","","","","","","","","","","","","","","","",""
"null","audio/key1.wav","null","audio-keyboard-response","340","2.1.0","303580","F=YES, J=NO","3shqkk4kwk","2","75","85","65","","","","","","","","","","","","","","","",""
"628","
          <p id=""word"" style=""font-size: 40px;"">sminsh</p>
          <p style=""font-size: 16px;"">F = YES &nbsp;&nbsp;&nbsp; J = NO</p>
        ","j","html-keyboard-response","341","2.1.0","304209","F=YES, J=NO","3shqkk4kwk","2","75","85","65","","","","","","","","","sminsh","key1","pseudoword","pseudoword","j","true","",""
"null","<p style=""font-size: 50px;"">+</p>","null","html-keyboard-response","342","2.1.0","304516","F=YES, J=NO","3shqkk4kwk","2","75","85","65","","","","","","","","","","","","","","","",""
"null","audio/beep-329314.mp3","null","audio-keyboard-response","343","2.1.0","306030","F=YES, J=NO","3shqkk4kwk","2","75","85","65","","","","","","","","","","","","","","","",""
"null","audio/church1.wav","null","audio-keyboard-response","344","2.1.0","306720","F=YES, J=NO","3shqkk4kwk","2","75","85","65","","","","","","","","","","","","","","","",""
"443","
          <p id=""word"" style=""font-size: 40px;"">cover</p>
          <p style=""font-size: 16px;"">F = YES &nbsp;&nbsp;&nbsp; J = NO</p>
        ","f","html-keyboard-response","345","2.1.0","307165","F=YES, J=NO","3shqkk4kwk","2","75","85","65","","","","","","","","","cover","church1","unrelated","experimental","f","true","",""
"null","<p style=""font-size: 50px;"">+</p>","null","html-keyboard-response","346","2.1.0","307467","F=YES, J=NO","3shqkk4kwk","2","75","85","65","","","","","","","","","","","","","","","",""
"null","audio/beep-329314.mp3","null","audio-keyboard-response","347","2.1.0","308990","F=YES, J=NO","3shqkk4kwk","2","75","85","65","","","","","","","","","","","","","","","",""
"null","audio/arm.wav","null","audio-keyboard-response","348","2.1.0","309530","F=YES, J=NO","3shqkk4kwk","2","75","85","65","","","","","","","","","","","","","","","",""
"609","
          <p id=""word"" style=""font-size: 40px;"">pigne</p>
          <p style=""font-size: 16px;"">F = YES &nbsp;&nbsp;&nbsp; J = NO</p>
        ","j","html-keyboard-response","349","2.1.0","310141","F=YES, J=NO","3shqkk4kwk","2","75","85","65","","","","","","","","","pigne","arm","pseudoword","pseudoword","j","true","",""
"null","<p style=""font-size: 50px;"">+</p>","null","html-keyboard-response","350","2.1.0","310447","F=YES, J=NO","3shqkk4kwk","2","75","85","65","","","","","","","","","","","","","","","",""
"null","audio/beep-329314.mp3","null","audio-keyboard-response","351","2.1.0","311994","F=YES, J=NO","3shqkk4kwk","2","75","85","65","","","","","","","","","","","","","","","",""
"null","audio/hawk1.wav","null","audio-keyboard-response","352","2.1.0","312591","F=YES, J=NO","3shqkk4kwk","2","75","85","65","","","","","","","","","","","","","","","",""
"719","
          <p id=""word"" style=""font-size: 40px;"">ostach</p>
          <p style=""font-size: 16px;"">F = YES &nbsp;&nbsp;&nbsp; J = NO</p>
        ","j","html-keyboard-response","353","2.1.0","313310","F=YES, J=NO","3shqkk4kwk","2","75","85","65","","","","","","","","","ostach","hawk1","pseudoword","pseudoword","j","true","",""
"null","<p style=""font-size: 50px;"">+</p>","null","html-keyboard-response","354","2.1.0","313619","F=YES, J=NO","3shqkk4kwk","2","75","85","65","","","","","","","","","","","","","","","",""
"null","audio/beep-329314.mp3","null","audio-keyboard-response","355","2.1.0","315152","F=YES, J=NO","3shqkk4kwk","2","75","85","65","","","","","","","","","","","","","","","",""
"null","audio/baby.wav","null","audio-keyboard-response","356","2.1.0","315621","F=YES, J=NO","3shqkk4kwk","2","75","85","65","","","","","","","","","","","","","","","",""
"559","
          <p id=""word"" style=""font-size: 40px;"">lift</p>
          <p style=""font-size: 16px;"">F = YES &nbsp;&nbsp;&nbsp; J = NO</p>
        ","f","html-keyboard-response","357","2.1.0","316181","F=YES, J=NO","3shqkk4kwk","2","75","85","65","","","","","","","","","lift","baby","filler","filler","f","true","",""
"null","<p style=""font-size: 50px;"">+</p>","null","html-keyboard-response","358","2.1.0","316489","F=YES, J=NO","3shqkk4kwk","2","75","85","65","","","","","","","","","","","","","","","",""
"null","audio/beep-329314.mp3","null","audio-keyboard-response","359","2.1.0","318002","F=YES, J=NO","3shqkk4kwk","2","75","85","65","","","","","","","","","","","","","","","",""
"null","audio/battle1.wav","null","audio-keyboard-response","360","2.1.0","318462","F=YES, J=NO","3shqkk4kwk","2","75","85","65","","","","","","","","","","","","","","","",""
"612","
          <p id=""word"" style=""font-size: 40px;"">boil</p>
          <p style=""font-size: 16px;"">F = YES &nbsp;&nbsp;&nbsp; J = NO</p>
        ","f","html-keyboard-response","361","2.1.0","319075","F=YES, J=NO","3shqkk4kwk","2","75","85","65","","","","","","","","","boil","battle1","filler","filler","f","true","",""
"8907","<p>Excellent! You have finished block 3 of 8.</p>
                     <p>Feel free to take a 30 second break.</p>
                     <p>Press any key when you're ready to continue.</p>"," ","html-keyboard-response","362","2.1.0","327983","F=YES, J=NO","3shqkk4kwk","2","75","85","65","","","","","","","","","","","","","","","",""
"1685","<p>Starting main block 4 of 8. Press any key to continue.</p>"," ","html-keyboard-response","363","2.1.0","329670","F=YES, J=NO","3shqkk4kwk","2","75","85","65","","","","","","","","","","","","","","","",""
"null","<p style=""font-size: 50px;"">+</p>","null","html-keyboard-response","364","2.1.0","329971","F=YES, J=NO","3shqkk4kwk","2","75","85","65","","","","","","","","","","","","","","","",""
"null","audio/beep-329314.mp3","null","audio-keyboard-response","365","2.1.0","331512","F=YES, J=NO","3shqkk4kwk","2","75","85","65","","","","","","","","","","","","","","","",""
"null","audio/dollar.wav","null","audio-keyboard-response","366","2.1.0","331879","F=YES, J=NO","3shqkk4kwk","2","75","85","65","","","","","","","","","","","","","","","",""
"627","
          <p id=""word"" style=""font-size: 40px;"">gliptism</p>
          <p style=""font-size: 16px;"">F = YES &nbsp;&nbsp;&nbsp; J = NO</p>
        ","j","html-keyboard-response","367","2.1.0","332509","F=YES, J=NO","3shqkk4kwk","2","75","85","65","","","","","","","","","gliptism","dollar","pseudoword","pseudoword","j","true","",""
"null","<p style=""font-size: 50px;"">+</p>","null","html-keyboard-response","368","2.1.0","332810","F=YES, J=NO","3shqkk4kwk","2","75","85","65","","","","","","","","","","","","","","","",""
"null","audio/beep-329314.mp3","null","audio-keyboard-response","369","2.1.0","334327","F=YES, J=NO","3shqkk4kwk","2","75","85","65","","","","","","","","","","","","","","","",""
"null","audio/bomb1.wav","null","audio-keyboard-response","370","2.1.0","334718","F=YES, J=NO","3shqkk4kwk","2","75","85","65","","","","","","","","","","","","","","","",""
"592","
          <p id=""word"" style=""font-size: 40px;"">drop</p>
          <p style=""font-size: 16px;"">F = YES &nbsp;&nbsp;&nbsp; J = NO</p>
        ","f","html-keyboard-response","371","2.1.0","335313","F=YES, J=NO","3shqkk4kwk","2","75","85","65","","","","","","","","","drop","bomb1","literal","experimental","f","true","",""
"null","<p style=""font-size: 50px;"">+</p>","null","html-keyboard-response","372","2.1.0","335614","F=YES, J=NO","3shqkk4kwk","2","75","85","65","","","","","","","","","","","","","","","",""
"null","audio/beep-329314.mp3","null","audio-keyboard-response","373","2.1.0","337129","F=YES, J=NO","3shqkk4kwk","2","75","85","65","","","","","","","","","","","","","","","",""
"null","audio/age1.wav","null","audio-keyboard-response","374","2.1.0","337686","F=YES, J=NO","3shqkk4kwk","2","75","85","65","","","","","","","","","","","","","","","",""
"540","
          <p id=""word"" style=""font-size: 40px;"">seize</p>
          <p style=""font-size: 16px;"">F = YES &nbsp;&nbsp;&nbsp; J = NO</p>
        ","f","html-keyboard-response","375","2.1.0","338228","F=YES, J=NO","3shqkk4kwk","2","75","85","65","","","","","","","","","seize","age1","unrelated","experimental","f","true","",""
"null","<p style=""font-size: 50px;"">+</p>","null","html-keyboard-response","376","2.1.0","338530","F=YES, J=NO","3shqkk4kwk","2","75","85","65","","","","","","","","","","","","","","","",""
"null","audio/beep-329314.mp3","null","audio-keyboard-response","377","2.1.0","340044","F=YES, J=NO","3shqkk4kwk","2","75","85","65","","","","","","","","","","","","","","","",""
"null","audio/bush1.wav","null","audio-keyboard-response","378","2.1.0","340522","F=YES, J=NO","3shqkk4kwk","2","75","85","65","","","","","","","","","","","","","","","",""
"729","
          <p id=""word"" style=""font-size: 40px;"">platined</p>
          <p style=""font-size: 16px;"">F = YES &nbsp;&nbsp;&nbsp; J = NO</p>
        ","j","html-keyboard-response","379","2.1.0","341251","F=YES, J=NO","3shqkk4kwk","2","75","85","65","","","","","","","","","platined","bush1","pseudoword","pseudoword","j","true","",""
"null","<p style=""font-size: 50px;"">+</p>","null","html-keyboard-response","380","2.1.0","341553","F=YES, J=NO","3shqkk4kwk","2","75","85","65","","","","","","","","","","","","","","","",""
"null","audio/beep-329314.mp3","null","audio-keyboard-response","381","2.1.0","343068","F=YES, J=NO","3shqkk4kwk","2","75","85","65","","","","","","","","","","","","","","","",""
"null","audio/hotel1.wav","null","audio-keyboard-response","382","2.1.0","343690","F=YES, J=NO","3shqkk4kwk","2","75","85","65","","","","","","","","","","","","","","","",""
"719","
          <p id=""word"" style=""font-size: 40px;"">spread</p>
          <p style=""font-size: 16px;"">F = YES &nbsp;&nbsp;&nbsp; J = NO</p>
        ","f","html-keyboard-response","383","2.1.0","344411","F=YES, J=NO","3shqkk4kwk","2","75","85","65","","","","","","","","","spread","hotel1","unrelated","experimental","f","true","",""
"null","<p style=""font-size: 50px;"">+</p>","null","html-keyboard-response","384","2.1.0","344712","F=YES, J=NO","3shqkk4kwk","2","75","85","65","","","","","","","","","","","","","","","",""
"null","audio/beep-329314.mp3","null","audio-keyboard-response","385","2.1.0","346235","F=YES, J=NO","3shqkk4kwk","2","75","85","65","","","","","","","","","","","","","","","",""
"null","audio/soul.wav","null","audio-keyboard-response","386","2.1.0","346825","F=YES, J=NO","3shqkk4kwk","2","75","85","65","","","","","","","","","","","","","","","",""
"545","
          <p id=""word"" style=""font-size: 40px;"">sell</p>
          <p style=""font-size: 16px;"">F = YES &nbsp;&nbsp;&nbsp; J = NO</p>
        ","f","html-keyboard-response","387","2.1.0","347372","F=YES, J=NO","3shqkk4kwk","2","75","85","65","","","","","","","","","sell","soul","metaphor","experimental","f","true","",""
"null","<p style=""font-size: 50px;"">+</p>","null","html-keyboard-response","388","2.1.0","347674","F=YES, J=NO","3shqkk4kwk","2","75","85","65","","","","","","","","","","","","","","","",""
"null","audio/beep-329314.mp3","null","audio-keyboard-response","389","2.1.0","349190","F=YES, J=NO","3shqkk4kwk","2","75","85","65","","","","","","","","","","","","","","","",""
"null","audio/baby.wav","null","audio-keyboard-response","390","2.1.0","349660","F=YES, J=NO","3shqkk4kwk","2","75","85","65","","","","","","","","","","","","","","","",""
"489","
          <p id=""word"" style=""font-size: 40px;"">hold</p>
          <p style=""font-size: 16px;"">F = YES &nbsp;&nbsp;&nbsp; J = NO</p>
        ","f","html-keyboard-response","391","2.1.0","350151","F=YES, J=NO","3shqkk4kwk","2","75","85","65","","","","","","","","","hold","baby","literal","experimental","f","true","",""
