"rt","stimulus","response","trial_type","trial_index","plugin_version","time_elapsed","response_mapping","subject_id","list_index","lextale_score","lextale_word_score","lextale_nonword_score","success","timeout","failed_images","failed_audio","failed_video","task","isWord","isDummy","target","prime","prime_type","stimulus_type","correct_response","correct","section","question_order"
"47148","
    <div style=""max-width: 800px; margin: auto; text-align: left;"">
      <h2>STANFORD UNIVERSITY</h2>
      <h3>Research Information Sheet</h3>
      <p><strong>Protocol Director:</strong> Robert Hawkins<br>
      <strong>Protocol Title:</strong> Communication and social cognition in natural audiovisual contexts<br>
      <strong>IRB#:</strong> 77226</p>

      <p><strong>DESCRIPTION:</strong> You are invited to participate in a research study about language and communication. The purpose of the research is to understand how you interact and communicate with other people in naturalistic settings as a fluent English speaker. This research will be conducted through the Prolific platform, including participants from the US, UK, and Canada. If you decide to participate in this research, you will play a communication game in a group with one or more partners.</p>

      <p><strong>TIME INVOLVEMENT:</strong> The task will last the amount of time advertised on Prolific. You are free to withdraw from the study at any time.</p>

      <p><strong>RISKS AND BENEFITS:</strong> You may become frustrated if your partner gets distracted, or experience discomfort if other participants in your group send text that is inappropriate for the task. We ask you to please be respectful of other participants you might be interacting with to mitigate these risks. You may also experience discomfort when being asked to discuss or challenge emotionally salient political beliefs. Study data will be stored securely, in compliance with Stanford University standards, minimizing the risk of confidentiality breach. This study advances our scientific understanding of how people communicate and collaborate in naturalistic settings. This study may lead to further insights about what can go wrong in teamwork, suggest potential interventions to overcome these barriers, and help to develop assistive technologies that collaborate with human partners. We cannot and do not guarantee or promise that you will receive any benefits from this study.</p>

      <p><strong>PAYMENTS:</strong> You will receive payment in the amount advertised on Prolific. If you do not complete this study, you will receive prorated payment based on the time that you have spent. Additionally, you may be eligible for bonus payments as described in the instructions.</p>

      <p><strong>PARTICIPANT’S RIGHTS:</strong> If you have read this form and have decided to participate in this project, please understand your participation is voluntary and you have the right to withdraw your consent or discontinue participation at any time without penalty or loss of benefits to which you are otherwise entitled. The alternative is not to participate. You have the right to refuse to answer particular questions. The results of this research study may be presented at scientific or professional meetings or published in scientific journals. Your individual privacy will be maintained in all published and written data resulting from the study. In accordance with scientific norms, the data from this study may be used or shared with other researchers for future research (after removing personally identifying information) without additional consent from you.</p>

      <p><strong>CONTACT INFORMATION:</strong><br>
      Questions: If you have any questions, concerns or complaints about this research, its procedures, risks and benefits, contact the Protocol Director, Robert Hawkins (<a href=""mailto:rdhawkins@stanford.edu"">rdhawkins@stanford.edu</a>, 217-549-6923).<br>
      Independent Contact: If you are not satisfied with how this study is being conducted, or if you have any concerns, complaints, or general questions about the research or your rights as a participant, please contact the Stanford Institutional Review Board (IRB) to speak to someone independent of the research team at 650-723-2480 or toll free at 1-866-680-2906, or email at <a href=""mailto:irbnon-med@stanford.edu"">irbnon-med@stanford.edu</a>. You can also write to the Stanford IRB, Stanford University, 1705 El Camino Real, Palo Alto, CA 94306.</p>

      <p><strong>Please save or print a copy of this page for your records.</strong></p>
      <p>If you agree to participate in this research, click ""Continue"" below.</p>
    </div>
  ","0","html-button-response","0","2.1.0","47158","F=YES, J=NO","54rwoytone","2","71","63","80","","","","","","","","","","","","","","","",""
"15449","
    <div style=""max-width: 800px; margin: auto; text-align: left;"">
      <h2>Welcome!</h2>
      <p>Thank you for participating in this study. The experiment consists of three parts:</p>
      <ol>
        <li>An English vocabulary test</li>
        <li>A main task in which you will hear and see words, and decide whether the written word is a real English word</li>
        <li>A brief survey about your background</li>
      </ol>
      <p>Each part will be introduced before it begins.</p>
      <p>Please make sure you are in a quiet environment and can hear audio clearly for the final task.</p>
      <p style=""margin-top: 2em;"">Press any key to begin.</p>
    </div>
  "," ","html-keyboard-response","1","2.1.0","62610","F=YES, J=NO","54rwoytone","2","71","63","80","","","","","","","","","","","","","","","",""
"","","","preload","2","2.1.0","63321","F=YES, J=NO","54rwoytone","2","71","63","80","true","false","[]","[]","[]","","","","","","","","","","",""
"5479","
    <div style=""max-width: 800px; margin: auto; text-align: left;"">
      <h2>Part 1: Vocabulary Test</h2>
      <p>You will now complete the first part of the study: a short English vocabulary test.</p>
      <p>This test is called <strong>LexTALE</strong> and helps us get a general sense of your English proficiency.</p>
      <p style=""margin-top: 2em;"">Press any key to continue.</p>
    </div>
  "," ","html-keyboard-response","3","2.1.0","68802","F=YES, J=NO","54rwoytone","2","71","63","80","","","","","","","","","","","","","","","",""
"49429","
    <div style=""max-width: 800px; margin: auto; text-align: left;"">
      <h2>LexTALE Vocabulary Test</h2>
      <p>In this test, you will see a series of letter strings—one at a time.</p>
      <p>Your task is to decide whether each string is a real English word.</p>
      <p><strong>Key responses:</strong></p>
      <ul>
        <li><strong>F</strong> = YES (real English word)</li>
        <li><strong>J</strong> = NO (not a real English word)</li>
      </ul>
      <p>There is no time limit, but please try to be accurate.</p>
      <p style=""margin-top: 2em;"">Press any key to begin.</p>
    </div>
  "," ","html-keyboard-response","4","2.1.0","118234","F=YES, J=NO","54rwoytone","2","71","63","80","","","","","","","","","","","","","","","",""
"2141","
  <p style=""font-size: 40px;"">platery</p>
  <p style=""font-size: 16px;"">F = YES &nbsp;&nbsp;&nbsp; J = NO</p>
","f","html-keyboard-response","5","2.1.0","120378","F=YES, J=NO","54rwoytone","2","71","63","80","","","","","","lextale","false","true","","","","","","","",""
"1784","
  <p style=""font-size: 40px;"">denial</p>
  <p style=""font-size: 16px;"">F = YES &nbsp;&nbsp;&nbsp; J = NO</p>
","j","html-keyboard-response","6","2.1.0","122165","F=YES, J=NO","54rwoytone","2","71","63","80","","","","","","lextale","true","true","","","","","","","",""
"1068","
  <p style=""font-size: 40px;"">marrit</p>
  <p style=""font-size: 16px;"">F = YES &nbsp;&nbsp;&nbsp; J = NO</p>
","j","html-keyboard-response","7","2.1.0","123234","F=YES, J=NO","54rwoytone","2","71","63","80","","","","","","lextale","false","true","","","","","","","",""
"791","
  <p style=""font-size: 40px;"">bottle</p>
  <p style=""font-size: 16px;"">F = YES &nbsp;&nbsp;&nbsp; J = NO</p>
","f","html-keyboard-response","8","2.1.0","124027","F=YES, J=NO","54rwoytone","2","71","63","80","","","","","","lextale","true","false","","","","","","","",""
"972","
  <p style=""font-size: 40px;"">birst</p>
  <p style=""font-size: 16px;"">F = YES &nbsp;&nbsp;&nbsp; J = NO</p>
","j","html-keyboard-response","9","2.1.0","125001","F=YES, J=NO","54rwoytone","2","71","63","80","","","","","","lextale","false","false","","","","","","","",""
"800","
  <p style=""font-size: 40px;"">envy</p>
  <p style=""font-size: 16px;"">F = YES &nbsp;&nbsp;&nbsp; J = NO</p>
","j","html-keyboard-response","10","2.1.0","125803","F=YES, J=NO","54rwoytone","2","71","63","80","","","","","","lextale","true","false","","","","","","","",""
"1320","
  <p style=""font-size: 40px;"">brang</p>
  <p style=""font-size: 16px;"">F = YES &nbsp;&nbsp;&nbsp; J = NO</p>
","j","html-keyboard-response","11","2.1.0","127126","F=YES, J=NO","54rwoytone","2","71","63","80","","","","","","lextale","false","false","","","","","","","",""
"821","
  <p style=""font-size: 40px;"">huge</p>
  <p style=""font-size: 16px;"">F = YES &nbsp;&nbsp;&nbsp; J = NO</p>
","f","html-keyboard-response","12","2.1.0","127950","F=YES, J=NO","54rwoytone","2","71","63","80","","","","","","lextale","true","false","","","","","","","",""
"822","
  <p style=""font-size: 40px;"">plove</p>
  <p style=""font-size: 16px;"">F = YES &nbsp;&nbsp;&nbsp; J = NO</p>
","j","html-keyboard-response","13","2.1.0","128774","F=YES, J=NO","54rwoytone","2","71","63","80","","","","","","lextale","false","false","","","","","","","",""
"721","
  <p style=""font-size: 40px;"">border</p>
  <p style=""font-size: 16px;"">F = YES &nbsp;&nbsp;&nbsp; J = NO</p>
","f","html-keyboard-response","14","2.1.0","129497","F=YES, J=NO","54rwoytone","2","71","63","80","","","","","","lextale","true","false","","","","","","","",""
"868","
  <p style=""font-size: 40px;"">flimsy</p>
  <p style=""font-size: 16px;"">F = YES &nbsp;&nbsp;&nbsp; J = NO</p>
","j","html-keyboard-response","15","2.1.0","130366","F=YES, J=NO","54rwoytone","2","71","63","80","","","","","","lextale","true","false","","","","","","","",""
"668","
  <p style=""font-size: 40px;"">drain</p>
  <p style=""font-size: 16px;"">F = YES &nbsp;&nbsp;&nbsp; J = NO</p>
","f","html-keyboard-response","16","2.1.0","131035","F=YES, J=NO","54rwoytone","2","71","63","80","","","","","","lextale","true","false","","","","","","","",""
"946","
  <p style=""font-size: 40px;"">twindle</p>
  <p style=""font-size: 16px;"">F = YES &nbsp;&nbsp;&nbsp; J = NO</p>
","j","html-keyboard-response","17","2.1.0","131985","F=YES, J=NO","54rwoytone","2","71","63","80","","","","","","lextale","false","false","","","","","","","",""
"832","
  <p style=""font-size: 40px;"">propose</p>
  <p style=""font-size: 16px;"">F = YES &nbsp;&nbsp;&nbsp; J = NO</p>
","f","html-keyboard-response","18","2.1.0","132819","F=YES, J=NO","54rwoytone","2","71","63","80","","","","","","lextale","true","false","","","","","","","",""
"1061","
  <p style=""font-size: 40px;"">forlay</p>
  <p style=""font-size: 16px;"">F = YES &nbsp;&nbsp;&nbsp; J = NO</p>
","j","html-keyboard-response","19","2.1.0","133882","F=YES, J=NO","54rwoytone","2","71","63","80","","","","","","lextale","false","false","","","","","","","",""
"907","
  <p style=""font-size: 40px;"">tenant</p>
  <p style=""font-size: 16px;"">F = YES &nbsp;&nbsp;&nbsp; J = NO</p>
","f","html-keyboard-response","20","2.1.0","134792","F=YES, J=NO","54rwoytone","2","71","63","80","","","","","","lextale","true","false","","","","","","","",""
"706","
  <p style=""font-size: 40px;"">strain</p>
  <p style=""font-size: 16px;"">F = YES &nbsp;&nbsp;&nbsp; J = NO</p>
","f","html-keyboard-response","21","2.1.0","135501","F=YES, J=NO","54rwoytone","2","71","63","80","","","","","","lextale","true","false","","","","","","","",""
"842","
  <p style=""font-size: 40px;"">holster</p>
  <p style=""font-size: 16px;"">F = YES &nbsp;&nbsp;&nbsp; J = NO</p>
","j","html-keyboard-response","22","2.1.0","136345","F=YES, J=NO","54rwoytone","2","71","63","80","","","","","","lextale","true","false","","","","","","","",""
"721","
  <p style=""font-size: 40px;"">hinder</p>
  <p style=""font-size: 16px;"">F = YES &nbsp;&nbsp;&nbsp; J = NO</p>
","f","html-keyboard-response","23","2.1.0","137071","F=YES, J=NO","54rwoytone","2","71","63","80","","","","","","lextale","true","false","","","","","","","",""
"1227","
  <p style=""font-size: 40px;"">swindle</p>
  <p style=""font-size: 16px;"">F = YES &nbsp;&nbsp;&nbsp; J = NO</p>
","j","html-keyboard-response","24","2.1.0","138302","F=YES, J=NO","54rwoytone","2","71","63","80","","","","","","lextale","true","false","","","","","","","",""
"582","
  <p style=""font-size: 40px;"">nuder</p>
  <p style=""font-size: 16px;"">F = YES &nbsp;&nbsp;&nbsp; J = NO</p>
","f","html-keyboard-response","25","2.1.0","138887","F=YES, J=NO","54rwoytone","2","71","63","80","","","","","","lextale","false","false","","","","","","","",""
"836","
  <p style=""font-size: 40px;"">pillow</p>
  <p style=""font-size: 16px;"">F = YES &nbsp;&nbsp;&nbsp; J = NO</p>
","f","html-keyboard-response","26","2.1.0","139726","F=YES, J=NO","54rwoytone","2","71","63","80","","","","","","lextale","true","false","","","","","","","",""
"1291","
  <p style=""font-size: 40px;"">shumble</p>
  <p style=""font-size: 16px;"">F = YES &nbsp;&nbsp;&nbsp; J = NO</p>
","j","html-keyboard-response","27","2.1.0","141021","F=YES, J=NO","54rwoytone","2","71","63","80","","","","","","lextale","false","false","","","","","","","",""
"901","
  <p style=""font-size: 40px;"">thirst</p>
  <p style=""font-size: 16px;"">F = YES &nbsp;&nbsp;&nbsp; J = NO</p>
","f","html-keyboard-response","28","2.1.0","141924","F=YES, J=NO","54rwoytone","2","71","63","80","","","","","","lextale","true","false","","","","","","","",""
"841","
  <p style=""font-size: 40px;"">unsail</p>
  <p style=""font-size: 16px;"">F = YES &nbsp;&nbsp;&nbsp; J = NO</p>
","j","html-keyboard-response","29","2.1.0","142767","F=YES, J=NO","54rwoytone","2","71","63","80","","","","","","lextale","false","false","","","","","","","",""
"908","
  <p style=""font-size: 40px;"">rifle</p>
  <p style=""font-size: 16px;"">F = YES &nbsp;&nbsp;&nbsp; J = NO</p>
","f","html-keyboard-response","30","2.1.0","143677","F=YES, J=NO","54rwoytone","2","71","63","80","","","","","","lextale","true","false","","","","","","","",""
"801","
  <p style=""font-size: 40px;"">mush</p>
  <p style=""font-size: 16px;"">F = YES &nbsp;&nbsp;&nbsp; J = NO</p>
","f","html-keyboard-response","31","2.1.0","144482","F=YES, J=NO","54rwoytone","2","71","63","80","","","","","","lextale","false","false","","","","","","","",""
"1180","
  <p style=""font-size: 40px;"">drench</p>
  <p style=""font-size: 16px;"">F = YES &nbsp;&nbsp;&nbsp; J = NO</p>
","f","html-keyboard-response","32","2.1.0","145664","F=YES, J=NO","54rwoytone","2","71","63","80","","","","","","lextale","true","false","","","","","","","",""
"869","
  <p style=""font-size: 40px;"">snirt</p>
  <p style=""font-size: 16px;"">F = YES &nbsp;&nbsp;&nbsp; J = NO</p>
","j","html-keyboard-response","33","2.1.0","146535","F=YES, J=NO","54rwoytone","2","71","63","80","","","","","","lextale","false","false","","","","","","","",""
"849","
  <p style=""font-size: 40px;"">bitter</p>
  <p style=""font-size: 16px;"">F = YES &nbsp;&nbsp;&nbsp; J = NO</p>
","f","html-keyboard-response","34","2.1.0","147387","F=YES, J=NO","54rwoytone","2","71","63","80","","","","","","lextale","true","false","","","","","","","",""
"972","
  <p style=""font-size: 40px;"">pliff</p>
  <p style=""font-size: 16px;"">F = YES &nbsp;&nbsp;&nbsp; J = NO</p>
","j","html-keyboard-response","35","2.1.0","148361","F=YES, J=NO","54rwoytone","2","71","63","80","","","","","","lextale","false","false","","","","","","","",""
"587","
  <p style=""font-size: 40px;"">tablet</p>
  <p style=""font-size: 16px;"">F = YES &nbsp;&nbsp;&nbsp; J = NO</p>
","f","html-keyboard-response","36","2.1.0","148950","F=YES, J=NO","54rwoytone","2","71","63","80","","","","","","lextale","true","false","","","","","","","",""
"1018","
  <p style=""font-size: 40px;"">glimmer</p>
  <p style=""font-size: 16px;"">F = YES &nbsp;&nbsp;&nbsp; J = NO</p>
","f","html-keyboard-response","37","2.1.0","149971","F=YES, J=NO","54rwoytone","2","71","63","80","","","","","","lextale","true","false","","","","","","","",""
"1351","
  <p style=""font-size: 40px;"">slink</p>
  <p style=""font-size: 16px;"">F = YES &nbsp;&nbsp;&nbsp; J = NO</p>
","f","html-keyboard-response","38","2.1.0","151323","F=YES, J=NO","54rwoytone","2","71","63","80","","","","","","lextale","true","false","","","","","","","",""
"980","
  <p style=""font-size: 40px;"">clever</p>
  <p style=""font-size: 16px;"">F = YES &nbsp;&nbsp;&nbsp; J = NO</p>
","f","html-keyboard-response","39","2.1.0","152305","F=YES, J=NO","54rwoytone","2","71","63","80","","","","","","lextale","true","false","","","","","","","",""
"862","
  <p style=""font-size: 40px;"">grum</p>
  <p style=""font-size: 16px;"">F = YES &nbsp;&nbsp;&nbsp; J = NO</p>
","j","html-keyboard-response","40","2.1.0","153170","F=YES, J=NO","54rwoytone","2","71","63","80","","","","","","lextale","false","false","","","","","","","",""
"597","
  <p style=""font-size: 40px;"">string</p>
  <p style=""font-size: 16px;"">F = YES &nbsp;&nbsp;&nbsp; J = NO</p>
","f","html-keyboard-response","41","2.1.0","153770","F=YES, J=NO","54rwoytone","2","71","63","80","","","","","","lextale","true","false","","","","","","","",""
"777","
  <p style=""font-size: 40px;"">plim</p>
  <p style=""font-size: 16px;"">F = YES &nbsp;&nbsp;&nbsp; J = NO</p>
","j","html-keyboard-response","42","2.1.0","154549","F=YES, J=NO","54rwoytone","2","71","63","80","","","","","","lextale","false","false","","","","","","","",""
"522","
  <p style=""font-size: 40px;"">cable</p>
  <p style=""font-size: 16px;"">F = YES &nbsp;&nbsp;&nbsp; J = NO</p>
","f","html-keyboard-response","43","2.1.0","155074","F=YES, J=NO","54rwoytone","2","71","63","80","","","","","","lextale","true","false","","","","","","","",""
"1016","
  <p style=""font-size: 40px;"">shrivel</p>
  <p style=""font-size: 16px;"">F = YES &nbsp;&nbsp;&nbsp; J = NO</p>
","j","html-keyboard-response","44","2.1.0","156092","F=YES, J=NO","54rwoytone","2","71","63","80","","","","","","lextale","true","false","","","","","","","",""
"1103","
  <p style=""font-size: 40px;"">tarnish</p>
  <p style=""font-size: 16px;"">F = YES &nbsp;&nbsp;&nbsp; J = NO</p>
","j","html-keyboard-response","45","2.1.0","157197","F=YES, J=NO","54rwoytone","2","71","63","80","","","","","","lextale","true","false","","","","","","","",""
"1166","
  <p style=""font-size: 40px;"">blim</p>
  <p style=""font-size: 16px;"">F = YES &nbsp;&nbsp;&nbsp; J = NO</p>
","j","html-keyboard-response","46","2.1.0","158364","F=YES, J=NO","54rwoytone","2","71","63","80","","","","","","lextale","false","false","","","","","","","",""
"1162","
  <p style=""font-size: 40px;"">stifle</p>
  <p style=""font-size: 16px;"">F = YES &nbsp;&nbsp;&nbsp; J = NO</p>
","j","html-keyboard-response","47","2.1.0","159528","F=YES, J=NO","54rwoytone","2","71","63","80","","","","","","lextale","true","false","","","","","","","",""
"1408","
  <p style=""font-size: 40px;"">bint</p>
  <p style=""font-size: 16px;"">F = YES &nbsp;&nbsp;&nbsp; J = NO</p>
","j","html-keyboard-response","48","2.1.0","160937","F=YES, J=NO","54rwoytone","2","71","63","80","","","","","","lextale","false","false","","","","","","","",""
"636","
  <p style=""font-size: 40px;"">purple</p>
  <p style=""font-size: 16px;"">F = YES &nbsp;&nbsp;&nbsp; J = NO</p>
","f","html-keyboard-response","49","2.1.0","161577","F=YES, J=NO","54rwoytone","2","71","63","80","","","","","","lextale","true","false","","","","","","","",""
"1051","
  <p style=""font-size: 40px;"">wriggle</p>
  <p style=""font-size: 16px;"">F = YES &nbsp;&nbsp;&nbsp; J = NO</p>
","f","html-keyboard-response","50","2.1.0","162630","F=YES, J=NO","54rwoytone","2","71","63","80","","","","","","lextale","true","false","","","","","","","",""
"791","
  <p style=""font-size: 40px;"">mangle</p>
  <p style=""font-size: 16px;"">F = YES &nbsp;&nbsp;&nbsp; J = NO</p>
","j","html-keyboard-response","51","2.1.0","163423","F=YES, J=NO","54rwoytone","2","71","63","80","","","","","","lextale","true","false","","","","","","","",""
"789","
  <p style=""font-size: 40px;"">shramp</p>
  <p style=""font-size: 16px;"">F = YES &nbsp;&nbsp;&nbsp; J = NO</p>
","f","html-keyboard-response","52","2.1.0","164213","F=YES, J=NO","54rwoytone","2","71","63","80","","","","","","lextale","false","false","","","","","","","",""
"1712","
  <p style=""font-size: 40px;"">flirt</p>
  <p style=""font-size: 16px;"">F = YES &nbsp;&nbsp;&nbsp; J = NO</p>
","f","html-keyboard-response","53","2.1.0","165926","F=YES, J=NO","54rwoytone","2","71","63","80","","","","","","lextale","true","false","","","","","","","",""
"1565","
  <p style=""font-size: 40px;"">frip</p>
  <p style=""font-size: 16px;"">F = YES &nbsp;&nbsp;&nbsp; J = NO</p>
","j","html-keyboard-response","54","2.1.0","167493","F=YES, J=NO","54rwoytone","2","71","63","80","","","","","","lextale","false","false","","","","","","","",""
"667","
  <p style=""font-size: 40px;"">tangle</p>
  <p style=""font-size: 16px;"">F = YES &nbsp;&nbsp;&nbsp; J = NO</p>
","f","html-keyboard-response","55","2.1.0","168163","F=YES, J=NO","54rwoytone","2","71","63","80","","","","","","lextale","true","false","","","","","","","",""
"1111","
  <p style=""font-size: 40px;"">crumble</p>
  <p style=""font-size: 16px;"">F = YES &nbsp;&nbsp;&nbsp; J = NO</p>
","j","html-keyboard-response","56","2.1.0","169278","F=YES, J=NO","54rwoytone","2","71","63","80","","","","","","lextale","true","false","","","","","","","",""
"961","
  <p style=""font-size: 40px;"">wrinkle</p>
  <p style=""font-size: 16px;"">F = YES &nbsp;&nbsp;&nbsp; J = NO</p>
","f","html-keyboard-response","57","2.1.0","170240","F=YES, J=NO","54rwoytone","2","71","63","80","","","","","","lextale","true","false","","","","","","","",""
"1456","
  <p style=""font-size: 40px;"">slumb</p>
  <p style=""font-size: 16px;"">F = YES &nbsp;&nbsp;&nbsp; J = NO</p>
","j","html-keyboard-response","58","2.1.0","171699","F=YES, J=NO","54rwoytone","2","71","63","80","","","","","","lextale","false","false","","","","","","","",""
"768","
  <p style=""font-size: 40px;"">jungle</p>
  <p style=""font-size: 16px;"">F = YES &nbsp;&nbsp;&nbsp; J = NO</p>
","f","html-keyboard-response","59","2.1.0","172468","F=YES, J=NO","54rwoytone","2","71","63","80","","","","","","lextale","true","false","","","","","","","",""
"754","
  <p style=""font-size: 40px;"">frolick</p>
  <p style=""font-size: 16px;"">F = YES &nbsp;&nbsp;&nbsp; J = NO</p>
","j","html-keyboard-response","60","2.1.0","173226","F=YES, J=NO","54rwoytone","2","71","63","80","","","","","","lextale","false","false","","","","","","","",""
"176125","
      <h2>LexTALE Test Completed</h2>
      <p>Your LexTALE vocabulary score is: <strong>71%</strong></p>
      <p>Press any key to continue.</p>
    "," ","html-keyboard-response","61","2.1.0","349355","F=YES, J=NO","54rwoytone","2","71","63","80","","","","","","","","","","","","","","","",""
"28334","
    <div style=""max-width: 800px; margin: auto; text-align: left;"">
      <h2>Break Time</h2>
      <p>You have completed the first part of the study.</p>
      <p>You may take a short <strong>30-second break</strong> before continuing.</p>
      <p>When you’re ready, press any key to continue to the final task.</p>
    </div>
  "," ","html-keyboard-response","62","2.1.0","377692","F=YES, J=NO","54rwoytone","2","71","63","80","","","","","","","","","","","","","","","",""
"20919","
    <div style=""max-width: 800px; margin: auto; text-align: left;"">
      <h2>Part 2: Lexical Decision Task</h2>
      <p>You will now begin the second part of the study.</p>
      <p>Each trial will follow this sequence:</p>
      <ul>
        <li>A fixation cross (+) appears at the center of the screen.</li>
        <li>You will hear a short beep followed by a spoken word.</li>
        <li>A written word will appear briefly on the screen.</li>
      </ul>
      <p>Your task is to judge whether the <strong>written word</strong> is a real English word.</p>
      <p style=""margin-top: 1em;""><strong>Key responses:</strong></p>
      <ul>
        <li><strong>F</strong> = YES (real English word)</li>
        <li><strong>J</strong> = NO (not a real English word)</li>
      </ul>
      <p>Please respond as quickly and accurately as you can.</p>
      <p style=""margin-top: 2em;"">Press any key to continue.</p>
    </div>
  "," ","html-keyboard-response","63","2.1.0","398613","F=YES, J=NO","54rwoytone","2","71","63","80","","","","","","","","","","","","","","","",""
"1964","
    <div style=""max-width: 800px; margin: auto; text-align: left;"">
      <h2>Before You Begin</h2>
      <p>Make sure your sound is turned on.</p>
      <p>You will hear audio during each trial, but your decision should be based only on the <strong>written word</strong> you see on the screen.</p>
      <p><strong>Reminder:</strong></p>
      <ul>
        <li><strong>F</strong> = YES (real English word)</li>
        <li><strong>J</strong> = NO (not a real English word)</li>
      </ul>
      <p style=""margin-top: 2em;"">Press any key when you are ready to begin.</p>
    </div>
  "," ","html-keyboard-response","64","2.1.0","400579","F=YES, J=NO","54rwoytone","2","71","63","80","","","","","","","","","","","","","","","",""
"962","
    <div style=""max-width: 800px; margin: auto; text-align: left;"">
      <h2>Part 2: Practice Trials</h2>
      <p>You will now complete a few <strong>practice trials</strong> to get familiar with the task.</p>
      <p>These trials are <strong>not scored</strong> and are only to help you get used to the format.</p>
      <p style=""margin-top: 2em;"">Press any key to begin.</p>
    </div>
  "," ","html-keyboard-response","65","2.1.0","401542","F=YES, J=NO","54rwoytone","2","71","63","80","","","","","","","","","","","","","","","",""
"3395","<p>Starting practice block 1 of 2. Press any key to continue.</p>"," ","html-keyboard-response","66","2.1.0","404939","F=YES, J=NO","54rwoytone","2","71","63","80","","","","","","","","","","","","","","","",""
"null","<p style=""font-size: 50px;"">+</p>","null","html-keyboard-response","67","2.1.0","405247","F=YES, J=NO","54rwoytone","2","71","63","80","","","","","","","","","","","","","","","",""
"null","audio/beep-329314.mp3","null","audio-keyboard-response","68","2.1.0","407334","F=YES, J=NO","54rwoytone","2","71","63","80","","","","","","","","","","","","","","","",""
"null","audio/uncle1.wav","null","audio-keyboard-response","69","2.1.0","408223","F=YES, J=NO","54rwoytone","2","71","63","80","","","","","","","","","","","","","","","",""
"962","
          <p id=""word"" style=""font-size: 40px;"">dramble</p>
          <p style=""font-size: 16px;"">F = YES &nbsp;&nbsp;&nbsp; J = NO</p>
        ","f","html-keyboard-response","70","2.1.0","409188","F=YES, J=NO","54rwoytone","2","71","63","80","","","","","","","","","dramble","uncle1","pseudoword","pseudoword","j","false","",""
"null","<p style=""font-size: 50px;"">+</p>","null","html-keyboard-response","71","2.1.0","409501","F=YES, J=NO","54rwoytone","2","71","63","80","","","","","","","","","","","","","","","",""
"null","audio/beep-329314.mp3","null","audio-keyboard-response","72","2.1.0","411162","F=YES, J=NO","54rwoytone","2","71","63","80","","","","","","","","","","","","","","","",""
"null","audio/foot1.wav","null","audio-keyboard-response","73","2.1.0","411838","F=YES, J=NO","54rwoytone","2","71","63","80","","","","","","","","","","","","","","","",""
"314","
          <p id=""word"" style=""font-size: 40px;"">thrutt</p>
          <p style=""font-size: 16px;"">F = YES &nbsp;&nbsp;&nbsp; J = NO</p>
        ","f","html-keyboard-response","74","2.1.0","412154","F=YES, J=NO","54rwoytone","2","71","63","80","","","","","","","","","thrutt","foot1","pseudoword","pseudoword","j","false","",""
"null","<p style=""font-size: 50px;"">+</p>","null","html-keyboard-response","75","2.1.0","412464","F=YES, J=NO","54rwoytone","2","71","63","80","","","","","","","","","","","","","","","",""
"null","audio/beep-329314.mp3","null","audio-keyboard-response","76","2.1.0","414143","F=YES, J=NO","54rwoytone","2","71","63","80","","","","","","","","","","","","","","","",""
"null","audio/tomato.wav","null","audio-keyboard-response","77","2.1.0","415210","F=YES, J=NO","54rwoytone","2","71","63","80","","","","","","","","","","","","","","","",""
"348","
          <p id=""word"" style=""font-size: 40px;"">gladies</p>
          <p style=""font-size: 16px;"">F = YES &nbsp;&nbsp;&nbsp; J = NO</p>
        ","f","html-keyboard-response","78","2.1.0","415561","F=YES, J=NO","54rwoytone","2","71","63","80","","","","","","","","","gladies","tomato","pseudoword","pseudoword","j","false","",""
"null","<p style=""font-size: 50px;"">+</p>","null","html-keyboard-response","79","2.1.0","415865","F=YES, J=NO","54rwoytone","2","71","63","80","","","","","","","","","","","","","","","",""
"null","audio/beep-329314.mp3","null","audio-keyboard-response","80","2.1.0","417523","F=YES, J=NO","54rwoytone","2","71","63","80","","","","","","","","","","","","","","","",""
"null","audio/menu.wav","null","audio-keyboard-response","81","2.1.0","418360","F=YES, J=NO","54rwoytone","2","71","63","80","","","","","","","","","","","","","","","",""
"349","
          <p id=""word"" style=""font-size: 40px;"">slice</p>
          <p style=""font-size: 16px;"">F = YES &nbsp;&nbsp;&nbsp; J = NO</p>
        ","f","html-keyboard-response","82","2.1.0","418711","F=YES, J=NO","54rwoytone","2","71","63","80","","","","","","","","","slice","menu","filler","filler","f","true","",""
"null","<p style=""font-size: 50px;"">+</p>","null","html-keyboard-response","83","2.1.0","419022","F=YES, J=NO","54rwoytone","2","71","63","80","","","","","","","","","","","","","","","",""
"null","audio/beep-329314.mp3","null","audio-keyboard-response","84","2.1.0","420679","F=YES, J=NO","54rwoytone","2","71","63","80","","","","","","","","","","","","","","","",""
"null","audio/bomb1.wav","null","audio-keyboard-response","85","2.1.0","421331","F=YES, J=NO","54rwoytone","2","71","63","80","","","","","","","","","","","","","","","",""
"417","
          <p id=""word"" style=""font-size: 40px;"">clean</p>
          <p style=""font-size: 16px;"">F = YES &nbsp;&nbsp;&nbsp; J = NO</p>
        ","j","html-keyboard-response","86","2.1.0","421750","F=YES, J=NO","54rwoytone","2","71","63","80","","","","","","","","","clean","bomb1","filler","filler","f","false","",""
"null","<p style=""font-size: 50px;"">+</p>","null","html-keyboard-response","87","2.1.0","422055","F=YES, J=NO","54rwoytone","2","71","63","80","","","","","","","","","","","","","","","",""
"null","audio/beep-329314.mp3","null","audio-keyboard-response","88","2.1.0","423707","F=YES, J=NO","54rwoytone","2","71","63","80","","","","","","","","","","","","","","","",""
"null","audio/novel.wav","null","audio-keyboard-response","89","2.1.0","424308","F=YES, J=NO","54rwoytone","2","71","63","80","","","","","","","","","","","","","","","",""
"768","
          <p id=""word"" style=""font-size: 40px;"">type</p>
          <p style=""font-size: 16px;"">F = YES &nbsp;&nbsp;&nbsp; J = NO</p>
        ","f","html-keyboard-response","90","2.1.0","425080","F=YES, J=NO","54rwoytone","2","71","63","80","","","","","","","","","type","novel","filler","filler","f","true","",""
"null","<p style=""font-size: 50px;"">+</p>","null","html-keyboard-response","91","2.1.0","425396","F=YES, J=NO","54rwoytone","2","71","63","80","","","","","","","","","","","","","","","",""
"null","audio/beep-329314.mp3","null","audio-keyboard-response","92","2.1.0","427079","F=YES, J=NO","54rwoytone","2","71","63","80","","","","","","","","","","","","","","","",""
"null","audio/beach1.wav","null","audio-keyboard-response","93","2.1.0","427864","F=YES, J=NO","54rwoytone","2","71","63","80","","","","","","","","","","","","","","","",""
"338","
          <p id=""word"" style=""font-size: 40px;"">drive</p>
          <p style=""font-size: 16px;"">F = YES &nbsp;&nbsp;&nbsp; J = NO</p>
        ","f","html-keyboard-response","94","2.1.0","428204","F=YES, J=NO","54rwoytone","2","71","63","80","","","","","","","","","drive","beach1","filler","filler","f","true","",""
"null","<p style=""font-size: 50px;"">+</p>","null","html-keyboard-response","95","2.1.0","428513","F=YES, J=NO","54rwoytone","2","71","63","80","","","","","","","","","","","","","","","",""
"null","audio/beep-329314.mp3","null","audio-keyboard-response","96","2.1.0","430178","F=YES, J=NO","54rwoytone","2","71","63","80","","","","","","","","","","","","","","","",""
"null","audio/topic.wav","null","audio-keyboard-response","97","2.1.0","430850","F=YES, J=NO","54rwoytone","2","71","63","80","","","","","","","","","","","","","","","",""
"1333","
          <p id=""word"" style=""font-size: 40px;"">infortuitist</p>
          <p style=""font-size: 16px;"">F = YES &nbsp;&nbsp;&nbsp; J = NO</p>
        ","f","html-keyboard-response","98","2.1.0","432185","F=YES, J=NO","54rwoytone","2","71","63","80","","","","","","","","","infortuitist","topic","pseudoword","pseudoword","j","false","",""
"null","<p style=""font-size: 50px;"">+</p>","null","html-keyboard-response","99","2.1.0","432492","F=YES, J=NO","54rwoytone","2","71","63","80","","","","","","","","","","","","","","","",""
"null","audio/beep-329314.mp3","null","audio-keyboard-response","100","2.1.0","434154","F=YES, J=NO","54rwoytone","2","71","63","80","","","","","","","","","","","","","","","",""
"null","audio/planet1.wav","null","audio-keyboard-response","101","2.1.0","434936","F=YES, J=NO","54rwoytone","2","71","63","80","","","","","","","","","","","","","","","",""
"913","
          <p id=""word"" style=""font-size: 40px;"">cratched</p>
          <p style=""font-size: 16px;"">F = YES &nbsp;&nbsp;&nbsp; J = NO</p>
        ","j","html-keyboard-response","102","2.1.0","435851","F=YES, J=NO","54rwoytone","2","71","63","80","","","","","","","","","cratched","planet1","pseudoword","pseudoword","j","true","",""
"null","<p style=""font-size: 50px;"">+</p>","null","html-keyboard-response","103","2.1.0","436157","F=YES, J=NO","54rwoytone","2","71","63","80","","","","","","","","","","","","","","","",""
"null","audio/beep-329314.mp3","null","audio-keyboard-response","104","2.1.0","437835","F=YES, J=NO","54rwoytone","2","71","63","80","","","","","","","","","","","","","","","",""
"null","audio/heart1.wav","null","audio-keyboard-response","105","2.1.0","438815","F=YES, J=NO","54rwoytone","2","71","63","80","","","","","","","","","","","","","","","",""
"987","
          <p id=""word"" style=""font-size: 40px;"">dralm</p>
          <p style=""font-size: 16px;"">F = YES &nbsp;&nbsp;&nbsp; J = NO</p>
        ","j","html-keyboard-response","106","2.1.0","439806","F=YES, J=NO","54rwoytone","2","71","63","80","","","","","","","","","dralm","heart1","pseudoword","pseudoword","j","true","",""
"null","<p style=""font-size: 50px;"">+</p>","null","html-keyboard-response","107","2.1.0","440109","F=YES, J=NO","54rwoytone","2","71","63","80","","","","","","","","","","","","","","","",""
"null","audio/beep-329314.mp3","null","audio-keyboard-response","108","2.1.0","441738","F=YES, J=NO","54rwoytone","2","71","63","80","","","","","","","","","","","","","","","",""
"null","audio/fence.wav","null","audio-keyboard-response","109","2.1.0","442715","F=YES, J=NO","54rwoytone","2","71","63","80","","","","","","","","","","","","","","","",""
"854","
          <p id=""word"" style=""font-size: 40px;"">trim</p>
          <p style=""font-size: 16px;"">F = YES &nbsp;&nbsp;&nbsp; J = NO</p>
        ","f","html-keyboard-response","110","2.1.0","443572","F=YES, J=NO","54rwoytone","2","71","63","80","","","","","","","","","trim","fence","filler","filler","f","true","",""
"null","<p style=""font-size: 50px;"">+</p>","null","html-keyboard-response","111","2.1.0","443878","F=YES, J=NO","54rwoytone","2","71","63","80","","","","","","","","","","","","","","","",""
"null","audio/beep-329314.mp3","null","audio-keyboard-response","112","2.1.0","445511","F=YES, J=NO","54rwoytone","2","71","63","80","","","","","","","","","","","","","","","",""
"null","audio/age1.wav","null","audio-keyboard-response","113","2.1.0","446140","F=YES, J=NO","54rwoytone","2","71","63","80","","","","","","","","","","","","","","","",""
"860","
          <p id=""word"" style=""font-size: 40px;"">bake</p>
          <p style=""font-size: 16px;"">F = YES &nbsp;&nbsp;&nbsp; J = NO</p>
        ","f","html-keyboard-response","114","2.1.0","447003","F=YES, J=NO","54rwoytone","2","71","63","80","","","","","","","","","bake","age1","filler","filler","f","true","",""
"1715","<p>Starting practice block 2 of 2. Press any key to continue.</p>"," ","html-keyboard-response","115","2.1.0","448720","F=YES, J=NO","54rwoytone","2","71","63","80","","","","","","","","","","","","","","","",""
"null","<p style=""font-size: 50px;"">+</p>","null","html-keyboard-response","116","2.1.0","449022","F=YES, J=NO","54rwoytone","2","71","63","80","","","","","","","","","","","","","","","",""
"null","audio/beep-329314.mp3","null","audio-keyboard-response","117","2.1.0","450689","F=YES, J=NO","54rwoytone","2","71","63","80","","","","","","","","","","","","","","","",""
"null","audio/weight1.wav","null","audio-keyboard-response","118","2.1.0","451508","F=YES, J=NO","54rwoytone","2","71","63","80","","","","","","","","","","","","","","","",""
"632","
          <p id=""word"" style=""font-size: 40px;"">crimsh</p>
          <p style=""font-size: 16px;"">F = YES &nbsp;&nbsp;&nbsp; J = NO</p>
        ","j","html-keyboard-response","119","2.1.0","452142","F=YES, J=NO","54rwoytone","2","71","63","80","","","","","","","","","crimsh","weight1","pseudoword","pseudoword","j","true","",""
"null","<p style=""font-size: 50px;"">+</p>","null","html-keyboard-response","120","2.1.0","452445","F=YES, J=NO","54rwoytone","2","71","63","80","","","","","","","","","","","","","","","",""
"null","audio/beep-329314.mp3","null","audio-keyboard-response","121","2.1.0","454115","F=YES, J=NO","54rwoytone","2","71","63","80","","","","","","","","","","","","","","","",""
"null","audio/birth1.wav","null","audio-keyboard-response","122","2.1.0","454984","F=YES, J=NO","54rwoytone","2","71","63","80","","","","","","","","","","","","","","","",""
"763","
          <p id=""word"" style=""font-size: 40px;"">peel</p>
          <p style=""font-size: 16px;"">F = YES &nbsp;&nbsp;&nbsp; J = NO</p>
        ","j","html-keyboard-response","123","2.1.0","455752","F=YES, J=NO","54rwoytone","2","71","63","80","","","","","","","","","peel","birth1","filler","filler","f","false","",""
"null","<p style=""font-size: 50px;"">+</p>","null","html-keyboard-response","124","2.1.0","456067","F=YES, J=NO","54rwoytone","2","71","63","80","","","","","","","","","","","","","","","",""
"null","audio/beep-329314.mp3","null","audio-keyboard-response","125","2.1.0","457746","F=YES, J=NO","54rwoytone","2","71","63","80","","","","","","","","","","","","","","","",""
"null","audio/bridge.wav","null","audio-keyboard-response","126","2.1.0","458572","F=YES, J=NO","54rwoytone","2","71","63","80","","","","","","","","","","","","","","","",""
"629","
          <p id=""word"" style=""font-size: 40px;"">crack</p>
          <p style=""font-size: 16px;"">F = YES &nbsp;&nbsp;&nbsp; J = NO</p>
        ","f","html-keyboard-response","127","2.1.0","459202","F=YES, J=NO","54rwoytone","2","71","63","80","","","","","","","","","crack","bridge","filler","filler","f","true","",""
"null","<p style=""font-size: 50px;"">+</p>","null","html-keyboard-response","128","2.1.0","459505","F=YES, J=NO","54rwoytone","2","71","63","80","","","","","","","","","","","","","","","",""
"null","audio/beep-329314.mp3","null","audio-keyboard-response","129","2.1.0","461183","F=YES, J=NO","54rwoytone","2","71","63","80","","","","","","","","","","","","","","","",""
"null","audio/account1.wav","null","audio-keyboard-response","130","2.1.0","462033","F=YES, J=NO","54rwoytone","2","71","63","80","","","","","","","","","","","","","","","",""
"798","
          <p id=""word"" style=""font-size: 40px;"">paint</p>
          <p style=""font-size: 16px;"">F = YES &nbsp;&nbsp;&nbsp; J = NO</p>
        ","f","html-keyboard-response","131","2.1.0","462834","F=YES, J=NO","54rwoytone","2","71","63","80","","","","","","","","","paint","account1","filler","filler","f","true","",""
"null","<p style=""font-size: 50px;"">+</p>","null","html-keyboard-response","132","2.1.0","463147","F=YES, J=NO","54rwoytone","2","71","63","80","","","","","","","","","","","","","","","",""
"null","audio/beep-329314.mp3","null","audio-keyboard-response","133","2.1.0","464820","F=YES, J=NO","54rwoytone","2","71","63","80","","","","","","","","","","","","","","","",""
"null","audio/emotion.wav","null","audio-keyboard-response","134","2.1.0","465554","F=YES, J=NO","54rwoytone","2","71","63","80","","","","","","","","","","","","","","","",""
"657","
          <p id=""word"" style=""font-size: 40px;"">devering</p>
          <p style=""font-size: 16px;"">F = YES &nbsp;&nbsp;&nbsp; J = NO</p>
        ","j","html-keyboard-response","135","2.1.0","466214","F=YES, J=NO","54rwoytone","2","71","63","80","","","","","","","","","devering","emotion","pseudoword","pseudoword","j","true","",""
"null","<p style=""font-size: 50px;"">+</p>","null","html-keyboard-response","136","2.1.0","466519","F=YES, J=NO","54rwoytone","2","71","63","80","","","","","","","","","","","","","","","",""
"null","audio/beep-329314.mp3","null","audio-keyboard-response","137","2.1.0","468185","F=YES, J=NO","54rwoytone","2","71","63","80","","","","","","","","","","","","","","","",""
"null","audio/alarm1.wav","null","audio-keyboard-response","138","2.1.0","468879","F=YES, J=NO","54rwoytone","2","71","63","80","","","","","","","","","","","","","","","",""
"689","
          <p id=""word"" style=""font-size: 40px;"">swetp</p>
          <p style=""font-size: 16px;"">F = YES &nbsp;&nbsp;&nbsp; J = NO</p>
        ","j","html-keyboard-response","139","2.1.0","469569","F=YES, J=NO","54rwoytone","2","71","63","80","","","","","","","","","swetp","alarm1","pseudoword","pseudoword","j","true","",""
"null","<p style=""font-size: 50px;"">+</p>","null","html-keyboard-response","140","2.1.0","469887","F=YES, J=NO","54rwoytone","2","71","63","80","","","","","","","","","","","","","","","",""
"null","audio/beep-329314.mp3","null","audio-keyboard-response","141","2.1.0","471538","F=YES, J=NO","54rwoytone","2","71","63","80","","","","","","","","","","","","","","","",""
"null","audio/dome.wav","null","audio-keyboard-response","142","2.1.0","472110","F=YES, J=NO","54rwoytone","2","71","63","80","","","","","","","","","","","","","","","",""
"825","
          <p id=""word"" style=""font-size: 40px;"">scrupliness</p>
          <p style=""font-size: 16px;"">F = YES &nbsp;&nbsp;&nbsp; J = NO</p>
        ","j","html-keyboard-response","143","2.1.0","472937","F=YES, J=NO","54rwoytone","2","71","63","80","","","","","","","","","scrupliness","dome","pseudoword","pseudoword","j","true","",""
"null","<p style=""font-size: 50px;"">+</p>","null","html-keyboard-response","144","2.1.0","473242","F=YES, J=NO","54rwoytone","2","71","63","80","","","","","","","","","","","","","","","",""
"null","audio/beep-329314.mp3","null","audio-keyboard-response","145","2.1.0","474901","F=YES, J=NO","54rwoytone","2","71","63","80","","","","","","","","","","","","","","","",""
"null","audio/pig.wav","null","audio-keyboard-response","146","2.1.0","475472","F=YES, J=NO","54rwoytone","2","71","63","80","","","","","","","","","","","","","","","",""
"643","
          <p id=""word"" style=""font-size: 40px;"">tirlike</p>
          <p style=""font-size: 16px;"">F = YES &nbsp;&nbsp;&nbsp; J = NO</p>
        ","j","html-keyboard-response","147","2.1.0","476118","F=YES, J=NO","54rwoytone","2","71","63","80","","","","","","","","","tirlike","pig","pseudoword","pseudoword","j","true","",""
"null","<p style=""font-size: 50px;"">+</p>","null","html-keyboard-response","148","2.1.0","476424","F=YES, J=NO","54rwoytone","2","71","63","80","","","","","","","","","","","","","","","",""
"null","audio/beep-329314.mp3","null","audio-keyboard-response","149","2.1.0","478089","F=YES, J=NO","54rwoytone","2","71","63","80","","","","","","","","","","","","","","","",""
"null","audio/arm.wav","null","audio-keyboard-response","150","2.1.0","478734","F=YES, J=NO","54rwoytone","2","71","63","80","","","","","","","","","","","","","","","",""
"591","
          <p id=""word"" style=""font-size: 40px;"">fold</p>
          <p style=""font-size: 16px;"">F = YES &nbsp;&nbsp;&nbsp; J = NO</p>
        ","f","html-keyboard-response","151","2.1.0","479328","F=YES, J=NO","54rwoytone","2","71","63","80","","","","","","","","","fold","arm","filler","filler","f","true","",""
"null","<p style=""font-size: 50px;"">+</p>","null","html-keyboard-response","152","2.1.0","479635","F=YES, J=NO","54rwoytone","2","71","63","80","","","","","","","","","","","","","","","",""
"null","audio/beep-329314.mp3","null","audio-keyboard-response","153","2.1.0","481288","F=YES, J=NO","54rwoytone","2","71","63","80","","","","","","","","","","","","","","","",""
"null","audio/golf1.wav","null","audio-keyboard-response","154","2.1.0","482145","F=YES, J=NO","54rwoytone","2","71","63","80","","","","","","","","","","","","","","","",""
"722","
          <p id=""word"" style=""font-size: 40px;"">drabble</p>
          <p style=""font-size: 16px;"">F = YES &nbsp;&nbsp;&nbsp; J = NO</p>
        ","j","html-keyboard-response","155","2.1.0","482869","F=YES, J=NO","54rwoytone","2","71","63","80","","","","","","","","","drabble","golf1","pseudoword","pseudoword","j","true","",""
"null","<p style=""font-size: 50px;"">+</p>","null","html-keyboard-response","156","2.1.0","483178","F=YES, J=NO","54rwoytone","2","71","63","80","","","","","","","","","","","","","","","",""
"null","audio/beep-329314.mp3","null","audio-keyboard-response","157","2.1.0","484826","F=YES, J=NO","54rwoytone","2","71","63","80","","","","","","","","","","","","","","","",""
"null","audio/breath.wav","null","audio-keyboard-response","158","2.1.0","485486","F=YES, J=NO","54rwoytone","2","71","63","80","","","","","","","","","","","","","","","",""
"686","
          <p id=""word"" style=""font-size: 40px;"">pack</p>
          <p style=""font-size: 16px;"">F = YES &nbsp;&nbsp;&nbsp; J = NO</p>
        ","f","html-keyboard-response","159","2.1.0","486174","F=YES, J=NO","54rwoytone","2","71","63","80","","","","","","","","","pack","breath","filler","filler","f","true","",""
"null","<p style=""font-size: 50px;"">+</p>","null","html-keyboard-response","160","2.1.0","486486","F=YES, J=NO","54rwoytone","2","71","63","80","","","","","","","","","","","","","","","",""
"null","audio/beep-329314.mp3","null","audio-keyboard-response","161","2.1.0","488156","F=YES, J=NO","54rwoytone","2","71","63","80","","","","","","","","","","","","","","","",""
"null","audio/belief.wav","null","audio-keyboard-response","162","2.1.0","488881","F=YES, J=NO","54rwoytone","2","71","63","80","","","","","","","","","","","","","","","",""
"662","
          <p id=""word"" style=""font-size: 40px;"">read</p>
          <p style=""font-size: 16px;"">F = YES &nbsp;&nbsp;&nbsp; J = NO</p>
        ","f","html-keyboard-response","163","2.1.0","489544","F=YES, J=NO","54rwoytone","2","71","63","80","","","","","","","","","read","belief","filler","filler","f","true","",""
"4714","
    <div style=""max-width: 800px; margin: auto; text-align: left;"">
      <h2>Part 2: Main Trials</h2>
      <p>Great job on the practice trials!</p>
      <p>You will now begin the <strong>main set of trials</strong>.</p>
      <p>Remember your key assignments:</p>
      <ul>
        <li><strong>F</strong> = YES (real English word)</li>
        <li><strong>J</strong> = NO (not a real English word)</li>
      </ul>
      <p>Try to respond as <strong>quickly and accurately</strong> as possible.</p>
      <p style=""margin-top: 2em;"">Press any key to begin the main trials.</p>
    </div>
  "," ","html-keyboard-response","164","2.1.0","494261","F=YES, J=NO","54rwoytone","2","71","63","80","","","","","","","","","","","","","","","",""
"1459","<p>Starting main block 1 of 8. Press any key to continue.</p>"," ","html-keyboard-response","165","2.1.0","495722","F=YES, J=NO","54rwoytone","2","71","63","80","","","","","","","","","","","","","","","",""
"null","<p style=""font-size: 50px;"">+</p>","null","html-keyboard-response","166","2.1.0","496026","F=YES, J=NO","54rwoytone","2","71","63","80","","","","","","","","","","","","","","","",""
"null","audio/beep-329314.mp3","null","audio-keyboard-response","167","2.1.0","497789","F=YES, J=NO","54rwoytone","2","71","63","80","","","","","","","","","","","","","","","",""
"null","audio/client1.wav","null","audio-keyboard-response","168","2.1.0","498616","F=YES, J=NO","54rwoytone","2","71","63","80","","","","","","","","","","","","","","","",""
"899","
          <p id=""word"" style=""font-size: 40px;"">droothe</p>
          <p style=""font-size: 16px;"">F = YES &nbsp;&nbsp;&nbsp; J = NO</p>
        ","j","html-keyboard-response","169","2.1.0","499518","F=YES, J=NO","54rwoytone","2","71","63","80","","","","","","","","","droothe","client1","pseudoword","pseudoword","j","true","",""
"null","<p style=""font-size: 50px;"">+</p>","null","html-keyboard-response","170","2.1.0","499830","F=YES, J=NO","54rwoytone","2","71","63","80","","","","","","","","","","","","","","","",""
"null","audio/beep-329314.mp3","null","audio-keyboard-response","171","2.1.0","501509","F=YES, J=NO","54rwoytone","2","71","63","80","","","","","","","","","","","","","","","",""
"null","audio/test1.wav","null","audio-keyboard-response","172","2.1.0","502188","F=YES, J=NO","54rwoytone","2","71","63","80","","","","","","","","","","","","","","","",""
"717","
          <p id=""word"" style=""font-size: 40px;"">twopch</p>
          <p style=""font-size: 16px;"">F = YES &nbsp;&nbsp;&nbsp; J = NO</p>
        ","j","html-keyboard-response","173","2.1.0","502910","F=YES, J=NO","54rwoytone","2","71","63","80","","","","","","","","","twopch","test1","pseudoword","pseudoword","j","true","",""
"null","<p style=""font-size: 50px;"">+</p>","null","html-keyboard-response","174","2.1.0","503224","F=YES, J=NO","54rwoytone","2","71","63","80","","","","","","","","","","","","","","","",""
"null","audio/beep-329314.mp3","null","audio-keyboard-response","175","2.1.0","504866","F=YES, J=NO","54rwoytone","2","71","63","80","","","","","","","","","","","","","","","",""
"null","audio/bishop1.wav","null","audio-keyboard-response","176","2.1.0","505561","F=YES, J=NO","54rwoytone","2","71","63","80","","","","","","","","","","","","","","","",""
"596","
          <p id=""word"" style=""font-size: 40px;"">play</p>
          <p style=""font-size: 16px;"">F = YES &nbsp;&nbsp;&nbsp; J = NO</p>
        ","f","html-keyboard-response","177","2.1.0","506160","F=YES, J=NO","54rwoytone","2","71","63","80","","","","","","","","","play","bishop1","filler","filler","f","true","",""
"null","<p style=""font-size: 50px;"">+</p>","null","html-keyboard-response","178","2.1.0","506462","F=YES, J=NO","54rwoytone","2","71","63","80","","","","","","","","","","","","","","","",""
"null","audio/beep-329314.mp3","null","audio-keyboard-response","179","2.1.0","508141","F=YES, J=NO","54rwoytone","2","71","63","80","","","","","","","","","","","","","","","",""
"null","audio/foe1.wav","null","audio-keyboard-response","180","2.1.0","508781","F=YES, J=NO","54rwoytone","2","71","63","80","","","","","","","","","","","","","","","",""
"688","
          <p id=""word"" style=""font-size: 40px;"">creth</p>
          <p style=""font-size: 16px;"">F = YES &nbsp;&nbsp;&nbsp; J = NO</p>
        ","j","html-keyboard-response","181","2.1.0","509470","F=YES, J=NO","54rwoytone","2","71","63","80","","","","","","","","","creth","foe1","pseudoword","pseudoword","j","true","",""
"null","<p style=""font-size: 50px;"">+</p>","null","html-keyboard-response","182","2.1.0","509777","F=YES, J=NO","54rwoytone","2","71","63","80","","","","","","","","","","","","","","","",""
"null","audio/beep-329314.mp3","null","audio-keyboard-response","183","2.1.0","511435","F=YES, J=NO","54rwoytone","2","71","63","80","","","","","","","","","","","","","","","",""
"null","audio/brain.wav","null","audio-keyboard-response","184","2.1.0","512031","F=YES, J=NO","54rwoytone","2","71","63","80","","","","","","","","","","","","","","","",""
"699","
          <p id=""word"" style=""font-size: 40px;"">flood</p>
          <p style=""font-size: 16px;"">F = YES &nbsp;&nbsp;&nbsp; J = NO</p>
        ","f","html-keyboard-response","185","2.1.0","512731","F=YES, J=NO","54rwoytone","2","71","63","80","","","","","","","","","flood","brain","metaphor","experimental","f","true","",""
"null","<p style=""font-size: 50px;"">+</p>","null","html-keyboard-response","186","2.1.0","513048","F=YES, J=NO","54rwoytone","2","71","63","80","","","","","","","","","","","","","","","",""
"null","audio/beep-329314.mp3","null","audio-keyboard-response","187","2.1.0","514711","F=YES, J=NO","54rwoytone","2","71","63","80","","","","","","","","","","","","","","","",""
"null","audio/alarm1.wav","null","audio-keyboard-response","188","2.1.0","515411","F=YES, J=NO","54rwoytone","2","71","63","80","","","","","","","","","","","","","","","",""
"489","
          <p id=""word"" style=""font-size: 40px;"">lock</p>
          <p style=""font-size: 16px;"">F = YES &nbsp;&nbsp;&nbsp; J = NO</p>
        ","f","html-keyboard-response","189","2.1.0","515902","F=YES, J=NO","54rwoytone","2","71","63","80","","","","","","","","","lock","alarm1","filler","filler","f","true","",""
"null","<p style=""font-size: 50px;"">+</p>","null","html-keyboard-response","190","2.1.0","516209","F=YES, J=NO","54rwoytone","2","71","63","80","","","","","","","","","","","","","","","",""
"null","audio/beep-329314.mp3","null","audio-keyboard-response","191","2.1.0","517882","F=YES, J=NO","54rwoytone","2","71","63","80","","","","","","","","","","","","","","","",""
"null","audio/burden.wav","null","audio-keyboard-response","192","2.1.0","518507","F=YES, J=NO","54rwoytone","2","71","63","80","","","","","","","","","","","","","","","",""
"849","
          <p id=""word"" style=""font-size: 40px;"">whotth</p>
          <p style=""font-size: 16px;"">F = YES &nbsp;&nbsp;&nbsp; J = NO</p>
        ","j","html-keyboard-response","193","2.1.0","519358","F=YES, J=NO","54rwoytone","2","71","63","80","","","","","","","","","whotth","burden","pseudoword","pseudoword","j","true","",""
"null","<p style=""font-size: 50px;"">+</p>","null","html-keyboard-response","194","2.1.0","519666","F=YES, J=NO","54rwoytone","2","71","63","80","","","","","","","","","","","","","","","",""
"null","audio/beep-329314.mp3","null","audio-keyboard-response","195","2.1.0","521347","F=YES, J=NO","54rwoytone","2","71","63","80","","","","","","","","","","","","","","","",""
"null","audio/scar.wav","null","audio-keyboard-response","196","2.1.0","522043","F=YES, J=NO","54rwoytone","2","71","63","80","","","","","","","","","","","","","","","",""
"654","
          <p id=""word"" style=""font-size: 40px;"">adelineate</p>
          <p style=""font-size: 16px;"">F = YES &nbsp;&nbsp;&nbsp; J = NO</p>
        ","j","html-keyboard-response","197","2.1.0","522698","F=YES, J=NO","54rwoytone","2","71","63","80","","","","","","","","","adelineate","scar","pseudoword","pseudoword","j","true","",""
"null","<p style=""font-size: 50px;"">+</p>","null","html-keyboard-response","198","2.1.0","523012","F=YES, J=NO","54rwoytone","2","71","63","80","","","","","","","","","","","","","","","",""
"null","audio/beep-329314.mp3","null","audio-keyboard-response","199","2.1.0","524648","F=YES, J=NO","54rwoytone","2","71","63","80","","","","","","","","","","","","","","","",""
"null","audio/card1.wav","null","audio-keyboard-response","200","2.1.0","525290","F=YES, J=NO","54rwoytone","2","71","63","80","","","","","","","","","","","","","","","",""
"759","
          <p id=""word"" style=""font-size: 40px;"">land</p>
          <p style=""font-size: 16px;"">F = YES &nbsp;&nbsp;&nbsp; J = NO</p>
        ","f","html-keyboard-response","201","2.1.0","526050","F=YES, J=NO","54rwoytone","2","71","63","80","","","","","","","","","land","card1","unrelated","experimental","f","true","",""
"null","<p style=""font-size: 50px;"">+</p>","null","html-keyboard-response","202","2.1.0","526361","F=YES, J=NO","54rwoytone","2","71","63","80","","","","","","","","","","","","","","","",""
"null","audio/beep-329314.mp3","null","audio-keyboard-response","203","2.1.0","528030","F=YES, J=NO","54rwoytone","2","71","63","80","","","","","","","","","","","","","","","",""
"null","audio/effort.wav","null","audio-keyboard-response","204","2.1.0","528729","F=YES, J=NO","54rwoytone","2","71","63","80","","","","","","","","","","","","","","","",""
"610","
          <p id=""word"" style=""font-size: 40px;"">whonk</p>
          <p style=""font-size: 16px;"">F = YES &nbsp;&nbsp;&nbsp; J = NO</p>
        ","j","html-keyboard-response","205","2.1.0","529340","F=YES, J=NO","54rwoytone","2","71","63","80","","","","","","","","","whonk","effort","pseudoword","pseudoword","j","true","",""
"null","<p style=""font-size: 50px;"">+</p>","null","html-keyboard-response","206","2.1.0","529649","F=YES, J=NO","54rwoytone","2","71","63","80","","","","","","","","","","","","","","","",""
"null","audio/beep-329314.mp3","null","audio-keyboard-response","207","2.1.0","531320","F=YES, J=NO","54rwoytone","2","71","63","80","","","","","","","","","","","","","","","",""
"null","audio/size1.wav","null","audio-keyboard-response","208","2.1.0","532179","F=YES, J=NO","54rwoytone","2","71","63","80","","","","","","","","","","","","","","","",""
"461","
          <p id=""word"" style=""font-size: 40px;"">clear</p>
          <p style=""font-size: 16px;"">F = YES &nbsp;&nbsp;&nbsp; J = NO</p>
        ","j","html-keyboard-response","209","2.1.0","532641","F=YES, J=NO","54rwoytone","2","71","63","80","","","","","","","","","clear","size1","unrelated","experimental","f","false","",""
"null","<p style=""font-size: 50px;"">+</p>","null","html-keyboard-response","210","2.1.0","532955","F=YES, J=NO","54rwoytone","2","71","63","80","","","","","","","","","","","","","","","",""
"null","audio/beep-329314.mp3","null","audio-keyboard-response","211","2.1.0","534624","F=YES, J=NO","54rwoytone","2","71","63","80","","","","","","","","","","","","","","","",""
"null","audio/pine.wav","null","audio-keyboard-response","212","2.1.0","535212","F=YES, J=NO","54rwoytone","2","71","63","80","","","","","","","","","","","","","","","",""
"974","
          <p id=""word"" style=""font-size: 40px;"">crebble</p>
          <p style=""font-size: 16px;"">F = YES &nbsp;&nbsp;&nbsp; J = NO</p>
        ","j","html-keyboard-response","213","2.1.0","536188","F=YES, J=NO","54rwoytone","2","71","63","80","","","","","","","","","crebble","pine","pseudoword","pseudoword","j","true","",""
"null","<p style=""font-size: 50px;"">+</p>","null","html-keyboard-response","214","2.1.0","536504","F=YES, J=NO","54rwoytone","2","71","63","80","","","","","","","","","","","","","","","",""
"null","audio/beep-329314.mp3","null","audio-keyboard-response","215","2.1.0","538162","F=YES, J=NO","54rwoytone","2","71","63","80","","","","","","","","","","","","","","","",""
"null","audio/baby.wav","null","audio-keyboard-response","216","2.1.0","538730","F=YES, J=NO","54rwoytone","2","71","63","80","","","","","","","","","","","","","","","",""
"616","
          <p id=""word"" style=""font-size: 40px;"">lift</p>
          <p style=""font-size: 16px;"">F = YES &nbsp;&nbsp;&nbsp; J = NO</p>
        ","f","html-keyboard-response","217","2.1.0","539349","F=YES, J=NO","54rwoytone","2","71","63","80","","","","","","","","","lift","baby","filler","filler","f","true","",""
"null","<p style=""font-size: 50px;"">+</p>","null","html-keyboard-response","218","2.1.0","539661","F=YES, J=NO","54rwoytone","2","71","63","80","","","","","","","","","","","","","","","",""
"null","audio/beep-329314.mp3","null","audio-keyboard-response","219","2.1.0","541352","F=YES, J=NO","54rwoytone","2","71","63","80","","","","","","","","","","","","","","","",""
"null","audio/mouth1.wav","null","audio-keyboard-response","220","2.1.0","542028","F=YES, J=NO","54rwoytone","2","71","63","80","","","","","","","","","","","","","","","",""
"444","
          <p id=""word"" style=""font-size: 40px;"">spolial</p>
          <p style=""font-size: 16px;"">F = YES &nbsp;&nbsp;&nbsp; J = NO</p>
        ","j","html-keyboard-response","221","2.1.0","542475","F=YES, J=NO","54rwoytone","2","71","63","80","","","","","","","","","spolial","mouth1","pseudoword","pseudoword","j","true","",""
"null","<p style=""font-size: 50px;"">+</p>","null","html-keyboard-response","222","2.1.0","542777","F=YES, J=NO","54rwoytone","2","71","63","80","","","","","","","","","","","","","","","",""
"null","audio/beep-329314.mp3","null","audio-keyboard-response","223","2.1.0","544459","F=YES, J=NO","54rwoytone","2","71","63","80","","","","","","","","","","","","","","","",""
"null","audio/topic.wav","null","audio-keyboard-response","224","2.1.0","545128","F=YES, J=NO","54rwoytone","2","71","63","80","","","","","","","","","","","","","","","",""
"621","
          <p id=""word"" style=""font-size: 40px;"">approach</p>
          <p style=""font-size: 16px;"">F = YES &nbsp;&nbsp;&nbsp; J = NO</p>
        ","j","html-keyboard-response","225","2.1.0","545751","F=YES, J=NO","54rwoytone","2","71","63","80","","","","","","","","","approach","topic","metaphor","experimental","f","false","",""
"null","<p style=""font-size: 50px;"">+</p>","null","html-keyboard-response","226","2.1.0","546065","F=YES, J=NO","54rwoytone","2","71","63","80","","","","","","","","","","","","","","","",""
"null","audio/beep-329314.mp3","null","audio-keyboard-response","227","2.1.0","547754","F=YES, J=NO","54rwoytone","2","71","63","80","","","","","","","","","","","","","","","",""
"null","audio/foot1.wav","null","audio-keyboard-response","228","2.1.0","548430","F=YES, J=NO","54rwoytone","2","71","63","80","","","","","","","","","","","","","","","",""
"555","
          <p id=""word"" style=""font-size: 40px;"">close</p>
          <p style=""font-size: 16px;"">F = YES &nbsp;&nbsp;&nbsp; J = NO</p>
        ","f","html-keyboard-response","229","2.1.0","548986","F=YES, J=NO","54rwoytone","2","71","63","80","","","","","","","","","close","foot1","unrelated","experimental","f","true","",""
"47587","<p>Excellent! You have finished block 1 of 8.</p>
                     <p>Feel free to take a 30 second break.</p>
                     <p>Press any key when you're ready to continue.</p>"," ","html-keyboard-response","230","2.1.0","596576","F=YES, J=NO","54rwoytone","2","71","63","80","","","","","","","","","","","","","","","",""
"1799","<p>Starting main block 2 of 8. Press any key to continue.</p>"," ","html-keyboard-response","231","2.1.0","598376","F=YES, J=NO","54rwoytone","2","71","63","80","","","","","","","","","","","","","","","",""
"null","<p style=""font-size: 50px;"">+</p>","null","html-keyboard-response","232","2.1.0","598681","F=YES, J=NO","54rwoytone","2","71","63","80","","","","","","","","","","","","","","","",""
"null","audio/beep-329314.mp3","null","audio-keyboard-response","233","2.1.0","600678","F=YES, J=NO","54rwoytone","2","71","63","80","","","","","","","","","","","","","","","",""
"null","audio/purpose.wav","null","audio-keyboard-response","234","2.1.0","601476","F=YES, J=NO","54rwoytone","2","71","63","80","","","","","","","","","","","","","","","",""
"787","
          <p id=""word"" style=""font-size: 40px;"">whigm</p>
          <p style=""font-size: 16px;"">F = YES &nbsp;&nbsp;&nbsp; J = NO</p>
        ","j","html-keyboard-response","235","2.1.0","602266","F=YES, J=NO","54rwoytone","2","71","63","80","","","","","","","","","whigm","purpose","pseudoword","pseudoword","j","true","",""
"null","<p style=""font-size: 50px;"">+</p>","null","html-keyboard-response","236","2.1.0","602577","F=YES, J=NO","54rwoytone","2","71","63","80","","","","","","","","","","","","","","","",""
"null","audio/beep-329314.mp3","null","audio-keyboard-response","237","2.1.0","604256","F=YES, J=NO","54rwoytone","2","71","63","80","","","","","","","","","","","","","","","",""
"null","audio/noise1.wav","null","audio-keyboard-response","238","2.1.0","604995","F=YES, J=NO","54rwoytone","2","71","63","80","","","","","","","","","","","","","","","",""
"502","
          <p id=""word"" style=""font-size: 40px;"">build</p>
          <p style=""font-size: 16px;"">F = YES &nbsp;&nbsp;&nbsp; J = NO</p>
        ","f","html-keyboard-response","239","2.1.0","605498","F=YES, J=NO","54rwoytone","2","71","63","80","","","","","","","","","build","noise1","unrelated","experimental","f","true","",""
"null","<p style=""font-size: 50px;"">+</p>","null","html-keyboard-response","240","2.1.0","605805","F=YES, J=NO","54rwoytone","2","71","63","80","","","","","","","","","","","","","","","",""
"null","audio/beep-329314.mp3","null","audio-keyboard-response","241","2.1.0","607468","F=YES, J=NO","54rwoytone","2","71","63","80","","","","","","","","","","","","","","","",""
"null","audio/prisoner.wav","null","audio-keyboard-response","242","2.1.0","608101","F=YES, J=NO","54rwoytone","2","71","63","80","","","","","","","","","","","","","","","",""
"616","
          <p id=""word"" style=""font-size: 40px;"">release</p>
          <p style=""font-size: 16px;"">F = YES &nbsp;&nbsp;&nbsp; J = NO</p>
        ","f","html-keyboard-response","243","2.1.0","608718","F=YES, J=NO","54rwoytone","2","71","63","80","","","","","","","","","release","prisoner","literal","experimental","f","true","",""
"null","<p style=""font-size: 50px;"">+</p>","null","html-keyboard-response","244","2.1.0","609025","F=YES, J=NO","54rwoytone","2","71","63","80","","","","","","","","","","","","","","","",""
"null","audio/beep-329314.mp3","null","audio-keyboard-response","245","2.1.0","610703","F=YES, J=NO","54rwoytone","2","71","63","80","","","","","","","","","","","","","","","",""
"null","audio/holiday1.wav","null","audio-keyboard-response","246","2.1.0","611439","F=YES, J=NO","54rwoytone","2","71","63","80","","","","","","","","","","","","","","","",""
"773","
          <p id=""word"" style=""font-size: 40px;"">drivets</p>
          <p style=""font-size: 16px;"">F = YES &nbsp;&nbsp;&nbsp; J = NO</p>
        ","f","html-keyboard-response","247","2.1.0","612214","F=YES, J=NO","54rwoytone","2","71","63","80","","","","","","","","","drivets","holiday1","pseudoword","pseudoword","j","false","",""
"null","<p style=""font-size: 50px;"">+</p>","null","html-keyboard-response","248","2.1.0","612518","F=YES, J=NO","54rwoytone","2","71","63","80","","","","","","","","","","","","","","","",""
"null","audio/beep-329314.mp3","null","audio-keyboard-response","249","2.1.0","614180","F=YES, J=NO","54rwoytone","2","71","63","80","","","","","","","","","","","","","","","",""
"null","audio/purpose.wav","null","audio-keyboard-response","250","2.1.0","614975","F=YES, J=NO","54rwoytone","2","71","63","80","","","","","","","","","","","","","","","",""
"563","
          <p id=""word"" style=""font-size: 40px;"">defeat</p>
          <p style=""font-size: 16px;"">F = YES &nbsp;&nbsp;&nbsp; J = NO</p>
        ","f","html-keyboard-response","251","2.1.0","615540","F=YES, J=NO","54rwoytone","2","71","63","80","","","","","","","","","defeat","purpose","metaphor","experimental","f","true","",""
"null","<p style=""font-size: 50px;"">+</p>","null","html-keyboard-response","252","2.1.0","615854","F=YES, J=NO","54rwoytone","2","71","63","80","","","","","","","","","","","","","","","",""
"null","audio/beep-329314.mp3","null","audio-keyboard-response","253","2.1.0","617536","F=YES, J=NO","54rwoytone","2","71","63","80","","","","","","","","","","","","","","","",""
"null","audio/cinema1.wav","null","audio-keyboard-response","254","2.1.0","618259","F=YES, J=NO","54rwoytone","2","71","63","80","","","","","","","","","","","","","","","",""
"763","
          <p id=""word"" style=""font-size: 40px;"">murple</p>
          <p style=""font-size: 16px;"">F = YES &nbsp;&nbsp;&nbsp; J = NO</p>
        ","j","html-keyboard-response","255","2.1.0","619024","F=YES, J=NO","54rwoytone","2","71","63","80","","","","","","","","","murple","cinema1","pseudoword","pseudoword","j","true","",""
"null","<p style=""font-size: 50px;"">+</p>","null","html-keyboard-response","256","2.1.0","619330","F=YES, J=NO","54rwoytone","2","71","63","80","","","","","","","","","","","","","","","",""
"null","audio/beep-329314.mp3","null","audio-keyboard-response","257","2.1.0","620973","F=YES, J=NO","54rwoytone","2","71","63","80","","","","","","","","","","","","","","","",""
"null","audio/ego.wav","null","audio-keyboard-response","258","2.1.0","621591","F=YES, J=NO","54rwoytone","2","71","63","80","","","","","","","","","","","","","","","",""
"928","
          <p id=""word"" style=""font-size: 40px;"">bruite</p>
          <p style=""font-size: 16px;"">F = YES &nbsp;&nbsp;&nbsp; J = NO</p>
        ","j","html-keyboard-response","259","2.1.0","622521","F=YES, J=NO","54rwoytone","2","71","63","80","","","","","","","","","bruite","ego","pseudoword","pseudoword","j","true","",""
"null","<p style=""font-size: 50px;"">+</p>","null","html-keyboard-response","260","2.1.0","622833","F=YES, J=NO","54rwoytone","2","71","63","80","","","","","","","","","","","","","","","",""
"null","audio/beep-329314.mp3","null","audio-keyboard-response","261","2.1.0","624503","F=YES, J=NO","54rwoytone","2","71","63","80","","","","","","","","","","","","","","","",""
"null","audio/sugar1.wav","null","audio-keyboard-response","262","2.1.0","625100","F=YES, J=NO","54rwoytone","2","71","63","80","","","","","","","","","","","","","","","",""
"789","
          <p id=""word"" style=""font-size: 40px;"">glung</p>
          <p style=""font-size: 16px;"">F = YES &nbsp;&nbsp;&nbsp; J = NO</p>
        ","j","html-keyboard-response","263","2.1.0","625892","F=YES, J=NO","54rwoytone","2","71","63","80","","","","","","","","","glung","sugar1","pseudoword","pseudoword","j","true","",""
"null","<p style=""font-size: 50px;"">+</p>","null","html-keyboard-response","264","2.1.0","626196","F=YES, J=NO","54rwoytone","2","71","63","80","","","","","","","","","","","","","","","",""
"null","audio/beep-329314.mp3","null","audio-keyboard-response","265","2.1.0","627858","F=YES, J=NO","54rwoytone","2","71","63","80","","","","","","","","","","","","","","","",""
"null","audio/meal.wav","null","audio-keyboard-response","266","2.1.0","628419","F=YES, J=NO","54rwoytone","2","71","63","80","","","","","","","","","","","","","","","",""
"662","
          <p id=""word"" style=""font-size: 40px;"">gallite</p>
          <p style=""font-size: 16px;"">F = YES &nbsp;&nbsp;&nbsp; J = NO</p>
        ","j","html-keyboard-response","267","2.1.0","629083","F=YES, J=NO","54rwoytone","2","71","63","80","","","","","","","","","gallite","meal","pseudoword","pseudoword","j","true","",""
"null","<p style=""font-size: 50px;"">+</p>","null","html-keyboard-response","268","2.1.0","629390","F=YES, J=NO","54rwoytone","2","71","63","80","","","","","","","","","","","","","","","",""
"null","audio/beep-329314.mp3","null","audio-keyboard-response","269","2.1.0","631044","F=YES, J=NO","54rwoytone","2","71","63","80","","","","","","","","","","","","","","","",""
"null","audio/gossip1.wav","null","audio-keyboard-response","270","2.1.0","631784","F=YES, J=NO","54rwoytone","2","71","63","80","","","","","","","","","","","","","","","",""
"891","
          <p id=""word"" style=""font-size: 40px;"">camerish</p>
          <p style=""font-size: 16px;"">F = YES &nbsp;&nbsp;&nbsp; J = NO</p>
        ","f","html-keyboard-response","271","2.1.0","632677","F=YES, J=NO","54rwoytone","2","71","63","80","","","","","","","","","camerish","gossip1","pseudoword","pseudoword","j","false","",""
"null","<p style=""font-size: 50px;"">+</p>","null","html-keyboard-response","272","2.1.0","632993","F=YES, J=NO","54rwoytone","2","71","63","80","","","","","","","","","","","","","","","",""
"null","audio/beep-329314.mp3","null","audio-keyboard-response","273","2.1.0","634644","F=YES, J=NO","54rwoytone","2","71","63","80","","","","","","","","","","","","","","","",""
"null","audio/dollar.wav","null","audio-keyboard-response","274","2.1.0","635137","F=YES, J=NO","54rwoytone","2","71","63","80","","","","","","","","","","","","","","","",""
"819","
          <p id=""word"" style=""font-size: 40px;"">save</p>
          <p style=""font-size: 16px;"">F = YES &nbsp;&nbsp;&nbsp; J = NO</p>
        ","j","html-keyboard-response","275","2.1.0","635959","F=YES, J=NO","54rwoytone","2","71","63","80","","","","","","","","","save","dollar","literal","experimental","f","false","",""
"null","<p style=""font-size: 50px;"">+</p>","null","html-keyboard-response","276","2.1.0","636263","F=YES, J=NO","54rwoytone","2","71","63","80","","","","","","","","","","","","","","","",""
"null","audio/beep-329314.mp3","null","audio-keyboard-response","277","2.1.0","637947","F=YES, J=NO","54rwoytone","2","71","63","80","","","","","","","","","","","","","","","",""
"null","audio/rank1.wav","null","audio-keyboard-response","278","2.1.0","638652","F=YES, J=NO","54rwoytone","2","71","63","80","","","","","","","","","","","","","","","",""
"631","
          <p id=""word"" style=""font-size: 40px;"">climb</p>
          <p style=""font-size: 16px;"">F = YES &nbsp;&nbsp;&nbsp; J = NO</p>
        ","f","html-keyboard-response","279","2.1.0","639285","F=YES, J=NO","54rwoytone","2","71","63","80","","","","","","","","","climb","rank1","metaphor","experimental","f","true","",""
"null","<p style=""font-size: 50px;"">+</p>","null","html-keyboard-response","280","2.1.0","639598","F=YES, J=NO","54rwoytone","2","71","63","80","","","","","","","","","","","","","","","",""
"null","audio/beep-329314.mp3","null","audio-keyboard-response","281","2.1.0","641270","F=YES, J=NO","54rwoytone","2","71","63","80","","","","","","","","","","","","","","","",""
"null","audio/cash1.wav","null","audio-keyboard-response","282","2.1.0","641961","F=YES, J=NO","54rwoytone","2","71","63","80","","","","","","","","","","","","","","","",""
"749","
          <p id=""word"" style=""font-size: 40px;"">splear</p>
          <p style=""font-size: 16px;"">F = YES &nbsp;&nbsp;&nbsp; J = NO</p>
        ","f","html-keyboard-response","283","2.1.0","642712","F=YES, J=NO","54rwoytone","2","71","63","80","","","","","","","","","splear","cash1","pseudoword","pseudoword","j","false","",""
"null","<p style=""font-size: 50px;"">+</p>","null","html-keyboard-response","284","2.1.0","643022","F=YES, J=NO","54rwoytone","2","71","63","80","","","","","","","","","","","","","","","",""
"null","audio/beep-329314.mp3","null","audio-keyboard-response","285","2.1.0","644696","F=YES, J=NO","54rwoytone","2","71","63","80","","","","","","","","","","","","","","","",""
"null","audio/vehicle1.wav","null","audio-keyboard-response","286","2.1.0","645472","F=YES, J=NO","54rwoytone","2","71","63","80","","","","","","","","","","","","","","","",""
"800","
          <p id=""word"" style=""font-size: 40px;"">dropt</p>
          <p style=""font-size: 16px;"">F = YES &nbsp;&nbsp;&nbsp; J = NO</p>
        ","j","html-keyboard-response","287","2.1.0","646276","F=YES, J=NO","54rwoytone","2","71","63","80","","","","","","","","","dropt","vehicle1","pseudoword","pseudoword","j","true","",""
"null","<p style=""font-size: 50px;"">+</p>","null","html-keyboard-response","288","2.1.0","646592","F=YES, J=NO","54rwoytone","2","71","63","80","","","","","","","","","","","","","","","",""
"null","audio/beep-329314.mp3","null","audio-keyboard-response","289","2.1.0","648272","F=YES, J=NO","54rwoytone","2","71","63","80","","","","","","","","","","","","","","","",""
"null","audio/winter.wav","null","audio-keyboard-response","290","2.1.0","648935","F=YES, J=NO","54rwoytone","2","71","63","80","","","","","","","","","","","","","","","",""
"576","
          <p id=""word"" style=""font-size: 40px;"">expose</p>
          <p style=""font-size: 16px;"">F = YES &nbsp;&nbsp;&nbsp; J = NO</p>
        ","f","html-keyboard-response","291","2.1.0","649511","F=YES, J=NO","54rwoytone","2","71","63","80","","","","","","","","","expose","winter","unrelated","experimental","f","true","",""
"null","<p style=""font-size: 50px;"">+</p>","null","html-keyboard-response","292","2.1.0","649819","F=YES, J=NO","54rwoytone","2","71","63","80","","","","","","","","","","","","","","","",""
"null","audio/beep-329314.mp3","null","audio-keyboard-response","293","2.1.0","651489","F=YES, J=NO","54rwoytone","2","71","63","80","","","","","","","","","","","","","","","",""
"null","audio/camera1.wav","null","audio-keyboard-response","294","2.1.0","652054","F=YES, J=NO","54rwoytone","2","71","63","80","","","","","","","","","","","","","","","",""
"811","
          <p id=""word"" style=""font-size: 40px;"">stir</p>
          <p style=""font-size: 16px;"">F = YES &nbsp;&nbsp;&nbsp; J = NO</p>
        ","j","html-keyboard-response","295","2.1.0","652868","F=YES, J=NO","54rwoytone","2","71","63","80","","","","","","","","","stir","camera1","filler","filler","f","false","",""
"1372","<p>Excellent! You have finished block 2 of 8.</p>
                     <p>Feel free to take a 30 second break.</p>
                     <p>Press any key when you're ready to continue.</p>"," ","html-keyboard-response","296","2.1.0","654240","F=YES, J=NO","54rwoytone","2","71","63","80","","","","","","","","","","","","","","","",""
"818","<p>Starting main block 3 of 8. Press any key to continue.</p>"," ","html-keyboard-response","297","2.1.0","655061","F=YES, J=NO","54rwoytone","2","71","63","80","","","","","","","","","","","","","","","",""
"null","<p style=""font-size: 50px;"">+</p>","null","html-keyboard-response","298","2.1.0","655362","F=YES, J=NO","54rwoytone","2","71","63","80","","","","","","","","","","","","","","","",""
"null","audio/beep-329314.mp3","null","audio-keyboard-response","299","2.1.0","657122","F=YES, J=NO","54rwoytone","2","71","63","80","","","","","","","","","","","","","","","",""
"null","audio/pain1.wav","null","audio-keyboard-response","300","2.1.0","657689","F=YES, J=NO","54rwoytone","2","71","63","80","","","","","","","","","","","","","","","",""
"445","
          <p id=""word"" style=""font-size: 40px;"">tritted</p>
          <p style=""font-size: 16px;"">F = YES &nbsp;&nbsp;&nbsp; J = NO</p>
        ","j","html-keyboard-response","301","2.1.0","658136","F=YES, J=NO","54rwoytone","2","71","63","80","","","","","","","","","tritted","pain1","pseudoword","pseudoword","j","true","",""
"null","<p style=""font-size: 50px;"">+</p>","null","html-keyboard-response","302","2.1.0","658453","F=YES, J=NO","54rwoytone","2","71","63","80","","","","","","","","","","","","","","","",""
"null","audio/beep-329314.mp3","null","audio-keyboard-response","303","2.1.0","660126","F=YES, J=NO","54rwoytone","2","71","63","80","","","","","","","","","","","","","","","",""
"null","audio/relief.wav","null","audio-keyboard-response","304","2.1.0","660904","F=YES, J=NO","54rwoytone","2","71","63","80","","","","","","","","","","","","","","","",""
"655","
          <p id=""word"" style=""font-size: 40px;"">grigg</p>
          <p style=""font-size: 16px;"">F = YES &nbsp;&nbsp;&nbsp; J = NO</p>
        ","j","html-keyboard-response","305","2.1.0","661561","F=YES, J=NO","54rwoytone","2","71","63","80","","","","","","","","","grigg","relief","pseudoword","pseudoword","j","true","",""
"null","<p style=""font-size: 50px;"">+</p>","null","html-keyboard-response","306","2.1.0","661870","F=YES, J=NO","54rwoytone","2","71","63","80","","","","","","","","","","","","","","","",""
"null","audio/beep-329314.mp3","null","audio-keyboard-response","307","2.1.0","663550","F=YES, J=NO","54rwoytone","2","71","63","80","","","","","","","","","","","","","","","",""
"null","audio/scar.wav","null","audio-keyboard-response","308","2.1.0","664259","F=YES, J=NO","54rwoytone","2","71","63","80","","","","","","","","","","","","","","","",""
"530","
          <p id=""word"" style=""font-size: 40px;"">hide</p>
          <p style=""font-size: 16px;"">F = YES &nbsp;&nbsp;&nbsp; J = NO</p>
        ","f","html-keyboard-response","309","2.1.0","664792","F=YES, J=NO","54rwoytone","2","71","63","80","","","","","","","","","hide","scar","literal","experimental","f","true","",""
"null","<p style=""font-size: 50px;"">+</p>","null","html-keyboard-response","310","2.1.0","665095","F=YES, J=NO","54rwoytone","2","71","63","80","","","","","","","","","","","","","","","",""
"null","audio/beep-329314.mp3","null","audio-keyboard-response","311","2.1.0","666763","F=YES, J=NO","54rwoytone","2","71","63","80","","","","","","","","","","","","","","","",""
"null","audio/street.wav","null","audio-keyboard-response","312","2.1.0","667539","F=YES, J=NO","54rwoytone","2","71","63","80","","","","","","","","","","","","","","","",""
"504","
          <p id=""word"" style=""font-size: 40px;"">hold</p>
          <p style=""font-size: 16px;"">F = YES &nbsp;&nbsp;&nbsp; J = NO</p>
        ","f","html-keyboard-response","313","2.1.0","668044","F=YES, J=NO","54rwoytone","2","71","63","80","","","","","","","","","hold","street","unrelated","experimental","f","true","",""
"null","<p style=""font-size: 50px;"">+</p>","null","html-keyboard-response","314","2.1.0","668353","F=YES, J=NO","54rwoytone","2","71","63","80","","","","","","","","","","","","","","","",""
"null","audio/beep-329314.mp3","null","audio-keyboard-response","315","2.1.0","670006","F=YES, J=NO","54rwoytone","2","71","63","80","","","","","","","","","","","","","","","",""
"null","audio/floor.wav","null","audio-keyboard-response","316","2.1.0","670677","F=YES, J=NO","54rwoytone","2","71","63","80","","","","","","","","","","","","","","","",""
"561","
          <p id=""word"" style=""font-size: 40px;"">mop</p>
          <p style=""font-size: 16px;"">F = YES &nbsp;&nbsp;&nbsp; J = NO</p>
        ","f","html-keyboard-response","317","2.1.0","671240","F=YES, J=NO","54rwoytone","2","71","63","80","","","","","","","","","mop","floor","filler","filler","f","true","",""
"null","<p style=""font-size: 50px;"">+</p>","null","html-keyboard-response","318","2.1.0","671545","F=YES, J=NO","54rwoytone","2","71","63","80","","","","","","","","","","","","","","","",""
"null","audio/beep-329314.mp3","null","audio-keyboard-response","319","2.1.0","673232","F=YES, J=NO","54rwoytone","2","71","63","80","","","","","","","","","","","","","","","",""
"null","audio/bottle.wav","null","audio-keyboard-response","320","2.1.0","673806","F=YES, J=NO","54rwoytone","2","71","63","80","","","","","","","","","","","","","","","",""
"588","
          <p id=""word"" style=""font-size: 40px;"">open</p>
          <p style=""font-size: 16px;"">F = YES &nbsp;&nbsp;&nbsp; J = NO</p>
        ","f","html-keyboard-response","321","2.1.0","674396","F=YES, J=NO","54rwoytone","2","71","63","80","","","","","","","","","open","bottle","literal","experimental","f","true","",""
"null","<p style=""font-size: 50px;"">+</p>","null","html-keyboard-response","322","2.1.0","674706","F=YES, J=NO","54rwoytone","2","71","63","80","","","","","","","","","","","","","","","",""
"null","audio/beep-329314.mp3","null","audio-keyboard-response","323","2.1.0","676392","F=YES, J=NO","54rwoytone","2","71","63","80","","","","","","","","","","","","","","","",""
"null","audio/plot1.wav","null","audio-keyboard-response","324","2.1.0","677021","F=YES, J=NO","54rwoytone","2","71","63","80","","","","","","","","","","","","","","","",""
"669","
          <p id=""word"" style=""font-size: 40px;"">glenter</p>
          <p style=""font-size: 16px;"">F = YES &nbsp;&nbsp;&nbsp; J = NO</p>
        ","j","html-keyboard-response","325","2.1.0","677693","F=YES, J=NO","54rwoytone","2","71","63","80","","","","","","","","","glenter","plot1","pseudoword","pseudoword","j","true","",""
"null","<p style=""font-size: 50px;"">+</p>","null","html-keyboard-response","326","2.1.0","677995","F=YES, J=NO","54rwoytone","2","71","63","80","","","","","","","","","","","","","","","",""
"null","audio/beep-329314.mp3","null","audio-keyboard-response","327","2.1.0","679661","F=YES, J=NO","54rwoytone","2","71","63","80","","","","","","","","","","","","","","","",""
"null","audio/van1.wav","null","audio-keyboard-response","328","2.1.0","680237","F=YES, J=NO","54rwoytone","2","71","63","80","","","","","","","","","","","","","","","",""
"null","
          <p id=""word"" style=""font-size: 40px;"">push</p>
          <p style=""font-size: 16px;"">F = YES &nbsp;&nbsp;&nbsp; J = NO</p>
        ","null","html-keyboard-response","329","2.1.0","681752","F=YES, J=NO","54rwoytone","2","71","63","80","","","","","","","","","push","van1","filler","filler","f","false","",""
"null","<p style=""font-size: 50px;"">+</p>","null","html-keyboard-response","330","2.1.0","682067","F=YES, J=NO","54rwoytone","2","71","63","80","","","","","","","","","","","","","","","",""
"null","audio/beep-329314.mp3","null","audio-keyboard-response","331","2.1.0","683615","F=YES, J=NO","54rwoytone","2","71","63","80","","","","","","","","","","","","","","","",""
"null","audio/mile1.wav","null","audio-keyboard-response","332","2.1.0","684181","F=YES, J=NO","54rwoytone","2","71","63","80","","","","","","","","","","","","","","","",""
"611","
          <p id=""word"" style=""font-size: 40px;"">writch</p>
          <p style=""font-size: 16px;"">F = YES &nbsp;&nbsp;&nbsp; J = NO</p>
        ","f","html-keyboard-response","333","2.1.0","684795","F=YES, J=NO","54rwoytone","2","71","63","80","","","","","","","","","writch","mile1","pseudoword","pseudoword","j","false","",""
"null","<p style=""font-size: 50px;"">+</p>","null","html-keyboard-response","334","2.1.0","685102","F=YES, J=NO","54rwoytone","2","71","63","80","","","","","","","","","","","","","","","",""
"null","audio/beep-329314.mp3","null","audio-keyboard-response","335","2.1.0","686782","F=YES, J=NO","54rwoytone","2","71","63","80","","","","","","","","","","","","","","","",""
"null","audio/terrain.wav","null","audio-keyboard-response","336","2.1.0","687468","F=YES, J=NO","54rwoytone","2","71","63","80","","","","","","","","","","","","","","","",""
"523","
          <p id=""word"" style=""font-size: 40px;"">twist</p>
          <p style=""font-size: 16px;"">F = YES &nbsp;&nbsp;&nbsp; J = NO</p>
        ","f","html-keyboard-response","337","2.1.0","687993","F=YES, J=NO","54rwoytone","2","71","63","80","","","","","","","","","twist","terrain","filler","filler","f","true","",""
"null","<p style=""font-size: 50px;"">+</p>","null","html-keyboard-response","338","2.1.0","688297","F=YES, J=NO","54rwoytone","2","71","63","80","","","","","","","","","","","","","","","",""
"null","audio/beep-329314.mp3","null","audio-keyboard-response","339","2.1.0","689971","F=YES, J=NO","54rwoytone","2","71","63","80","","","","","","","","","","","","","","","",""
"null","audio/sand.wav","null","audio-keyboard-response","340","2.1.0","690731","F=YES, J=NO","54rwoytone","2","71","63","80","","","","","","","","","","","","","","","",""
"586","
          <p id=""word"" style=""font-size: 40px;"">proted</p>
          <p style=""font-size: 16px;"">F = YES &nbsp;&nbsp;&nbsp; J = NO</p>
        ","f","html-keyboard-response","341","2.1.0","691320","F=YES, J=NO","54rwoytone","2","71","63","80","","","","","","","","","proted","sand","pseudoword","pseudoword","j","false","",""
"null","<p style=""font-size: 50px;"">+</p>","null","html-keyboard-response","342","2.1.0","691636","F=YES, J=NO","54rwoytone","2","71","63","80","","","","","","","","","","","","","","","",""
"null","audio/beep-329314.mp3","null","audio-keyboard-response","343","2.1.0","693313","F=YES, J=NO","54rwoytone","2","71","63","80","","","","","","","","","","","","","","","",""
"null","audio/voice.wav","null","audio-keyboard-response","344","2.1.0","694051","F=YES, J=NO","54rwoytone","2","71","63","80","","","","","","","","","","","","","","","",""
"null","
          <p id=""word"" style=""font-size: 40px;"">grintle</p>
          <p style=""font-size: 16px;"">F = YES &nbsp;&nbsp;&nbsp; J = NO</p>
        ","null","html-keyboard-response","345","2.1.0","695565","F=YES, J=NO","54rwoytone","2","71","63","80","","","","","","","","","grintle","voice","pseudoword","pseudoword","j","false","",""
"null","<p style=""font-size: 50px;"">+</p>","null","html-keyboard-response","346","2.1.0","695878","F=YES, J=NO","54rwoytone","2","71","63","80","","","","","","","","","","","","","","","",""
"null","audio/beep-329314.mp3","null","audio-keyboard-response","347","2.1.0","697530","F=YES, J=NO","54rwoytone","2","71","63","80","","","","","","","","","","","","","","","",""
"null","audio/strength.wav","null","audio-keyboard-response","348","2.1.0","698378","F=YES, J=NO","54rwoytone","2","71","63","80","","","","","","","","","","","","","","","",""
"750","
          <p id=""word"" style=""font-size: 40px;"">plabet</p>
          <p style=""font-size: 16px;"">F = YES &nbsp;&nbsp;&nbsp; J = NO</p>
        ","f","html-keyboard-response","349","2.1.0","699129","F=YES, J=NO","54rwoytone","2","71","63","80","","","","","","","","","plabet","strength","pseudoword","pseudoword","j","false","",""
"null","<p style=""font-size: 50px;"">+</p>","null","html-keyboard-response","350","2.1.0","699435","F=YES, J=NO","54rwoytone","2","71","63","80","","","","","","","","","","","","","","","",""
"null","audio/beep-329314.mp3","null","audio-keyboard-response","351","2.1.0","701096","F=YES, J=NO","54rwoytone","2","71","63","80","","","","","","","","","","","","","","","",""
"null","audio/death1.wav","null","audio-keyboard-response","352","2.1.0","701682","F=YES, J=NO","54rwoytone","2","71","63","80","","","","","","","","","","","","","","","",""
"null","
          <p id=""word"" style=""font-size: 40px;"">conquer</p>
          <p style=""font-size: 16px;"">F = YES &nbsp;&nbsp;&nbsp; J = NO</p>
        ","null","html-keyboard-response","353","2.1.0","703191","F=YES, J=NO","54rwoytone","2","71","63","80","","","","","","","","","conquer","death1","metaphor","experimental","f","false","",""
"null","<p style=""font-size: 50px;"">+</p>","null","html-keyboard-response","354","2.1.0","703505","F=YES, J=NO","54rwoytone","2","71","63","80","","","","","","","","","","","","","","","",""
"null","audio/beep-329314.mp3","null","audio-keyboard-response","355","2.1.0","705188","F=YES, J=NO","54rwoytone","2","71","63","80","","","","","","","","","","","","","","","",""
"null","audio/radio1.wav","null","audio-keyboard-response","356","2.1.0","705887","F=YES, J=NO","54rwoytone","2","71","63","80","","","","","","","","","","","","","","","",""
"412","
          <p id=""word"" style=""font-size: 40px;"">spend</p>
          <p style=""font-size: 16px;"">F = YES &nbsp;&nbsp;&nbsp; J = NO</p>
        ","f","html-keyboard-response","357","2.1.0","706301","F=YES, J=NO","54rwoytone","2","71","63","80","","","","","","","","","spend","radio1","unrelated","experimental","f","true","",""
"null","<p style=""font-size: 50px;"">+</p>","null","html-keyboard-response","358","2.1.0","706603","F=YES, J=NO","54rwoytone","2","71","63","80","","","","","","","","","","","","","","","",""
"null","audio/beep-329314.mp3","null","audio-keyboard-response","359","2.1.0","708267","F=YES, J=NO","54rwoytone","2","71","63","80","","","","","","","","","","","","","","","",""
"null","audio/pattern.wav","null","audio-keyboard-response","360","2.1.0","708871","F=YES, J=NO","54rwoytone","2","71","63","80","","","","","","","","","","","","","","","",""
"493","
          <p id=""word"" style=""font-size: 40px;"">tug</p>
          <p style=""font-size: 16px;"">F = YES &nbsp;&nbsp;&nbsp; J = NO</p>
        ","f","html-keyboard-response","361","2.1.0","709367","F=YES, J=NO","54rwoytone","2","71","63","80","","","","","","","","","tug","pattern","filler","filler","f","true","",""
"26571","<p>Excellent! You have finished block 3 of 8.</p>
                     <p>Feel free to take a 30 second break.</p>
                     <p>Press any key when you're ready to continue.</p>"," ","html-keyboard-response","362","2.1.0","735940","F=YES, J=NO","54rwoytone","2","71","63","80","","","","","","","","","","","","","","","",""
"3738","<p>Starting main block 4 of 8. Press any key to continue.</p>"," ","html-keyboard-response","363","2.1.0","739680","F=YES, J=NO","54rwoytone","2","71","63","80","","","","","","","","","","","","","","","",""
"null","<p style=""font-size: 50px;"">+</p>","null","html-keyboard-response","364","2.1.0","739988","F=YES, J=NO","54rwoytone","2","71","63","80","","","","","","","","","","","","","","","",""
"null","audio/beep-329314.mp3","null","audio-keyboard-response","365","2.1.0","741993","F=YES, J=NO","54rwoytone","2","71","63","80","","","","","","","","","","","","","","","",""
"null","audio/trout1.wav","null","audio-keyboard-response","366","2.1.0","742687","F=YES, J=NO","54rwoytone","2","71","63","80","","","","","","","","","","","","","","","",""
"498","
          <p id=""word"" style=""font-size: 40px;"">catch</p>
          <p style=""font-size: 16px;"">F = YES &nbsp;&nbsp;&nbsp; J = NO</p>
        ","f","html-keyboard-response","367","2.1.0","743187","F=YES, J=NO","54rwoytone","2","71","63","80","","","","","","","","","catch","trout1","literal","experimental","f","true","",""
"null","<p style=""font-size: 50px;"">+</p>","null","html-keyboard-response","368","2.1.0","743495","F=YES, J=NO","54rwoytone","2","71","63","80","","","","","","","","","","","","","","","",""
"null","audio/beep-329314.mp3","null","audio-keyboard-response","369","2.1.0","745157","F=YES, J=NO","54rwoytone","2","71","63","80","","","","","","","","","","","","","","","",""
"null","audio/church1.wav","null","audio-keyboard-response","370","2.1.0","745969","F=YES, J=NO","54rwoytone","2","71","63","80","","","","","","","","","","","","","","","",""
"500","
          <p id=""word"" style=""font-size: 40px;"">cover</p>
          <p style=""font-size: 16px;"">F = YES &nbsp;&nbsp;&nbsp; J = NO</p>
        ","f","html-keyboard-response","371","2.1.0","746471","F=YES, J=NO","54rwoytone","2","71","63","80","","","","","","","","","cover","church1","unrelated","experimental","f","true","",""
"null","<p style=""font-size: 50px;"">+</p>","null","html-keyboard-response","372","2.1.0","746784","F=YES, J=NO","54rwoytone","2","71","63","80","","","","","","","","","","","","","","","",""
"null","audio/beep-329314.mp3","null","audio-keyboard-response","373","2.1.0","748443","F=YES, J=NO","54rwoytone","2","71","63","80","","","","","","","","","","","","","","","",""
"null","audio/ankle1.wav","null","audio-keyboard-response","374","2.1.0","749061","F=YES, J=NO","54rwoytone","2","71","63","80","","","","","","","","","","","","","","","",""
"491","
          <p id=""word"" style=""font-size: 40px;"">hurt</p>
          <p style=""font-size: 16px;"">F = YES &nbsp;&nbsp;&nbsp; J = NO</p>
        ","f","html-keyboard-response","375","2.1.0","749553","F=YES, J=NO","54rwoytone","2","71","63","80","","","","","","","","","hurt","ankle1","literal","experimental","f","true","",""
"null","<p style=""font-size: 50px;"">+</p>","null","html-keyboard-response","376","2.1.0","749868","F=YES, J=NO","54rwoytone","2","71","63","80","","","","","","","","","","","","","","","",""
"null","audio/beep-329314.mp3","null","audio-keyboard-response","377","2.1.0","751546","F=YES, J=NO","54rwoytone","2","71","63","80","","","","","","","","","","","","","","","",""
"null","audio/breath.wav","null","audio-keyboard-response","378","2.1.0","752235","F=YES, J=NO","54rwoytone","2","71","63","80","","","","","","","","","","","","","","","",""
"527","
          <p id=""word"" style=""font-size: 40px;"">twets</p>
          <p style=""font-size: 16px;"">F = YES &nbsp;&nbsp;&nbsp; J = NO</p>
        ","f","html-keyboard-response","379","2.1.0","752763","F=YES, J=NO","54rwoytone","2","71","63","80","","","","","","","","","twets","breath","pseudoword","pseudoword","j","false","",""
"null","<p style=""font-size: 50px;"">+</p>","null","html-keyboard-response","380","2.1.0","753077","F=YES, J=NO","54rwoytone","2","71","63","80","","","","","","","","","","","","","","","",""
"null","audio/beep-329314.mp3","null","audio-keyboard-response","381","2.1.0","754744","F=YES, J=NO","54rwoytone","2","71","63","80","","","","","","","","","","","","","","","",""
"null","audio/key1.wav","null","audio-keyboard-response","382","2.1.0","755243","F=YES, J=NO","54rwoytone","2","71","63","80","","","","","","","","","","","","","","","",""
"567","
          <p id=""word"" style=""font-size: 40px;"">lose</p>
          <p style=""font-size: 16px;"">F = YES &nbsp;&nbsp;&nbsp; J = NO</p>
        ","f","html-keyboard-response","383","2.1.0","755810","F=YES, J=NO","54rwoytone","2","71","63","80","","","","","","","","","lose","key1","literal","experimental","f","true","",""
"null","<p style=""font-size: 50px;"">+</p>","null","html-keyboard-response","384","2.1.0","756125","F=YES, J=NO","54rwoytone","2","71","63","80","","","","","","","","","","","","","","","",""
"null","audio/beep-329314.mp3","null","audio-keyboard-response","385","2.1.0","757820","F=YES, J=NO","54rwoytone","2","71","63","80","","","","","","","","","","","","","","","",""
"null","audio/kettle1.wav","null","audio-keyboard-response","386","2.1.0","758385","F=YES, J=NO","54rwoytone","2","71","63","80","","","","","","","","","","","","","","","",""
"568","
          <p id=""word"" style=""font-size: 40px;"">wrap</p>
          <p style=""font-size: 16px;"">F = YES &nbsp;&nbsp;&nbsp; J = NO</p>
        ","f","html-keyboard-response","387","2.1.0","758955","F=YES, J=NO","54rwoytone","2","71","63","80","","","","","","","","","wrap","kettle1","filler","filler","f","true","",""
"null","<p style=""font-size: 50px;"">+</p>","null","html-keyboard-response","388","2.1.0","759265","F=YES, J=NO","54rwoytone","2","71","63","80","","","","","","","","","","","","","","","",""
"null","audio/beep-329314.mp3","null","audio-keyboard-response","389","2.1.0","760930","F=YES, J=NO","54rwoytone","2","71","63","80","","","","","","","","","","","","","","","",""
"null","audio/hawk1.wav","null","audio-keyboard-response","390","2.1.0","761614","F=YES, J=NO","54rwoytone","2","71","63","80","","","","","","","","","","","","","","","",""
"466","
          <p id=""word"" style=""font-size: 40px;"">wipe</p>
          <p style=""font-size: 16px;"">F = YES &nbsp;&nbsp;&nbsp; J = NO</p>
        ","f","html-keyboard-response","391","2.1.0","762082","F=YES, J=NO","54rwoytone","2","71","63","80","","","","","","","","","wipe","hawk1","unrelated","experimental","f","true","",""
