"rt","stimulus","response","trial_type","trial_index","plugin_version","time_elapsed","response_mapping","subject_id","list_index","lextale_score","lextale_word_score","lextale_nonword_score","success","timeout","failed_images","failed_audio","failed_video","task","isWord","isDummy","target","prime","prime_type","stimulus_type","correct_response","correct","section","question_order"
"16755","
    <div style=""max-width: 800px; margin: auto; text-align: left;"">
      <h2>STANFORD UNIVERSITY</h2>
      <h3>Research Information Sheet</h3>
      <p><strong>Protocol Director:</strong> Robert Hawkins<br>
      <strong>Protocol Title:</strong> Communication and social cognition in natural audiovisual contexts<br>
      <strong>IRB#:</strong> 77226</p>

      <p><strong>DESCRIPTION:</strong> You are invited to participate in a research study about language and communication. The purpose of the research is to understand how you interact and communicate with other people in naturalistic settings as a fluent English speaker. This research will be conducted through the Prolific platform, including participants from the US, UK, and Canada. If you decide to participate in this research, you will play a communication game in a group with one or more partners.</p>

      <p><strong>TIME INVOLVEMENT:</strong> The task will last the amount of time advertised on Prolific. You are free to withdraw from the study at any time.</p>

      <p><strong>RISKS AND BENEFITS:</strong> You may become frustrated if your partner gets distracted, or experience discomfort if other participants in your group send text that is inappropriate for the task. We ask you to please be respectful of other participants you might be interacting with to mitigate these risks. You may also experience discomfort when being asked to discuss or challenge emotionally salient political beliefs. Study data will be stored securely, in compliance with Stanford University standards, minimizing the risk of confidentiality breach. This study advances our scientific understanding of how people communicate and collaborate in naturalistic settings. This study may lead to further insights about what can go wrong in teamwork, suggest potential interventions to overcome these barriers, and help to develop assistive technologies that collaborate with human partners. We cannot and do not guarantee or promise that you will receive any benefits from this study.</p>

      <p><strong>PAYMENTS:</strong> You will receive payment in the amount advertised on Prolific. If you do not complete this study, you will receive prorated payment based on the time that you have spent. Additionally, you may be eligible for bonus payments as described in the instructions.</p>

      <p><strong>PARTICIPANT’S RIGHTS:</strong> If you have read this form and have decided to participate in this project, please understand your participation is voluntary and you have the right to withdraw your consent or discontinue participation at any time without penalty or loss of benefits to which you are otherwise entitled. The alternative is not to participate. You have the right to refuse to answer particular questions. The results of this research study may be presented at scientific or professional meetings or published in scientific journals. Your individual privacy will be maintained in all published and written data resulting from the study. In accordance with scientific norms, the data from this study may be used or shared with other researchers for future research (after removing personally identifying information) without additional consent from you.</p>

      <p><strong>CONTACT INFORMATION:</strong><br>
      Questions: If you have any questions, concerns or complaints about this research, its procedures, risks and benefits, contact the Protocol Director, Robert Hawkins (<a href=""mailto:rdhawkins@stanford.edu"">rdhawkins@stanford.edu</a>, 217-549-6923).<br>
      Independent Contact: If you are not satisfied with how this study is being conducted, or if you have any concerns, complaints, or general questions about the research or your rights as a participant, please contact the Stanford Institutional Review Board (IRB) to speak to someone independent of the research team at 650-723-2480 or toll free at 1-866-680-2906, or email at <a href=""mailto:irbnon-med@stanford.edu"">irbnon-med@stanford.edu</a>. You can also write to the Stanford IRB, Stanford University, 1705 El Camino Real, Palo Alto, CA 94306.</p>

      <p><strong>Please save or print a copy of this page for your records.</strong></p>
      <p>If you agree to participate in this research, click ""Continue"" below.</p>
    </div>
  ","0","html-button-response","0","2.1.0","16767","F=YES, J=NO","5bgf0urzfe","1","74","83","65","","","","","","","","","","","","","","","",""
"43831","
    <div style=""max-width: 800px; margin: auto; text-align: left;"">
      <h2>Welcome!</h2>
      <p>Thank you for participating in this study. The experiment consists of three parts:</p>
      <ol>
        <li>An English vocabulary test</li>
        <li>A main task in which you will hear and see words, and decide whether the written word is a real English word</li>
        <li>A brief survey about your background</li>
      </ol>
      <p>Each part will be introduced before it begins.</p>
      <p>Please make sure you are in a quiet environment and can hear audio clearly for the final task.</p>
      <p style=""margin-top: 2em;"">Press any key to begin.</p>
    </div>
  "," ","html-keyboard-response","1","2.1.0","60602","F=YES, J=NO","5bgf0urzfe","1","74","83","65","","","","","","","","","","","","","","","",""
"","","","preload","2","2.1.0","74077","F=YES, J=NO","5bgf0urzfe","1","74","83","65","true","false","[]","[]","[]","","","","","","","","","","",""
"8823","
    <div style=""max-width: 800px; margin: auto; text-align: left;"">
      <h2>Part 1: Vocabulary Test</h2>
      <p>You will now complete the first part of the study: a short English vocabulary test.</p>
      <p>This test is called <strong>LexTALE</strong> and helps us get a general sense of your English proficiency.</p>
      <p style=""margin-top: 2em;"">Press any key to continue.</p>
    </div>
  "," ","html-keyboard-response","3","2.1.0","82902","F=YES, J=NO","5bgf0urzfe","1","74","83","65","","","","","","","","","","","","","","","",""
"18592","
    <div style=""max-width: 800px; margin: auto; text-align: left;"">
      <h2>LexTALE Vocabulary Test</h2>
      <p>In this test, you will see a series of letter strings—one at a time.</p>
      <p>Your task is to decide whether each string is a real English word.</p>
      <p><strong>Key responses:</strong></p>
      <ul>
        <li><strong>F</strong> = YES (real English word)</li>
        <li><strong>J</strong> = NO (not a real English word)</li>
      </ul>
      <p>There is no time limit, but please try to be accurate.</p>
      <p style=""margin-top: 2em;"">Press any key to begin.</p>
    </div>
  ","f","html-keyboard-response","4","2.1.0","101495","F=YES, J=NO","5bgf0urzfe","1","74","83","65","","","","","","","","","","","","","","","",""
"4438","
  <p style=""font-size: 40px;"">platery</p>
  <p style=""font-size: 16px;"">F = YES &nbsp;&nbsp;&nbsp; J = NO</p>
","j","html-keyboard-response","5","2.1.0","105935","F=YES, J=NO","5bgf0urzfe","1","74","83","65","","","","","","lextale","false","true","","","","","","","",""
"4630","
  <p style=""font-size: 40px;"">denial</p>
  <p style=""font-size: 16px;"">F = YES &nbsp;&nbsp;&nbsp; J = NO</p>
","f","html-keyboard-response","6","2.1.0","110567","F=YES, J=NO","5bgf0urzfe","1","74","83","65","","","","","","lextale","true","true","","","","","","","",""
"1528","
  <p style=""font-size: 40px;"">marrit</p>
  <p style=""font-size: 16px;"">F = YES &nbsp;&nbsp;&nbsp; J = NO</p>
","f","html-keyboard-response","7","2.1.0","112096","F=YES, J=NO","5bgf0urzfe","1","74","83","65","","","","","","lextale","false","true","","","","","","","",""
"11386","
  <p style=""font-size: 40px;"">bottle</p>
  <p style=""font-size: 16px;"">F = YES &nbsp;&nbsp;&nbsp; J = NO</p>
","f","html-keyboard-response","8","2.1.0","123483","F=YES, J=NO","5bgf0urzfe","1","74","83","65","","","","","","lextale","true","false","","","","","","","",""
"3714","
  <p style=""font-size: 40px;"">birst</p>
  <p style=""font-size: 16px;"">F = YES &nbsp;&nbsp;&nbsp; J = NO</p>
","j","html-keyboard-response","9","2.1.0","127199","F=YES, J=NO","5bgf0urzfe","1","74","83","65","","","","","","lextale","false","false","","","","","","","",""
"1196","
  <p style=""font-size: 40px;"">envy</p>
  <p style=""font-size: 16px;"">F = YES &nbsp;&nbsp;&nbsp; J = NO</p>
","f","html-keyboard-response","10","2.1.0","128397","F=YES, J=NO","5bgf0urzfe","1","74","83","65","","","","","","lextale","true","false","","","","","","","",""
"1879","
  <p style=""font-size: 40px;"">brang</p>
  <p style=""font-size: 16px;"">F = YES &nbsp;&nbsp;&nbsp; J = NO</p>
","j","html-keyboard-response","11","2.1.0","130278","F=YES, J=NO","5bgf0urzfe","1","74","83","65","","","","","","lextale","false","false","","","","","","","",""
"929","
  <p style=""font-size: 40px;"">huge</p>
  <p style=""font-size: 16px;"">F = YES &nbsp;&nbsp;&nbsp; J = NO</p>
","f","html-keyboard-response","12","2.1.0","131208","F=YES, J=NO","5bgf0urzfe","1","74","83","65","","","","","","lextale","true","false","","","","","","","",""
"1784","
  <p style=""font-size: 40px;"">plove</p>
  <p style=""font-size: 16px;"">F = YES &nbsp;&nbsp;&nbsp; J = NO</p>
","j","html-keyboard-response","13","2.1.0","132994","F=YES, J=NO","5bgf0urzfe","1","74","83","65","","","","","","lextale","false","false","","","","","","","",""
"990","
  <p style=""font-size: 40px;"">border</p>
  <p style=""font-size: 16px;"">F = YES &nbsp;&nbsp;&nbsp; J = NO</p>
","f","html-keyboard-response","14","2.1.0","133985","F=YES, J=NO","5bgf0urzfe","1","74","83","65","","","","","","lextale","true","false","","","","","","","",""
"1107","
  <p style=""font-size: 40px;"">flimsy</p>
  <p style=""font-size: 16px;"">F = YES &nbsp;&nbsp;&nbsp; J = NO</p>
","f","html-keyboard-response","15","2.1.0","135093","F=YES, J=NO","5bgf0urzfe","1","74","83","65","","","","","","lextale","true","false","","","","","","","",""
"743","
  <p style=""font-size: 40px;"">drain</p>
  <p style=""font-size: 16px;"">F = YES &nbsp;&nbsp;&nbsp; J = NO</p>
","f","html-keyboard-response","16","2.1.0","135838","F=YES, J=NO","5bgf0urzfe","1","74","83","65","","","","","","lextale","true","false","","","","","","","",""
"1268","
  <p style=""font-size: 40px;"">twindle</p>
  <p style=""font-size: 16px;"">F = YES &nbsp;&nbsp;&nbsp; J = NO</p>
","f","html-keyboard-response","17","2.1.0","137107","F=YES, J=NO","5bgf0urzfe","1","74","83","65","","","","","","lextale","false","false","","","","","","","",""
"1502","
  <p style=""font-size: 40px;"">propose</p>
  <p style=""font-size: 16px;"">F = YES &nbsp;&nbsp;&nbsp; J = NO</p>
","f","html-keyboard-response","18","2.1.0","138611","F=YES, J=NO","5bgf0urzfe","1","74","83","65","","","","","","lextale","true","false","","","","","","","",""
"2611","
  <p style=""font-size: 40px;"">forlay</p>
  <p style=""font-size: 16px;"">F = YES &nbsp;&nbsp;&nbsp; J = NO</p>
","f","html-keyboard-response","19","2.1.0","141223","F=YES, J=NO","5bgf0urzfe","1","74","83","65","","","","","","lextale","false","false","","","","","","","",""
"842","
  <p style=""font-size: 40px;"">tenant</p>
  <p style=""font-size: 16px;"">F = YES &nbsp;&nbsp;&nbsp; J = NO</p>
","f","html-keyboard-response","20","2.1.0","142067","F=YES, J=NO","5bgf0urzfe","1","74","83","65","","","","","","lextale","true","false","","","","","","","",""
"719","
  <p style=""font-size: 40px;"">strain</p>
  <p style=""font-size: 16px;"">F = YES &nbsp;&nbsp;&nbsp; J = NO</p>
","f","html-keyboard-response","21","2.1.0","142789","F=YES, J=NO","5bgf0urzfe","1","74","83","65","","","","","","lextale","true","false","","","","","","","",""
"944","
  <p style=""font-size: 40px;"">holster</p>
  <p style=""font-size: 16px;"">F = YES &nbsp;&nbsp;&nbsp; J = NO</p>
","f","html-keyboard-response","22","2.1.0","143735","F=YES, J=NO","5bgf0urzfe","1","74","83","65","","","","","","lextale","true","false","","","","","","","",""
"2388","
  <p style=""font-size: 40px;"">hinder</p>
  <p style=""font-size: 16px;"">F = YES &nbsp;&nbsp;&nbsp; J = NO</p>
","f","html-keyboard-response","23","2.1.0","146128","F=YES, J=NO","5bgf0urzfe","1","74","83","65","","","","","","lextale","true","false","","","","","","","",""
"949","
  <p style=""font-size: 40px;"">swindle</p>
  <p style=""font-size: 16px;"">F = YES &nbsp;&nbsp;&nbsp; J = NO</p>
","f","html-keyboard-response","24","2.1.0","147077","F=YES, J=NO","5bgf0urzfe","1","74","83","65","","","","","","lextale","true","false","","","","","","","",""
"1441","
  <p style=""font-size: 40px;"">nuder</p>
  <p style=""font-size: 16px;"">F = YES &nbsp;&nbsp;&nbsp; J = NO</p>
","j","html-keyboard-response","25","2.1.0","148519","F=YES, J=NO","5bgf0urzfe","1","74","83","65","","","","","","lextale","false","false","","","","","","","",""
"698","
  <p style=""font-size: 40px;"">pillow</p>
  <p style=""font-size: 16px;"">F = YES &nbsp;&nbsp;&nbsp; J = NO</p>
","f","html-keyboard-response","26","2.1.0","149219","F=YES, J=NO","5bgf0urzfe","1","74","83","65","","","","","","lextale","true","false","","","","","","","",""
"1286","
  <p style=""font-size: 40px;"">shumble</p>
  <p style=""font-size: 16px;"">F = YES &nbsp;&nbsp;&nbsp; J = NO</p>
","j","html-keyboard-response","27","2.1.0","150506","F=YES, J=NO","5bgf0urzfe","1","74","83","65","","","","","","lextale","false","false","","","","","","","",""
"2111","
  <p style=""font-size: 40px;"">thirst</p>
  <p style=""font-size: 16px;"">F = YES &nbsp;&nbsp;&nbsp; J = NO</p>
","f","html-keyboard-response","28","2.1.0","152618","F=YES, J=NO","5bgf0urzfe","1","74","83","65","","","","","","lextale","true","false","","","","","","","",""
"2466","
  <p style=""font-size: 40px;"">unsail</p>
  <p style=""font-size: 16px;"">F = YES &nbsp;&nbsp;&nbsp; J = NO</p>
","f","html-keyboard-response","29","2.1.0","155085","F=YES, J=NO","5bgf0urzfe","1","74","83","65","","","","","","lextale","false","false","","","","","","","",""
"947","
  <p style=""font-size: 40px;"">rifle</p>
  <p style=""font-size: 16px;"">F = YES &nbsp;&nbsp;&nbsp; J = NO</p>
","f","html-keyboard-response","30","2.1.0","156033","F=YES, J=NO","5bgf0urzfe","1","74","83","65","","","","","","lextale","true","false","","","","","","","",""
"921","
  <p style=""font-size: 40px;"">mush</p>
  <p style=""font-size: 16px;"">F = YES &nbsp;&nbsp;&nbsp; J = NO</p>
","f","html-keyboard-response","31","2.1.0","156956","F=YES, J=NO","5bgf0urzfe","1","74","83","65","","","","","","lextale","false","false","","","","","","","",""
"724","
  <p style=""font-size: 40px;"">drench</p>
  <p style=""font-size: 16px;"">F = YES &nbsp;&nbsp;&nbsp; J = NO</p>
","f","html-keyboard-response","32","2.1.0","157682","F=YES, J=NO","5bgf0urzfe","1","74","83","65","","","","","","lextale","true","false","","","","","","","",""
"1078","
  <p style=""font-size: 40px;"">snirt</p>
  <p style=""font-size: 16px;"">F = YES &nbsp;&nbsp;&nbsp; J = NO</p>
","j","html-keyboard-response","33","2.1.0","158761","F=YES, J=NO","5bgf0urzfe","1","74","83","65","","","","","","lextale","false","false","","","","","","","",""
"777","
  <p style=""font-size: 40px;"">bitter</p>
  <p style=""font-size: 16px;"">F = YES &nbsp;&nbsp;&nbsp; J = NO</p>
","f","html-keyboard-response","34","2.1.0","159540","F=YES, J=NO","5bgf0urzfe","1","74","83","65","","","","","","lextale","true","false","","","","","","","",""
"2170","
  <p style=""font-size: 40px;"">pliff</p>
  <p style=""font-size: 16px;"">F = YES &nbsp;&nbsp;&nbsp; J = NO</p>
","j","html-keyboard-response","35","2.1.0","161711","F=YES, J=NO","5bgf0urzfe","1","74","83","65","","","","","","lextale","false","false","","","","","","","",""
"837","
  <p style=""font-size: 40px;"">tablet</p>
  <p style=""font-size: 16px;"">F = YES &nbsp;&nbsp;&nbsp; J = NO</p>
","f","html-keyboard-response","36","2.1.0","162549","F=YES, J=NO","5bgf0urzfe","1","74","83","65","","","","","","lextale","true","false","","","","","","","",""
"1692","
  <p style=""font-size: 40px;"">glimmer</p>
  <p style=""font-size: 16px;"">F = YES &nbsp;&nbsp;&nbsp; J = NO</p>
","f","html-keyboard-response","37","2.1.0","164243","F=YES, J=NO","5bgf0urzfe","1","74","83","65","","","","","","lextale","true","false","","","","","","","",""
"992","
  <p style=""font-size: 40px;"">slink</p>
  <p style=""font-size: 16px;"">F = YES &nbsp;&nbsp;&nbsp; J = NO</p>
","f","html-keyboard-response","38","2.1.0","165236","F=YES, J=NO","5bgf0urzfe","1","74","83","65","","","","","","lextale","true","false","","","","","","","",""
"746","
  <p style=""font-size: 40px;"">clever</p>
  <p style=""font-size: 16px;"">F = YES &nbsp;&nbsp;&nbsp; J = NO</p>
","f","html-keyboard-response","39","2.1.0","165983","F=YES, J=NO","5bgf0urzfe","1","74","83","65","","","","","","lextale","true","false","","","","","","","",""
"902","
  <p style=""font-size: 40px;"">grum</p>
  <p style=""font-size: 16px;"">F = YES &nbsp;&nbsp;&nbsp; J = NO</p>
","j","html-keyboard-response","40","2.1.0","166886","F=YES, J=NO","5bgf0urzfe","1","74","83","65","","","","","","lextale","false","false","","","","","","","",""
"975","
  <p style=""font-size: 40px;"">string</p>
  <p style=""font-size: 16px;"">F = YES &nbsp;&nbsp;&nbsp; J = NO</p>
","f","html-keyboard-response","41","2.1.0","167862","F=YES, J=NO","5bgf0urzfe","1","74","83","65","","","","","","lextale","true","false","","","","","","","",""
"1094","
  <p style=""font-size: 40px;"">plim</p>
  <p style=""font-size: 16px;"">F = YES &nbsp;&nbsp;&nbsp; J = NO</p>
","j","html-keyboard-response","42","2.1.0","168957","F=YES, J=NO","5bgf0urzfe","1","74","83","65","","","","","","lextale","false","false","","","","","","","",""
"3621","
  <p style=""font-size: 40px;"">cable</p>
  <p style=""font-size: 16px;"">F = YES &nbsp;&nbsp;&nbsp; J = NO</p>
","f","html-keyboard-response","43","2.1.0","172580","F=YES, J=NO","5bgf0urzfe","1","74","83","65","","","","","","lextale","true","false","","","","","","","",""
"6207","
  <p style=""font-size: 40px;"">shrivel</p>
  <p style=""font-size: 16px;"">F = YES &nbsp;&nbsp;&nbsp; J = NO</p>
","f","html-keyboard-response","44","2.1.0","178789","F=YES, J=NO","5bgf0urzfe","1","74","83","65","","","","","","lextale","true","false","","","","","","","",""
"896","
  <p style=""font-size: 40px;"">tarnish</p>
  <p style=""font-size: 16px;"">F = YES &nbsp;&nbsp;&nbsp; J = NO</p>
","f","html-keyboard-response","45","2.1.0","179686","F=YES, J=NO","5bgf0urzfe","1","74","83","65","","","","","","lextale","true","false","","","","","","","",""
"922","
  <p style=""font-size: 40px;"">blim</p>
  <p style=""font-size: 16px;"">F = YES &nbsp;&nbsp;&nbsp; J = NO</p>
","j","html-keyboard-response","46","2.1.0","180609","F=YES, J=NO","5bgf0urzfe","1","74","83","65","","","","","","lextale","false","false","","","","","","","",""
"1053","
  <p style=""font-size: 40px;"">stifle</p>
  <p style=""font-size: 16px;"">F = YES &nbsp;&nbsp;&nbsp; J = NO</p>
","j","html-keyboard-response","47","2.1.0","181663","F=YES, J=NO","5bgf0urzfe","1","74","83","65","","","","","","lextale","true","false","","","","","","","",""
"1031","
  <p style=""font-size: 40px;"">bint</p>
  <p style=""font-size: 16px;"">F = YES &nbsp;&nbsp;&nbsp; J = NO</p>
","j","html-keyboard-response","48","2.1.0","182695","F=YES, J=NO","5bgf0urzfe","1","74","83","65","","","","","","lextale","false","false","","","","","","","",""
"704","
  <p style=""font-size: 40px;"">purple</p>
  <p style=""font-size: 16px;"">F = YES &nbsp;&nbsp;&nbsp; J = NO</p>
","f","html-keyboard-response","49","2.1.0","183400","F=YES, J=NO","5bgf0urzfe","1","74","83","65","","","","","","lextale","true","false","","","","","","","",""
"1578","
  <p style=""font-size: 40px;"">wriggle</p>
  <p style=""font-size: 16px;"">F = YES &nbsp;&nbsp;&nbsp; J = NO</p>
","f","html-keyboard-response","50","2.1.0","184980","F=YES, J=NO","5bgf0urzfe","1","74","83","65","","","","","","lextale","true","false","","","","","","","",""
"1166","
  <p style=""font-size: 40px;"">mangle</p>
  <p style=""font-size: 16px;"">F = YES &nbsp;&nbsp;&nbsp; J = NO</p>
","f","html-keyboard-response","51","2.1.0","186148","F=YES, J=NO","5bgf0urzfe","1","74","83","65","","","","","","lextale","true","false","","","","","","","",""
"4298","
  <p style=""font-size: 40px;"">shramp</p>
  <p style=""font-size: 16px;"">F = YES &nbsp;&nbsp;&nbsp; J = NO</p>
","j","html-keyboard-response","52","2.1.0","190447","F=YES, J=NO","5bgf0urzfe","1","74","83","65","","","","","","lextale","false","false","","","","","","","",""
"1119","
  <p style=""font-size: 40px;"">flirt</p>
  <p style=""font-size: 16px;"">F = YES &nbsp;&nbsp;&nbsp; J = NO</p>
","f","html-keyboard-response","53","2.1.0","191568","F=YES, J=NO","5bgf0urzfe","1","74","83","65","","","","","","lextale","true","false","","","","","","","",""
"1151","
  <p style=""font-size: 40px;"">frip</p>
  <p style=""font-size: 16px;"">F = YES &nbsp;&nbsp;&nbsp; J = NO</p>
","j","html-keyboard-response","54","2.1.0","192720","F=YES, J=NO","5bgf0urzfe","1","74","83","65","","","","","","lextale","false","false","","","","","","","",""
"961","
  <p style=""font-size: 40px;"">tangle</p>
  <p style=""font-size: 16px;"">F = YES &nbsp;&nbsp;&nbsp; J = NO</p>
","f","html-keyboard-response","55","2.1.0","193683","F=YES, J=NO","5bgf0urzfe","1","74","83","65","","","","","","lextale","true","false","","","","","","","",""
"661","
  <p style=""font-size: 40px;"">crumble</p>
  <p style=""font-size: 16px;"">F = YES &nbsp;&nbsp;&nbsp; J = NO</p>
","f","html-keyboard-response","56","2.1.0","194345","F=YES, J=NO","5bgf0urzfe","1","74","83","65","","","","","","lextale","true","false","","","","","","","",""
"4621","
  <p style=""font-size: 40px;"">wrinkle</p>
  <p style=""font-size: 16px;"">F = YES &nbsp;&nbsp;&nbsp; J = NO</p>
","f","html-keyboard-response","57","2.1.0","198966","F=YES, J=NO","5bgf0urzfe","1","74","83","65","","","","","","lextale","true","false","","","","","","","",""
"4268","
  <p style=""font-size: 40px;"">slumb</p>
  <p style=""font-size: 16px;"">F = YES &nbsp;&nbsp;&nbsp; J = NO</p>
","f","html-keyboard-response","58","2.1.0","203236","F=YES, J=NO","5bgf0urzfe","1","74","83","65","","","","","","lextale","false","false","","","","","","","",""
"771","
  <p style=""font-size: 40px;"">jungle</p>
  <p style=""font-size: 16px;"">F = YES &nbsp;&nbsp;&nbsp; J = NO</p>
","f","html-keyboard-response","59","2.1.0","204008","F=YES, J=NO","5bgf0urzfe","1","74","83","65","","","","","","lextale","true","false","","","","","","","",""
"881","
  <p style=""font-size: 40px;"">frolick</p>
  <p style=""font-size: 16px;"">F = YES &nbsp;&nbsp;&nbsp; J = NO</p>
","f","html-keyboard-response","60","2.1.0","204890","F=YES, J=NO","5bgf0urzfe","1","74","83","65","","","","","","lextale","false","false","","","","","","","",""
"3331","
      <h2>LexTALE Test Completed</h2>
      <p>Your LexTALE vocabulary score is: <strong>74%</strong></p>
      <p>Press any key to continue.</p>
    "," ","html-keyboard-response","61","2.1.0","208224","F=YES, J=NO","5bgf0urzfe","1","74","83","65","","","","","","","","","","","","","","","",""
"8997","
    <div style=""max-width: 800px; margin: auto; text-align: left;"">
      <h2>Break Time</h2>
      <p>You have completed the first part of the study.</p>
      <p>You may take a short <strong>30-second break</strong> before continuing.</p>
      <p>When you’re ready, press any key to continue to the final task.</p>
    </div>
  "," ","html-keyboard-response","62","2.1.0","217222","F=YES, J=NO","5bgf0urzfe","1","74","83","65","","","","","","","","","","","","","","","",""
"18114","
    <div style=""max-width: 800px; margin: auto; text-align: left;"">
      <h2>Part 2: Lexical Decision Task</h2>
      <p>You will now begin the second part of the study.</p>
      <p>Each trial will follow this sequence:</p>
      <ul>
        <li>A fixation cross (+) appears at the center of the screen.</li>
        <li>You will hear a short beep followed by a spoken word.</li>
        <li>A written word will appear briefly on the screen.</li>
      </ul>
      <p>Your task is to judge whether the <strong>written word</strong> is a real English word.</p>
      <p style=""margin-top: 1em;""><strong>Key responses:</strong></p>
      <ul>
        <li><strong>F</strong> = YES (real English word)</li>
        <li><strong>J</strong> = NO (not a real English word)</li>
      </ul>
      <p>Please respond as quickly and accurately as you can.</p>
      <p style=""margin-top: 2em;"">Press any key to continue.</p>
    </div>
  "," ","html-keyboard-response","63","2.1.0","235338","F=YES, J=NO","5bgf0urzfe","1","74","83","65","","","","","","","","","","","","","","","",""
"9486","
    <div style=""max-width: 800px; margin: auto; text-align: left;"">
      <h2>Before You Begin</h2>
      <p>Make sure your sound is turned on.</p>
      <p>You will hear audio during each trial, but your decision should be based only on the <strong>written word</strong> you see on the screen.</p>
      <p><strong>Reminder:</strong></p>
      <ul>
        <li><strong>F</strong> = YES (real English word)</li>
        <li><strong>J</strong> = NO (not a real English word)</li>
      </ul>
      <p style=""margin-top: 2em;"">Press any key when you are ready to begin.</p>
    </div>
  "," ","html-keyboard-response","64","2.1.0","244824","F=YES, J=NO","5bgf0urzfe","1","74","83","65","","","","","","","","","","","","","","","",""
"5554","
    <div style=""max-width: 800px; margin: auto; text-align: left;"">
      <h2>Part 2: Practice Trials</h2>
      <p>You will now complete a few <strong>practice trials</strong> to get familiar with the task.</p>
      <p>These trials are <strong>not scored</strong> and are only to help you get used to the format.</p>
      <p style=""margin-top: 2em;"">Press any key to begin.</p>
    </div>
  "," ","html-keyboard-response","65","2.1.0","250379","F=YES, J=NO","5bgf0urzfe","1","74","83","65","","","","","","","","","","","","","","","",""
"3488","<p>Starting practice block 1 of 2. Press any key to continue.</p>"," ","html-keyboard-response","66","2.1.0","253868","F=YES, J=NO","5bgf0urzfe","1","74","83","65","","","","","","","","","","","","","","","",""
"null","<p style=""font-size: 50px;"">+</p>","null","html-keyboard-response","67","2.1.0","254179","F=YES, J=NO","5bgf0urzfe","1","74","83","65","","","","","","","","","","","","","","","",""
"null","audio/beep-329314.mp3","null","audio-keyboard-response","68","2.1.0","256524","F=YES, J=NO","5bgf0urzfe","1","74","83","65","","","","","","","","","","","","","","","",""
"null","audio/fence.wav","null","audio-keyboard-response","69","2.1.0","257415","F=YES, J=NO","5bgf0urzfe","1","74","83","65","","","","","","","","","","","","","","","",""
"null","
          <p id=""word"" style=""font-size: 40px;"">trim</p>
          <p style=""font-size: 16px;"">F = YES &nbsp;&nbsp;&nbsp; J = NO</p>
        ","null","html-keyboard-response","70","2.1.0","258930","F=YES, J=NO","5bgf0urzfe","1","74","83","65","","","","","","","","","trim","fence","filler","filler","f","false","",""
"null","<p style=""font-size: 50px;"">+</p>","null","html-keyboard-response","71","2.1.0","259235","F=YES, J=NO","5bgf0urzfe","1","74","83","65","","","","","","","","","","","","","","","",""
"null","audio/beep-329314.mp3","null","audio-keyboard-response","72","2.1.0","260766","F=YES, J=NO","5bgf0urzfe","1","74","83","65","","","","","","","","","","","","","","","",""
"null","audio/stain.wav","null","audio-keyboard-response","73","2.1.0","261436","F=YES, J=NO","5bgf0urzfe","1","74","83","65","","","","","","","","","","","","","","","",""
"1137","
          <p id=""word"" style=""font-size: 40px;"">rumpsied</p>
          <p style=""font-size: 16px;"">F = YES &nbsp;&nbsp;&nbsp; J = NO</p>
        ","j","html-keyboard-response","74","2.1.0","262574","F=YES, J=NO","5bgf0urzfe","1","74","83","65","","","","","","","","","rumpsied","stain","pseudoword","pseudoword","j","true","",""
"null","<p style=""font-size: 50px;"">+</p>","null","html-keyboard-response","75","2.1.0","262886","F=YES, J=NO","5bgf0urzfe","1","74","83","65","","","","","","","","","","","","","","","",""
"null","audio/beep-329314.mp3","null","audio-keyboard-response","76","2.1.0","264425","F=YES, J=NO","5bgf0urzfe","1","74","83","65","","","","","","","","","","","","","","","",""
"null","audio/golf1.wav","null","audio-keyboard-response","77","2.1.0","265176","F=YES, J=NO","5bgf0urzfe","1","74","83","65","","","","","","","","","","","","","","","",""
"1485","
          <p id=""word"" style=""font-size: 40px;"">drabble</p>
          <p style=""font-size: 16px;"">F = YES &nbsp;&nbsp;&nbsp; J = NO</p>
        ","j","html-keyboard-response","78","2.1.0","266662","F=YES, J=NO","5bgf0urzfe","1","74","83","65","","","","","","","","","drabble","golf1","pseudoword","pseudoword","j","true","",""
"null","<p style=""font-size: 50px;"">+</p>","null","html-keyboard-response","79","2.1.0","266981","F=YES, J=NO","5bgf0urzfe","1","74","83","65","","","","","","","","","","","","","","","",""
"null","audio/beep-329314.mp3","null","audio-keyboard-response","80","2.1.0","268505","F=YES, J=NO","5bgf0urzfe","1","74","83","65","","","","","","","","","","","","","","","",""
"null","audio/baby.wav","null","audio-keyboard-response","81","2.1.0","268996","F=YES, J=NO","5bgf0urzfe","1","74","83","65","","","","","","","","","","","","","","","",""
"805","
          <p id=""word"" style=""font-size: 40px;"">lift</p>
          <p style=""font-size: 16px;"">F = YES &nbsp;&nbsp;&nbsp; J = NO</p>
        ","f","html-keyboard-response","82","2.1.0","269802","F=YES, J=NO","5bgf0urzfe","1","74","83","65","","","","","","","","","lift","baby","filler","filler","f","true","",""
"null","<p style=""font-size: 50px;"">+</p>","null","html-keyboard-response","83","2.1.0","270110","F=YES, J=NO","5bgf0urzfe","1","74","83","65","","","","","","","","","","","","","","","",""
"null","audio/beep-329314.mp3","null","audio-keyboard-response","84","2.1.0","271646","F=YES, J=NO","5bgf0urzfe","1","74","83","65","","","","","","","","","","","","","","","",""
"null","audio/bridge.wav","null","audio-keyboard-response","85","2.1.0","272215","F=YES, J=NO","5bgf0urzfe","1","74","83","65","","","","","","","","","","","","","","","",""
"791","
          <p id=""word"" style=""font-size: 40px;"">crack</p>
          <p style=""font-size: 16px;"">F = YES &nbsp;&nbsp;&nbsp; J = NO</p>
        ","f","html-keyboard-response","86","2.1.0","273007","F=YES, J=NO","5bgf0urzfe","1","74","83","65","","","","","","","","","crack","bridge","filler","filler","f","true","",""
"null","<p style=""font-size: 50px;"">+</p>","null","html-keyboard-response","87","2.1.0","273309","F=YES, J=NO","5bgf0urzfe","1","74","83","65","","","","","","","","","","","","","","","",""
"null","audio/beep-329314.mp3","null","audio-keyboard-response","88","2.1.0","274845","F=YES, J=NO","5bgf0urzfe","1","74","83","65","","","","","","","","","","","","","","","",""
"null","audio/breath.wav","null","audio-keyboard-response","89","2.1.0","275434","F=YES, J=NO","5bgf0urzfe","1","74","83","65","","","","","","","","","","","","","","","",""
"666","
          <p id=""word"" style=""font-size: 40px;"">pack</p>
          <p style=""font-size: 16px;"">F = YES &nbsp;&nbsp;&nbsp; J = NO</p>
        ","f","html-keyboard-response","90","2.1.0","276103","F=YES, J=NO","5bgf0urzfe","1","74","83","65","","","","","","","","","pack","breath","filler","filler","f","true","",""
"null","<p style=""font-size: 50px;"">+</p>","null","html-keyboard-response","91","2.1.0","276411","F=YES, J=NO","5bgf0urzfe","1","74","83","65","","","","","","","","","","","","","","","",""
"null","audio/beep-329314.mp3","null","audio-keyboard-response","92","2.1.0","277946","F=YES, J=NO","5bgf0urzfe","1","74","83","65","","","","","","","","","","","","","","","",""
"null","audio/brain.wav","null","audio-keyboard-response","93","2.1.0","278457","F=YES, J=NO","5bgf0urzfe","1","74","83","65","","","","","","","","","","","","","","","",""
"625","
          <p id=""word"" style=""font-size: 40px;"">throw</p>
          <p style=""font-size: 16px;"">F = YES &nbsp;&nbsp;&nbsp; J = NO</p>
        ","f","html-keyboard-response","94","2.1.0","279084","F=YES, J=NO","5bgf0urzfe","1","74","83","65","","","","","","","","","throw","brain","filler","filler","f","true","",""
"null","<p style=""font-size: 50px;"">+</p>","null","html-keyboard-response","95","2.1.0","279391","F=YES, J=NO","5bgf0urzfe","1","74","83","65","","","","","","","","","","","","","","","",""
"null","audio/beep-329314.mp3","null","audio-keyboard-response","96","2.1.0","280927","F=YES, J=NO","5bgf0urzfe","1","74","83","65","","","","","","","","","","","","","","","",""
"null","audio/neck.wav","null","audio-keyboard-response","97","2.1.0","281515","F=YES, J=NO","5bgf0urzfe","1","74","83","65","","","","","","","","","","","","","","","",""
"782","
          <p id=""word"" style=""font-size: 40px;"">werling</p>
          <p style=""font-size: 16px;"">F = YES &nbsp;&nbsp;&nbsp; J = NO</p>
        ","j","html-keyboard-response","98","2.1.0","282299","F=YES, J=NO","5bgf0urzfe","1","74","83","65","","","","","","","","","werling","neck","pseudoword","pseudoword","j","true","",""
"null","<p style=""font-size: 50px;"">+</p>","null","html-keyboard-response","99","2.1.0","282604","F=YES, J=NO","5bgf0urzfe","1","74","83","65","","","","","","","","","","","","","","","",""
"null","audio/beep-329314.mp3","null","audio-keyboard-response","100","2.1.0","284145","F=YES, J=NO","5bgf0urzfe","1","74","83","65","","","","","","","","","","","","","","","",""
"null","audio/weight1.wav","null","audio-keyboard-response","101","2.1.0","287295","F=YES, J=NO","5bgf0urzfe","1","74","83","65","","","","","","","","","","","","","","","",""
"948","
          <p id=""word"" style=""font-size: 40px;"">crimsh</p>
          <p style=""font-size: 16px;"">F = YES &nbsp;&nbsp;&nbsp; J = NO</p>
        ","j","html-keyboard-response","102","2.1.0","288245","F=YES, J=NO","5bgf0urzfe","1","74","83","65","","","","","","","","","crimsh","weight1","pseudoword","pseudoword","j","true","",""
"null","<p style=""font-size: 50px;"">+</p>","null","html-keyboard-response","103","2.1.0","288559","F=YES, J=NO","5bgf0urzfe","1","74","83","65","","","","","","","","","","","","","","","",""
"null","audio/beep-329314.mp3","null","audio-keyboard-response","104","2.1.0","290085","F=YES, J=NO","5bgf0urzfe","1","74","83","65","","","","","","","","","","","","","","","",""
"null","audio/menu.wav","null","audio-keyboard-response","105","2.1.0","290916","F=YES, J=NO","5bgf0urzfe","1","74","83","65","","","","","","","","","","","","","","","",""
"726","
          <p id=""word"" style=""font-size: 40px;"">slice</p>
          <p style=""font-size: 16px;"">F = YES &nbsp;&nbsp;&nbsp; J = NO</p>
        ","f","html-keyboard-response","106","2.1.0","291644","F=YES, J=NO","5bgf0urzfe","1","74","83","65","","","","","","","","","slice","menu","filler","filler","f","true","",""
"null","<p style=""font-size: 50px;"">+</p>","null","html-keyboard-response","107","2.1.0","291951","F=YES, J=NO","5bgf0urzfe","1","74","83","65","","","","","","","","","","","","","","","",""
"null","audio/beep-329314.mp3","null","audio-keyboard-response","108","2.1.0","293486","F=YES, J=NO","5bgf0urzfe","1","74","83","65","","","","","","","","","","","","","","","",""
"null","audio/bush1.wav","null","audio-keyboard-response","109","2.1.0","294015","F=YES, J=NO","5bgf0urzfe","1","74","83","65","","","","","","","","","","","","","","","",""
"1023","
          <p id=""word"" style=""font-size: 40px;"">platined</p>
          <p style=""font-size: 16px;"">F = YES &nbsp;&nbsp;&nbsp; J = NO</p>
        ","f","html-keyboard-response","110","2.1.0","295040","F=YES, J=NO","5bgf0urzfe","1","74","83","65","","","","","","","","","platined","bush1","pseudoword","pseudoword","j","false","",""
"null","<p style=""font-size: 50px;"">+</p>","null","html-keyboard-response","111","2.1.0","295352","F=YES, J=NO","5bgf0urzfe","1","74","83","65","","","","","","","","","","","","","","","",""
"null","audio/beep-329314.mp3","null","audio-keyboard-response","112","2.1.0","296885","F=YES, J=NO","5bgf0urzfe","1","74","83","65","","","","","","","","","","","","","","","",""
"null","audio/hawk1.wav","null","audio-keyboard-response","113","2.1.0","297635","F=YES, J=NO","5bgf0urzfe","1","74","83","65","","","","","","","","","","","","","","","",""
"890","
          <p id=""word"" style=""font-size: 40px;"">ostach</p>
          <p style=""font-size: 16px;"">F = YES &nbsp;&nbsp;&nbsp; J = NO</p>
        ","j","html-keyboard-response","114","2.1.0","298527","F=YES, J=NO","5bgf0urzfe","1","74","83","65","","","","","","","","","ostach","hawk1","pseudoword","pseudoword","j","true","",""
"2167","<p>Starting practice block 2 of 2. Press any key to continue.</p>"," ","html-keyboard-response","115","2.1.0","300694","F=YES, J=NO","5bgf0urzfe","1","74","83","65","","","","","","","","","","","","","","","",""
"null","<p style=""font-size: 50px;"">+</p>","null","html-keyboard-response","116","2.1.0","301012","F=YES, J=NO","5bgf0urzfe","1","74","83","65","","","","","","","","","","","","","","","",""
"null","audio/beep-329314.mp3","null","audio-keyboard-response","117","2.1.0","302545","F=YES, J=NO","5bgf0urzfe","1","74","83","65","","","","","","","","","","","","","","","",""
"null","audio/alarm1.wav","null","audio-keyboard-response","118","2.1.0","303155","F=YES, J=NO","5bgf0urzfe","1","74","83","65","","","","","","","","","","","","","","","",""
"629","
          <p id=""word"" style=""font-size: 40px;"">lock</p>
          <p style=""font-size: 16px;"">F = YES &nbsp;&nbsp;&nbsp; J = NO</p>
        ","f","html-keyboard-response","119","2.1.0","303786","F=YES, J=NO","5bgf0urzfe","1","74","83","65","","","","","","","","","lock","alarm1","filler","filler","f","true","",""
"null","<p style=""font-size: 50px;"">+</p>","null","html-keyboard-response","120","2.1.0","304092","F=YES, J=NO","5bgf0urzfe","1","74","83","65","","","","","","","","","","","","","","","",""
"null","audio/beep-329314.mp3","null","audio-keyboard-response","121","2.1.0","305623","F=YES, J=NO","5bgf0urzfe","1","74","83","65","","","","","","","","","","","","","","","",""
"null","audio/prisoner.wav","null","audio-keyboard-response","122","2.1.0","306192","F=YES, J=NO","5bgf0urzfe","1","74","83","65","","","","","","","","","","","","","","","",""
"788","
          <p id=""word"" style=""font-size: 40px;"">egotian</p>
          <p style=""font-size: 16px;"">F = YES &nbsp;&nbsp;&nbsp; J = NO</p>
        ","j","html-keyboard-response","123","2.1.0","306981","F=YES, J=NO","5bgf0urzfe","1","74","83","65","","","","","","","","","egotian","prisoner","pseudoword","pseudoword","j","true","",""
"null","<p style=""font-size: 50px;"">+</p>","null","html-keyboard-response","124","2.1.0","307289","F=YES, J=NO","5bgf0urzfe","1","74","83","65","","","","","","","","","","","","","","","",""
"null","audio/beep-329314.mp3","null","audio-keyboard-response","125","2.1.0","308823","F=YES, J=NO","5bgf0urzfe","1","74","83","65","","","","","","","","","","","","","","","",""
"null","audio/tax1.wav","null","audio-keyboard-response","126","2.1.0","309592","F=YES, J=NO","5bgf0urzfe","1","74","83","65","","","","","","","","","","","","","","","",""
"878","
          <p id=""word"" style=""font-size: 40px;"">snate</p>
          <p style=""font-size: 16px;"">F = YES &nbsp;&nbsp;&nbsp; J = NO</p>
        ","j","html-keyboard-response","127","2.1.0","310471","F=YES, J=NO","5bgf0urzfe","1","74","83","65","","","","","","","","","snate","tax1","pseudoword","pseudoword","j","true","",""
"null","<p style=""font-size: 50px;"">+</p>","null","html-keyboard-response","128","2.1.0","310788","F=YES, J=NO","5bgf0urzfe","1","74","83","65","","","","","","","","","","","","","","","",""
"null","audio/beep-329314.mp3","null","audio-keyboard-response","129","2.1.0","312323","F=YES, J=NO","5bgf0urzfe","1","74","83","65","","","","","","","","","","","","","","","",""
"null","audio/battle1.wav","null","audio-keyboard-response","130","2.1.0","312852","F=YES, J=NO","5bgf0urzfe","1","74","83","65","","","","","","","","","","","","","","","",""
"942","
          <p id=""word"" style=""font-size: 40px;"">boil</p>
          <p style=""font-size: 16px;"">F = YES &nbsp;&nbsp;&nbsp; J = NO</p>
        ","f","html-keyboard-response","131","2.1.0","313797","F=YES, J=NO","5bgf0urzfe","1","74","83","65","","","","","","","","","boil","battle1","filler","filler","f","true","",""
"null","<p style=""font-size: 50px;"">+</p>","null","html-keyboard-response","132","2.1.0","314100","F=YES, J=NO","5bgf0urzfe","1","74","83","65","","","","","","","","","","","","","","","",""
"null","audio/beep-329314.mp3","null","audio-keyboard-response","133","2.1.0","315642","F=YES, J=NO","5bgf0urzfe","1","74","83","65","","","","","","","","","","","","","","","",""
"null","audio/camera1.wav","null","audio-keyboard-response","134","2.1.0","316472","F=YES, J=NO","5bgf0urzfe","1","74","83","65","","","","","","","","","","","","","","","",""
"749","
          <p id=""word"" style=""font-size: 40px;"">stir</p>
          <p style=""font-size: 16px;"">F = YES &nbsp;&nbsp;&nbsp; J = NO</p>
        ","f","html-keyboard-response","135","2.1.0","317223","F=YES, J=NO","5bgf0urzfe","1","74","83","65","","","","","","","","","stir","camera1","filler","filler","f","true","",""
"null","<p style=""font-size: 50px;"">+</p>","null","html-keyboard-response","136","2.1.0","317525","F=YES, J=NO","5bgf0urzfe","1","74","83","65","","","","","","","","","","","","","","","",""
"null","audio/beep-329314.mp3","null","audio-keyboard-response","137","2.1.0","319062","F=YES, J=NO","5bgf0urzfe","1","74","83","65","","","","","","","","","","","","","","","",""
"null","audio/cancer1.wav","null","audio-keyboard-response","138","2.1.0","319892","F=YES, J=NO","5bgf0urzfe","1","74","83","65","","","","","","","","","","","","","","","",""
"725","
          <p id=""word"" style=""font-size: 40px;"">draw</p>
          <p style=""font-size: 16px;"">F = YES &nbsp;&nbsp;&nbsp; J = NO</p>
        ","f","html-keyboard-response","139","2.1.0","320619","F=YES, J=NO","5bgf0urzfe","1","74","83","65","","","","","","","","","draw","cancer1","filler","filler","f","true","",""
"null","<p style=""font-size: 50px;"">+</p>","null","html-keyboard-response","140","2.1.0","320923","F=YES, J=NO","5bgf0urzfe","1","74","83","65","","","","","","","","","","","","","","","",""
"null","audio/beep-329314.mp3","null","audio-keyboard-response","141","2.1.0","322463","F=YES, J=NO","5bgf0urzfe","1","74","83","65","","","","","","","","","","","","","","","",""
"null","audio/ego.wav","null","audio-keyboard-response","142","2.1.0","323032","F=YES, J=NO","5bgf0urzfe","1","74","83","65","","","","","","","","","","","","","","","",""
"799","
          <p id=""word"" style=""font-size: 40px;"">bruite</p>
          <p style=""font-size: 16px;"">F = YES &nbsp;&nbsp;&nbsp; J = NO</p>
        ","j","html-keyboard-response","143","2.1.0","323833","F=YES, J=NO","5bgf0urzfe","1","74","83","65","","","","","","","","","bruite","ego","pseudoword","pseudoword","j","true","",""
"null","<p style=""font-size: 50px;"">+</p>","null","html-keyboard-response","144","2.1.0","324147","F=YES, J=NO","5bgf0urzfe","1","74","83","65","","","","","","","","","","","","","","","",""
"null","audio/beep-329314.mp3","null","audio-keyboard-response","145","2.1.0","325681","F=YES, J=NO","5bgf0urzfe","1","74","83","65","","","","","","","","","","","","","","","",""
"null","audio/arm.wav","null","audio-keyboard-response","146","2.1.0","326251","F=YES, J=NO","5bgf0urzfe","1","74","83","65","","","","","","","","","","","","","","","",""
"742","
          <p id=""word"" style=""font-size: 40px;"">fold</p>
          <p style=""font-size: 16px;"">F = YES &nbsp;&nbsp;&nbsp; J = NO</p>
        ","f","html-keyboard-response","147","2.1.0","326996","F=YES, J=NO","5bgf0urzfe","1","74","83","65","","","","","","","","","fold","arm","filler","filler","f","true","",""
"null","<p style=""font-size: 50px;"">+</p>","null","html-keyboard-response","148","2.1.0","327304","F=YES, J=NO","5bgf0urzfe","1","74","83","65","","","","","","","","","","","","","","","",""
"null","audio/beep-329314.mp3","null","audio-keyboard-response","149","2.1.0","328842","F=YES, J=NO","5bgf0urzfe","1","74","83","65","","","","","","","","","","","","","","","",""
"null","audio/effort.wav","null","audio-keyboard-response","150","2.1.0","329453","F=YES, J=NO","5bgf0urzfe","1","74","83","65","","","","","","","","","","","","","","","",""
"852","
          <p id=""word"" style=""font-size: 40px;"">whonk</p>
          <p style=""font-size: 16px;"">F = YES &nbsp;&nbsp;&nbsp; J = NO</p>
        ","j","html-keyboard-response","151","2.1.0","330307","F=YES, J=NO","5bgf0urzfe","1","74","83","65","","","","","","","","","whonk","effort","pseudoword","pseudoword","j","true","",""
"null","<p style=""font-size: 50px;"">+</p>","null","html-keyboard-response","152","2.1.0","330624","F=YES, J=NO","5bgf0urzfe","1","74","83","65","","","","","","","","","","","","","","","",""
"null","audio/beep-329314.mp3","null","audio-keyboard-response","153","2.1.0","332163","F=YES, J=NO","5bgf0urzfe","1","74","83","65","","","","","","","","","","","","","","","",""
"null","audio/novel.wav","null","audio-keyboard-response","154","2.1.0","332672","F=YES, J=NO","5bgf0urzfe","1","74","83","65","","","","","","","","","","","","","","","",""
"688","
          <p id=""word"" style=""font-size: 40px;"">type</p>
          <p style=""font-size: 16px;"">F = YES &nbsp;&nbsp;&nbsp; J = NO</p>
        ","f","html-keyboard-response","155","2.1.0","333362","F=YES, J=NO","5bgf0urzfe","1","74","83","65","","","","","","","","","type","novel","filler","filler","f","true","",""
"null","<p style=""font-size: 50px;"">+</p>","null","html-keyboard-response","156","2.1.0","333673","F=YES, J=NO","5bgf0urzfe","1","74","83","65","","","","","","","","","","","","","","","",""
"null","audio/beep-329314.mp3","null","audio-keyboard-response","157","2.1.0","335202","F=YES, J=NO","5bgf0urzfe","1","74","83","65","","","","","","","","","","","","","","","",""
"null","audio/uncle1.wav","null","audio-keyboard-response","158","2.1.0","335832","F=YES, J=NO","5bgf0urzfe","1","74","83","65","","","","","","","","","","","","","","","",""
"829","
          <p id=""word"" style=""font-size: 40px;"">dramble</p>
          <p style=""font-size: 16px;"">F = YES &nbsp;&nbsp;&nbsp; J = NO</p>
        ","j","html-keyboard-response","159","2.1.0","336664","F=YES, J=NO","5bgf0urzfe","1","74","83","65","","","","","","","","","dramble","uncle1","pseudoword","pseudoword","j","true","",""
"null","<p style=""font-size: 50px;"">+</p>","null","html-keyboard-response","160","2.1.0","336978","F=YES, J=NO","5bgf0urzfe","1","74","83","65","","","","","","","","","","","","","","","",""
"null","audio/beep-329314.mp3","null","audio-keyboard-response","161","2.1.0","338503","F=YES, J=NO","5bgf0urzfe","1","74","83","65","","","","","","","","","","","","","","","",""
"null","audio/cloud1.wav","null","audio-keyboard-response","162","2.1.0","339312","F=YES, J=NO","5bgf0urzfe","1","74","83","65","","","","","","","","","","","","","","","",""
"975","
          <p id=""word"" style=""font-size: 40px;"">brotant</p>
          <p style=""font-size: 16px;"">F = YES &nbsp;&nbsp;&nbsp; J = NO</p>
        ","j","html-keyboard-response","163","2.1.0","340289","F=YES, J=NO","5bgf0urzfe","1","74","83","65","","","","","","","","","brotant","cloud1","pseudoword","pseudoword","j","true","",""
"15151","
    <div style=""max-width: 800px; margin: auto; text-align: left;"">
      <h2>Part 2: Main Trials</h2>
      <p>Great job on the practice trials!</p>
      <p>You will now begin the <strong>main set of trials</strong>.</p>
      <p>Remember your key assignments:</p>
      <ul>
        <li><strong>F</strong> = YES (real English word)</li>
        <li><strong>J</strong> = NO (not a real English word)</li>
      </ul>
      <p>Try to respond as <strong>quickly and accurately</strong> as possible.</p>
      <p style=""margin-top: 2em;"">Press any key to begin the main trials.</p>
    </div>
  "," ","html-keyboard-response","164","2.1.0","355441","F=YES, J=NO","5bgf0urzfe","1","74","83","65","","","","","","","","","","","","","","","",""
"1664","<p>Starting main block 1 of 8. Press any key to continue.</p>"," ","html-keyboard-response","165","2.1.0","357107","F=YES, J=NO","5bgf0urzfe","1","74","83","65","","","","","","","","","","","","","","","",""
"null","<p style=""font-size: 50px;"">+</p>","null","html-keyboard-response","166","2.1.0","357416","F=YES, J=NO","5bgf0urzfe","1","74","83","65","","","","","","","","","","","","","","","",""
"null","audio/beep-329314.mp3","null","audio-keyboard-response","167","2.1.0","359277","F=YES, J=NO","5bgf0urzfe","1","74","83","65","","","","","","","","","","","","","","","",""
"null","audio/grass.wav","null","audio-keyboard-response","168","2.1.0","359947","F=YES, J=NO","5bgf0urzfe","1","74","83","65","","","","","","","","","","","","","","","",""
"910","
          <p id=""word"" style=""font-size: 40px;"">milames</p>
          <p style=""font-size: 16px;"">F = YES &nbsp;&nbsp;&nbsp; J = NO</p>
        ","j","html-keyboard-response","169","2.1.0","360859","F=YES, J=NO","5bgf0urzfe","1","74","83","65","","","","","","","","","milames","grass","pseudoword","pseudoword","j","true","",""
"null","<p style=""font-size: 50px;"">+</p>","null","html-keyboard-response","170","2.1.0","361165","F=YES, J=NO","5bgf0urzfe","1","74","83","65","","","","","","","","","","","","","","","",""
"null","audio/beep-329314.mp3","null","audio-keyboard-response","171","2.1.0","362697","F=YES, J=NO","5bgf0urzfe","1","74","83","65","","","","","","","","","","","","","","","",""
"null","audio/effort.wav","null","audio-keyboard-response","172","2.1.0","363267","F=YES, J=NO","5bgf0urzfe","1","74","83","65","","","","","","","","","","","","","","","",""
"830","
          <p id=""word"" style=""font-size: 40px;"">invest</p>
          <p style=""font-size: 16px;"">F = YES &nbsp;&nbsp;&nbsp; J = NO</p>
        ","f","html-keyboard-response","173","2.1.0","364100","F=YES, J=NO","5bgf0urzfe","1","74","83","65","","","","","","","","","invest","effort","metaphor","experimental","f","true","",""
"null","<p style=""font-size: 50px;"">+</p>","null","html-keyboard-response","174","2.1.0","364407","F=YES, J=NO","5bgf0urzfe","1","74","83","65","","","","","","","","","","","","","","","",""
"null","audio/beep-329314.mp3","null","audio-keyboard-response","175","2.1.0","365935","F=YES, J=NO","5bgf0urzfe","1","74","83","65","","","","","","","","","","","","","","","",""
"null","audio/farm1.wav","null","audio-keyboard-response","176","2.1.0","366525","F=YES, J=NO","5bgf0urzfe","1","74","83","65","","","","","","","","","","","","","","","",""
"747","
          <p id=""word"" style=""font-size: 40px;"">catch</p>
          <p style=""font-size: 16px;"">F = YES &nbsp;&nbsp;&nbsp; J = NO</p>
        ","f","html-keyboard-response","177","2.1.0","367274","F=YES, J=NO","5bgf0urzfe","1","74","83","65","","","","","","","","","catch","farm1","unrelated","experimental","f","true","",""
"null","<p style=""font-size: 50px;"">+</p>","null","html-keyboard-response","178","2.1.0","367584","F=YES, J=NO","5bgf0urzfe","1","74","83","65","","","","","","","","","","","","","","","",""
"null","audio/beep-329314.mp3","null","audio-keyboard-response","179","2.1.0","369114","F=YES, J=NO","5bgf0urzfe","1","74","83","65","","","","","","","","","","","","","","","",""
"null","audio/window1.wav","null","audio-keyboard-response","180","2.1.0","369764","F=YES, J=NO","5bgf0urzfe","1","74","83","65","","","","","","","","","","","","","","","",""
"742","
          <p id=""word"" style=""font-size: 40px;"">toss</p>
          <p style=""font-size: 16px;"">F = YES &nbsp;&nbsp;&nbsp; J = NO</p>
        ","j","html-keyboard-response","181","2.1.0","370507","F=YES, J=NO","5bgf0urzfe","1","74","83","65","","","","","","","","","toss","window1","filler","filler","f","false","",""
"null","<p style=""font-size: 50px;"">+</p>","null","html-keyboard-response","182","2.1.0","370815","F=YES, J=NO","5bgf0urzfe","1","74","83","65","","","","","","","","","","","","","","","",""
"null","audio/beep-329314.mp3","null","audio-keyboard-response","183","2.1.0","372355","F=YES, J=NO","5bgf0urzfe","1","74","83","65","","","","","","","","","","","","","","","",""
"null","audio/planet1.wav","null","audio-keyboard-response","184","2.1.0","372964","F=YES, J=NO","5bgf0urzfe","1","74","83","65","","","","","","","","","","","","","","","",""
"891","
          <p id=""word"" style=""font-size: 40px;"">cratched</p>
          <p style=""font-size: 16px;"">F = YES &nbsp;&nbsp;&nbsp; J = NO</p>
        ","j","html-keyboard-response","185","2.1.0","373856","F=YES, J=NO","5bgf0urzfe","1","74","83","65","","","","","","","","","cratched","planet1","pseudoword","pseudoword","j","true","",""
"null","<p style=""font-size: 50px;"">+</p>","null","html-keyboard-response","186","2.1.0","374162","F=YES, J=NO","5bgf0urzfe","1","74","83","65","","","","","","","","","","","","","","","",""
"null","audio/beep-329314.mp3","null","audio-keyboard-response","187","2.1.0","375694","F=YES, J=NO","5bgf0urzfe","1","74","83","65","","","","","","","","","","","","","","","",""
"null","audio/sugar1.wav","null","audio-keyboard-response","188","2.1.0","376204","F=YES, J=NO","5bgf0urzfe","1","74","83","65","","","","","","","","","","","","","","","",""
"745","
          <p id=""word"" style=""font-size: 40px;"">approach</p>
          <p style=""font-size: 16px;"">F = YES &nbsp;&nbsp;&nbsp; J = NO</p>
        ","f","html-keyboard-response","189","2.1.0","376951","F=YES, J=NO","5bgf0urzfe","1","74","83","65","","","","","","","","","approach","sugar1","unrelated","experimental","f","true","",""
"null","<p style=""font-size: 50px;"">+</p>","null","html-keyboard-response","190","2.1.0","377264","F=YES, J=NO","5bgf0urzfe","1","74","83","65","","","","","","","","","","","","","","","",""
"null","audio/beep-329314.mp3","null","audio-keyboard-response","191","2.1.0","378796","F=YES, J=NO","5bgf0urzfe","1","74","83","65","","","","","","","","","","","","","","","",""
"null","audio/empire.wav","null","audio-keyboard-response","192","2.1.0","379444","F=YES, J=NO","5bgf0urzfe","1","74","83","65","","","","","","","","","","","","","","","",""
"638","
          <p id=""word"" style=""font-size: 40px;"">bring</p>
          <p style=""font-size: 16px;"">F = YES &nbsp;&nbsp;&nbsp; J = NO</p>
        ","f","html-keyboard-response","193","2.1.0","380084","F=YES, J=NO","5bgf0urzfe","1","74","83","65","","","","","","","","","bring","empire","unrelated","experimental","f","true","",""
"null","<p style=""font-size: 50px;"">+</p>","null","html-keyboard-response","194","2.1.0","380394","F=YES, J=NO","5bgf0urzfe","1","74","83","65","","","","","","","","","","","","","","","",""
"null","audio/beep-329314.mp3","null","audio-keyboard-response","195","2.1.0","381937","F=YES, J=NO","5bgf0urzfe","1","74","83","65","","","","","","","","","","","","","","","",""
"null","audio/roof1.wav","null","audio-keyboard-response","196","2.1.0","382484","F=YES, J=NO","5bgf0urzfe","1","74","83","65","","","","","","","","","","","","","","","",""
"752","
          <p id=""word"" style=""font-size: 40px;"">wronb</p>
          <p style=""font-size: 16px;"">F = YES &nbsp;&nbsp;&nbsp; J = NO</p>
        ","j","html-keyboard-response","197","2.1.0","383238","F=YES, J=NO","5bgf0urzfe","1","74","83","65","","","","","","","","","wronb","roof1","pseudoword","pseudoword","j","true","",""
"null","<p style=""font-size: 50px;"">+</p>","null","html-keyboard-response","198","2.1.0","383544","F=YES, J=NO","5bgf0urzfe","1","74","83","65","","","","","","","","","","","","","","","",""
"null","audio/beep-329314.mp3","null","audio-keyboard-response","199","2.1.0","385075","F=YES, J=NO","5bgf0urzfe","1","74","83","65","","","","","","","","","","","","","","","",""
"null","audio/ankle1.wav","null","audio-keyboard-response","200","2.1.0","385623","F=YES, J=NO","5bgf0urzfe","1","74","83","65","","","","","","","","","","","","","","","",""
"625","
          <p id=""word"" style=""font-size: 40px;"">hurt</p>
          <p style=""font-size: 16px;"">F = YES &nbsp;&nbsp;&nbsp; J = NO</p>
        ","f","html-keyboard-response","201","2.1.0","386250","F=YES, J=NO","5bgf0urzfe","1","74","83","65","","","","","","","","","hurt","ankle1","literal","experimental","f","true","",""
"null","<p style=""font-size: 50px;"">+</p>","null","html-keyboard-response","202","2.1.0","386557","F=YES, J=NO","5bgf0urzfe","1","74","83","65","","","","","","","","","","","","","","","",""
"null","audio/beep-329314.mp3","null","audio-keyboard-response","203","2.1.0","388095","F=YES, J=NO","5bgf0urzfe","1","74","83","65","","","","","","","","","","","","","","","",""
"null","audio/chance.wav","null","audio-keyboard-response","204","2.1.0","388965","F=YES, J=NO","5bgf0urzfe","1","74","83","65","","","","","","","","","","","","","","","",""
"786","
          <p id=""word"" style=""font-size: 40px;"">seize</p>
          <p style=""font-size: 16px;"">F = YES &nbsp;&nbsp;&nbsp; J = NO</p>
        ","f","html-keyboard-response","205","2.1.0","389752","F=YES, J=NO","5bgf0urzfe","1","74","83","65","","","","","","","","","seize","chance","metaphor","experimental","f","true","",""
"null","<p style=""font-size: 50px;"">+</p>","null","html-keyboard-response","206","2.1.0","390070","F=YES, J=NO","5bgf0urzfe","1","74","83","65","","","","","","","","","","","","","","","",""
"null","audio/beep-329314.mp3","null","audio-keyboard-response","207","2.1.0","391595","F=YES, J=NO","5bgf0urzfe","1","74","83","65","","","","","","","","","","","","","","","",""
"null","audio/gossip1.wav","null","audio-keyboard-response","208","2.1.0","392384","F=YES, J=NO","5bgf0urzfe","1","74","83","65","","","","","","","","","","","","","","","",""
"587","
          <p id=""word"" style=""font-size: 40px;"">wrestle</p>
          <p style=""font-size: 16px;"">F = YES &nbsp;&nbsp;&nbsp; J = NO</p>
        ","f","html-keyboard-response","209","2.1.0","392974","F=YES, J=NO","5bgf0urzfe","1","74","83","65","","","","","","","","","wrestle","gossip1","unrelated","experimental","f","true","",""
"null","<p style=""font-size: 50px;"">+</p>","null","html-keyboard-response","210","2.1.0","393277","F=YES, J=NO","5bgf0urzfe","1","74","83","65","","","","","","","","","","","","","","","",""
"null","audio/beep-329314.mp3","null","audio-keyboard-response","211","2.1.0","394814","F=YES, J=NO","5bgf0urzfe","1","74","83","65","","","","","","","","","","","","","","","",""
"null","audio/van1.wav","null","audio-keyboard-response","212","2.1.0","395504","F=YES, J=NO","5bgf0urzfe","1","74","83","65","","","","","","","","","","","","","","","",""
"557","
          <p id=""word"" style=""font-size: 40px;"">support</p>
          <p style=""font-size: 16px;"">F = YES &nbsp;&nbsp;&nbsp; J = NO</p>
        ","f","html-keyboard-response","213","2.1.0","396063","F=YES, J=NO","5bgf0urzfe","1","74","83","65","","","","","","","","","support","van1","unrelated","experimental","f","true","",""
"null","<p style=""font-size: 50px;"">+</p>","null","html-keyboard-response","214","2.1.0","396368","F=YES, J=NO","5bgf0urzfe","1","74","83","65","","","","","","","","","","","","","","","",""
"null","audio/beep-329314.mp3","null","audio-keyboard-response","215","2.1.0","397895","F=YES, J=NO","5bgf0urzfe","1","74","83","65","","","","","","","","","","","","","","","",""
"null","audio/voice.wav","null","audio-keyboard-response","216","2.1.0","398504","F=YES, J=NO","5bgf0urzfe","1","74","83","65","","","","","","","","","","","","","","","",""
"649","
          <p id=""word"" style=""font-size: 40px;"">grintle</p>
          <p style=""font-size: 16px;"">F = YES &nbsp;&nbsp;&nbsp; J = NO</p>
        ","f","html-keyboard-response","217","2.1.0","399155","F=YES, J=NO","5bgf0urzfe","1","74","83","65","","","","","","","","","grintle","voice","pseudoword","pseudoword","j","false","",""
"null","<p style=""font-size: 50px;"">+</p>","null","html-keyboard-response","218","2.1.0","399462","F=YES, J=NO","5bgf0urzfe","1","74","83","65","","","","","","","","","","","","","","","",""
"null","audio/beep-329314.mp3","null","audio-keyboard-response","219","2.1.0","400994","F=YES, J=NO","5bgf0urzfe","1","74","83","65","","","","","","","","","","","","","","","",""
"null","audio/corpse1.wav","null","audio-keyboard-response","220","2.1.0","401644","F=YES, J=NO","5bgf0urzfe","1","74","83","65","","","","","","","","","","","","","","","",""
"1014","
          <p id=""word"" style=""font-size: 40px;"">bury</p>
          <p style=""font-size: 16px;"">F = YES &nbsp;&nbsp;&nbsp; J = NO</p>
        ","f","html-keyboard-response","221","2.1.0","402660","F=YES, J=NO","5bgf0urzfe","1","74","83","65","","","","","","","","","bury","corpse1","literal","experimental","f","true","",""
"null","<p style=""font-size: 50px;"">+</p>","null","html-keyboard-response","222","2.1.0","402963","F=YES, J=NO","5bgf0urzfe","1","74","83","65","","","","","","","","","","","","","","","",""
"null","audio/beep-329314.mp3","null","audio-keyboard-response","223","2.1.0","404494","F=YES, J=NO","5bgf0urzfe","1","74","83","65","","","","","","","","","","","","","","","",""
"null","audio/inch1.wav","null","audio-keyboard-response","224","2.1.0","405104","F=YES, J=NO","5bgf0urzfe","1","74","83","65","","","","","","","","","","","","","","","",""
"564","
          <p id=""word"" style=""font-size: 40px;"">lose</p>
          <p style=""font-size: 16px;"">F = YES &nbsp;&nbsp;&nbsp; J = NO</p>
        ","f","html-keyboard-response","225","2.1.0","405670","F=YES, J=NO","5bgf0urzfe","1","74","83","65","","","","","","","","","lose","inch1","metaphor","experimental","f","true","",""
"null","<p style=""font-size: 50px;"">+</p>","null","html-keyboard-response","226","2.1.0","405980","F=YES, J=NO","5bgf0urzfe","1","74","83","65","","","","","","","","","","","","","","","",""
"null","audio/beep-329314.mp3","null","audio-keyboard-response","227","2.1.0","407515","F=YES, J=NO","5bgf0urzfe","1","74","83","65","","","","","","","","","","","","","","","",""
"null","audio/pine.wav","null","audio-keyboard-response","228","2.1.0","408025","F=YES, J=NO","5bgf0urzfe","1","74","83","65","","","","","","","","","","","","","","","",""
"554","
          <p id=""word"" style=""font-size: 40px;"">weave</p>
          <p style=""font-size: 16px;"">F = YES &nbsp;&nbsp;&nbsp; J = NO</p>
        ","f","html-keyboard-response","229","2.1.0","408581","F=YES, J=NO","5bgf0urzfe","1","74","83","65","","","","","","","","","weave","pine","unrelated","experimental","f","true","",""
"115813","<p>Excellent! You have finished block 1 of 8.</p>
                     <p>Feel free to take a 30 second break.</p>
                     <p>Press any key when you're ready to continue.</p>"," ","html-keyboard-response","230","2.1.0","524390","F=YES, J=NO","5bgf0urzfe","1","74","83","65","","","","","","","","","","","","","","","",""
"3832","<p>Starting main block 2 of 8. Press any key to continue.</p>"," ","html-keyboard-response","231","2.1.0","528223","F=YES, J=NO","5bgf0urzfe","1","74","83","65","","","","","","","","","","","","","","","",""
"null","<p style=""font-size: 50px;"">+</p>","null","html-keyboard-response","232","2.1.0","528528","F=YES, J=NO","5bgf0urzfe","1","74","83","65","","","","","","","","","","","","","","","",""
"null","audio/beep-329314.mp3","null","audio-keyboard-response","233","2.1.0","530802","F=YES, J=NO","5bgf0urzfe","1","74","83","65","","","","","","","","","","","","","","","",""
"null","audio/empire.wav","null","audio-keyboard-response","234","2.1.0","531432","F=YES, J=NO","5bgf0urzfe","1","74","83","65","","","","","","","","","","","","","","","",""
"644","
          <p id=""word"" style=""font-size: 40px;"">slorby</p>
          <p style=""font-size: 16px;"">F = YES &nbsp;&nbsp;&nbsp; J = NO</p>
        ","j","html-keyboard-response","235","2.1.0","532077","F=YES, J=NO","5bgf0urzfe","1","74","83","65","","","","","","","","","slorby","empire","pseudoword","pseudoword","j","true","",""
"null","<p style=""font-size: 50px;"">+</p>","null","html-keyboard-response","236","2.1.0","532386","F=YES, J=NO","5bgf0urzfe","1","74","83","65","","","","","","","","","","","","","","","",""
"null","audio/beep-329314.mp3","null","audio-keyboard-response","237","2.1.0","533922","F=YES, J=NO","5bgf0urzfe","1","74","83","65","","","","","","","","","","","","","","","",""
"null","audio/strength.wav","null","audio-keyboard-response","238","2.1.0","534672","F=YES, J=NO","5bgf0urzfe","1","74","83","65","","","","","","","","","","","","","","","",""
"793","
          <p id=""word"" style=""font-size: 40px;"">plabet</p>
          <p style=""font-size: 16px;"">F = YES &nbsp;&nbsp;&nbsp; J = NO</p>
        ","j","html-keyboard-response","239","2.1.0","535467","F=YES, J=NO","5bgf0urzfe","1","74","83","65","","","","","","","","","plabet","strength","pseudoword","pseudoword","j","true","",""
"null","<p style=""font-size: 50px;"">+</p>","null","html-keyboard-response","240","2.1.0","535785","F=YES, J=NO","5bgf0urzfe","1","74","83","65","","","","","","","","","","","","","","","",""
"null","audio/beep-329314.mp3","null","audio-keyboard-response","241","2.1.0","537322","F=YES, J=NO","5bgf0urzfe","1","74","83","65","","","","","","","","","","","","","","","",""
"null","audio/mood1.wav","null","audio-keyboard-response","242","2.1.0","537814","F=YES, J=NO","5bgf0urzfe","1","74","83","65","","","","","","","","","","","","","","","",""
"1040","
          <p id=""word"" style=""font-size: 40px;"">give</p>
          <p style=""font-size: 16px;"">F = YES &nbsp;&nbsp;&nbsp; J = NO</p>
        ","f","html-keyboard-response","243","2.1.0","538855","F=YES, J=NO","5bgf0urzfe","1","74","83","65","","","","","","","","","give","mood1","unrelated","experimental","f","true","",""
"null","<p style=""font-size: 50px;"">+</p>","null","html-keyboard-response","244","2.1.0","539160","F=YES, J=NO","5bgf0urzfe","1","74","83","65","","","","","","","","","","","","","","","",""
"null","audio/beep-329314.mp3","null","audio-keyboard-response","245","2.1.0","540702","F=YES, J=NO","5bgf0urzfe","1","74","83","65","","","","","","","","","","","","","","","",""
"null","audio/table1.wav","null","audio-keyboard-response","246","2.1.0","541212","F=YES, J=NO","5bgf0urzfe","1","74","83","65","","","","","","","","","","","","","","","",""
"958","
          <p id=""word"" style=""font-size: 40px;"">stimb</p>
          <p style=""font-size: 16px;"">F = YES &nbsp;&nbsp;&nbsp; J = NO</p>
        ","j","html-keyboard-response","247","2.1.0","542171","F=YES, J=NO","5bgf0urzfe","1","74","83","65","","","","","","","","","stimb","table1","pseudoword","pseudoword","j","true","",""
"null","<p style=""font-size: 50px;"">+</p>","null","html-keyboard-response","248","2.1.0","542481","F=YES, J=NO","5bgf0urzfe","1","74","83","65","","","","","","","","","","","","","","","",""
"null","audio/beep-329314.mp3","null","audio-keyboard-response","249","2.1.0","544022","F=YES, J=NO","5bgf0urzfe","1","74","83","65","","","","","","","","","","","","","","","",""
"null","audio/baby.wav","null","audio-keyboard-response","250","2.1.0","544472","F=YES, J=NO","5bgf0urzfe","1","74","83","65","","","","","","","","","","","","","","","",""
"854","
          <p id=""word"" style=""font-size: 40px;"">hold</p>
          <p style=""font-size: 16px;"">F = YES &nbsp;&nbsp;&nbsp; J = NO</p>
        ","f","html-keyboard-response","251","2.1.0","545327","F=YES, J=NO","5bgf0urzfe","1","74","83","65","","","","","","","","","hold","baby","literal","experimental","f","true","",""
"null","<p style=""font-size: 50px;"">+</p>","null","html-keyboard-response","252","2.1.0","545640","F=YES, J=NO","5bgf0urzfe","1","74","83","65","","","","","","","","","","","","","","","",""
"null","audio/beep-329314.mp3","null","audio-keyboard-response","253","2.1.0","547182","F=YES, J=NO","5bgf0urzfe","1","74","83","65","","","","","","","","","","","","","","","",""
"null","audio/size1.wav","null","audio-keyboard-response","254","2.1.0","547952","F=YES, J=NO","5bgf0urzfe","1","74","83","65","","","","","","","","","","","","","","","",""
"721","
          <p id=""word"" style=""font-size: 40px;"">clear</p>
          <p style=""font-size: 16px;"">F = YES &nbsp;&nbsp;&nbsp; J = NO</p>
        ","f","html-keyboard-response","255","2.1.0","548676","F=YES, J=NO","5bgf0urzfe","1","74","83","65","","","","","","","","","clear","size1","unrelated","experimental","f","true","",""
"null","<p style=""font-size: 50px;"">+</p>","null","html-keyboard-response","256","2.1.0","548981","F=YES, J=NO","5bgf0urzfe","1","74","83","65","","","","","","","","","","","","","","","",""
"null","audio/beep-329314.mp3","null","audio-keyboard-response","257","2.1.0","550522","F=YES, J=NO","5bgf0urzfe","1","74","83","65","","","","","","","","","","","","","","","",""
"null","audio/ego.wav","null","audio-keyboard-response","258","2.1.0","551053","F=YES, J=NO","5bgf0urzfe","1","74","83","65","","","","","","","","","","","","","","","",""
"542","
          <p id=""word"" style=""font-size: 40px;"">feed</p>
          <p style=""font-size: 16px;"">F = YES &nbsp;&nbsp;&nbsp; J = NO</p>
        ","f","html-keyboard-response","259","2.1.0","551597","F=YES, J=NO","5bgf0urzfe","1","74","83","65","","","","","","","","","feed","ego","metaphor","experimental","f","true","",""
"null","<p style=""font-size: 50px;"">+</p>","null","html-keyboard-response","260","2.1.0","551914","F=YES, J=NO","5bgf0urzfe","1","74","83","65","","","","","","","","","","","","","","","",""
"null","audio/beep-329314.mp3","null","audio-keyboard-response","261","2.1.0","553442","F=YES, J=NO","5bgf0urzfe","1","74","83","65","","","","","","","","","","","","","","","",""
"null","audio/floor.wav","null","audio-keyboard-response","262","2.1.0","554111","F=YES, J=NO","5bgf0urzfe","1","74","83","65","","","","","","","","","","","","","","","",""
"1155","
          <p id=""word"" style=""font-size: 40px;"">mop</p>
          <p style=""font-size: 16px;"">F = YES &nbsp;&nbsp;&nbsp; J = NO</p>
        ","f","html-keyboard-response","263","2.1.0","555268","F=YES, J=NO","5bgf0urzfe","1","74","83","65","","","","","","","","","mop","floor","filler","filler","f","true","",""
"null","<p style=""font-size: 50px;"">+</p>","null","html-keyboard-response","264","2.1.0","555574","F=YES, J=NO","5bgf0urzfe","1","74","83","65","","","","","","","","","","","","","","","",""
"null","audio/beep-329314.mp3","null","audio-keyboard-response","265","2.1.0","557103","F=YES, J=NO","5bgf0urzfe","1","74","83","65","","","","","","","","","","","","","","","",""
"null","audio/radio1.wav","null","audio-keyboard-response","266","2.1.0","557712","F=YES, J=NO","5bgf0urzfe","1","74","83","65","","","","","","","","","","","","","","","",""
"625","
          <p id=""word"" style=""font-size: 40px;"">spend</p>
          <p style=""font-size: 16px;"">F = YES &nbsp;&nbsp;&nbsp; J = NO</p>
        ","f","html-keyboard-response","267","2.1.0","558339","F=YES, J=NO","5bgf0urzfe","1","74","83","65","","","","","","","","","spend","radio1","unrelated","experimental","f","true","",""
"null","<p style=""font-size: 50px;"">+</p>","null","html-keyboard-response","268","2.1.0","558648","F=YES, J=NO","5bgf0urzfe","1","74","83","65","","","","","","","","","","","","","","","",""
"null","audio/beep-329314.mp3","null","audio-keyboard-response","269","2.1.0","560182","F=YES, J=NO","5bgf0urzfe","1","74","83","65","","","","","","","","","","","","","","","",""
"null","audio/foot1.wav","null","audio-keyboard-response","270","2.1.0","560752","F=YES, J=NO","5bgf0urzfe","1","74","83","65","","","","","","","","","","","","","","","",""
"487","
          <p id=""word"" style=""font-size: 40px;"">close</p>
          <p style=""font-size: 16px;"">F = YES &nbsp;&nbsp;&nbsp; J = NO</p>
        ","f","html-keyboard-response","271","2.1.0","561241","F=YES, J=NO","5bgf0urzfe","1","74","83","65","","","","","","","","","close","foot1","unrelated","experimental","f","true","",""
"null","<p style=""font-size: 50px;"">+</p>","null","html-keyboard-response","272","2.1.0","561546","F=YES, J=NO","5bgf0urzfe","1","74","83","65","","","","","","","","","","","","","","","",""
"null","audio/beep-329314.mp3","null","audio-keyboard-response","273","2.1.0","563081","F=YES, J=NO","5bgf0urzfe","1","74","83","65","","","","","","","","","","","","","","","",""
"null","audio/burden.wav","null","audio-keyboard-response","274","2.1.0","563612","F=YES, J=NO","5bgf0urzfe","1","74","83","65","","","","","","","","","","","","","","","",""
"657","
          <p id=""word"" style=""font-size: 40px;"">carry</p>
          <p style=""font-size: 16px;"">F = YES &nbsp;&nbsp;&nbsp; J = NO</p>
        ","f","html-keyboard-response","275","2.1.0","564271","F=YES, J=NO","5bgf0urzfe","1","74","83","65","","","","","","","","","carry","burden","metaphor","experimental","f","true","",""
"null","<p style=""font-size: 50px;"">+</p>","null","html-keyboard-response","276","2.1.0","564574","F=YES, J=NO","5bgf0urzfe","1","74","83","65","","","","","","","","","","","","","","","",""
"null","audio/beep-329314.mp3","null","audio-keyboard-response","277","2.1.0","566101","F=YES, J=NO","5bgf0urzfe","1","74","83","65","","","","","","","","","","","","","","","",""
"null","audio/show.wav","null","audio-keyboard-response","278","2.1.0","566712","F=YES, J=NO","5bgf0urzfe","1","74","83","65","","","","","","","","","","","","","","","",""
"838","
          <p id=""word"" style=""font-size: 40px;"">smark</p>
          <p style=""font-size: 16px;"">F = YES &nbsp;&nbsp;&nbsp; J = NO</p>
        ","j","html-keyboard-response","279","2.1.0","567552","F=YES, J=NO","5bgf0urzfe","1","74","83","65","","","","","","","","","smark","show","pseudoword","pseudoword","j","true","",""
"null","<p style=""font-size: 50px;"">+</p>","null","html-keyboard-response","280","2.1.0","567861","F=YES, J=NO","5bgf0urzfe","1","74","83","65","","","","","","","","","","","","","","","",""
"null","audio/beep-329314.mp3","null","audio-keyboard-response","281","2.1.0","569403","F=YES, J=NO","5bgf0urzfe","1","74","83","65","","","","","","","","","","","","","","","",""
"null","audio/bottle.wav","null","audio-keyboard-response","282","2.1.0","569912","F=YES, J=NO","5bgf0urzfe","1","74","83","65","","","","","","","","","","","","","","","",""
"636","
          <p id=""word"" style=""font-size: 40px;"">open</p>
          <p style=""font-size: 16px;"">F = YES &nbsp;&nbsp;&nbsp; J = NO</p>
        ","f","html-keyboard-response","283","2.1.0","570550","F=YES, J=NO","5bgf0urzfe","1","74","83","65","","","","","","","","","open","bottle","literal","experimental","f","true","",""
"null","<p style=""font-size: 50px;"">+</p>","null","html-keyboard-response","284","2.1.0","570861","F=YES, J=NO","5bgf0urzfe","1","74","83","65","","","","","","","","","","","","","","","",""
"null","audio/beep-329314.mp3","null","audio-keyboard-response","285","2.1.0","572403","F=YES, J=NO","5bgf0urzfe","1","74","83","65","","","","","","","","","","","","","","","",""
"null","audio/bomb1.wav","null","audio-keyboard-response","286","2.1.0","572810","F=YES, J=NO","5bgf0urzfe","1","74","83","65","","","","","","","","","","","","","","","",""
"547","
          <p id=""word"" style=""font-size: 40px;"">drop</p>
          <p style=""font-size: 16px;"">F = YES &nbsp;&nbsp;&nbsp; J = NO</p>
        ","f","html-keyboard-response","287","2.1.0","573359","F=YES, J=NO","5bgf0urzfe","1","74","83","65","","","","","","","","","drop","bomb1","literal","experimental","f","true","",""
"null","<p style=""font-size: 50px;"">+</p>","null","html-keyboard-response","288","2.1.0","573661","F=YES, J=NO","5bgf0urzfe","1","74","83","65","","","","","","","","","","","","","","","",""
"null","audio/beep-329314.mp3","null","audio-keyboard-response","289","2.1.0","575201","F=YES, J=NO","5bgf0urzfe","1","74","83","65","","","","","","","","","","","","","","","",""
"null","audio/dome.wav","null","audio-keyboard-response","290","2.1.0","575651","F=YES, J=NO","5bgf0urzfe","1","74","83","65","","","","","","","","","","","","","","","",""
"928","
          <p id=""word"" style=""font-size: 40px;"">scrupliness</p>
          <p style=""font-size: 16px;"">F = YES &nbsp;&nbsp;&nbsp; J = NO</p>
        ","j","html-keyboard-response","291","2.1.0","576581","F=YES, J=NO","5bgf0urzfe","1","74","83","65","","","","","","","","","scrupliness","dome","pseudoword","pseudoword","j","true","",""
"null","<p style=""font-size: 50px;"">+</p>","null","html-keyboard-response","292","2.1.0","576884","F=YES, J=NO","5bgf0urzfe","1","74","83","65","","","","","","","","","","","","","","","",""
"null","audio/beep-329314.mp3","null","audio-keyboard-response","293","2.1.0","578422","F=YES, J=NO","5bgf0urzfe","1","74","83","65","","","","","","","","","","","","","","","",""
"null","audio/pain1.wav","null","audio-keyboard-response","294","2.1.0","578891","F=YES, J=NO","5bgf0urzfe","1","74","83","65","","","","","","","","","","","","","","","",""
"null","
          <p id=""word"" style=""font-size: 40px;"">tritted</p>
          <p style=""font-size: 16px;"">F = YES &nbsp;&nbsp;&nbsp; J = NO</p>
        ","null","html-keyboard-response","295","2.1.0","580402","F=YES, J=NO","5bgf0urzfe","1","74","83","65","","","","","","","","","tritted","pain1","pseudoword","pseudoword","j","false","",""
"5730363","<p>Excellent! You have finished block 2 of 8.</p>
                     <p>Feel free to take a 30 second break.</p>
                     <p>Press any key when you're ready to continue.</p>"," ","html-keyboard-response","296","2.1.0","6310679","F=YES, J=NO","5bgf0urzfe","1","74","83","65","","","","","","","","","","","","","","","",""
"4618","<p>Starting main block 3 of 8. Press any key to continue.</p>"," ","html-keyboard-response","297","2.1.0","6315299","F=YES, J=NO","5bgf0urzfe","1","74","83","65","","","","","","","","","","","","","","","",""
"null","<p style=""font-size: 50px;"">+</p>","null","html-keyboard-response","298","2.1.0","6315607","F=YES, J=NO","5bgf0urzfe","1","74","83","65","","","","","","","","","","","","","","","",""
"null","audio/beep-329314.mp3","null","audio-keyboard-response","299","2.1.0","6317954","F=YES, J=NO","5bgf0urzfe","1","74","83","65","","","","","","","","","","","","","","","",""
"null","audio/survey1.wav","null","audio-keyboard-response","300","2.1.0","6318821","F=YES, J=NO","5bgf0urzfe","1","74","83","65","","","","","","","","","","","","","","","",""
"1070","
          <p id=""word"" style=""font-size: 40px;"">imploth</p>
          <p style=""font-size: 16px;"">F = YES &nbsp;&nbsp;&nbsp; J = NO</p>
        ","j","html-keyboard-response","301","2.1.0","6319893","F=YES, J=NO","5bgf0urzfe","1","74","83","65","","","","","","","","","imploth","survey1","pseudoword","pseudoword","j","true","",""
"null","<p style=""font-size: 50px;"">+</p>","null","html-keyboard-response","302","2.1.0","6320195","F=YES, J=NO","5bgf0urzfe","1","74","83","65","","","","","","","","","","","","","","","",""
"null","audio/beep-329314.mp3","null","audio-keyboard-response","303","2.1.0","6321732","F=YES, J=NO","5bgf0urzfe","1","74","83","65","","","","","","","","","","","","","","","",""
"null","audio/topic.wav","null","audio-keyboard-response","304","2.1.0","6322464","F=YES, J=NO","5bgf0urzfe","1","74","83","65","","","","","","","","","","","","","","","",""
"858","
          <p id=""word"" style=""font-size: 40px;"">infortuitist</p>
          <p style=""font-size: 16px;"">F = YES &nbsp;&nbsp;&nbsp; J = NO</p>
        ","j","html-keyboard-response","305","2.1.0","6323324","F=YES, J=NO","5bgf0urzfe","1","74","83","65","","","","","","","","","infortuitist","topic","pseudoword","pseudoword","j","true","",""
"null","<p style=""font-size: 50px;"">+</p>","null","html-keyboard-response","306","2.1.0","6323631","F=YES, J=NO","5bgf0urzfe","1","74","83","65","","","","","","","","","","","","","","","",""
"null","audio/beep-329314.mp3","null","audio-keyboard-response","307","2.1.0","6325174","F=YES, J=NO","5bgf0urzfe","1","74","83","65","","","","","","","","","","","","","","","",""
"null","audio/age1.wav","null","audio-keyboard-response","308","2.1.0","6325944","F=YES, J=NO","5bgf0urzfe","1","74","83","65","","","","","","","","","","","","","","","",""
"793","
          <p id=""word"" style=""font-size: 40px;"">lachry</p>
          <p style=""font-size: 16px;"">F = YES &nbsp;&nbsp;&nbsp; J = NO</p>
        ","j","html-keyboard-response","309","2.1.0","6326738","F=YES, J=NO","5bgf0urzfe","1","74","83","65","","","","","","","","","lachry","age1","pseudoword","pseudoword","j","true","",""
"null","<p style=""font-size: 50px;"">+</p>","null","html-keyboard-response","310","2.1.0","6327041","F=YES, J=NO","5bgf0urzfe","1","74","83","65","","","","","","","","","","","","","","","",""
"null","audio/beep-329314.mp3","null","audio-keyboard-response","311","2.1.0","6328574","F=YES, J=NO","5bgf0urzfe","1","74","83","65","","","","","","","","","","","","","","","",""
"null","audio/ankle1.wav","null","audio-keyboard-response","312","2.1.0","6329083","F=YES, J=NO","5bgf0urzfe","1","74","83","65","","","","","","","","","","","","","","","",""
"775","
          <p id=""word"" style=""font-size: 40px;"">kick</p>
          <p style=""font-size: 16px;"">F = YES &nbsp;&nbsp;&nbsp; J = NO</p>
        ","f","html-keyboard-response","313","2.1.0","6329860","F=YES, J=NO","5bgf0urzfe","1","74","83","65","","","","","","","","","kick","ankle1","filler","filler","f","true","",""
"null","<p style=""font-size: 50px;"">+</p>","null","html-keyboard-response","314","2.1.0","6330162","F=YES, J=NO","5bgf0urzfe","1","74","83","65","","","","","","","","","","","","","","","",""
"null","audio/beep-329314.mp3","null","audio-keyboard-response","315","2.1.0","6331694","F=YES, J=NO","5bgf0urzfe","1","74","83","65","","","","","","","","","","","","","","","",""
"null","audio/fear.wav","null","audio-keyboard-response","316","2.1.0","6332483","F=YES, J=NO","5bgf0urzfe","1","74","83","65","","","","","","","","","","","","","","","",""
"728","
          <p id=""word"" style=""font-size: 40px;"">spread</p>
          <p style=""font-size: 16px;"">F = YES &nbsp;&nbsp;&nbsp; J = NO</p>
        ","f","html-keyboard-response","317","2.1.0","6333213","F=YES, J=NO","5bgf0urzfe","1","74","83","65","","","","","","","","","spread","fear","metaphor","experimental","f","true","",""
"null","<p style=""font-size: 50px;"">+</p>","null","html-keyboard-response","318","2.1.0","6333515","F=YES, J=NO","5bgf0urzfe","1","74","83","65","","","","","","","","","","","","","","","",""
"null","audio/beep-329314.mp3","null","audio-keyboard-response","319","2.1.0","6335054","F=YES, J=NO","5bgf0urzfe","1","74","83","65","","","","","","","","","","","","","","","",""
"null","audio/key1.wav","null","audio-keyboard-response","320","2.1.0","6335443","F=YES, J=NO","5bgf0urzfe","1","74","83","65","","","","","","","","","","","","","","","",""
"719","
          <p id=""word"" style=""font-size: 40px;"">sminsh</p>
          <p style=""font-size: 16px;"">F = YES &nbsp;&nbsp;&nbsp; J = NO</p>
        ","j","html-keyboard-response","321","2.1.0","6336164","F=YES, J=NO","5bgf0urzfe","1","74","83","65","","","","","","","","","sminsh","key1","pseudoword","pseudoword","j","true","",""
"null","<p style=""font-size: 50px;"">+</p>","null","html-keyboard-response","322","2.1.0","6336468","F=YES, J=NO","5bgf0urzfe","1","74","83","65","","","","","","","","","","","","","","","",""
"null","audio/beep-329314.mp3","null","audio-keyboard-response","323","2.1.0","6337994","F=YES, J=NO","5bgf0urzfe","1","74","83","65","","","","","","","","","","","","","","","",""
"null","audio/story.wav","null","audio-keyboard-response","324","2.1.0","6338884","F=YES, J=NO","5bgf0urzfe","1","74","83","65","","","","","","","","","","","","","","","",""
"null","
          <p id=""word"" style=""font-size: 40px;"">cover</p>
          <p style=""font-size: 16px;"">F = YES &nbsp;&nbsp;&nbsp; J = NO</p>
        ","null","html-keyboard-response","325","2.1.0","6340395","F=YES, J=NO","5bgf0urzfe","1","74","83","65","","","","","","","","","cover","story","metaphor","experimental","f","false","",""
"null","<p style=""font-size: 50px;"">+</p>","null","html-keyboard-response","326","2.1.0","6340702","F=YES, J=NO","5bgf0urzfe","1","74","83","65","","","","","","","","","","","","","","","",""
"null","audio/beep-329314.mp3","null","audio-keyboard-response","327","2.1.0","6342235","F=YES, J=NO","5bgf0urzfe","1","74","83","65","","","","","","","","","","","","","","","",""
"null","audio/mouth1.wav","null","audio-keyboard-response","328","2.1.0","6342863","F=YES, J=NO","5bgf0urzfe","1","74","83","65","","","","","","","","","","","","","","","",""
"917","
          <p id=""word"" style=""font-size: 40px;"">spolial</p>
          <p style=""font-size: 16px;"">F = YES &nbsp;&nbsp;&nbsp; J = NO</p>
        ","j","html-keyboard-response","329","2.1.0","6343782","F=YES, J=NO","5bgf0urzfe","1","74","83","65","","","","","","","","","spolial","mouth1","pseudoword","pseudoword","j","true","",""
"null","<p style=""font-size: 50px;"">+</p>","null","html-keyboard-response","330","2.1.0","6344092","F=YES, J=NO","5bgf0urzfe","1","74","83","65","","","","","","","","","","","","","","","",""
"null","audio/beep-329314.mp3","null","audio-keyboard-response","331","2.1.0","6345633","F=YES, J=NO","5bgf0urzfe","1","74","83","65","","","","","","","","","","","","","","","",""
"null","audio/haste1.wav","null","audio-keyboard-response","332","2.1.0","6346443","F=YES, J=NO","5bgf0urzfe","1","74","83","65","","","","","","","","","","","","","","","",""
"957","
          <p id=""word"" style=""font-size: 40px;"">coraconate</p>
          <p style=""font-size: 16px;"">F = YES &nbsp;&nbsp;&nbsp; J = NO</p>
        ","j","html-keyboard-response","333","2.1.0","6347401","F=YES, J=NO","5bgf0urzfe","1","74","83","65","","","","","","","","","coraconate","haste1","pseudoword","pseudoword","j","true","",""
"null","<p style=""font-size: 50px;"">+</p>","null","html-keyboard-response","334","2.1.0","6347715","F=YES, J=NO","5bgf0urzfe","1","74","83","65","","","","","","","","","","","","","","","",""
"null","audio/beep-329314.mp3","null","audio-keyboard-response","335","2.1.0","6349253","F=YES, J=NO","5bgf0urzfe","1","74","83","65","","","","","","","","","","","","","","","",""
"null","audio/arm.wav","null","audio-keyboard-response","336","2.1.0","6349782","F=YES, J=NO","5bgf0urzfe","1","74","83","65","","","","","","","","","","","","","","","",""
"680","
          <p id=""word"" style=""font-size: 40px;"">pigne</p>
          <p style=""font-size: 16px;"">F = YES &nbsp;&nbsp;&nbsp; J = NO</p>
        ","j","html-keyboard-response","337","2.1.0","6350464","F=YES, J=NO","5bgf0urzfe","1","74","83","65","","","","","","","","","pigne","arm","pseudoword","pseudoword","j","true","",""
"null","<p style=""font-size: 50px;"">+</p>","null","html-keyboard-response","338","2.1.0","6350776","F=YES, J=NO","5bgf0urzfe","1","74","83","65","","","","","","","","","","","","","","","",""
"null","audio/beep-329314.mp3","null","audio-keyboard-response","339","2.1.0","6352313","F=YES, J=NO","5bgf0urzfe","1","74","83","65","","","","","","","","","","","","","","","",""
"null","audio/pattern.wav","null","audio-keyboard-response","340","2.1.0","6353043","F=YES, J=NO","5bgf0urzfe","1","74","83","65","","","","","","","","","","","","","","","",""
"732","
          <p id=""word"" style=""font-size: 40px;"">defeat</p>
          <p style=""font-size: 16px;"">F = YES &nbsp;&nbsp;&nbsp; J = NO</p>
        ","f","html-keyboard-response","341","2.1.0","6353777","F=YES, J=NO","5bgf0urzfe","1","74","83","65","","","","","","","","","defeat","pattern","unrelated","experimental","f","true","",""
"null","<p style=""font-size: 50px;"">+</p>","null","html-keyboard-response","342","2.1.0","6354088","F=YES, J=NO","5bgf0urzfe","1","74","83","65","","","","","","","","","","","","","","","",""
"null","audio/beep-329314.mp3","null","audio-keyboard-response","343","2.1.0","6355613","F=YES, J=NO","5bgf0urzfe","1","74","83","65","","","","","","","","","","","","","","","",""
"null","audio/heart1.wav","null","audio-keyboard-response","344","2.1.0","6356403","F=YES, J=NO","5bgf0urzfe","1","74","83","65","","","","","","","","","","","","","","","",""
"771","
          <p id=""word"" style=""font-size: 40px;"">touch</p>
          <p style=""font-size: 16px;"">F = YES &nbsp;&nbsp;&nbsp; J = NO</p>
        ","f","html-keyboard-response","345","2.1.0","6357176","F=YES, J=NO","5bgf0urzfe","1","74","83","65","","","","","","","","","touch","heart1","metaphor","experimental","f","true","",""
"null","<p style=""font-size: 50px;"">+</p>","null","html-keyboard-response","346","2.1.0","6357490","F=YES, J=NO","5bgf0urzfe","1","74","83","65","","","","","","","","","","","","","","","",""
"null","audio/beep-329314.mp3","null","audio-keyboard-response","347","2.1.0","6359014","F=YES, J=NO","5bgf0urzfe","1","74","83","65","","","","","","","","","","","","","","","",""
"null","audio/neck.wav","null","audio-keyboard-response","348","2.1.0","6359544","F=YES, J=NO","5bgf0urzfe","1","74","83","65","","","","","","","","","","","","","","","",""
"696","
          <p id=""word"" style=""font-size: 40px;"">share</p>
          <p style=""font-size: 16px;"">F = YES &nbsp;&nbsp;&nbsp; J = NO</p>
        ","f","html-keyboard-response","349","2.1.0","6360241","F=YES, J=NO","5bgf0urzfe","1","74","83","65","","","","","","","","","share","neck","unrelated","experimental","f","true","",""
"null","<p style=""font-size: 50px;"">+</p>","null","html-keyboard-response","350","2.1.0","6360554","F=YES, J=NO","5bgf0urzfe","1","74","83","65","","","","","","","","","","","","","","","",""
"null","audio/beep-329314.mp3","null","audio-keyboard-response","351","2.1.0","6362093","F=YES, J=NO","5bgf0urzfe","1","74","83","65","","","","","","","","","","","","","","","",""
"null","audio/handle.wav","null","audio-keyboard-response","352","2.1.0","6362984","F=YES, J=NO","5bgf0urzfe","1","74","83","65","","","","","","","","","","","","","","","",""
"727","
          <p id=""word"" style=""font-size: 40px;"">moutes</p>
          <p style=""font-size: 16px;"">F = YES &nbsp;&nbsp;&nbsp; J = NO</p>
        ","j","html-keyboard-response","353","2.1.0","6363713","F=YES, J=NO","5bgf0urzfe","1","74","83","65","","","","","","","","","moutes","handle","pseudoword","pseudoword","j","true","",""
"null","<p style=""font-size: 50px;"">+</p>","null","html-keyboard-response","354","2.1.0","6364025","F=YES, J=NO","5bgf0urzfe","1","74","83","65","","","","","","","","","","","","","","","",""
"null","audio/beep-329314.mp3","null","audio-keyboard-response","355","2.1.0","6365553","F=YES, J=NO","5bgf0urzfe","1","74","83","65","","","","","","","","","","","","","","","",""
"null","audio/grass.wav","null","audio-keyboard-response","356","2.1.0","6366184","F=YES, J=NO","5bgf0urzfe","1","74","83","65","","","","","","","","","","","","","","","",""
"644","
          <p id=""word"" style=""font-size: 40px;"">cut</p>
          <p style=""font-size: 16px;"">F = YES &nbsp;&nbsp;&nbsp; J = NO</p>
        ","f","html-keyboard-response","357","2.1.0","6366830","F=YES, J=NO","5bgf0urzfe","1","74","83","65","","","","","","","","","cut","grass","literal","experimental","f","true","",""
"null","<p style=""font-size: 50px;"">+</p>","null","html-keyboard-response","358","2.1.0","6367139","F=YES, J=NO","5bgf0urzfe","1","74","83","65","","","","","","","","","","","","","","","",""
"null","audio/beep-329314.mp3","null","audio-keyboard-response","359","2.1.0","6368675","F=YES, J=NO","5bgf0urzfe","1","74","83","65","","","","","","","","","","","","","","","",""
"null","audio/mile1.wav","null","audio-keyboard-response","360","2.1.0","6369190","F=YES, J=NO","5bgf0urzfe","1","74","83","65","","","","","","","","","","","","","","","",""
"1078","
          <p id=""word"" style=""font-size: 40px;"">writch</p>
          <p style=""font-size: 16px;"">F = YES &nbsp;&nbsp;&nbsp; J = NO</p>
        ","j","html-keyboard-response","361","2.1.0","6370270","F=YES, J=NO","5bgf0urzfe","1","74","83","65","","","","","","","","","writch","mile1","pseudoword","pseudoword","j","true","",""
"2077","<p>Excellent! You have finished block 3 of 8.</p>
                     <p>Feel free to take a 30 second break.</p>
                     <p>Press any key when you're ready to continue.</p>"," ","html-keyboard-response","362","2.1.0","6372348","F=YES, J=NO","5bgf0urzfe","1","74","83","65","","","","","","","","","","","","","","","",""
"17047","<p>Starting main block 4 of 8. Press any key to continue.</p>"," ","html-keyboard-response","363","2.1.0","6389397","F=YES, J=NO","5bgf0urzfe","1","74","83","65","","","","","","","","","","","","","","","",""
"null","<p style=""font-size: 50px;"">+</p>","null","html-keyboard-response","364","2.1.0","6389717","F=YES, J=NO","5bgf0urzfe","1","74","83","65","","","","","","","","","","","","","","","",""
"null","audio/beep-329314.mp3","null","audio-keyboard-response","365","2.1.0","6391577","F=YES, J=NO","5bgf0urzfe","1","74","83","65","","","","","","","","","","","","","","","",""
"null","audio/trust.wav","null","audio-keyboard-response","366","2.1.0","6392276","F=YES, J=NO","5bgf0urzfe","1","74","83","65","","","","","","","","","","","","","","","",""
"980","
          <p id=""word"" style=""font-size: 40px;"">swint</p>
          <p style=""font-size: 16px;"">F = YES &nbsp;&nbsp;&nbsp; J = NO</p>
        ","j","html-keyboard-response","367","2.1.0","6393259","F=YES, J=NO","5bgf0urzfe","1","74","83","65","","","","","","","","","swint","trust","pseudoword","pseudoword","j","true","",""
"null","<p style=""font-size: 50px;"">+</p>","null","html-keyboard-response","368","2.1.0","6393564","F=YES, J=NO","5bgf0urzfe","1","74","83","65","","","","","","","","","","","","","","","",""
"null","audio/beep-329314.mp3","null","audio-keyboard-response","369","2.1.0","6395097","F=YES, J=NO","5bgf0urzfe","1","74","83","65","","","","","","","","","","","","","","","",""
"null","audio/sugar1.wav","null","audio-keyboard-response","370","2.1.0","6395577","F=YES, J=NO","5bgf0urzfe","1","74","83","65","","","","","","","","","","","","","","","",""
"711","
          <p id=""word"" style=""font-size: 40px;"">glung</p>
          <p style=""font-size: 16px;"">F = YES &nbsp;&nbsp;&nbsp; J = NO</p>
        ","j","html-keyboard-response","371","2.1.0","6396290","F=YES, J=NO","5bgf0urzfe","1","74","83","65","","","","","","","","","glung","sugar1","pseudoword","pseudoword","j","true","",""
"null","<p style=""font-size: 50px;"">+</p>","null","html-keyboard-response","372","2.1.0","6396603","F=YES, J=NO","5bgf0urzfe","1","74","83","65","","","","","","","","","","","","","","","",""
"null","audio/beep-329314.mp3","null","audio-keyboard-response","373","2.1.0","6398136","F=YES, J=NO","5bgf0urzfe","1","74","83","65","","","","","","","","","","","","","","","",""
"null","audio/scar.wav","null","audio-keyboard-response","374","2.1.0","6398796","F=YES, J=NO","5bgf0urzfe","1","74","83","65","","","","","","","","","","","","","","","",""
"665","
          <p id=""word"" style=""font-size: 40px;"">hide</p>
          <p style=""font-size: 16px;"">F = YES &nbsp;&nbsp;&nbsp; J = NO</p>
        ","f","html-keyboard-response","375","2.1.0","6399463","F=YES, J=NO","5bgf0urzfe","1","74","83","65","","","","","","","","","hide","scar","literal","experimental","f","true","",""
"null","<p style=""font-size: 50px;"">+</p>","null","html-keyboard-response","376","2.1.0","6399769","F=YES, J=NO","5bgf0urzfe","1","74","83","65","","","","","","","","","","","","","","","",""
"null","audio/beep-329314.mp3","null","audio-keyboard-response","377","2.1.0","6401296","F=YES, J=NO","5bgf0urzfe","1","74","83","65","","","","","","","","","","","","","","","",""
"null","audio/scar.wav","null","audio-keyboard-response","378","2.1.0","6401877","F=YES, J=NO","5bgf0urzfe","1","74","83","65","","","","","","","","","","","","","","","",""
"822","
          <p id=""word"" style=""font-size: 40px;"">adelineate</p>
          <p style=""font-size: 16px;"">F = YES &nbsp;&nbsp;&nbsp; J = NO</p>
        ","j","html-keyboard-response","379","2.1.0","6402701","F=YES, J=NO","5bgf0urzfe","1","74","83","65","","","","","","","","","adelineate","scar","pseudoword","pseudoword","j","true","",""
"null","<p style=""font-size: 50px;"">+</p>","null","html-keyboard-response","380","2.1.0","6403009","F=YES, J=NO","5bgf0urzfe","1","74","83","65","","","","","","","","","","","","","","","",""
"null","audio/beep-329314.mp3","null","audio-keyboard-response","381","2.1.0","6404536","F=YES, J=NO","5bgf0urzfe","1","74","83","65","","","","","","","","","","","","","","","",""
"null","audio/dollar.wav","null","audio-keyboard-response","382","2.1.0","6404937","F=YES, J=NO","5bgf0urzfe","1","74","83","65","","","","","","","","","","","","","","","",""
"735","
          <p id=""word"" style=""font-size: 40px;"">gliptism</p>
          <p style=""font-size: 16px;"">F = YES &nbsp;&nbsp;&nbsp; J = NO</p>
        ","j","html-keyboard-response","383","2.1.0","6405674","F=YES, J=NO","5bgf0urzfe","1","74","83","65","","","","","","","","","gliptism","dollar","pseudoword","pseudoword","j","true","",""
"null","<p style=""font-size: 50px;"">+</p>","null","html-keyboard-response","384","2.1.0","6405983","F=YES, J=NO","5bgf0urzfe","1","74","83","65","","","","","","","","","","","","","","","",""
"null","audio/beep-329314.mp3","null","audio-keyboard-response","385","2.1.0","6407518","F=YES, J=NO","5bgf0urzfe","1","74","83","65","","","","","","","","","","","","","","","",""
"null","audio/budget1.wav","null","audio-keyboard-response","386","2.1.0","6408316","F=YES, J=NO","5bgf0urzfe","1","74","83","65","","","","","","","","","","","","","","","",""
"679","
          <p id=""word"" style=""font-size: 40px;"">sulist</p>
          <p style=""font-size: 16px;"">F = YES &nbsp;&nbsp;&nbsp; J = NO</p>
        ","j","html-keyboard-response","387","2.1.0","6408997","F=YES, J=NO","5bgf0urzfe","1","74","83","65","","","","","","","","","sulist","budget1","pseudoword","pseudoword","j","true","",""
"null","<p style=""font-size: 50px;"">+</p>","null","html-keyboard-response","388","2.1.0","6409313","F=YES, J=NO","5bgf0urzfe","1","74","83","65","","","","","","","","","","","","","","","",""
"null","audio/beep-329314.mp3","null","audio-keyboard-response","389","2.1.0","6410857","F=YES, J=NO","5bgf0urzfe","1","74","83","65","","","","","","","","","","","","","","","",""
"null","audio/plot1.wav","null","audio-keyboard-response","390","2.1.0","6411637","F=YES, J=NO","5bgf0urzfe","1","74","83","65","","","","","","","","","","","","","","","",""
"730","
          <p id=""word"" style=""font-size: 40px;"">glenter</p>
          <p style=""font-size: 16px;"">F = YES &nbsp;&nbsp;&nbsp; J = NO</p>
