"rt","stimulus","response","trial_type","trial_index","plugin_version","time_elapsed","response_mapping","subject_id","list_index","lextale_score","lextale_word_score","lextale_nonword_score","success","timeout","failed_images","failed_audio","failed_video","task","isWord","isDummy","target","prime","prime_type","stimulus_type","correct_response","correct","section","question_order"
"5318","
    <div style=""max-width: 800px; margin: auto; text-align: left;"">
      <h2>STANFORD UNIVERSITY</h2>
      <h3>Research Information Sheet</h3>
      <p><strong>Protocol Director:</strong> Robert Hawkins<br>
      <strong>Protocol Title:</strong> Communication and social cognition in natural audiovisual contexts<br>
      <strong>IRB#:</strong> 77226</p>

      <p><strong>DESCRIPTION:</strong> You are invited to participate in a research study about language and communication. The purpose of the research is to understand how you interact and communicate with other people in naturalistic settings as a fluent English speaker. This research will be conducted through the Prolific platform, including participants from the US, UK, and Canada. If you decide to participate in this research, you will play a communication game in a group with one or more partners.</p>

      <p><strong>TIME INVOLVEMENT:</strong> The task will last the amount of time advertised on Prolific. You are free to withdraw from the study at any time.</p>

      <p><strong>RISKS AND BENEFITS:</strong> You may become frustrated if your partner gets distracted, or experience discomfort if other participants in your group send text that is inappropriate for the task. We ask you to please be respectful of other participants you might be interacting with to mitigate these risks. You may also experience discomfort when being asked to discuss or challenge emotionally salient political beliefs. Study data will be stored securely, in compliance with Stanford University standards, minimizing the risk of confidentiality breach. This study advances our scientific understanding of how people communicate and collaborate in naturalistic settings. This study may lead to further insights about what can go wrong in teamwork, suggest potential interventions to overcome these barriers, and help to develop assistive technologies that collaborate with human partners. We cannot and do not guarantee or promise that you will receive any benefits from this study.</p>

      <p><strong>PAYMENTS:</strong> You will receive payment in the amount advertised on Prolific. If you do not complete this study, you will receive prorated payment based on the time that you have spent. Additionally, you may be eligible for bonus payments as described in the instructions.</p>

      <p><strong>PARTICIPANT’S RIGHTS:</strong> If you have read this form and have decided to participate in this project, please understand your participation is voluntary and you have the right to withdraw your consent or discontinue participation at any time without penalty or loss of benefits to which you are otherwise entitled. The alternative is not to participate. You have the right to refuse to answer particular questions. The results of this research study may be presented at scientific or professional meetings or published in scientific journals. Your individual privacy will be maintained in all published and written data resulting from the study. In accordance with scientific norms, the data from this study may be used or shared with other researchers for future research (after removing personally identifying information) without additional consent from you.</p>

      <p><strong>CONTACT INFORMATION:</strong><br>
      Questions: If you have any questions, concerns or complaints about this research, its procedures, risks and benefits, contact the Protocol Director, Robert Hawkins (<a href=""mailto:rdhawkins@stanford.edu"">rdhawkins@stanford.edu</a>, 217-549-6923).<br>
      Independent Contact: If you are not satisfied with how this study is being conducted, or if you have any concerns, complaints, or general questions about the research or your rights as a participant, please contact the Stanford Institutional Review Board (IRB) to speak to someone independent of the research team at 650-723-2480 or toll free at 1-866-680-2906, or email at <a href=""mailto:irbnon-med@stanford.edu"">irbnon-med@stanford.edu</a>. You can also write to the Stanford IRB, Stanford University, 1705 El Camino Real, Palo Alto, CA 94306.</p>

      <p><strong>Please save or print a copy of this page for your records.</strong></p>
      <p>If you agree to participate in this research, click ""Continue"" below.</p>
    </div>
  ","0","html-button-response","0","2.1.0","5325","J=YES, F=NO","5dpfnes5wq","1","73","70","75","","","","","","","","","","","","","","","",""
"7678","
    <div style=""max-width: 800px; margin: auto; text-align: left;"">
      <h2>Welcome!</h2>
      <p>Thank you for participating in this study. The experiment consists of three parts:</p>
      <ol>
        <li>An English vocabulary test</li>
        <li>A main task in which you will hear and see words, and decide whether the written word is a real English word</li>
        <li>A brief survey about your background</li>
      </ol>
      <p>Each part will be introduced before it begins.</p>
      <p>Please make sure you are in a quiet environment and can hear audio clearly for the final task.</p>
      <p style=""margin-top: 2em;"">Press any key to begin.</p>
    </div>
  "," ","html-keyboard-response","1","2.1.0","13004","J=YES, F=NO","5dpfnes5wq","1","73","70","75","","","","","","","","","","","","","","","",""
"","","","preload","2","2.1.0","13885","J=YES, F=NO","5dpfnes5wq","1","73","70","75","true","false","[]","[]","[]","","","","","","","","","","",""
"3614","
    <div style=""max-width: 800px; margin: auto; text-align: left;"">
      <h2>Part 1: Vocabulary Test</h2>
      <p>You will now complete the first part of the study: a short English vocabulary test.</p>
      <p>This test is called <strong>LexTALE</strong> and helps us get a general sense of your English proficiency.</p>
      <p style=""margin-top: 2em;"">Press any key to continue.</p>
    </div>
  "," ","html-keyboard-response","3","2.1.0","17500","J=YES, F=NO","5dpfnes5wq","1","73","70","75","","","","","","","","","","","","","","","",""
"3501","
    <div style=""max-width: 800px; margin: auto; text-align: left;"">
      <h2>LexTALE Vocabulary Test</h2>
      <p>In this test, you will see a series of letter strings—one at a time.</p>
      <p>Your task is to decide whether each string is a real English word.</p>
      <p><strong>Key responses:</strong></p>
      <ul>
        <li><strong>J</strong> = YES (real English word)</li>
        <li><strong>F</strong> = NO (not a real English word)</li>
      </ul>
      <p>There is no time limit, but please try to be accurate.</p>
      <p style=""margin-top: 2em;"">Press any key to begin.</p>
    </div>
  "," ","html-keyboard-response","4","2.1.0","21001","J=YES, F=NO","5dpfnes5wq","1","73","70","75","","","","","","","","","","","","","","","",""
"2250","
  <p style=""font-size: 40px;"">platery</p>
  <p style=""font-size: 16px;"">J = YES &nbsp;&nbsp;&nbsp; F = NO</p>
","j","html-keyboard-response","5","2.1.0","23252","J=YES, F=NO","5dpfnes5wq","1","73","70","75","","","","","","lextale","false","true","","","","","","","",""
"1116","
  <p style=""font-size: 40px;"">denial</p>
  <p style=""font-size: 16px;"">J = YES &nbsp;&nbsp;&nbsp; F = NO</p>
","j","html-keyboard-response","6","2.1.0","24368","J=YES, F=NO","5dpfnes5wq","1","73","70","75","","","","","","lextale","true","true","","","","","","","",""
"1755","
  <p style=""font-size: 40px;"">marrit</p>
  <p style=""font-size: 16px;"">J = YES &nbsp;&nbsp;&nbsp; F = NO</p>
","f","html-keyboard-response","7","2.1.0","26123","J=YES, F=NO","5dpfnes5wq","1","73","70","75","","","","","","lextale","false","true","","","","","","","",""
"2001","
  <p style=""font-size: 40px;"">bottle</p>
  <p style=""font-size: 16px;"">J = YES &nbsp;&nbsp;&nbsp; F = NO</p>
","j","html-keyboard-response","8","2.1.0","28125","J=YES, F=NO","5dpfnes5wq","1","73","70","75","","","","","","lextale","true","false","","","","","","","",""
"2010","
  <p style=""font-size: 40px;"">birst</p>
  <p style=""font-size: 16px;"">J = YES &nbsp;&nbsp;&nbsp; F = NO</p>
","f","html-keyboard-response","9","2.1.0","30136","J=YES, F=NO","5dpfnes5wq","1","73","70","75","","","","","","lextale","false","false","","","","","","","",""
"761","
  <p style=""font-size: 40px;"">envy</p>
  <p style=""font-size: 16px;"">J = YES &nbsp;&nbsp;&nbsp; F = NO</p>
","j","html-keyboard-response","10","2.1.0","30898","J=YES, F=NO","5dpfnes5wq","1","73","70","75","","","","","","lextale","true","false","","","","","","","",""
"2746","
  <p style=""font-size: 40px;"">brang</p>
  <p style=""font-size: 16px;"">J = YES &nbsp;&nbsp;&nbsp; F = NO</p>
","f","html-keyboard-response","11","2.1.0","33645","J=YES, F=NO","5dpfnes5wq","1","73","70","75","","","","","","lextale","false","false","","","","","","","",""
"769","
  <p style=""font-size: 40px;"">huge</p>
  <p style=""font-size: 16px;"">J = YES &nbsp;&nbsp;&nbsp; F = NO</p>
","j","html-keyboard-response","12","2.1.0","34415","J=YES, F=NO","5dpfnes5wq","1","73","70","75","","","","","","lextale","true","false","","","","","","","",""
"1919","
  <p style=""font-size: 40px;"">plove</p>
  <p style=""font-size: 16px;"">J = YES &nbsp;&nbsp;&nbsp; F = NO</p>
","j","html-keyboard-response","13","2.1.0","36335","J=YES, F=NO","5dpfnes5wq","1","73","70","75","","","","","","lextale","false","false","","","","","","","",""
"844","
  <p style=""font-size: 40px;"">border</p>
  <p style=""font-size: 16px;"">J = YES &nbsp;&nbsp;&nbsp; F = NO</p>
","j","html-keyboard-response","14","2.1.0","37179","J=YES, F=NO","5dpfnes5wq","1","73","70","75","","","","","","lextale","true","false","","","","","","","",""
"818","
  <p style=""font-size: 40px;"">flimsy</p>
  <p style=""font-size: 16px;"">J = YES &nbsp;&nbsp;&nbsp; F = NO</p>
","j","html-keyboard-response","15","2.1.0","37998","J=YES, F=NO","5dpfnes5wq","1","73","70","75","","","","","","lextale","true","false","","","","","","","",""
"943","
  <p style=""font-size: 40px;"">drain</p>
  <p style=""font-size: 16px;"">J = YES &nbsp;&nbsp;&nbsp; F = NO</p>
","j","html-keyboard-response","16","2.1.0","38942","J=YES, F=NO","5dpfnes5wq","1","73","70","75","","","","","","lextale","true","false","","","","","","","",""
"1058","
  <p style=""font-size: 40px;"">twindle</p>
  <p style=""font-size: 16px;"">J = YES &nbsp;&nbsp;&nbsp; F = NO</p>
","f","html-keyboard-response","17","2.1.0","40001","J=YES, F=NO","5dpfnes5wq","1","73","70","75","","","","","","lextale","false","false","","","","","","","",""
"943","
  <p style=""font-size: 40px;"">propose</p>
  <p style=""font-size: 16px;"">J = YES &nbsp;&nbsp;&nbsp; F = NO</p>
","j","html-keyboard-response","18","2.1.0","40944","J=YES, F=NO","5dpfnes5wq","1","73","70","75","","","","","","lextale","true","false","","","","","","","",""
"1845","
  <p style=""font-size: 40px;"">forlay</p>
  <p style=""font-size: 16px;"">J = YES &nbsp;&nbsp;&nbsp; F = NO</p>
","j","html-keyboard-response","19","2.1.0","42790","J=YES, F=NO","5dpfnes5wq","1","73","70","75","","","","","","lextale","false","false","","","","","","","",""
"1274","
  <p style=""font-size: 40px;"">tenant</p>
  <p style=""font-size: 16px;"">J = YES &nbsp;&nbsp;&nbsp; F = NO</p>
","j","html-keyboard-response","20","2.1.0","44064","J=YES, F=NO","5dpfnes5wq","1","73","70","75","","","","","","lextale","true","false","","","","","","","",""
"1432","
  <p style=""font-size: 40px;"">strain</p>
  <p style=""font-size: 16px;"">J = YES &nbsp;&nbsp;&nbsp; F = NO</p>
","j","html-keyboard-response","21","2.1.0","45496","J=YES, F=NO","5dpfnes5wq","1","73","70","75","","","","","","lextale","true","false","","","","","","","",""
"1092","
  <p style=""font-size: 40px;"">holster</p>
  <p style=""font-size: 16px;"">J = YES &nbsp;&nbsp;&nbsp; F = NO</p>
","f","html-keyboard-response","22","2.1.0","46588","J=YES, F=NO","5dpfnes5wq","1","73","70","75","","","","","","lextale","true","false","","","","","","","",""
"2457","
  <p style=""font-size: 40px;"">hinder</p>
  <p style=""font-size: 16px;"">J = YES &nbsp;&nbsp;&nbsp; F = NO</p>
","f","html-keyboard-response","23","2.1.0","49046","J=YES, F=NO","5dpfnes5wq","1","73","70","75","","","","","","lextale","true","false","","","","","","","",""
"1523","
  <p style=""font-size: 40px;"">swindle</p>
  <p style=""font-size: 16px;"">J = YES &nbsp;&nbsp;&nbsp; F = NO</p>
","j","html-keyboard-response","24","2.1.0","50569","J=YES, F=NO","5dpfnes5wq","1","73","70","75","","","","","","lextale","true","false","","","","","","","",""
"868","
  <p style=""font-size: 40px;"">nuder</p>
  <p style=""font-size: 16px;"">J = YES &nbsp;&nbsp;&nbsp; F = NO</p>
","f","html-keyboard-response","25","2.1.0","51438","J=YES, F=NO","5dpfnes5wq","1","73","70","75","","","","","","lextale","false","false","","","","","","","",""
"596","
  <p style=""font-size: 40px;"">pillow</p>
  <p style=""font-size: 16px;"">J = YES &nbsp;&nbsp;&nbsp; F = NO</p>
","j","html-keyboard-response","26","2.1.0","52034","J=YES, F=NO","5dpfnes5wq","1","73","70","75","","","","","","lextale","true","false","","","","","","","",""
"935","
  <p style=""font-size: 40px;"">shumble</p>
  <p style=""font-size: 16px;"">J = YES &nbsp;&nbsp;&nbsp; F = NO</p>
","j","html-keyboard-response","27","2.1.0","52969","J=YES, F=NO","5dpfnes5wq","1","73","70","75","","","","","","lextale","false","false","","","","","","","",""
"3062","
  <p style=""font-size: 40px;"">thirst</p>
  <p style=""font-size: 16px;"">J = YES &nbsp;&nbsp;&nbsp; F = NO</p>
","j","html-keyboard-response","28","2.1.0","56031","J=YES, F=NO","5dpfnes5wq","1","73","70","75","","","","","","lextale","true","false","","","","","","","",""
"1324","
  <p style=""font-size: 40px;"">unsail</p>
  <p style=""font-size: 16px;"">J = YES &nbsp;&nbsp;&nbsp; F = NO</p>
","f","html-keyboard-response","29","2.1.0","57355","J=YES, F=NO","5dpfnes5wq","1","73","70","75","","","","","","lextale","false","false","","","","","","","",""
"1274","
  <p style=""font-size: 40px;"">rifle</p>
  <p style=""font-size: 16px;"">J = YES &nbsp;&nbsp;&nbsp; F = NO</p>
","f","html-keyboard-response","30","2.1.0","58629","J=YES, F=NO","5dpfnes5wq","1","73","70","75","","","","","","lextale","true","false","","","","","","","",""
"1300","
  <p style=""font-size: 40px;"">mush</p>
  <p style=""font-size: 16px;"">J = YES &nbsp;&nbsp;&nbsp; F = NO</p>
","j","html-keyboard-response","31","2.1.0","59929","J=YES, F=NO","5dpfnes5wq","1","73","70","75","","","","","","lextale","false","false","","","","","","","",""
"2266","
  <p style=""font-size: 40px;"">drench</p>
  <p style=""font-size: 16px;"">J = YES &nbsp;&nbsp;&nbsp; F = NO</p>
","j","html-keyboard-response","32","2.1.0","62196","J=YES, F=NO","5dpfnes5wq","1","73","70","75","","","","","","lextale","true","false","","","","","","","",""
"886","
  <p style=""font-size: 40px;"">snirt</p>
  <p style=""font-size: 16px;"">J = YES &nbsp;&nbsp;&nbsp; F = NO</p>
","f","html-keyboard-response","33","2.1.0","63082","J=YES, F=NO","5dpfnes5wq","1","73","70","75","","","","","","lextale","false","false","","","","","","","",""
"793","
  <p style=""font-size: 40px;"">bitter</p>
  <p style=""font-size: 16px;"">J = YES &nbsp;&nbsp;&nbsp; F = NO</p>
","j","html-keyboard-response","34","2.1.0","63876","J=YES, F=NO","5dpfnes5wq","1","73","70","75","","","","","","lextale","true","false","","","","","","","",""
"1672","
  <p style=""font-size: 40px;"">pliff</p>
  <p style=""font-size: 16px;"">J = YES &nbsp;&nbsp;&nbsp; F = NO</p>
","f","html-keyboard-response","35","2.1.0","65548","J=YES, F=NO","5dpfnes5wq","1","73","70","75","","","","","","lextale","false","false","","","","","","","",""
"629","
  <p style=""font-size: 40px;"">tablet</p>
  <p style=""font-size: 16px;"">J = YES &nbsp;&nbsp;&nbsp; F = NO</p>
","j","html-keyboard-response","36","2.1.0","66177","J=YES, F=NO","5dpfnes5wq","1","73","70","75","","","","","","lextale","true","false","","","","","","","",""
"768","
  <p style=""font-size: 40px;"">glimmer</p>
  <p style=""font-size: 16px;"">J = YES &nbsp;&nbsp;&nbsp; F = NO</p>
","j","html-keyboard-response","37","2.1.0","66945","J=YES, F=NO","5dpfnes5wq","1","73","70","75","","","","","","lextale","true","false","","","","","","","",""
"737","
  <p style=""font-size: 40px;"">slink</p>
  <p style=""font-size: 16px;"">J = YES &nbsp;&nbsp;&nbsp; F = NO</p>
","j","html-keyboard-response","38","2.1.0","67682","J=YES, F=NO","5dpfnes5wq","1","73","70","75","","","","","","lextale","true","false","","","","","","","",""
"1042","
  <p style=""font-size: 40px;"">clever</p>
  <p style=""font-size: 16px;"">J = YES &nbsp;&nbsp;&nbsp; F = NO</p>
","j","html-keyboard-response","39","2.1.0","68725","J=YES, F=NO","5dpfnes5wq","1","73","70","75","","","","","","lextale","true","false","","","","","","","",""
"1795","
  <p style=""font-size: 40px;"">grum</p>
  <p style=""font-size: 16px;"">J = YES &nbsp;&nbsp;&nbsp; F = NO</p>
","f","html-keyboard-response","40","2.1.0","70520","J=YES, F=NO","5dpfnes5wq","1","73","70","75","","","","","","lextale","false","false","","","","","","","",""
"637","
  <p style=""font-size: 40px;"">string</p>
  <p style=""font-size: 16px;"">J = YES &nbsp;&nbsp;&nbsp; F = NO</p>
","j","html-keyboard-response","41","2.1.0","71157","J=YES, F=NO","5dpfnes5wq","1","73","70","75","","","","","","lextale","true","false","","","","","","","",""
"1300","
  <p style=""font-size: 40px;"">plim</p>
  <p style=""font-size: 16px;"">J = YES &nbsp;&nbsp;&nbsp; F = NO</p>
","f","html-keyboard-response","42","2.1.0","72457","J=YES, F=NO","5dpfnes5wq","1","73","70","75","","","","","","lextale","false","false","","","","","","","",""
"604","
  <p style=""font-size: 40px;"">cable</p>
  <p style=""font-size: 16px;"">J = YES &nbsp;&nbsp;&nbsp; F = NO</p>
","j","html-keyboard-response","43","2.1.0","73061","J=YES, F=NO","5dpfnes5wq","1","73","70","75","","","","","","lextale","true","false","","","","","","","",""
"1199","
  <p style=""font-size: 40px;"">shrivel</p>
  <p style=""font-size: 16px;"">J = YES &nbsp;&nbsp;&nbsp; F = NO</p>
","f","html-keyboard-response","44","2.1.0","74261","J=YES, F=NO","5dpfnes5wq","1","73","70","75","","","","","","lextale","true","false","","","","","","","",""
"1058","
  <p style=""font-size: 40px;"">tarnish</p>
  <p style=""font-size: 16px;"">J = YES &nbsp;&nbsp;&nbsp; F = NO</p>
","j","html-keyboard-response","45","2.1.0","75320","J=YES, F=NO","5dpfnes5wq","1","73","70","75","","","","","","lextale","true","false","","","","","","","",""
"1986","
  <p style=""font-size: 40px;"">blim</p>
  <p style=""font-size: 16px;"">J = YES &nbsp;&nbsp;&nbsp; F = NO</p>
","f","html-keyboard-response","46","2.1.0","77307","J=YES, F=NO","5dpfnes5wq","1","73","70","75","","","","","","lextale","false","false","","","","","","","",""
"943","
  <p style=""font-size: 40px;"">stifle</p>
  <p style=""font-size: 16px;"">J = YES &nbsp;&nbsp;&nbsp; F = NO</p>
","f","html-keyboard-response","47","2.1.0","78250","J=YES, F=NO","5dpfnes5wq","1","73","70","75","","","","","","lextale","true","false","","","","","","","",""
"3194","
  <p style=""font-size: 40px;"">bint</p>
  <p style=""font-size: 16px;"">J = YES &nbsp;&nbsp;&nbsp; F = NO</p>
","f","html-keyboard-response","48","2.1.0","81444","J=YES, F=NO","5dpfnes5wq","1","73","70","75","","","","","","lextale","false","false","","","","","","","",""
"553","
  <p style=""font-size: 40px;"">purple</p>
  <p style=""font-size: 16px;"">J = YES &nbsp;&nbsp;&nbsp; F = NO</p>
","j","html-keyboard-response","49","2.1.0","81998","J=YES, F=NO","5dpfnes5wq","1","73","70","75","","","","","","lextale","true","false","","","","","","","",""
"2144","
  <p style=""font-size: 40px;"">wriggle</p>
  <p style=""font-size: 16px;"">J = YES &nbsp;&nbsp;&nbsp; F = NO</p>
","j","html-keyboard-response","50","2.1.0","84142","J=YES, F=NO","5dpfnes5wq","1","73","70","75","","","","","","lextale","true","false","","","","","","","",""
"835","
  <p style=""font-size: 40px;"">mangle</p>
  <p style=""font-size: 16px;"">J = YES &nbsp;&nbsp;&nbsp; F = NO</p>
","f","html-keyboard-response","51","2.1.0","84978","J=YES, F=NO","5dpfnes5wq","1","73","70","75","","","","","","lextale","true","false","","","","","","","",""
"2408","
  <p style=""font-size: 40px;"">shramp</p>
  <p style=""font-size: 16px;"">J = YES &nbsp;&nbsp;&nbsp; F = NO</p>
","f","html-keyboard-response","52","2.1.0","87387","J=YES, F=NO","5dpfnes5wq","1","73","70","75","","","","","","lextale","false","false","","","","","","","",""
"810","
  <p style=""font-size: 40px;"">flirt</p>
  <p style=""font-size: 16px;"">J = YES &nbsp;&nbsp;&nbsp; F = NO</p>
","j","html-keyboard-response","53","2.1.0","88197","J=YES, F=NO","5dpfnes5wq","1","73","70","75","","","","","","lextale","true","false","","","","","","","",""
"4717","
  <p style=""font-size: 40px;"">frip</p>
  <p style=""font-size: 16px;"">J = YES &nbsp;&nbsp;&nbsp; F = NO</p>
","f","html-keyboard-response","54","2.1.0","92914","J=YES, F=NO","5dpfnes5wq","1","73","70","75","","","","","","lextale","false","false","","","","","","","",""
"1531","
  <p style=""font-size: 40px;"">tangle</p>
  <p style=""font-size: 16px;"">J = YES &nbsp;&nbsp;&nbsp; F = NO</p>
","j","html-keyboard-response","55","2.1.0","94445","J=YES, F=NO","5dpfnes5wq","1","73","70","75","","","","","","lextale","true","false","","","","","","","",""
"1904","
  <p style=""font-size: 40px;"">crumble</p>
  <p style=""font-size: 16px;"">J = YES &nbsp;&nbsp;&nbsp; F = NO</p>
","j","html-keyboard-response","56","2.1.0","96349","J=YES, F=NO","5dpfnes5wq","1","73","70","75","","","","","","lextale","true","false","","","","","","","",""
"636","
  <p style=""font-size: 40px;"">wrinkle</p>
  <p style=""font-size: 16px;"">J = YES &nbsp;&nbsp;&nbsp; F = NO</p>
","j","html-keyboard-response","57","2.1.0","96986","J=YES, F=NO","5dpfnes5wq","1","73","70","75","","","","","","lextale","true","false","","","","","","","",""
"2259","
  <p style=""font-size: 40px;"">slumb</p>
  <p style=""font-size: 16px;"">J = YES &nbsp;&nbsp;&nbsp; F = NO</p>
","f","html-keyboard-response","58","2.1.0","99245","J=YES, F=NO","5dpfnes5wq","1","73","70","75","","","","","","lextale","false","false","","","","","","","",""
"604","
  <p style=""font-size: 40px;"">jungle</p>
  <p style=""font-size: 16px;"">J = YES &nbsp;&nbsp;&nbsp; F = NO</p>
","j","html-keyboard-response","59","2.1.0","99849","J=YES, F=NO","5dpfnes5wq","1","73","70","75","","","","","","lextale","true","false","","","","","","","",""
"1001","
  <p style=""font-size: 40px;"">frolick</p>
  <p style=""font-size: 16px;"">J = YES &nbsp;&nbsp;&nbsp; F = NO</p>
","f","html-keyboard-response","60","2.1.0","100850","J=YES, F=NO","5dpfnes5wq","1","73","70","75","","","","","","lextale","false","false","","","","","","","",""
"2846","
      <h2>LexTALE Test Completed</h2>
      <p>Your LexTALE vocabulary score is: <strong>73%</strong></p>
      <p>Press any key to continue.</p>
    "," ","html-keyboard-response","61","2.1.0","103697","J=YES, F=NO","5dpfnes5wq","1","73","70","75","","","","","","","","","","","","","","","",""
"3541","
    <div style=""max-width: 800px; margin: auto; text-align: left;"">
      <h2>Break Time</h2>
      <p>You have completed the first part of the study.</p>
      <p>You may take a short <strong>30-second break</strong> before continuing.</p>
      <p>When you’re ready, press any key to continue to the final task.</p>
    </div>
  "," ","html-keyboard-response","62","2.1.0","107239","J=YES, F=NO","5dpfnes5wq","1","73","70","75","","","","","","","","","","","","","","","",""
"18935","
    <div style=""max-width: 800px; margin: auto; text-align: left;"">
      <h2>Part 2: Lexical Decision Task</h2>
      <p>You will now begin the second part of the study.</p>
      <p>Each trial will follow this sequence:</p>
      <ul>
        <li>A fixation cross (+) appears at the center of the screen.</li>
        <li>You will hear a short beep followed by a spoken word.</li>
        <li>A written word will appear briefly on the screen.</li>
      </ul>
      <p>Your task is to judge whether the <strong>written word</strong> is a real English word.</p>
      <p style=""margin-top: 1em;""><strong>Key responses:</strong></p>
      <ul>
        <li><strong>J</strong> = YES (real English word)</li>
        <li><strong>F</strong> = NO (not a real English word)</li>
      </ul>
      <p>Please respond as quickly and accurately as you can.</p>
      <p style=""margin-top: 2em;"">Press any key to continue.</p>
    </div>
  "," ","html-keyboard-response","63","2.1.0","126174","J=YES, F=NO","5dpfnes5wq","1","73","70","75","","","","","","","","","","","","","","","",""
"6835","
    <div style=""max-width: 800px; margin: auto; text-align: left;"">
      <h2>Before You Begin</h2>
      <p>Make sure your sound is turned on.</p>
      <p>You will hear audio during each trial, but your decision should be based only on the <strong>written word</strong> you see on the screen.</p>
      <p><strong>Reminder:</strong></p>
      <ul>
        <li><strong>J</strong> = YES (real English word)</li>
        <li><strong>F</strong> = NO (not a real English word)</li>
      </ul>
      <p style=""margin-top: 2em;"">Press any key when you are ready to begin.</p>
    </div>
  "," ","html-keyboard-response","64","2.1.0","133010","J=YES, F=NO","5dpfnes5wq","1","73","70","75","","","","","","","","","","","","","","","",""
"1911","
    <div style=""max-width: 800px; margin: auto; text-align: left;"">
      <h2>Part 2: Practice Trials</h2>
      <p>You will now complete a few <strong>practice trials</strong> to get familiar with the task.</p>
      <p>These trials are <strong>not scored</strong> and are only to help you get used to the format.</p>
      <p style=""margin-top: 2em;"">Press any key to begin.</p>
    </div>
  "," ","html-keyboard-response","65","2.1.0","134921","J=YES, F=NO","5dpfnes5wq","1","73","70","75","","","","","","","","","","","","","","","",""
"2548","<p>Starting practice block 1 of 2. Press any key to continue.</p>"," ","html-keyboard-response","66","2.1.0","137469","J=YES, F=NO","5dpfnes5wq","1","73","70","75","","","","","","","","","","","","","","","",""
"null","<p style=""font-size: 50px;"">+</p>","null","html-keyboard-response","67","2.1.0","137782","J=YES, F=NO","5dpfnes5wq","1","73","70","75","","","","","","","","","","","","","","","",""
"null","audio/beep-329314.mp3","null","audio-keyboard-response","68","2.1.0","139344","J=YES, F=NO","5dpfnes5wq","1","73","70","75","","","","","","","","","","","","","","","",""
"null","audio/butter1.wav","null","audio-keyboard-response","69","2.1.0","139814","J=YES, F=NO","5dpfnes5wq","1","73","70","75","","","","","","","","","","","","","","","",""
"null","
          <p id=""word"" style=""font-size: 40px;"">chew</p>
          <p style=""font-size: 16px;"">J = YES &nbsp;&nbsp;&nbsp; F = NO</p>
        ","null","html-keyboard-response","70","2.1.0","141329","J=YES, F=NO","5dpfnes5wq","1","73","70","75","","","","","","","","","chew","butter1","filler","filler","j","false","",""
"null","<p style=""font-size: 50px;"">+</p>","null","html-keyboard-response","71","2.1.0","141639","J=YES, F=NO","5dpfnes5wq","1","73","70","75","","","","","","","","","","","","","","","",""
"null","audio/beep-329314.mp3","null","audio-keyboard-response","72","2.1.0","143164","J=YES, F=NO","5dpfnes5wq","1","73","70","75","","","","","","","","","","","","","","","",""
"null","audio/camera1.wav","null","audio-keyboard-response","73","2.1.0","143674","J=YES, F=NO","5dpfnes5wq","1","73","70","75","","","","","","","","","","","","","","","",""
"887","
          <p id=""word"" style=""font-size: 40px;"">stir</p>
          <p style=""font-size: 16px;"">J = YES &nbsp;&nbsp;&nbsp; F = NO</p>
        ","j","html-keyboard-response","74","2.1.0","144561","J=YES, F=NO","5dpfnes5wq","1","73","70","75","","","","","","","","","stir","camera1","filler","filler","j","true","",""
"null","<p style=""font-size: 50px;"">+</p>","null","html-keyboard-response","75","2.1.0","144872","J=YES, F=NO","5dpfnes5wq","1","73","70","75","","","","","","","","","","","","","","","",""
"null","audio/beep-329314.mp3","null","audio-keyboard-response","76","2.1.0","146404","J=YES, F=NO","5dpfnes5wq","1","73","70","75","","","","","","","","","","","","","","","",""
"null","audio/weight1.wav","null","audio-keyboard-response","77","2.1.0","146954","J=YES, F=NO","5dpfnes5wq","1","73","70","75","","","","","","","","","","","","","","","",""
"1108","
          <p id=""word"" style=""font-size: 40px;"">crimsh</p>
          <p style=""font-size: 16px;"">J = YES &nbsp;&nbsp;&nbsp; F = NO</p>
        ","f","html-keyboard-response","78","2.1.0","148062","J=YES, F=NO","5dpfnes5wq","1","73","70","75","","","","","","","","","crimsh","weight1","pseudoword","pseudoword","f","true","",""
"null","<p style=""font-size: 50px;"">+</p>","null","html-keyboard-response","79","2.1.0","148365","J=YES, F=NO","5dpfnes5wq","1","73","70","75","","","","","","","","","","","","","","","",""
"null","audio/beep-329314.mp3","null","audio-keyboard-response","80","2.1.0","149904","J=YES, F=NO","5dpfnes5wq","1","73","70","75","","","","","","","","","","","","","","","",""
"null","audio/terrain.wav","null","audio-keyboard-response","81","2.1.0","150514","J=YES, F=NO","5dpfnes5wq","1","73","70","75","","","","","","","","","","","","","","","",""
"395","
          <p id=""word"" style=""font-size: 40px;"">twist</p>
          <p style=""font-size: 16px;"">J = YES &nbsp;&nbsp;&nbsp; F = NO</p>
        ","j","html-keyboard-response","82","2.1.0","150909","J=YES, F=NO","5dpfnes5wq","1","73","70","75","","","","","","","","","twist","terrain","filler","filler","j","true","",""
"null","<p style=""font-size: 50px;"">+</p>","null","html-keyboard-response","83","2.1.0","151212","J=YES, F=NO","5dpfnes5wq","1","73","70","75","","","","","","","","","","","","","","","",""
"null","audio/beep-329314.mp3","null","audio-keyboard-response","84","2.1.0","152744","J=YES, F=NO","5dpfnes5wq","1","73","70","75","","","","","","","","","","","","","","","",""
"null","audio/age1.wav","null","audio-keyboard-response","85","2.1.0","153294","J=YES, F=NO","5dpfnes5wq","1","73","70","75","","","","","","","","","","","","","","","",""
"346","
          <p id=""word"" style=""font-size: 40px;"">bake</p>
          <p style=""font-size: 16px;"">J = YES &nbsp;&nbsp;&nbsp; F = NO</p>
        ","j","html-keyboard-response","86","2.1.0","153640","J=YES, F=NO","5dpfnes5wq","1","73","70","75","","","","","","","","","bake","age1","filler","filler","j","true","",""
"null","<p style=""font-size: 50px;"">+</p>","null","html-keyboard-response","87","2.1.0","153941","J=YES, F=NO","5dpfnes5wq","1","73","70","75","","","","","","","","","","","","","","","",""
"null","audio/beep-329314.mp3","null","audio-keyboard-response","88","2.1.0","155464","J=YES, F=NO","5dpfnes5wq","1","73","70","75","","","","","","","","","","","","","","","",""
"null","audio/alarm1.wav","null","audio-keyboard-response","89","2.1.0","156074","J=YES, F=NO","5dpfnes5wq","1","73","70","75","","","","","","","","","","","","","","","",""
"652","
          <p id=""word"" style=""font-size: 40px;"">swetp</p>
          <p style=""font-size: 16px;"">J = YES &nbsp;&nbsp;&nbsp; F = NO</p>
        ","f","html-keyboard-response","90","2.1.0","156726","J=YES, F=NO","5dpfnes5wq","1","73","70","75","","","","","","","","","swetp","alarm1","pseudoword","pseudoword","f","true","",""
"null","<p style=""font-size: 50px;"">+</p>","null","html-keyboard-response","91","2.1.0","157039","J=YES, F=NO","5dpfnes5wq","1","73","70","75","","","","","","","","","","","","","","","",""
"null","audio/beep-329314.mp3","null","audio-keyboard-response","92","2.1.0","158564","J=YES, F=NO","5dpfnes5wq","1","73","70","75","","","","","","","","","","","","","","","",""
"null","audio/trout1.wav","null","audio-keyboard-response","93","2.1.0","159174","J=YES, F=NO","5dpfnes5wq","1","73","70","75","","","","","","","","","","","","","","","",""
"482","
          <p id=""word"" style=""font-size: 40px;"">spimt</p>
          <p style=""font-size: 16px;"">J = YES &nbsp;&nbsp;&nbsp; F = NO</p>
        ","f","html-keyboard-response","94","2.1.0","159656","J=YES, F=NO","5dpfnes5wq","1","73","70","75","","","","","","","","","spimt","trout1","pseudoword","pseudoword","f","true","",""
"null","<p style=""font-size: 50px;"">+</p>","null","html-keyboard-response","95","2.1.0","159970","J=YES, F=NO","5dpfnes5wq","1","73","70","75","","","","","","","","","","","","","","","",""
"null","audio/beep-329314.mp3","null","audio-keyboard-response","96","2.1.0","161504","J=YES, F=NO","5dpfnes5wq","1","73","70","75","","","","","","","","","","","","","","","",""
"null","audio/brain.wav","null","audio-keyboard-response","97","2.1.0","162013","J=YES, F=NO","5dpfnes5wq","1","73","70","75","","","","","","","","","","","","","","","",""
"753","
          <p id=""word"" style=""font-size: 40px;"">throw</p>
          <p style=""font-size: 16px;"">J = YES &nbsp;&nbsp;&nbsp; F = NO</p>
        ","j","html-keyboard-response","98","2.1.0","162767","J=YES, F=NO","5dpfnes5wq","1","73","70","75","","","","","","","","","throw","brain","filler","filler","j","true","",""
"null","<p style=""font-size: 50px;"">+</p>","null","html-keyboard-response","99","2.1.0","163076","J=YES, F=NO","5dpfnes5wq","1","73","70","75","","","","","","","","","","","","","","","",""
"null","audio/beep-329314.mp3","null","audio-keyboard-response","100","2.1.0","164604","J=YES, F=NO","5dpfnes5wq","1","73","70","75","","","","","","","","","","","","","","","",""
"null","audio/bomb1.wav","null","audio-keyboard-response","101","2.1.0","165013","J=YES, F=NO","5dpfnes5wq","1","73","70","75","","","","","","","","","","","","","","","",""
"559","
          <p id=""word"" style=""font-size: 40px;"">clean</p>
          <p style=""font-size: 16px;"">J = YES &nbsp;&nbsp;&nbsp; F = NO</p>
        ","j","html-keyboard-response","102","2.1.0","165573","J=YES, F=NO","5dpfnes5wq","1","73","70","75","","","","","","","","","clean","bomb1","filler","filler","j","true","",""
"null","<p style=""font-size: 50px;"">+</p>","null","html-keyboard-response","103","2.1.0","165882","J=YES, F=NO","5dpfnes5wq","1","73","70","75","","","","","","","","","","","","","","","",""
"null","audio/beep-329314.mp3","null","audio-keyboard-response","104","2.1.0","167404","J=YES, F=NO","5dpfnes5wq","1","73","70","75","","","","","","","","","","","","","","","",""
"null","audio/test1.wav","null","audio-keyboard-response","105","2.1.0","167973","J=YES, F=NO","5dpfnes5wq","1","73","70","75","","","","","","","","","","","","","","","",""
"603","
          <p id=""word"" style=""font-size: 40px;"">twopch</p>
          <p style=""font-size: 16px;"">J = YES &nbsp;&nbsp;&nbsp; F = NO</p>
        ","f","html-keyboard-response","106","2.1.0","168577","J=YES, F=NO","5dpfnes5wq","1","73","70","75","","","","","","","","","twopch","test1","pseudoword","pseudoword","f","true","",""
"null","<p style=""font-size: 50px;"">+</p>","null","html-keyboard-response","107","2.1.0","168890","J=YES, F=NO","5dpfnes5wq","1","73","70","75","","","","","","","","","","","","","","","",""
"null","audio/beep-329314.mp3","null","audio-keyboard-response","108","2.1.0","170424","J=YES, F=NO","5dpfnes5wq","1","73","70","75","","","","","","","","","","","","","","","",""
"null","audio/van1.wav","null","audio-keyboard-response","109","2.1.0","170913","J=YES, F=NO","5dpfnes5wq","1","73","70","75","","","","","","","","","","","","","","","",""
"535","
          <p id=""word"" style=""font-size: 40px;"">push</p>
          <p style=""font-size: 16px;"">J = YES &nbsp;&nbsp;&nbsp; F = NO</p>
        ","j","html-keyboard-response","110","2.1.0","171449","J=YES, F=NO","5dpfnes5wq","1","73","70","75","","","","","","","","","push","van1","filler","filler","j","true","",""
"null","<p style=""font-size: 50px;"">+</p>","null","html-keyboard-response","111","2.1.0","171760","J=YES, F=NO","5dpfnes5wq","1","73","70","75","","","","","","","","","","","","","","","",""
"null","audio/beep-329314.mp3","null","audio-keyboard-response","112","2.1.0","173283","J=YES, F=NO","5dpfnes5wq","1","73","70","75","","","","","","","","","","","","","","","",""
"null","audio/alarm1.wav","null","audio-keyboard-response","113","2.1.0","173853","J=YES, F=NO","5dpfnes5wq","1","73","70","75","","","","","","","","","","","","","","","",""
"491","
          <p id=""word"" style=""font-size: 40px;"">lock</p>
          <p style=""font-size: 16px;"">J = YES &nbsp;&nbsp;&nbsp; F = NO</p>
        ","j","html-keyboard-response","114","2.1.0","174345","J=YES, F=NO","5dpfnes5wq","1","73","70","75","","","","","","","","","lock","alarm1","filler","filler","j","true","",""
"2673","<p>Starting practice block 2 of 2. Press any key to continue.</p>"," ","html-keyboard-response","115","2.1.0","177018","J=YES, F=NO","5dpfnes5wq","1","73","70","75","","","","","","","","","","","","","","","",""
"null","<p style=""font-size: 50px;"">+</p>","null","html-keyboard-response","116","2.1.0","177326","J=YES, F=NO","5dpfnes5wq","1","73","70","75","","","","","","","","","","","","","","","",""
"null","audio/beep-329314.mp3","null","audio-keyboard-response","117","2.1.0","178863","J=YES, F=NO","5dpfnes5wq","1","73","70","75","","","","","","","","","","","","","","","",""
"null","audio/birth1.wav","null","audio-keyboard-response","118","2.1.0","179433","J=YES, F=NO","5dpfnes5wq","1","73","70","75","","","","","","","","","","","","","","","",""
"704","
          <p id=""word"" style=""font-size: 40px;"">peel</p>
          <p style=""font-size: 16px;"">J = YES &nbsp;&nbsp;&nbsp; F = NO</p>
        ","j","html-keyboard-response","119","2.1.0","180138","J=YES, F=NO","5dpfnes5wq","1","73","70","75","","","","","","","","","peel","birth1","filler","filler","j","true","",""
"null","<p style=""font-size: 50px;"">+</p>","null","html-keyboard-response","120","2.1.0","180441","J=YES, F=NO","5dpfnes5wq","1","73","70","75","","","","","","","","","","","","","","","",""
"null","audio/beep-329314.mp3","null","audio-keyboard-response","121","2.1.0","181963","J=YES, F=NO","5dpfnes5wq","1","73","70","75","","","","","","","","","","","","","","","",""
"null","audio/mile1.wav","null","audio-keyboard-response","122","2.1.0","182473","J=YES, F=NO","5dpfnes5wq","1","73","70","75","","","","","","","","","","","","","","","",""
"651","
          <p id=""word"" style=""font-size: 40px;"">writch</p>
          <p style=""font-size: 16px;"">J = YES &nbsp;&nbsp;&nbsp; F = NO</p>
        ","f","html-keyboard-response","123","2.1.0","183125","J=YES, F=NO","5dpfnes5wq","1","73","70","75","","","","","","","","","writch","mile1","pseudoword","pseudoword","f","true","",""
"null","<p style=""font-size: 50px;"">+</p>","null","html-keyboard-response","124","2.1.0","183437","J=YES, F=NO","5dpfnes5wq","1","73","70","75","","","","","","","","","","","","","","","",""
"null","audio/beep-329314.mp3","null","audio-keyboard-response","125","2.1.0","184963","J=YES, F=NO","5dpfnes5wq","1","73","70","75","","","","","","","","","","","","","","","",""
"null","audio/cave1.wav","null","audio-keyboard-response","126","2.1.0","185513","J=YES, F=NO","5dpfnes5wq","1","73","70","75","","","","","","","","","","","","","","","",""
"599","
          <p id=""word"" style=""font-size: 40px;"">blacket</p>
          <p style=""font-size: 16px;"">J = YES &nbsp;&nbsp;&nbsp; F = NO</p>
        ","f","html-keyboard-response","127","2.1.0","186112","J=YES, F=NO","5dpfnes5wq","1","73","70","75","","","","","","","","","blacket","cave1","pseudoword","pseudoword","f","true","",""
"null","<p style=""font-size: 50px;"">+</p>","null","html-keyboard-response","128","2.1.0","186421","J=YES, F=NO","5dpfnes5wq","1","73","70","75","","","","","","","","","","","","","","","",""
"null","audio/beep-329314.mp3","null","audio-keyboard-response","129","2.1.0","187943","J=YES, F=NO","5dpfnes5wq","1","73","70","75","","","","","","","","","","","","","","","",""
"null","audio/scar.wav","null","audio-keyboard-response","130","2.1.0","188553","J=YES, F=NO","5dpfnes5wq","1","73","70","75","","","","","","","","","","","","","","","",""
"828","
          <p id=""word"" style=""font-size: 40px;"">adelineate</p>
          <p style=""font-size: 16px;"">J = YES &nbsp;&nbsp;&nbsp; F = NO</p>
        ","f","html-keyboard-response","131","2.1.0","189381","J=YES, F=NO","5dpfnes5wq","1","73","70","75","","","","","","","","","adelineate","scar","pseudoword","pseudoword","f","true","",""
"null","<p style=""font-size: 50px;"">+</p>","null","html-keyboard-response","132","2.1.0","189686","J=YES, F=NO","5dpfnes5wq","1","73","70","75","","","","","","","","","","","","","","","",""
"null","audio/beep-329314.mp3","null","audio-keyboard-response","133","2.1.0","191223","J=YES, F=NO","5dpfnes5wq","1","73","70","75","","","","","","","","","","","","","","","",""
"null","audio/purpose.wav","null","audio-keyboard-response","134","2.1.0","191913","J=YES, F=NO","5dpfnes5wq","1","73","70","75","","","","","","","","","","","","","","","",""
"604","
          <p id=""word"" style=""font-size: 40px;"">whigm</p>
          <p style=""font-size: 16px;"">J = YES &nbsp;&nbsp;&nbsp; F = NO</p>
        ","f","html-keyboard-response","135","2.1.0","192518","J=YES, F=NO","5dpfnes5wq","1","73","70","75","","","","","","","","","whigm","purpose","pseudoword","pseudoword","f","true","",""
"null","<p style=""font-size: 50px;"">+</p>","null","html-keyboard-response","136","2.1.0","192824","J=YES, F=NO","5dpfnes5wq","1","73","70","75","","","","","","","","","","","","","","","",""
"null","audio/beep-329314.mp3","null","audio-keyboard-response","137","2.1.0","194363","J=YES, F=NO","5dpfnes5wq","1","73","70","75","","","","","","","","","","","","","","","",""
"null","audio/cancer1.wav","null","audio-keyboard-response","138","2.1.0","194933","J=YES, F=NO","5dpfnes5wq","1","73","70","75","","","","","","","","","","","","","","","",""
"464","
          <p id=""word"" style=""font-size: 40px;"">draw</p>
          <p style=""font-size: 16px;"">J = YES &nbsp;&nbsp;&nbsp; F = NO</p>
        ","j","html-keyboard-response","139","2.1.0","195397","J=YES, F=NO","5dpfnes5wq","1","73","70","75","","","","","","","","","draw","cancer1","filler","filler","j","true","",""
"null","<p style=""font-size: 50px;"">+</p>","null","html-keyboard-response","140","2.1.0","195706","J=YES, F=NO","5dpfnes5wq","1","73","70","75","","","","","","","","","","","","","","","",""
"null","audio/beep-329314.mp3","null","audio-keyboard-response","141","2.1.0","197243","J=YES, F=NO","5dpfnes5wq","1","73","70","75","","","","","","","","","","","","","","","",""
"null","audio/pine.wav","null","audio-keyboard-response","142","2.1.0","197753","J=YES, F=NO","5dpfnes5wq","1","73","70","75","","","","","","","","","","","","","","","",""
"880","
          <p id=""word"" style=""font-size: 40px;"">crebble</p>
          <p style=""font-size: 16px;"">J = YES &nbsp;&nbsp;&nbsp; F = NO</p>
        ","f","html-keyboard-response","143","2.1.0","198634","J=YES, F=NO","5dpfnes5wq","1","73","70","75","","","","","","","","","crebble","pine","pseudoword","pseudoword","f","true","",""
"null","<p style=""font-size: 50px;"">+</p>","null","html-keyboard-response","144","2.1.0","198942","J=YES, F=NO","5dpfnes5wq","1","73","70","75","","","","","","","","","","","","","","","",""
"null","audio/beep-329314.mp3","null","audio-keyboard-response","145","2.1.0","200463","J=YES, F=NO","5dpfnes5wq","1","73","70","75","","","","","","","","","","","","","","","",""
"null","audio/battle1.wav","null","audio-keyboard-response","146","2.1.0","200953","J=YES, F=NO","5dpfnes5wq","1","73","70","75","","","","","","","","","","","","","","","",""
"460","
          <p id=""word"" style=""font-size: 40px;"">boil</p>
          <p style=""font-size: 16px;"">J = YES &nbsp;&nbsp;&nbsp; F = NO</p>
        ","j","html-keyboard-response","147","2.1.0","201413","J=YES, F=NO","5dpfnes5wq","1","73","70","75","","","","","","","","","boil","battle1","filler","filler","j","true","",""
"null","<p style=""font-size: 50px;"">+</p>","null","html-keyboard-response","148","2.1.0","201715","J=YES, F=NO","5dpfnes5wq","1","73","70","75","","","","","","","","","","","","","","","",""
"null","audio/beep-329314.mp3","null","audio-keyboard-response","149","2.1.0","203243","J=YES, F=NO","5dpfnes5wq","1","73","70","75","","","","","","","","","","","","","","","",""
"null","audio/dome.wav","null","audio-keyboard-response","150","2.1.0","203693","J=YES, F=NO","5dpfnes5wq","1","73","70","75","","","","","","","","","","","","","","","",""
"724","
          <p id=""word"" style=""font-size: 40px;"">scrupliness</p>
          <p style=""font-size: 16px;"">J = YES &nbsp;&nbsp;&nbsp; F = NO</p>
        ","f","html-keyboard-response","151","2.1.0","204417","J=YES, F=NO","5dpfnes5wq","1","73","70","75","","","","","","","","","scrupliness","dome","pseudoword","pseudoword","f","true","",""
"null","<p style=""font-size: 50px;"">+</p>","null","html-keyboard-response","152","2.1.0","204730","J=YES, F=NO","5dpfnes5wq","1","73","70","75","","","","","","","","","","","","","","","",""
"null","audio/beep-329314.mp3","null","audio-keyboard-response","153","2.1.0","206263","J=YES, F=NO","5dpfnes5wq","1","73","70","75","","","","","","","","","","","","","","","",""
"null","audio/gift1.wav","null","audio-keyboard-response","154","2.1.0","206753","J=YES, F=NO","5dpfnes5wq","1","73","70","75","","","","","","","","","","","","","","","",""
"610","
          <p id=""word"" style=""font-size: 40px;"">protsh</p>
          <p style=""font-size: 16px;"">J = YES &nbsp;&nbsp;&nbsp; F = NO</p>
        ","f","html-keyboard-response","155","2.1.0","207363","J=YES, F=NO","5dpfnes5wq","1","73","70","75","","","","","","","","","protsh","gift1","pseudoword","pseudoword","f","true","",""
"null","<p style=""font-size: 50px;"">+</p>","null","html-keyboard-response","156","2.1.0","207676","J=YES, F=NO","5dpfnes5wq","1","73","70","75","","","","","","","","","","","","","","","",""
"null","audio/beep-329314.mp3","null","audio-keyboard-response","157","2.1.0","209203","J=YES, F=NO","5dpfnes5wq","1","73","70","75","","","","","","","","","","","","","","","",""
"null","audio/bishop1.wav","null","audio-keyboard-response","158","2.1.0","209813","J=YES, F=NO","5dpfnes5wq","1","73","70","75","","","","","","","","","","","","","","","",""
"405","
          <p id=""word"" style=""font-size: 40px;"">play</p>
          <p style=""font-size: 16px;"">J = YES &nbsp;&nbsp;&nbsp; F = NO</p>
        ","j","html-keyboard-response","159","2.1.0","210218","J=YES, F=NO","5dpfnes5wq","1","73","70","75","","","","","","","","","play","bishop1","filler","filler","j","true","",""
"null","<p style=""font-size: 50px;"">+</p>","null","html-keyboard-response","160","2.1.0","210521","J=YES, F=NO","5dpfnes5wq","1","73","70","75","","","","","","","","","","","","","","","",""
"null","audio/beep-329314.mp3","null","audio-keyboard-response","161","2.1.0","212043","J=YES, F=NO","5dpfnes5wq","1","73","70","75","","","","","","","","","","","","","","","",""
"null","audio/table1.wav","null","audio-keyboard-response","162","2.1.0","212533","J=YES, F=NO","5dpfnes5wq","1","73","70","75","","","","","","","","","","","","","","","",""
"532","
          <p id=""word"" style=""font-size: 40px;"">stimb</p>
          <p style=""font-size: 16px;"">J = YES &nbsp;&nbsp;&nbsp; F = NO</p>
        ","f","html-keyboard-response","163","2.1.0","213065","J=YES, F=NO","5dpfnes5wq","1","73","70","75","","","","","","","","","stimb","table1","pseudoword","pseudoword","f","true","",""
"8514","
    <div style=""max-width: 800px; margin: auto; text-align: left;"">
      <h2>Part 2: Main Trials</h2>
      <p>Great job on the practice trials!</p>
      <p>You will now begin the <strong>main set of trials</strong>.</p>
      <p>Remember your key assignments:</p>
      <ul>
        <li><strong>J</strong> = YES (real English word)</li>
        <li><strong>F</strong> = NO (not a real English word)</li>
      </ul>
      <p>Try to respond as <strong>quickly and accurately</strong> as possible.</p>
      <p style=""margin-top: 2em;"">Press any key to begin the main trials.</p>
    </div>
  "," ","html-keyboard-response","164","2.1.0","221580","J=YES, F=NO","5dpfnes5wq","1","73","70","75","","","","","","","","","","","","","","","",""
"1183","<p>Starting main block 1 of 8. Press any key to continue.</p>"," ","html-keyboard-response","165","2.1.0","222764","J=YES, F=NO","5dpfnes5wq","1","73","70","75","","","","","","","","","","","","","","","",""
"null","<p style=""font-size: 50px;"">+</p>","null","html-keyboard-response","166","2.1.0","223074","J=YES, F=NO","5dpfnes5wq","1","73","70","75","","","","","","","","","","","","","","","",""
"null","audio/beep-329314.mp3","null","audio-keyboard-response","167","2.1.0","224572","J=YES, F=NO","5dpfnes5wq","1","73","70","75","","","","","","","","","","","","","","","",""
"null","audio/noise1.wav","null","audio-keyboard-response","168","2.1.0","225152","J=YES, F=NO","5dpfnes5wq","1","73","70","75","","","","","","","","","","","","","","","",""
"375","
          <p id=""word"" style=""font-size: 40px;"">build</p>
          <p style=""font-size: 16px;"">J = YES &nbsp;&nbsp;&nbsp; F = NO</p>
        ","j","html-keyboard-response","169","2.1.0","225528","J=YES, F=NO","5dpfnes5wq","1","73","70","75","","","","","","","","","build","noise1","unrelated","experimental","j","true","",""
"null","<p style=""font-size: 50px;"">+</p>","null","html-keyboard-response","170","2.1.0","225830","J=YES, F=NO","5dpfnes5wq","1","73","70","75","","","","","","","","","","","","","","","",""
"null","audio/beep-329314.mp3","null","audio-keyboard-response","171","2.1.0","227352","J=YES, F=NO","5dpfnes5wq","1","73","70","75","","","","","","","","","","","","","","","",""
"null","audio/pattern.wav","null","audio-keyboard-response","172","2.1.0","227852","J=YES, F=NO","5dpfnes5wq","1","73","70","75","","","","","","","","","","","","","","","",""
"497","
          <p id=""word"" style=""font-size: 40px;"">defeat</p>
          <p style=""font-size: 16px;"">J = YES &nbsp;&nbsp;&nbsp; F = NO</p>
        ","j","html-keyboard-response","173","2.1.0","228350","J=YES, F=NO","5dpfnes5wq","1","73","70","75","","","","","","","","","defeat","pattern","unrelated","experimental","j","true","",""
"null","<p style=""font-size: 50px;"">+</p>","null","html-keyboard-response","174","2.1.0","228651","J=YES, F=NO","5dpfnes5wq","1","73","70","75","","","","","","","","","","","","","","","",""
"null","audio/beep-329314.mp3","null","audio-keyboard-response","175","2.1.0","230173","J=YES, F=NO","5dpfnes5wq","1","73","70","75","","","","","","","","","","","","","","","",""
"null","audio/rank1.wav","null","audio-keyboard-response","176","2.1.0","230733","J=YES, F=NO","5dpfnes5wq","1","73","70","75","","","","","","","","","","","","","","","",""
"397","
          <p id=""word"" style=""font-size: 40px;"">climb</p>
          <p style=""font-size: 16px;"">J = YES &nbsp;&nbsp;&nbsp; F = NO</p>
        ","j","html-keyboard-response","177","2.1.0","231130","J=YES, F=NO","5dpfnes5wq","1","73","70","75","","","","","","","","","climb","rank1","metaphor","experimental","j","true","",""
"null","<p style=""font-size: 50px;"">+</p>","null","html-keyboard-response","178","2.1.0","231439","J=YES, F=NO","5dpfnes5wq","1","73","70","75","","","","","","","","","","","","","","","",""
"null","audio/beep-329314.mp3","null","audio-keyboard-response","179","2.1.0","232973","J=YES, F=NO","5dpfnes5wq","1","73","70","75","","","","","","","","","","","","","","","",""
"null","audio/haste1.wav","null","audio-keyboard-response","180","2.1.0","233532","J=YES, F=NO","5dpfnes5wq","1","73","70","75","","","","","","","","","","","","","","","",""
"601","
          <p id=""word"" style=""font-size: 40px;"">coraconate</p>
          <p style=""font-size: 16px;"">J = YES &nbsp;&nbsp;&nbsp; F = NO</p>
        ","j","html-keyboard-response","181","2.1.0","234134","J=YES, F=NO","5dpfnes5wq","1","73","70","75","","","","","","","","","coraconate","haste1","pseudoword","pseudoword","f","false","",""
"null","<p style=""font-size: 50px;"">+</p>","null","html-keyboard-response","182","2.1.0","234445","J=YES, F=NO","5dpfnes5wq","1","73","70","75","","","","","","","","","","","","","","","",""
"null","audio/beep-329314.mp3","null","audio-keyboard-response","183","2.1.0","235973","J=YES, F=NO","5dpfnes5wq","1","73","70","75","","","","","","","","","","","","","","","",""
"null","audio/flaw.wav","null","audio-keyboard-response","184","2.1.0","236592","J=YES, F=NO","5dpfnes5wq","1","73","70","75","","","","","","","","","","","","","","","",""
"496","
          <p id=""word"" style=""font-size: 40px;"">thwool</p>
          <p style=""font-size: 16px;"">J = YES &nbsp;&nbsp;&nbsp; F = NO</p>
        ","f","html-keyboard-response","185","2.1.0","237089","J=YES, F=NO","5dpfnes5wq","1","73","70","75","","","","","","","","","thwool","flaw","pseudoword","pseudoword","f","true","",""
"null","<p style=""font-size: 50px;"">+</p>","null","html-keyboard-response","186","2.1.0","237399","J=YES, F=NO","5dpfnes5wq","1","73","70","75","","","","","","","","","","","","","","","",""
"null","audio/beep-329314.mp3","null","audio-keyboard-response","187","2.1.0","238932","J=YES, F=NO","5dpfnes5wq","1","73","70","75","","","","","","","","","","","","","","","",""
"null","audio/demon1.wav","null","audio-keyboard-response","188","2.1.0","239412","J=YES, F=NO","5dpfnes5wq","1","73","70","75","","","","","","","","","","","","","","","",""
"506","
          <p id=""word"" style=""font-size: 40px;"">wrestle</p>
          <p style=""font-size: 16px;"">J = YES &nbsp;&nbsp;&nbsp; F = NO</p>
        ","j","html-keyboard-response","189","2.1.0","239919","J=YES, F=NO","5dpfnes5wq","1","73","70","75","","","","","","","","","wrestle","demon1","metaphor","experimental","j","true","",""
"null","<p style=""font-size: 50px;"">+</p>","null","html-keyboard-response","190","2.1.0","240233","J=YES, F=NO","5dpfnes5wq","1","73","70","75","","","","","","","","","","","","","","","",""
"null","audio/beep-329314.mp3","null","audio-keyboard-response","191","2.1.0","241772","J=YES, F=NO","5dpfnes5wq","1","73","70","75","","","","","","","","","","","","","","","",""
"null","audio/breath.wav","null","audio-keyboard-response","192","2.1.0","242332","J=YES, F=NO","5dpfnes5wq","1","73","70","75","","","","","","","","","","","","","","","",""
"491","
          <p id=""word"" style=""font-size: 40px;"">pack</p>
          <p style=""font-size: 16px;"">J = YES &nbsp;&nbsp;&nbsp; F = NO</p>
        ","j","html-keyboard-response","193","2.1.0","242824","J=YES, F=NO","5dpfnes5wq","1","73","70","75","","","","","","","","","pack","breath","filler","filler","j","true","",""
"null","<p style=""font-size: 50px;"">+</p>","null","html-keyboard-response","194","2.1.0","243139","J=YES, F=NO","5dpfnes5wq","1","73","70","75","","","","","","","","","","","","","","","",""
"null","audio/beep-329314.mp3","null","audio-keyboard-response","195","2.1.0","244672","J=YES, F=NO","5dpfnes5wq","1","73","70","75","","","","","","","","","","","","","","","",""
"null","audio/strength.wav","null","audio-keyboard-response","196","2.1.0","245392","J=YES, F=NO","5dpfnes5wq","1","73","70","75","","","","","","","","","","","","","","","",""
"576","
          <p id=""word"" style=""font-size: 40px;"">plabet</p>
          <p style=""font-size: 16px;"">J = YES &nbsp;&nbsp;&nbsp; F = NO</p>
        ","f","html-keyboard-response","197","2.1.0","245969","J=YES, F=NO","5dpfnes5wq","1","73","70","75","","","","","","","","","plabet","strength","pseudoword","pseudoword","f","true","",""
"null","<p style=""font-size: 50px;"">+</p>","null","html-keyboard-response","198","2.1.0","246272","J=YES, F=NO","5dpfnes5wq","1","73","70","75","","","","","","","","","","","","","","","",""
"null","audio/beep-329314.mp3","null","audio-keyboard-response","199","2.1.0","247812","J=YES, F=NO","5dpfnes5wq","1","73","70","75","","","","","","","","","","","","","","","",""
"null","audio/empire.wav","null","audio-keyboard-response","200","2.1.0","248432","J=YES, F=NO","5dpfnes5wq","1","73","70","75","","","","","","","","","","","","","","","",""
"515","
          <p id=""word"" style=""font-size: 40px;"">slorby</p>
          <p style=""font-size: 16px;"">J = YES &nbsp;&nbsp;&nbsp; F = NO</p>
        ","f","html-keyboard-response","201","2.1.0","248948","J=YES, F=NO","5dpfnes5wq","1","73","70","75","","","","","","","","","slorby","empire","pseudoword","pseudoword","f","true","",""
"null","<p style=""font-size: 50px;"">+</p>","null","html-keyboard-response","202","2.1.0","249261","J=YES, F=NO","5dpfnes5wq","1","73","70","75","","","","","","","","","","","","","","","",""
"null","audio/beep-329314.mp3","null","audio-keyboard-response","203","2.1.0","250792","J=YES, F=NO","5dpfnes5wq","1","73","70","75","","","","","","","","","","","","","","","",""
"null","audio/camp.wav","null","audio-keyboard-response","204","2.1.0","251332","J=YES, F=NO","5dpfnes5wq","1","73","70","75","","","","","","","","","","","","","","","",""
"437","
          <p id=""word"" style=""font-size: 40px;"">touch</p>
          <p style=""font-size: 16px;"">J = YES &nbsp;&nbsp;&nbsp; F = NO</p>
        ","j","html-keyboard-response","205","2.1.0","251770","J=YES, F=NO","5dpfnes5wq","1","73","70","75","","","","","","","","","touch","camp","unrelated","experimental","j","true","",""
"null","<p style=""font-size: 50px;"">+</p>","null","html-keyboard-response","206","2.1.0","252079","J=YES, F=NO","5dpfnes5wq","1","73","70","75","","","","","","","","","","","","","","","",""
"null","audio/beep-329314.mp3","null","audio-keyboard-response","207","2.1.0","253612","J=YES, F=NO","5dpfnes5wq","1","73","70","75","","","","","","","","","","","","","","","",""
"null","audio/show.wav","null","audio-keyboard-response","208","2.1.0","254152","J=YES, F=NO","5dpfnes5wq","1","73","70","75","","","","","","","","","","","","","","","",""
"430","
          <p id=""word"" style=""font-size: 40px;"">smark</p>
          <p style=""font-size: 16px;"">J = YES &nbsp;&nbsp;&nbsp; F = NO</p>
        ","j","html-keyboard-response","209","2.1.0","254582","J=YES, F=NO","5dpfnes5wq","1","73","70","75","","","","","","","","","smark","show","pseudoword","pseudoword","f","false","",""
"null","<p style=""font-size: 50px;"">+</p>","null","html-keyboard-response","210","2.1.0","254892","J=YES, F=NO","5dpfnes5wq","1","73","70","75","","","","","","","","","","","","","","","",""
"null","audio/beep-329314.mp3","null","audio-keyboard-response","211","2.1.0","256432","J=YES, F=NO","5dpfnes5wq","1","73","70","75","","","","","","","","","","","","","","","",""
"null","audio/hotel1.wav","null","audio-keyboard-response","212","2.1.0","257052","J=YES, F=NO","5dpfnes5wq","1","73","70","75","","","","","","","","","","","","","","","",""
"486","
          <p id=""word"" style=""font-size: 40px;"">flanter</p>
          <p style=""font-size: 16px;"">J = YES &nbsp;&nbsp;&nbsp; F = NO</p>
        ","f","html-keyboard-response","213","2.1.0","257539","J=YES, F=NO","5dpfnes5wq","1","73","70","75","","","","","","","","","flanter","hotel1","pseudoword","pseudoword","f","true","",""
"null","<p style=""font-size: 50px;"">+</p>","null","html-keyboard-response","214","2.1.0","257840","J=YES, F=NO","5dpfnes5wq","1","73","70","75","","","","","","","","","","","","","","","",""
"null","audio/beep-329314.mp3","null","audio-keyboard-response","215","2.1.0","259372","J=YES, F=NO","5dpfnes5wq","1","73","70","75","","","","","","","","","","","","","","","",""
"null","audio/emotion.wav","null","audio-keyboard-response","216","2.1.0","260012","J=YES, F=NO","5dpfnes5wq","1","73","70","75","","","","","","","","","","","","","","","",""
"504","
          <p id=""word"" style=""font-size: 40px;"">devering</p>
          <p style=""font-size: 16px;"">J = YES &nbsp;&nbsp;&nbsp; F = NO</p>
        ","j","html-keyboard-response","217","2.1.0","260516","J=YES, F=NO","5dpfnes5wq","1","73","70","75","","","","","","","","","devering","emotion","pseudoword","pseudoword","f","false","",""
"null","<p style=""font-size: 50px;"">+</p>","null","html-keyboard-response","218","2.1.0","260822","J=YES, F=NO","5dpfnes5wq","1","73","70","75","","","","","","","","","","","","","","","",""
"null","audio/beep-329314.mp3","null","audio-keyboard-response","219","2.1.0","262352","J=YES, F=NO","5dpfnes5wq","1","73","70","75","","","","","","","","","","","","","","","",""
"null","audio/wealth1.wav","null","audio-keyboard-response","220","2.1.0","262912","J=YES, F=NO","5dpfnes5wq","1","73","70","75","","","","","","","","","","","","","","","",""
"608","
          <p id=""word"" style=""font-size: 40px;"">possess</p>
          <p style=""font-size: 16px;"">J = YES &nbsp;&nbsp;&nbsp; F = NO</p>
        ","j","html-keyboard-response","221","2.1.0","263520","J=YES, F=NO","5dpfnes5wq","1","73","70","75","","","","","","","","","possess","wealth1","literal","experimental","j","true","",""
"null","<p style=""font-size: 50px;"">+</p>","null","html-keyboard-response","222","2.1.0","263826","J=YES, F=NO","5dpfnes5wq","1","73","70","75","","","","","","","","","","","","","","","",""
"null","audio/beep-329314.mp3","null","audio-keyboard-response","223","2.1.0","265352","J=YES, F=NO","5dpfnes5wq","1","73","70","75","","","","","","","","","","","","","","","",""
"null","audio/relief.wav","null","audio-keyboard-response","224","2.1.0","265992","J=YES, F=NO","5dpfnes5wq","1","73","70","75","","","","","","","","","","","","","","","",""
"449","
          <p id=""word"" style=""font-size: 40px;"">bring</p>
          <p style=""font-size: 16px;"">J = YES &nbsp;&nbsp;&nbsp; F = NO</p>
        ","j","html-keyboard-response","225","2.1.0","266441","J=YES, F=NO","5dpfnes5wq","1","73","70","75","","","","","","","","","bring","relief","metaphor","experimental","j","true","",""
"null","<p style=""font-size: 50px;"">+</p>","null","html-keyboard-response","226","2.1.0","266750","J=YES, F=NO","5dpfnes5wq","1","73","70","75","","","","","","","","","","","","","","","",""
"null","audio/beep-329314.mp3","null","audio-keyboard-response","227","2.1.0","268272","J=YES, F=NO","5dpfnes5wq","1","73","70","75","","","","","","","","","","","","","","","",""
"null","audio/arm.wav","null","audio-keyboard-response","228","2.1.0","268812","J=YES, F=NO","5dpfnes5wq","1","73","70","75","","","","","","","","","","","","","","","",""
"526","
          <p id=""word"" style=""font-size: 40px;"">pigne</p>
          <p style=""font-size: 16px;"">J = YES &nbsp;&nbsp;&nbsp; F = NO</p>
        ","f","html-keyboard-response","229","2.1.0","269338","J=YES, F=NO","5dpfnes5wq","1","73","70","75","","","","","","","","","pigne","arm","pseudoword","pseudoword","f","true","",""
"1935","<p>Excellent! You have finished block 1 of 8.</p>
                     <p>Feel free to take a 30 second break.</p>
                     <p>Press any key when you're ready to continue.</p>"," ","html-keyboard-response","230","2.1.0","271274","J=YES, F=NO","5dpfnes5wq","1","73","70","75","","","","","","","","","","","","","","","",""
"4933","<p>Starting main block 2 of 8. Press any key to continue.</p>"," ","html-keyboard-response","231","2.1.0","276207","J=YES, F=NO","5dpfnes5wq","1","73","70","75","","","","","","","","","","","","","","","",""
"null","<p style=""font-size: 50px;"">+</p>","null","html-keyboard-response","232","2.1.0","276519","J=YES, F=NO","5dpfnes5wq","1","73","70","75","","","","","","","","","","","","","","","",""
"null","audio/beep-329314.mp3","null","audio-keyboard-response","233","2.1.0","278052","J=YES, F=NO","5dpfnes5wq","1","73","70","75","","","","","","","","","","","","","","","",""
"null","audio/roof1.wav","null","audio-keyboard-response","234","2.1.0","278592","J=YES, F=NO","5dpfnes5wq","1","73","70","75","","","","","","","","","","","","","","","",""
"594","
          <p id=""word"" style=""font-size: 40px;"">wronb</p>
          <p style=""font-size: 16px;"">J = YES &nbsp;&nbsp;&nbsp; F = NO</p>
        ","f","html-keyboard-response","235","2.1.0","279186","J=YES, F=NO","5dpfnes5wq","1","73","70","75","","","","","","","","","wronb","roof1","pseudoword","pseudoword","f","true","",""
"null","<p style=""font-size: 50px;"">+</p>","null","html-keyboard-response","236","2.1.0","279491","J=YES, F=NO","5dpfnes5wq","1","73","70","75","","","","","","","","","","","","","","","",""
"null","audio/beep-329314.mp3","null","audio-keyboard-response","237","2.1.0","281012","J=YES, F=NO","5dpfnes5wq","1","73","70","75","","","","","","","","","","","","","","","",""
"null","audio/noise1.wav","null","audio-keyboard-response","238","2.1.0","281612","J=YES, F=NO","5dpfnes5wq","1","73","70","75","","","","","","","","","","","","","","","",""
"520","
          <p id=""word"" style=""font-size: 40px;"">slintered</p>
          <p style=""font-size: 16px;"">J = YES &nbsp;&nbsp;&nbsp; F = NO</p>
        ","f","html-keyboard-response","239","2.1.0","282132","J=YES, F=NO","5dpfnes5wq","1","73","70","75","","","","","","","","","slintered","noise1","pseudoword","pseudoword","f","true","",""
"null","<p style=""font-size: 50px;"">+</p>","null","html-keyboard-response","240","2.1.0","282443","J=YES, F=NO","5dpfnes5wq","1","73","70","75","","","","","","","","","","","","","","","",""
"null","audio/beep-329314.mp3","null","audio-keyboard-response","241","2.1.0","283972","J=YES, F=NO","5dpfnes5wq","1","73","70","75","","","","","","","","","","","","","","","",""
"null","audio/relief.wav","null","audio-keyboard-response","242","2.1.0","284612","J=YES, F=NO","5dpfnes5wq","1","73","70","75","","","","","","","","","","","","","","","",""
"539","
          <p id=""word"" style=""font-size: 40px;"">grigg</p>
          <p style=""font-size: 16px;"">J = YES &nbsp;&nbsp;&nbsp; F = NO</p>
        ","f","html-keyboard-response","243","2.1.0","285152","J=YES, F=NO","5dpfnes5wq","1","73","70","75","","","","","","","","","grigg","relief","pseudoword","pseudoword","f","true","",""
"null","<p style=""font-size: 50px;"">+</p>","null","html-keyboard-response","244","2.1.0","285463","J=YES, F=NO","5dpfnes5wq","1","73","70","75","","","","","","","","","","","","","","","",""
"null","audio/beep-329314.mp3","null","audio-keyboard-response","245","2.1.0","286992","J=YES, F=NO","5dpfnes5wq","1","73","70","75","","","","","","","","","","","","","","","",""
"null","audio/beach1.wav","null","audio-keyboard-response","246","2.1.0","287572","J=YES, F=NO","5dpfnes5wq","1","73","70","75","","","","","","","","","","","","","","","",""
"336","
          <p id=""word"" style=""font-size: 40px;"">drive</p>
          <p style=""font-size: 16px;"">J = YES &nbsp;&nbsp;&nbsp; F = NO</p>
        ","j","html-keyboard-response","247","2.1.0","287908","J=YES, F=NO","5dpfnes5wq","1","73","70","75","","","","","","","","","drive","beach1","filler","filler","j","true","",""
"null","<p style=""font-size: 50px;"">+</p>","null","html-keyboard-response","248","2.1.0","288222","J=YES, F=NO","5dpfnes5wq","1","73","70","75","","","","","","","","","","","","","","","",""
"null","audio/beep-329314.mp3","null","audio-keyboard-response","249","2.1.0","289752","J=YES, F=NO","5dpfnes5wq","1","73","70","75","","","","","","","","","","","","","","","",""
"null","audio/pig.wav","null","audio-keyboard-response","250","2.1.0","290132","J=YES, F=NO","5dpfnes5wq","1","73","70","75","","","","","","","","","","","","","","","",""
"441","
          <p id=""word"" style=""font-size: 40px;"">feed</p>
          <p style=""font-size: 16px;"">J = YES &nbsp;&nbsp;&nbsp; F = NO</p>
        ","j","html-keyboard-response","251","2.1.0","290573","J=YES, F=NO","5dpfnes5wq","1","73","70","75","","","","","","","","","feed","pig","literal","experimental","j","true","",""
"null","<p style=""font-size: 50px;"">+</p>","null","html-keyboard-response","252","2.1.0","290881","J=YES, F=NO","5dpfnes5wq","1","73","70","75","","","","","","","","","","","","","","","",""
"null","audio/beep-329314.mp3","null","audio-keyboard-response","253","2.1.0","292412","J=YES, F=NO","5dpfnes5wq","1","73","70","75","","","","","","","","","","","","","","","",""
"null","audio/bridge.wav","null","audio-keyboard-response","254","2.1.0","292952","J=YES, F=NO","5dpfnes5wq","1","73","70","75","","","","","","","","","","","","","","","",""
"426","
          <p id=""word"" style=""font-size: 40px;"">crack</p>
          <p style=""font-size: 16px;"">J = YES &nbsp;&nbsp;&nbsp; F = NO</p>
        ","j","html-keyboard-response","255","2.1.0","293378","J=YES, F=NO","5dpfnes5wq","1","73","70","75","","","","","","","","","crack","bridge","filler","filler","j","true","",""
"null","<p style=""font-size: 50px;"">+</p>","null","html-keyboard-response","256","2.1.0","293694","J=YES, F=NO","5dpfnes5wq","1","73","70","75","","","","","","","","","","","","","","","",""
"null","audio/beep-329314.mp3","null","audio-keyboard-response","257","2.1.0","295232","J=YES, F=NO","5dpfnes5wq","1","73","70","75","","","","","","","","","","","","","","","",""
"null","audio/plot1.wav","null","audio-keyboard-response","258","2.1.0","295772","J=YES, F=NO","5dpfnes5wq","1","73","70","75","","","","","","","","","","","","","","","",""
"594","
          <p id=""word"" style=""font-size: 40px;"">glenter</p>
          <p style=""font-size: 16px;"">J = YES &nbsp;&nbsp;&nbsp; F = NO</p>
        ","f","html-keyboard-response","259","2.1.0","296366","J=YES, F=NO","5dpfnes5wq","1","73","70","75","","","","","","","","","glenter","plot1","pseudoword","pseudoword","f","true","",""
"null","<p style=""font-size: 50px;"">+</p>","null","html-keyboard-response","260","2.1.0","296680","J=YES, F=NO","5dpfnes5wq","1","73","70","75","","","","","","","","","","","","","","","",""
"null","audio/beep-329314.mp3","null","audio-keyboard-response","261","2.1.0","298212","J=YES, F=NO","5dpfnes5wq","1","73","70","75","","","","","","","","","","","","","","","",""
"null","audio/van1.wav","null","audio-keyboard-response","262","2.1.0","298692","J=YES, F=NO","5dpfnes5wq","1","73","70","75","","","","","","","","","","","","","","","",""
"453","
          <p id=""word"" style=""font-size: 40px;"">support</p>
          <p style=""font-size: 16px;"">J = YES &nbsp;&nbsp;&nbsp; F = NO</p>
        ","j","html-keyboard-response","263","2.1.0","299146","J=YES, F=NO","5dpfnes5wq","1","73","70","75","","","","","","","","","support","van1","unrelated","experimental","j","true","",""
"null","<p style=""font-size: 50px;"">+</p>","null","html-keyboard-response","264","2.1.0","299452","J=YES, F=NO","5dpfnes5wq","1","73","70","75","","","","","","","","","","","","","","","",""
"null","audio/beep-329314.mp3","null","audio-keyboard-response","265","2.1.0","300992","J=YES, F=NO","5dpfnes5wq","1","73","70","75","","","","","","","","","","","","","","","",""
"null","audio/pig.wav","null","audio-keyboard-response","266","2.1.0","301372","J=YES, F=NO","5dpfnes5wq","1","73","70","75","","","","","","","","","","","","","","","",""
"505","
          <p id=""word"" style=""font-size: 40px;"">tirlike</p>
          <p style=""font-size: 16px;"">J = YES &nbsp;&nbsp;&nbsp; F = NO</p>
        ","f","html-keyboard-response","267","2.1.0","301877","J=YES, F=NO","5dpfnes5wq","1","73","70","75","","","","","","","","","tirlike","pig","pseudoword","pseudoword","f","true","",""
"null","<p style=""font-size: 50px;"">+</p>","null","html-keyboard-response","268","2.1.0","302192","J=YES, F=NO","5dpfnes5wq","1","73","70","75","","","","","","","","","","","","","","","",""
"null","audio/beep-329314.mp3","null","audio-keyboard-response","269","2.1.0","303732","J=YES, F=NO","5dpfnes5wq","1","73","70","75","","","","","","","","","","","","","","","",""
"null","audio/pain1.wav","null","audio-keyboard-response","270","2.1.0","304172","J=YES, F=NO","5dpfnes5wq","1","73","70","75","","","","","","","","","","","","","","","",""
"486","
          <p id=""word"" style=""font-size: 40px;"">tritted</p>
          <p style=""font-size: 16px;"">J = YES &nbsp;&nbsp;&nbsp; F = NO</p>
        ","j","html-keyboard-response","271","2.1.0","304658","J=YES, F=NO","5dpfnes5wq","1","73","70","75","","","","","","","","","tritted","pain1","pseudoword","pseudoword","f","false","",""
"null","<p style=""font-size: 50px;"">+</p>","null","html-keyboard-response","272","2.1.0","304960","J=YES, F=NO","5dpfnes5wq","1","73","70","75","","","","","","","","","","","","","","","",""
"null","audio/beep-329314.mp3","null","audio-keyboard-response","273","2.1.0","306492","J=YES, F=NO","5dpfnes5wq","1","73","70","75","","","","","","","","","","","","","","","",""
"null","audio/golf1.wav","null","audio-keyboard-response","274","2.1.0","307052","J=YES, F=NO","5dpfnes5wq","1","73","70","75","","","","","","","","","","","","","","","",""
"593","
          <p id=""word"" style=""font-size: 40px;"">bury</p>
          <p style=""font-size: 16px;"">J = YES &nbsp;&nbsp;&nbsp; F = NO</p>
        ","j","html-keyboard-response","275","2.1.0","307645","J=YES, F=NO","5dpfnes5wq","1","73","70","75","","","","","","","","","bury","golf1","unrelated","experimental","j","true","",""
"null","<p style=""font-size: 50px;"">+</p>","null","html-keyboard-response","276","2.1.0","307949","J=YES, F=NO","5dpfnes5wq","1","73","70","75","","","","","","","","","","","","","","","",""
"null","audio/beep-329314.mp3","null","audio-keyboard-response","277","2.1.0","309472","J=YES, F=NO","5dpfnes5wq","1","73","70","75","","","","","","","","","","","","","","","",""
"null","audio/foot1.wav","null","audio-keyboard-response","278","2.1.0","310032","J=YES, F=NO","5dpfnes5wq","1","73","70","75","","","","","","","","","","","","","","","",""
"566","
          <p id=""word"" style=""font-size: 40px;"">thrutt</p>
          <p style=""font-size: 16px;"">J = YES &nbsp;&nbsp;&nbsp; F = NO</p>
        ","f","html-keyboard-response","279","2.1.0","310598","J=YES, F=NO","5dpfnes5wq","1","73","70","75","","","","","","","","","thrutt","foot1","pseudoword","pseudoword","f","true","",""
"null","<p style=""font-size: 50px;"">+</p>","null","html-keyboard-response","280","2.1.0","310909","J=YES, F=NO","5dpfnes5wq","1","73","70","75","","","","","","","","","","","","","","","",""
"null","audio/beep-329314.mp3","null","audio-keyboard-response","281","2.1.0","312432","J=YES, F=NO","5dpfnes5wq","1","73","70","75","","","","","","","","","","","","","","","",""
"null","audio/mind.wav","null","audio-keyboard-response","282","2.1.0","312992","J=YES, F=NO","5dpfnes5wq","1","73","70","75","","","","","","","","","","","","","","","",""
"736","
          <p id=""word"" style=""font-size: 40px;"">crainate</p>
          <p style=""font-size: 16px;"">J = YES &nbsp;&nbsp;&nbsp; F = NO</p>
        ","j","html-keyboard-response","283","2.1.0","313728","J=YES, F=NO","5dpfnes5wq","1","73","70","75","","","","","","","","","crainate","mind","pseudoword","pseudoword","f","false","",""
"null","<p style=""font-size: 50px;"">+</p>","null","html-keyboard-response","284","2.1.0","314034","J=YES, F=NO","5dpfnes5wq","1","73","70","75","","","","","","","","","","","","","","","",""
"null","audio/beep-329314.mp3","null","audio-keyboard-response","285","2.1.0","315572","J=YES, F=NO","5dpfnes5wq","1","73","70","75","","","","","","","","","","","","","","","",""
"null","audio/tomato.wav","null","audio-keyboard-response","286","2.1.0","316232","J=YES, F=NO","5dpfnes5wq","1","73","70","75","","","","","","","","","","","","","","","",""
"649","
          <p id=""word"" style=""font-size: 40px;"">gladies</p>
          <p style=""font-size: 16px;"">J = YES &nbsp;&nbsp;&nbsp; F = NO</p>
        ","f","html-keyboard-response","287","2.1.0","316880","J=YES, F=NO","5dpfnes5wq","1","73","70","75","","","","","","","","","gladies","tomato","pseudoword","pseudoword","f","true","",""
"null","<p style=""font-size: 50px;"">+</p>","null","html-keyboard-response","288","2.1.0","317188","J=YES, F=NO","5dpfnes5wq","1","73","70","75","","","","","","","","","","","","","","","",""
"null","audio/beep-329314.mp3","null","audio-keyboard-response","289","2.1.0","318712","J=YES, F=NO","5dpfnes5wq","1","73","70","75","","","","","","","","","","","","","","","",""
"null","audio/vehicle1.wav","null","audio-keyboard-response","290","2.1.0","319492","J=YES, F=NO","5dpfnes5wq","1","73","70","75","","","","","","","","","","","","","","","",""
"648","
          <p id=""word"" style=""font-size: 40px;"">dropt</p>
          <p style=""font-size: 16px;"">J = YES &nbsp;&nbsp;&nbsp; F = NO</p>
        ","f","html-keyboard-response","291","2.1.0","320141","J=YES, F=NO","5dpfnes5wq","1","73","70","75","","","","","","","","","dropt","vehicle1","pseudoword","pseudoword","f","true","",""
"null","<p style=""font-size: 50px;"">+</p>","null","html-keyboard-response","292","2.1.0","320453","J=YES, F=NO","5dpfnes5wq","1","73","70","75","","","","","","","","","","","","","","","",""
"null","audio/beep-329314.mp3","null","audio-keyboard-response","293","2.1.0","321992","J=YES, F=NO","5dpfnes5wq","1","73","70","75","","","","","","","","","","","","","","","",""
"null","audio/death1.wav","null","audio-keyboard-response","294","2.1.0","322472","J=YES, F=NO","5dpfnes5wq","1","73","70","75","","","","","","","","","","","","","","","",""
"622","
          <p id=""word"" style=""font-size: 40px;"">conquer</p>
          <p style=""font-size: 16px;"">J = YES &nbsp;&nbsp;&nbsp; F = NO</p>
        ","j","html-keyboard-response","295","2.1.0","323094","J=YES, F=NO","5dpfnes5wq","1","73","70","75","","","","","","","","","conquer","death1","metaphor","experimental","j","true","",""
"1912","<p>Excellent! You have finished block 2 of 8.</p>
                     <p>Feel free to take a 30 second break.</p>
                     <p>Press any key when you're ready to continue.</p>"," ","html-keyboard-response","296","2.1.0","325007","J=YES, F=NO","5dpfnes5wq","1","73","70","75","","","","","","","","","","","","","","","",""
"1000","<p>Starting main block 3 of 8. Press any key to continue.</p>"," ","html-keyboard-response","297","2.1.0","326007","J=YES, F=NO","5dpfnes5wq","1","73","70","75","","","","","","","","","","","","","","","",""
"null","<p style=""font-size: 50px;"">+</p>","null","html-keyboard-response","298","2.1.0","326312","J=YES, F=NO","5dpfnes5wq","1","73","70","75","","","","","","","","","","","","","","","",""
"null","audio/beep-329314.mp3","null","audio-keyboard-response","299","2.1.0","327852","J=YES, F=NO","5dpfnes5wq","1","73","70","75","","","","","","","","","","","","","","","",""
"null","audio/arm.wav","null","audio-keyboard-response","300","2.1.0","328391","J=YES, F=NO","5dpfnes5wq","1","73","70","75","","","","","","","","","","","","","","","",""
"479","
          <p id=""word"" style=""font-size: 40px;"">fold</p>
          <p style=""font-size: 16px;"">J = YES &nbsp;&nbsp;&nbsp; F = NO</p>
        ","j","html-keyboard-response","301","2.1.0","328871","J=YES, F=NO","5dpfnes5wq","1","73","70","75","","","","","","","","","fold","arm","filler","filler","j","true","",""
"null","<p style=""font-size: 50px;"">+</p>","null","html-keyboard-response","302","2.1.0","329172","J=YES, F=NO","5dpfnes5wq","1","73","70","75","","","","","","","","","","","","","","","",""
"null","audio/beep-329314.mp3","null","audio-keyboard-response","303","2.1.0","330711","J=YES, F=NO","5dpfnes5wq","1","73","70","75","","","","","","","","","","","","","","","",""
"null","audio/uncle1.wav","null","audio-keyboard-response","304","2.1.0","331331","J=YES, F=NO","5dpfnes5wq","1","73","70","75","","","","","","","","","","","","","","","",""
"394","
          <p id=""word"" style=""font-size: 40px;"">break</p>
          <p style=""font-size: 16px;"">J = YES &nbsp;&nbsp;&nbsp; F = NO</p>
        ","j","html-keyboard-response","305","2.1.0","331726","J=YES, F=NO","5dpfnes5wq","1","73","70","75","","","","","","","","","break","uncle1","unrelated","experimental","j","true","",""
"null","<p style=""font-size: 50px;"">+</p>","null","html-keyboard-response","306","2.1.0","332028","J=YES, F=NO","5dpfnes5wq","1","73","70","75","","","","","","","","","","","","","","","",""
"null","audio/beep-329314.mp3","null","audio-keyboard-response","307","2.1.0","333552","J=YES, F=NO","5dpfnes5wq","1","73","70","75","","","","","","","","","","","","","","","",""
"null","audio/inch1.wav","null","audio-keyboard-response","308","2.1.0","334131","J=YES, F=NO","5dpfnes5wq","1","73","70","75","","","","","","","","","","","","","","","",""
"441","
          <p id=""word"" style=""font-size: 40px;"">lose</p>
          <p style=""font-size: 16px;"">J = YES &nbsp;&nbsp;&nbsp; F = NO</p>
        ","j","html-keyboard-response","309","2.1.0","334573","J=YES, F=NO","5dpfnes5wq","1","73","70","75","","","","","","","","","lose","inch1","metaphor","experimental","j","true","",""
"null","<p style=""font-size: 50px;"">+</p>","null","html-keyboard-response","310","2.1.0","334883","J=YES, F=NO","5dpfnes5wq","1","73","70","75","","","","","","","","","","","","","","","",""
"null","audio/beep-329314.mp3","null","audio-keyboard-response","311","2.1.0","336412","J=YES, F=NO","5dpfnes5wq","1","73","70","75","","","","","","","","","","","","","","","",""
"null","audio/topic.wav","null","audio-keyboard-response","312","2.1.0","337111","J=YES, F=NO","5dpfnes5wq","1","73","70","75","","","","","","","","","","","","","","","",""
"448","
          <p id=""word"" style=""font-size: 40px;"">approach</p>
          <p style=""font-size: 16px;"">J = YES &nbsp;&nbsp;&nbsp; F = NO</p>
        ","j","html-keyboard-response","313","2.1.0","337560","J=YES, F=NO","5dpfnes5wq","1","73","70","75","","","","","","","","","approach","topic","metaphor","experimental","j","true","",""
"null","<p style=""font-size: 50px;"">+</p>","null","html-keyboard-response","314","2.1.0","337873","J=YES, F=NO","5dpfnes5wq","1","73","70","75","","","","","","","","","","","","","","","",""
"null","audio/beep-329314.mp3","null","audio-keyboard-response","315","2.1.0","339412","J=YES, F=NO","5dpfnes5wq","1","73","70","75","","","","","","","","","","","","","","","",""
"null","audio/desire.wav","null","audio-keyboard-response","316","2.1.0","340171","J=YES, F=NO","5dpfnes5wq","1","73","70","75","","","","","","","","","","","","","","","",""
"566","
          <p id=""word"" style=""font-size: 40px;"">nophed</p>
          <p style=""font-size: 16px;"">J = YES &nbsp;&nbsp;&nbsp; F = NO</p>
        ","f","html-keyboard-response","317","2.1.0","340738","J=YES, F=NO","5dpfnes5wq","1","73","70","75","","","","","","","","","nophed","desire","pseudoword","pseudoword","f","true","",""
"null","<p style=""font-size: 50px;"">+</p>","null","html-keyboard-response","318","2.1.0","341048","J=YES, F=NO","5dpfnes5wq","1","73","70","75","","","","","","","","","","","","","","","",""
"null","audio/beep-329314.mp3","null","audio-keyboard-response","319","2.1.0","342571","J=YES, F=NO","5dpfnes5wq","1","73","70","75","","","","","","","","","","","","","","","",""
"null","audio/burden.wav","null","audio-keyboard-response","320","2.1.0","343211","J=YES, F=NO","5dpfnes5wq","1","73","70","75","","","","","","","","","","","","","","","",""
"455","
          <p id=""word"" style=""font-size: 40px;"">whotth</p>
          <p style=""font-size: 16px;"">J = YES &nbsp;&nbsp;&nbsp; F = NO</p>
        ","j","html-keyboard-response","321","2.1.0","343667","J=YES, F=NO","5dpfnes5wq","1","73","70","75","","","","","","","","","whotth","burden","pseudoword","pseudoword","f","false","",""
"null","<p style=""font-size: 50px;"">+</p>","null","html-keyboard-response","322","2.1.0","343980","J=YES, F=NO","5dpfnes5wq","1","73","70","75","","","","","","","","","","","","","","","",""
"null","audio/beep-329314.mp3","null","audio-keyboard-response","323","2.1.0","345511","J=YES, F=NO","5dpfnes5wq","1","73","70","75","","","","","","","","","","","","","","","",""
"null","audio/farm1.wav","null","audio-keyboard-response","324","2.1.0","346091","J=YES, F=NO","5dpfnes5wq","1","73","70","75","","","","","","","","","","","","","","","",""
"521","
          <p id=""word"" style=""font-size: 40px;"">catch</p>
          <p style=""font-size: 16px;"">J = YES &nbsp;&nbsp;&nbsp; F = NO</p>
        ","j","html-keyboard-response","325","2.1.0","346613","J=YES, F=NO","5dpfnes5wq","1","73","70","75","","","","","","","","","catch","farm1","unrelated","experimental","j","true","",""
"null","<p style=""font-size: 50px;"">+</p>","null","html-keyboard-response","326","2.1.0","346919","J=YES, F=NO","5dpfnes5wq","1","73","70","75","","","","","","","","","","","","","","","",""
"null","audio/beep-329314.mp3","null","audio-keyboard-response","327","2.1.0","348451","J=YES, F=NO","5dpfnes5wq","1","73","70","75","","","","","","","","","","","","","","","",""
"null","audio/bush1.wav","null","audio-keyboard-response","328","2.1.0","349051","J=YES, F=NO","5dpfnes5wq","1","73","70","75","","","","","","","","","","","","","","","",""
"615","
          <p id=""word"" style=""font-size: 40px;"">platined</p>
          <p style=""font-size: 16px;"">J = YES &nbsp;&nbsp;&nbsp; F = NO</p>
        ","f","html-keyboard-response","329","2.1.0","349667","J=YES, F=NO","5dpfnes5wq","1","73","70","75","","","","","","","","","platined","bush1","pseudoword","pseudoword","f","true","",""
"null","<p style=""font-size: 50px;"">+</p>","null","html-keyboard-response","330","2.1.0","349977","J=YES, F=NO","5dpfnes5wq","1","73","70","75","","","","","","","","","","","","","","","",""
"null","audio/beep-329314.mp3","null","audio-keyboard-response","331","2.1.0","351511","J=YES, F=NO","5dpfnes5wq","1","73","70","75","","","","","","","","","","","","","","","",""
"null","audio/uncle1.wav","null","audio-keyboard-response","332","2.1.0","351991","J=YES, F=NO","5dpfnes5wq","1","73","70","75","","","","","","","","","","","","","","","",""
"861","
          <p id=""word"" style=""font-size: 40px;"">dramble</p>
          <p style=""font-size: 16px;"">J = YES &nbsp;&nbsp;&nbsp; F = NO</p>
        ","j","html-keyboard-response","333","2.1.0","352853","J=YES, F=NO","5dpfnes5wq","1","73","70","75","","","","","","","","","dramble","uncle1","pseudoword","pseudoword","f","false","",""
"null","<p style=""font-size: 50px;"">+</p>","null","html-keyboard-response","334","2.1.0","353154","J=YES, F=NO","5dpfnes5wq","1","73","70","75","","","","","","","","","","","","","","","",""
"null","audio/beep-329314.mp3","null","audio-keyboard-response","335","2.1.0","354692","J=YES, F=NO","5dpfnes5wq","1","73","70","75","","","","","","","","","","","","","","","",""
"null","audio/grass.wav","null","audio-keyboard-response","336","2.1.0","355471","J=YES, F=NO","5dpfnes5wq","1","73","70","75","","","","","","","","","","","","","","","",""
"402","
          <p id=""word"" style=""font-size: 40px;"">cut</p>
          <p style=""font-size: 16px;"">J = YES &nbsp;&nbsp;&nbsp; F = NO</p>
        ","j","html-keyboard-response","337","2.1.0","355874","J=YES, F=NO","5dpfnes5wq","1","73","70","75","","","","","","","","","cut","grass","literal","experimental","j","true","",""
"null","<p style=""font-size: 50px;"">+</p>","null","html-keyboard-response","338","2.1.0","356176","J=YES, F=NO","5dpfnes5wq","1","73","70","75","","","","","","","","","","","","","","","",""
"null","audio/beep-329314.mp3","null","audio-keyboard-response","339","2.1.0","357711","J=YES, F=NO","5dpfnes5wq","1","73","70","75","","","","","","","","","","","","","","","",""
"null","audio/golf1.wav","null","audio-keyboard-response","340","2.1.0","358271","J=YES, F=NO","5dpfnes5wq","1","73","70","75","","","","","","","","","","","","","","","",""
"738","
          <p id=""word"" style=""font-size: 40px;"">drabble</p>
          <p style=""font-size: 16px;"">J = YES &nbsp;&nbsp;&nbsp; F = NO</p>
        ","f","html-keyboard-response","341","2.1.0","359010","J=YES, F=NO","5dpfnes5wq","1","73","70","75","","","","","","","","","drabble","golf1","pseudoword","pseudoword","f","true","",""
"null","<p style=""font-size: 50px;"">+</p>","null","html-keyboard-response","342","2.1.0","359315","J=YES, F=NO","5dpfnes5wq","1","73","70","75","","","","","","","","","","","","","","","",""
"null","audio/beep-329314.mp3","null","audio-keyboard-response","343","2.1.0","360851","J=YES, F=NO","5dpfnes5wq","1","73","70","75","","","","","","","","","","","","","","","",""
"null","audio/novel.wav","null","audio-keyboard-response","344","2.1.0","361471","J=YES, F=NO","5dpfnes5wq","1","73","70","75","","","","","","","","","","","","","","","",""
"410","
          <p id=""word"" style=""font-size: 40px;"">type</p>
          <p style=""font-size: 16px;"">J = YES &nbsp;&nbsp;&nbsp; F = NO</p>
        ","j","html-keyboard-response","345","2.1.0","361882","J=YES, F=NO","5dpfnes5wq","1","73","70","75","","","","","","","","","type","novel","filler","filler","j","true","",""
"null","<p style=""font-size: 50px;"">+</p>","null","html-keyboard-response","346","2.1.0","362197","J=YES, F=NO","5dpfnes5wq","1","73","70","75","","","","","","","","","","","","","","","",""
"null","audio/beep-329314.mp3","null","audio-keyboard-response","347","2.1.0","363731","J=YES, F=NO","5dpfnes5wq","1","73","70","75","","","","","","","","","","","","","","","",""
"null","audio/mouth1.wav","null","audio-keyboard-response","348","2.1.0","364431","J=YES, F=NO","5dpfnes5wq","1","73","70","75","","","","","","","","","","","","","","","",""
"686","
          <p id=""word"" style=""font-size: 40px;"">spolial</p>
          <p style=""font-size: 16px;"">J = YES &nbsp;&nbsp;&nbsp; F = NO</p>
        ","f","html-keyboard-response","349","2.1.0","365118","J=YES, F=NO","5dpfnes5wq","1","73","70","75","","","","","","","","","spolial","mouth1","pseudoword","pseudoword","f","true","",""
"null","<p style=""font-size: 50px;"">+</p>","null","html-keyboard-response","350","2.1.0","365424","J=YES, F=NO","5dpfnes5wq","1","73","70","75","","","","","","","","","","","","","","","",""
"null","audio/beep-329314.mp3","null","audio-keyboard-response","351","2.1.0","366951","J=YES, F=NO","5dpfnes5wq","1","73","70","75","","","","","","","","","","","","","","","",""
"null","audio/winter.wav","null","audio-keyboard-response","352","2.1.0","367651","J=YES, F=NO","5dpfnes5wq","1","73","70","75","","","","","","","","","","","","","","","",""
"925","
          <p id=""word"" style=""font-size: 40px;"">straven</p>
          <p style=""font-size: 16px;"">J = YES &nbsp;&nbsp;&nbsp; F = NO</p>
        ","j","html-keyboard-response","353","2.1.0","368577","J=YES, F=NO","5dpfnes5wq","1","73","70","75","","","","","","","","","straven","winter","pseudoword","pseudoword","f","false","",""
"null","<p style=""font-size: 50px;"">+</p>","null","html-keyboard-response","354","2.1.0","368884","J=YES, F=NO","5dpfnes5wq","1","73","70","75","","","","","","","","","","","","","","","",""
"null","audio/beep-329314.mp3","null","audio-keyboard-response","355","2.1.0","370411","J=YES, F=NO","5dpfnes5wq","1","73","70","75","","","","","","","","","","","","","","","",""
"null","audio/story.wav","null","audio-keyboard-response","356","2.1.0","371211","J=YES, F=NO","5dpfnes5wq","1","73","70","75","","","","","","","","","","","","","","","",""
"477","
          <p id=""word"" style=""font-size: 40px;"">cover</p>
          <p style=""font-size: 16px;"">J = YES &nbsp;&nbsp;&nbsp; F = NO</p>
        ","j","html-keyboard-response","357","2.1.0","371689","J=YES, F=NO","5dpfnes5wq","1","73","70","75","","","","","","","","","cover","story","metaphor","experimental","j","true","",""
"null","<p style=""font-size: 50px;"">+</p>","null","html-keyboard-response","358","2.1.0","371995","J=YES, F=NO","5dpfnes5wq","1","73","70","75","","","","","","","","","","","","","","","",""
"null","audio/beep-329314.mp3","null","audio-keyboard-response","359","2.1.0","373531","J=YES, F=NO","5dpfnes5wq","1","73","70","75","","","","","","","","","","","","","","","",""
"null","audio/heart1.wav","null","audio-keyboard-response","360","2.1.0","374311","J=YES, F=NO","5dpfnes5wq","1","73","70","75","","","","","","","","","","","","","","","",""
"679","
          <p id=""word"" style=""font-size: 40px;"">dralm</p>
          <p style=""font-size: 16px;"">J = YES &nbsp;&nbsp;&nbsp; F = NO</p>
        ","f","html-keyboard-response","361","2.1.0","374990","J=YES, F=NO","5dpfnes5wq","1","73","70","75","","","","","","","","","dralm","heart1","pseudoword","pseudoword","f","true","",""
"1109","<p>Excellent! You have finished block 3 of 8.</p>
                     <p>Feel free to take a 30 second break.</p>
                     <p>Press any key when you're ready to continue.</p>"," ","html-keyboard-response","362","2.1.0","376100","J=YES, F=NO","5dpfnes5wq","1","73","70","75","","","","","","","","","","","","","","","",""
"628","<p>Starting main block 4 of 8. Press any key to continue.</p>"," ","html-keyboard-response","363","2.1.0","376728","J=YES, F=NO","5dpfnes5wq","1","73","70","75","","","","","","","","","","","","","","","",""
"null","<p style=""font-size: 50px;"">+</p>","null","html-keyboard-response","364","2.1.0","377041","J=YES, F=NO","5dpfnes5wq","1","73","70","75","","","","","","","","","","","","","","","",""
"null","audio/beep-329314.mp3","null","audio-keyboard-response","365","2.1.0","378571","J=YES, F=NO","5dpfnes5wq","1","73","70","75","","","","","","","","","","","","","","","",""
"null","audio/gold1.wav","null","audio-keyboard-response","366","2.1.0","379111","J=YES, F=NO","5dpfnes5wq","1","73","70","75","","","","","","","","","","","","","","","",""
"430","
          <p id=""word"" style=""font-size: 40px;"">sell</p>
          <p style=""font-size: 16px;"">J = YES &nbsp;&nbsp;&nbsp; F = NO</p>
        ","j","html-keyboard-response","367","2.1.0","379541","J=YES, F=NO","5dpfnes5wq","1","73","70","75","","","","","","","","","sell","gold1","literal","experimental","j","true","",""
"null","<p style=""font-size: 50px;"">+</p>","null","html-keyboard-response","368","2.1.0","379845","J=YES, F=NO","5dpfnes5wq","1","73","70","75","","","","","","","","","","","","","","","",""
"null","audio/beep-329314.mp3","null","audio-keyboard-response","369","2.1.0","381371","J=YES, F=NO","5dpfnes5wq","1","73","70","75","","","","","","","","","","","","","","","",""
"null","audio/devil1.wav","null","audio-keyboard-response","370","2.1.0","381771","J=YES, F=NO","5dpfnes5wq","1","73","70","75","","","","","","","","","","","","","","","",""
"451","
          <p id=""word"" style=""font-size: 40px;"">carry</p>
          <p style=""font-size: 16px;"">J = YES &nbsp;&nbsp;&nbsp; F = NO</p>
        ","j","html-keyboard-response","371","2.1.0","382223","J=YES, F=NO","5dpfnes5wq","1","73","70","75","","","","","","","","","carry","devil1","unrelated","experimental","j","true","",""
"null","<p style=""font-size: 50px;"">+</p>","null","html-keyboard-response","372","2.1.0","382523","J=YES, F=NO","5dpfnes5wq","1","73","70","75","","","","","","","","","","","","","","","",""
"null","audio/beep-329314.mp3","null","audio-keyboard-response","373","2.1.0","384051","J=YES, F=NO","5dpfnes5wq","1","73","70","75","","","","","","","","","","","","","","","",""
"null","audio/hawk1.wav","null","audio-keyboard-response","374","2.1.0","384771","J=YES, F=NO","5dpfnes5wq","1","73","70","75","","","","","","","","","","","","","","","",""
"538","
          <p id=""word"" style=""font-size: 40px;"">ostach</p>
          <p style=""font-size: 16px;"">J = YES &nbsp;&nbsp;&nbsp; F = NO</p>
        ","f","html-keyboard-response","375","2.1.0","385309","J=YES, F=NO","5dpfnes5wq","1","73","70","75","","","","","","","","","ostach","hawk1","pseudoword","pseudoword","f","true","",""
"null","<p style=""font-size: 50px;"">+</p>","null","html-keyboard-response","376","2.1.0","385612","J=YES, F=NO","5dpfnes5wq","1","73","70","75","","","","","","","","","","","","","","","",""
"null","audio/beep-329314.mp3","null","audio-keyboard-response","377","2.1.0","387151","J=YES, F=NO","5dpfnes5wq","1","73","70","75","","","","","","","","","","","","","","","",""
"null","audio/tax1.wav","null","audio-keyboard-response","378","2.1.0","387891","J=YES, F=NO","5dpfnes5wq","1","73","70","75","","","","","","","","","","","","","","","",""
"604","
          <p id=""word"" style=""font-size: 40px;"">snate</p>
          <p style=""font-size: 16px;"">J = YES &nbsp;&nbsp;&nbsp; F = NO</p>
        ","f","html-keyboard-response","379","2.1.0","388496","J=YES, F=NO","5dpfnes5wq","1","73","70","75","","","","","","","","","snate","tax1","pseudoword","pseudoword","f","true","",""
"null","<p style=""font-size: 50px;"">+</p>","null","html-keyboard-response","380","2.1.0","388797","J=YES, F=NO","5dpfnes5wq","1","73","70","75","","","","","","","","","","","","","","","",""
"null","audio/beep-329314.mp3","null","audio-keyboard-response","381","2.1.0","390331","J=YES, F=NO","5dpfnes5wq","1","73","70","75","","","","","","","","","","","","","","","",""
"null","audio/skin1.wav","null","audio-keyboard-response","382","2.1.0","390891","J=YES, F=NO","5dpfnes5wq","1","73","70","75","","","","","","","","","","","","","","","",""
"559","
          <p id=""word"" style=""font-size: 40px;"">expose</p>
          <p style=""font-size: 16px;"">J = YES &nbsp;&nbsp;&nbsp; F = NO</p>
        ","j","html-keyboard-response","383","2.1.0","391450","J=YES, F=NO","5dpfnes5wq","1","73","70","75","","","","","","","","","expose","skin1","literal","experimental","j","true","",""
"null","<p style=""font-size: 50px;"">+</p>","null","html-keyboard-response","384","2.1.0","391751","J=YES, F=NO","5dpfnes5wq","1","73","70","75","","","","","","","","","","","","","","","",""
"null","audio/beep-329314.mp3","null","audio-keyboard-response","385","2.1.0","393291","J=YES, F=NO","5dpfnes5wq","1","73","70","75","","","","","","","","","","","","","","","",""
"null","audio/floor.wav","null","audio-keyboard-response","386","2.1.0","393971","J=YES, F=NO","5dpfnes5wq","1","73","70","75","","","","","","","","","","","","","","","",""
"615","
          <p id=""word"" style=""font-size: 40px;"">mop</p>
          <p style=""font-size: 16px;"">J = YES &nbsp;&nbsp;&nbsp; F = NO</p>
        ","j","html-keyboard-response","387","2.1.0","394586","J=YES, F=NO","5dpfnes5wq","1","73","70","75","","","","","","","","","mop","floor","filler","filler","j","true","",""
"null","<p style=""font-size: 50px;"">+</p>","null","html-keyboard-response","388","2.1.0","394896","J=YES, F=NO","5dpfnes5wq","1","73","70","75","","","","","","","","","","","","","","","",""
"null","audio/beep-329314.mp3","null","audio-keyboard-response","389","2.1.0","396431","J=YES, F=NO","5dpfnes5wq","1","73","70","75","","","","","","","","","","","","","","","",""
"null","audio/handle.wav","null","audio-keyboard-response","390","2.1.0","397091","J=YES, F=NO","5dpfnes5wq","1","73","70","75","","","","","","","","","","","","","","","",""
"656","
          <p id=""word"" style=""font-size: 40px;"">moutes</p>
          <p style=""font-size: 16px;"">J = YES &nbsp;&nbsp;&nbsp; F = NO</p>
        ","f","html-keyboard-response","391","2.1.0","397747","J=YES, F=NO","5dpfnes5wq","1","73","70","75","","","","","","","","","moutes","handle","pseudoword","pseudoword","f","true","",""
