"rt","stimulus","response","trial_type","trial_index","plugin_version","time_elapsed","response_mapping","subject_id","list_index","lextale_score","lextale_word_score","lextale_nonword_score","success","timeout","failed_images","failed_audio","failed_video","task","isWord","isDummy","target","prime","prime_type","stimulus_type","correct_response","correct","section","question_order"
"17122","
    <div style=""max-width: 800px; margin: auto; text-align: left;"">
      <h2>STANFORD UNIVERSITY</h2>
      <h3>Research Information Sheet</h3>
      <p><strong>Protocol Director:</strong> Robert Hawkins<br>
      <strong>Protocol Title:</strong> Communication and social cognition in natural audiovisual contexts<br>
      <strong>IRB#:</strong> 77226</p>

      <p><strong>DESCRIPTION:</strong> You are invited to participate in a research study about language and communication. The purpose of the research is to understand how you interact and communicate with other people in naturalistic settings as a fluent English speaker. This research will be conducted through the Prolific platform, including participants from the US, UK, and Canada. If you decide to participate in this research, you will play a communication game in a group with one or more partners.</p>

      <p><strong>TIME INVOLVEMENT:</strong> The task will last the amount of time advertised on Prolific. You are free to withdraw from the study at any time.</p>

      <p><strong>RISKS AND BENEFITS:</strong> You may become frustrated if your partner gets distracted, or experience discomfort if other participants in your group send text that is inappropriate for the task. We ask you to please be respectful of other participants you might be interacting with to mitigate these risks. You may also experience discomfort when being asked to discuss or challenge emotionally salient political beliefs. Study data will be stored securely, in compliance with Stanford University standards, minimizing the risk of confidentiality breach. This study advances our scientific understanding of how people communicate and collaborate in naturalistic settings. This study may lead to further insights about what can go wrong in teamwork, suggest potential interventions to overcome these barriers, and help to develop assistive technologies that collaborate with human partners. We cannot and do not guarantee or promise that you will receive any benefits from this study.</p>

      <p><strong>PAYMENTS:</strong> You will receive payment in the amount advertised on Prolific. If you do not complete this study, you will receive prorated payment based on the time that you have spent. Additionally, you may be eligible for bonus payments as described in the instructions.</p>

      <p><strong>PARTICIPANT’S RIGHTS:</strong> If you have read this form and have decided to participate in this project, please understand your participation is voluntary and you have the right to withdraw your consent or discontinue participation at any time without penalty or loss of benefits to which you are otherwise entitled. The alternative is not to participate. You have the right to refuse to answer particular questions. The results of this research study may be presented at scientific or professional meetings or published in scientific journals. Your individual privacy will be maintained in all published and written data resulting from the study. In accordance with scientific norms, the data from this study may be used or shared with other researchers for future research (after removing personally identifying information) without additional consent from you.</p>

      <p><strong>CONTACT INFORMATION:</strong><br>
      Questions: If you have any questions, concerns or complaints about this research, its procedures, risks and benefits, contact the Protocol Director, Robert Hawkins (<a href=""mailto:rdhawkins@stanford.edu"">rdhawkins@stanford.edu</a>, 217-549-6923).<br>
      Independent Contact: If you are not satisfied with how this study is being conducted, or if you have any concerns, complaints, or general questions about the research or your rights as a participant, please contact the Stanford Institutional Review Board (IRB) to speak to someone independent of the research team at 650-723-2480 or toll free at 1-866-680-2906, or email at <a href=""mailto:irbnon-med@stanford.edu"">irbnon-med@stanford.edu</a>. You can also write to the Stanford IRB, Stanford University, 1705 El Camino Real, Palo Alto, CA 94306.</p>

      <p><strong>Please save or print a copy of this page for your records.</strong></p>
      <p>If you agree to participate in this research, click ""Continue"" below.</p>
    </div>
  ","0","html-button-response","0","2.1.0","17225","F=YES, J=NO","62u9ah5428","2","68","55","80","","","","","","","","","","","","","","","",""
"21330","
    <div style=""max-width: 800px; margin: auto; text-align: left;"">
      <h2>Welcome!</h2>
      <p>Thank you for participating in this study. The experiment consists of three parts:</p>
      <ol>
        <li>An English vocabulary test</li>
        <li>A main task in which you will hear and see words, and decide whether the written word is a real English word</li>
        <li>A brief survey about your background</li>
      </ol>
      <p>Each part will be introduced before it begins.</p>
      <p>Please make sure you are in a quiet environment and can hear audio clearly for the final task.</p>
      <p style=""margin-top: 2em;"">Press any key to begin.</p>
    </div>
  ","s","html-keyboard-response","1","2.1.0","38558","F=YES, J=NO","62u9ah5428","2","68","55","80","","","","","","","","","","","","","","","",""
"","","","preload","2","2.1.0","39874","F=YES, J=NO","62u9ah5428","2","68","55","80","true","false","[]","[]","[]","","","","","","","","","","",""
"11282","
    <div style=""max-width: 800px; margin: auto; text-align: left;"">
      <h2>Part 1: Vocabulary Test</h2>
      <p>You will now complete the first part of the study: a short English vocabulary test.</p>
      <p>This test is called <strong>LexTALE</strong> and helps us get a general sense of your English proficiency.</p>
      <p style=""margin-top: 2em;"">Press any key to continue.</p>
    </div>
  ","s","html-keyboard-response","3","2.1.0","51157","F=YES, J=NO","62u9ah5428","2","68","55","80","","","","","","","","","","","","","","","",""
"9431","
    <div style=""max-width: 800px; margin: auto; text-align: left;"">
      <h2>LexTALE Vocabulary Test</h2>
      <p>In this test, you will see a series of letter strings—one at a time.</p>
      <p>Your task is to decide whether each string is a real English word.</p>
      <p><strong>Key responses:</strong></p>
      <ul>
        <li><strong>F</strong> = YES (real English word)</li>
        <li><strong>J</strong> = NO (not a real English word)</li>
      </ul>
      <p>There is no time limit, but please try to be accurate.</p>
      <p style=""margin-top: 2em;"">Press any key to begin.</p>
    </div>
  ","d","html-keyboard-response","4","2.1.0","60590","F=YES, J=NO","62u9ah5428","2","68","55","80","","","","","","","","","","","","","","","",""
"3343","
  <p style=""font-size: 40px;"">platery</p>
  <p style=""font-size: 16px;"">F = YES &nbsp;&nbsp;&nbsp; J = NO</p>
","f","html-keyboard-response","5","2.1.0","63934","F=YES, J=NO","62u9ah5428","2","68","55","80","","","","","","lextale","false","true","","","","","","","",""
"911","
  <p style=""font-size: 40px;"">denial</p>
  <p style=""font-size: 16px;"">F = YES &nbsp;&nbsp;&nbsp; J = NO</p>
","f","html-keyboard-response","6","2.1.0","64845","F=YES, J=NO","62u9ah5428","2","68","55","80","","","","","","lextale","true","true","","","","","","","",""
"991","
  <p style=""font-size: 40px;"">marrit</p>
  <p style=""font-size: 16px;"">F = YES &nbsp;&nbsp;&nbsp; J = NO</p>
","j","html-keyboard-response","7","2.1.0","65837","F=YES, J=NO","62u9ah5428","2","68","55","80","","","","","","lextale","false","true","","","","","","","",""
"807","
  <p style=""font-size: 40px;"">bottle</p>
  <p style=""font-size: 16px;"">F = YES &nbsp;&nbsp;&nbsp; J = NO</p>
","f","html-keyboard-response","8","2.1.0","66645","F=YES, J=NO","62u9ah5428","2","68","55","80","","","","","","lextale","true","false","","","","","","","",""
"1583","
  <p style=""font-size: 40px;"">birst</p>
  <p style=""font-size: 16px;"">F = YES &nbsp;&nbsp;&nbsp; J = NO</p>
","j","html-keyboard-response","9","2.1.0","68230","F=YES, J=NO","62u9ah5428","2","68","55","80","","","","","","lextale","false","false","","","","","","","",""
"839","
  <p style=""font-size: 40px;"">envy</p>
  <p style=""font-size: 16px;"">F = YES &nbsp;&nbsp;&nbsp; J = NO</p>
","f","html-keyboard-response","10","2.1.0","69070","F=YES, J=NO","62u9ah5428","2","68","55","80","","","","","","lextale","true","false","","","","","","","",""
"887","
  <p style=""font-size: 40px;"">brang</p>
  <p style=""font-size: 16px;"">F = YES &nbsp;&nbsp;&nbsp; J = NO</p>
","j","html-keyboard-response","11","2.1.0","69957","F=YES, J=NO","62u9ah5428","2","68","55","80","","","","","","lextale","false","false","","","","","","","",""
"831","
  <p style=""font-size: 40px;"">huge</p>
  <p style=""font-size: 16px;"">F = YES &nbsp;&nbsp;&nbsp; J = NO</p>
","f","html-keyboard-response","12","2.1.0","70789","F=YES, J=NO","62u9ah5428","2","68","55","80","","","","","","lextale","true","false","","","","","","","",""
"1175","
  <p style=""font-size: 40px;"">plove</p>
  <p style=""font-size: 16px;"">F = YES &nbsp;&nbsp;&nbsp; J = NO</p>
","j","html-keyboard-response","13","2.1.0","71965","F=YES, J=NO","62u9ah5428","2","68","55","80","","","","","","lextale","false","false","","","","","","","",""
"936","
  <p style=""font-size: 40px;"">border</p>
  <p style=""font-size: 16px;"">F = YES &nbsp;&nbsp;&nbsp; J = NO</p>
","f","html-keyboard-response","14","2.1.0","72902","F=YES, J=NO","62u9ah5428","2","68","55","80","","","","","","lextale","true","false","","","","","","","",""
"854","
  <p style=""font-size: 40px;"">flimsy</p>
  <p style=""font-size: 16px;"">F = YES &nbsp;&nbsp;&nbsp; J = NO</p>
","j","html-keyboard-response","15","2.1.0","73757","F=YES, J=NO","62u9ah5428","2","68","55","80","","","","","","lextale","true","false","","","","","","","",""
"975","
  <p style=""font-size: 40px;"">drain</p>
  <p style=""font-size: 16px;"">F = YES &nbsp;&nbsp;&nbsp; J = NO</p>
","f","html-keyboard-response","16","2.1.0","74733","F=YES, J=NO","62u9ah5428","2","68","55","80","","","","","","lextale","true","false","","","","","","","",""
"1263","
  <p style=""font-size: 40px;"">twindle</p>
  <p style=""font-size: 16px;"">F = YES &nbsp;&nbsp;&nbsp; J = NO</p>
","j","html-keyboard-response","17","2.1.0","75997","F=YES, J=NO","62u9ah5428","2","68","55","80","","","","","","lextale","false","false","","","","","","","",""
"703","
  <p style=""font-size: 40px;"">propose</p>
  <p style=""font-size: 16px;"">F = YES &nbsp;&nbsp;&nbsp; J = NO</p>
","f","html-keyboard-response","18","2.1.0","76701","F=YES, J=NO","62u9ah5428","2","68","55","80","","","","","","lextale","true","false","","","","","","","",""
"1103","
  <p style=""font-size: 40px;"">forlay</p>
  <p style=""font-size: 16px;"">F = YES &nbsp;&nbsp;&nbsp; J = NO</p>
","j","html-keyboard-response","19","2.1.0","77805","F=YES, J=NO","62u9ah5428","2","68","55","80","","","","","","lextale","false","false","","","","","","","",""
"1167","
  <p style=""font-size: 40px;"">tenant</p>
  <p style=""font-size: 16px;"">F = YES &nbsp;&nbsp;&nbsp; J = NO</p>
","f","html-keyboard-response","20","2.1.0","78973","F=YES, J=NO","62u9ah5428","2","68","55","80","","","","","","lextale","true","false","","","","","","","",""
"800","
  <p style=""font-size: 40px;"">strain</p>
  <p style=""font-size: 16px;"">F = YES &nbsp;&nbsp;&nbsp; J = NO</p>
","f","html-keyboard-response","21","2.1.0","79774","F=YES, J=NO","62u9ah5428","2","68","55","80","","","","","","lextale","true","false","","","","","","","",""
"991","
  <p style=""font-size: 40px;"">holster</p>
  <p style=""font-size: 16px;"">F = YES &nbsp;&nbsp;&nbsp; J = NO</p>
","f","html-keyboard-response","22","2.1.0","80766","F=YES, J=NO","62u9ah5428","2","68","55","80","","","","","","lextale","true","false","","","","","","","",""
"1351","
  <p style=""font-size: 40px;"">hinder</p>
  <p style=""font-size: 16px;"">F = YES &nbsp;&nbsp;&nbsp; J = NO</p>
","j","html-keyboard-response","23","2.1.0","82118","F=YES, J=NO","62u9ah5428","2","68","55","80","","","","","","lextale","true","false","","","","","","","",""
"1815","
  <p style=""font-size: 40px;"">swindle</p>
  <p style=""font-size: 16px;"">F = YES &nbsp;&nbsp;&nbsp; J = NO</p>
","j","html-keyboard-response","24","2.1.0","83934","F=YES, J=NO","62u9ah5428","2","68","55","80","","","","","","lextale","true","false","","","","","","","",""
"1383","
  <p style=""font-size: 40px;"">nuder</p>
  <p style=""font-size: 16px;"">F = YES &nbsp;&nbsp;&nbsp; J = NO</p>
","j","html-keyboard-response","25","2.1.0","85318","F=YES, J=NO","62u9ah5428","2","68","55","80","","","","","","lextale","false","false","","","","","","","",""
"792","
  <p style=""font-size: 40px;"">pillow</p>
  <p style=""font-size: 16px;"">F = YES &nbsp;&nbsp;&nbsp; J = NO</p>
","f","html-keyboard-response","26","2.1.0","86110","F=YES, J=NO","62u9ah5428","2","68","55","80","","","","","","lextale","true","false","","","","","","","",""
"919","
  <p style=""font-size: 40px;"">shumble</p>
  <p style=""font-size: 16px;"">F = YES &nbsp;&nbsp;&nbsp; J = NO</p>
","j","html-keyboard-response","27","2.1.0","87030","F=YES, J=NO","62u9ah5428","2","68","55","80","","","","","","lextale","false","false","","","","","","","",""
"911","
  <p style=""font-size: 40px;"">thirst</p>
  <p style=""font-size: 16px;"">F = YES &nbsp;&nbsp;&nbsp; J = NO</p>
","f","html-keyboard-response","28","2.1.0","87941","F=YES, J=NO","62u9ah5428","2","68","55","80","","","","","","lextale","true","false","","","","","","","",""
"1584","
  <p style=""font-size: 40px;"">unsail</p>
  <p style=""font-size: 16px;"">F = YES &nbsp;&nbsp;&nbsp; J = NO</p>
","j","html-keyboard-response","29","2.1.0","89526","F=YES, J=NO","62u9ah5428","2","68","55","80","","","","","","lextale","false","false","","","","","","","",""
"727","
  <p style=""font-size: 40px;"">rifle</p>
  <p style=""font-size: 16px;"">F = YES &nbsp;&nbsp;&nbsp; J = NO</p>
","f","html-keyboard-response","30","2.1.0","90253","F=YES, J=NO","62u9ah5428","2","68","55","80","","","","","","lextale","true","false","","","","","","","",""
"760","
  <p style=""font-size: 40px;"">mush</p>
  <p style=""font-size: 16px;"">F = YES &nbsp;&nbsp;&nbsp; J = NO</p>
","f","html-keyboard-response","31","2.1.0","91014","F=YES, J=NO","62u9ah5428","2","68","55","80","","","","","","lextale","false","false","","","","","","","",""
"528","
  <p style=""font-size: 40px;"">drench</p>
  <p style=""font-size: 16px;"">F = YES &nbsp;&nbsp;&nbsp; J = NO</p>
","f","html-keyboard-response","32","2.1.0","91542","F=YES, J=NO","62u9ah5428","2","68","55","80","","","","","","lextale","true","false","","","","","","","",""
"478","
  <p style=""font-size: 40px;"">snirt</p>
  <p style=""font-size: 16px;"">F = YES &nbsp;&nbsp;&nbsp; J = NO</p>
","f","html-keyboard-response","33","2.1.0","92021","F=YES, J=NO","62u9ah5428","2","68","55","80","","","","","","lextale","false","false","","","","","","","",""
"392","
  <p style=""font-size: 40px;"">bitter</p>
  <p style=""font-size: 16px;"">F = YES &nbsp;&nbsp;&nbsp; J = NO</p>
","f","html-keyboard-response","34","2.1.0","92414","F=YES, J=NO","62u9ah5428","2","68","55","80","","","","","","lextale","true","false","","","","","","","",""
"743","
  <p style=""font-size: 40px;"">pliff</p>
  <p style=""font-size: 16px;"">F = YES &nbsp;&nbsp;&nbsp; J = NO</p>
","j","html-keyboard-response","35","2.1.0","93158","F=YES, J=NO","62u9ah5428","2","68","55","80","","","","","","lextale","false","false","","","","","","","",""
"912","
  <p style=""font-size: 40px;"">tablet</p>
  <p style=""font-size: 16px;"">F = YES &nbsp;&nbsp;&nbsp; J = NO</p>
","f","html-keyboard-response","36","2.1.0","94070","F=YES, J=NO","62u9ah5428","2","68","55","80","","","","","","lextale","true","false","","","","","","","",""
"879","
  <p style=""font-size: 40px;"">glimmer</p>
  <p style=""font-size: 16px;"">F = YES &nbsp;&nbsp;&nbsp; J = NO</p>
","j","html-keyboard-response","37","2.1.0","94949","F=YES, J=NO","62u9ah5428","2","68","55","80","","","","","","lextale","true","false","","","","","","","",""
"648","
  <p style=""font-size: 40px;"">slink</p>
  <p style=""font-size: 16px;"">F = YES &nbsp;&nbsp;&nbsp; J = NO</p>
","j","html-keyboard-response","38","2.1.0","95597","F=YES, J=NO","62u9ah5428","2","68","55","80","","","","","","lextale","true","false","","","","","","","",""
"616","
  <p style=""font-size: 40px;"">clever</p>
  <p style=""font-size: 16px;"">F = YES &nbsp;&nbsp;&nbsp; J = NO</p>
","f","html-keyboard-response","39","2.1.0","96214","F=YES, J=NO","62u9ah5428","2","68","55","80","","","","","","lextale","true","false","","","","","","","",""
"792","
  <p style=""font-size: 40px;"">grum</p>
  <p style=""font-size: 16px;"">F = YES &nbsp;&nbsp;&nbsp; J = NO</p>
","j","html-keyboard-response","40","2.1.0","97006","F=YES, J=NO","62u9ah5428","2","68","55","80","","","","","","lextale","false","false","","","","","","","",""
"590","
  <p style=""font-size: 40px;"">string</p>
  <p style=""font-size: 16px;"">F = YES &nbsp;&nbsp;&nbsp; J = NO</p>
","j","html-keyboard-response","41","2.1.0","97597","F=YES, J=NO","62u9ah5428","2","68","55","80","","","","","","lextale","true","false","","","","","","","",""
"2376","
  <p style=""font-size: 40px;"">plim</p>
  <p style=""font-size: 16px;"">F = YES &nbsp;&nbsp;&nbsp; J = NO</p>
","f","html-keyboard-response","42","2.1.0","99974","F=YES, J=NO","62u9ah5428","2","68","55","80","","","","","","lextale","false","false","","","","","","","",""
"711","
  <p style=""font-size: 40px;"">cable</p>
  <p style=""font-size: 16px;"">F = YES &nbsp;&nbsp;&nbsp; J = NO</p>
","f","html-keyboard-response","43","2.1.0","100685","F=YES, J=NO","62u9ah5428","2","68","55","80","","","","","","lextale","true","false","","","","","","","",""
"1103","
  <p style=""font-size: 40px;"">shrivel</p>
  <p style=""font-size: 16px;"">F = YES &nbsp;&nbsp;&nbsp; J = NO</p>
","f","html-keyboard-response","44","2.1.0","101790","F=YES, J=NO","62u9ah5428","2","68","55","80","","","","","","lextale","true","false","","","","","","","",""
"703","
  <p style=""font-size: 40px;"">tarnish</p>
  <p style=""font-size: 16px;"">F = YES &nbsp;&nbsp;&nbsp; J = NO</p>
","f","html-keyboard-response","45","2.1.0","102493","F=YES, J=NO","62u9ah5428","2","68","55","80","","","","","","lextale","true","false","","","","","","","",""
"920","
  <p style=""font-size: 40px;"">blim</p>
  <p style=""font-size: 16px;"">F = YES &nbsp;&nbsp;&nbsp; J = NO</p>
","j","html-keyboard-response","46","2.1.0","103414","F=YES, J=NO","62u9ah5428","2","68","55","80","","","","","","lextale","false","false","","","","","","","",""
"663","
  <p style=""font-size: 40px;"">stifle</p>
  <p style=""font-size: 16px;"">F = YES &nbsp;&nbsp;&nbsp; J = NO</p>
","j","html-keyboard-response","47","2.1.0","104077","F=YES, J=NO","62u9ah5428","2","68","55","80","","","","","","lextale","true","false","","","","","","","",""
"592","
  <p style=""font-size: 40px;"">bint</p>
  <p style=""font-size: 16px;"">F = YES &nbsp;&nbsp;&nbsp; J = NO</p>
","j","html-keyboard-response","48","2.1.0","104669","F=YES, J=NO","62u9ah5428","2","68","55","80","","","","","","lextale","false","false","","","","","","","",""
"719","
  <p style=""font-size: 40px;"">purple</p>
  <p style=""font-size: 16px;"">F = YES &nbsp;&nbsp;&nbsp; J = NO</p>
","f","html-keyboard-response","49","2.1.0","105389","F=YES, J=NO","62u9ah5428","2","68","55","80","","","","","","lextale","true","false","","","","","","","",""
"768","
  <p style=""font-size: 40px;"">wriggle</p>
  <p style=""font-size: 16px;"">F = YES &nbsp;&nbsp;&nbsp; J = NO</p>
","f","html-keyboard-response","50","2.1.0","106158","F=YES, J=NO","62u9ah5428","2","68","55","80","","","","","","lextale","true","false","","","","","","","",""
"759","
  <p style=""font-size: 40px;"">mangle</p>
  <p style=""font-size: 16px;"">F = YES &nbsp;&nbsp;&nbsp; J = NO</p>
","j","html-keyboard-response","51","2.1.0","106917","F=YES, J=NO","62u9ah5428","2","68","55","80","","","","","","lextale","true","false","","","","","","","",""
"696","
  <p style=""font-size: 40px;"">shramp</p>
  <p style=""font-size: 16px;"">F = YES &nbsp;&nbsp;&nbsp; J = NO</p>
","j","html-keyboard-response","52","2.1.0","107614","F=YES, J=NO","62u9ah5428","2","68","55","80","","","","","","lextale","false","false","","","","","","","",""
"615","
  <p style=""font-size: 40px;"">flirt</p>
  <p style=""font-size: 16px;"">F = YES &nbsp;&nbsp;&nbsp; J = NO</p>
","j","html-keyboard-response","53","2.1.0","108229","F=YES, J=NO","62u9ah5428","2","68","55","80","","","","","","lextale","true","false","","","","","","","",""
"776","
  <p style=""font-size: 40px;"">frip</p>
  <p style=""font-size: 16px;"">F = YES &nbsp;&nbsp;&nbsp; J = NO</p>
","j","html-keyboard-response","54","2.1.0","109006","F=YES, J=NO","62u9ah5428","2","68","55","80","","","","","","lextale","false","false","","","","","","","",""
"807","
  <p style=""font-size: 40px;"">tangle</p>
  <p style=""font-size: 16px;"">F = YES &nbsp;&nbsp;&nbsp; J = NO</p>
","j","html-keyboard-response","55","2.1.0","109814","F=YES, J=NO","62u9ah5428","2","68","55","80","","","","","","lextale","true","false","","","","","","","",""
"687","
  <p style=""font-size: 40px;"">crumble</p>
  <p style=""font-size: 16px;"">F = YES &nbsp;&nbsp;&nbsp; J = NO</p>
","j","html-keyboard-response","56","2.1.0","110501","F=YES, J=NO","62u9ah5428","2","68","55","80","","","","","","lextale","true","false","","","","","","","",""
"504","
  <p style=""font-size: 40px;"">wrinkle</p>
  <p style=""font-size: 16px;"">F = YES &nbsp;&nbsp;&nbsp; J = NO</p>
","j","html-keyboard-response","57","2.1.0","111006","F=YES, J=NO","62u9ah5428","2","68","55","80","","","","","","lextale","true","false","","","","","","","",""
"2055","
  <p style=""font-size: 40px;"">slumb</p>
  <p style=""font-size: 16px;"">F = YES &nbsp;&nbsp;&nbsp; J = NO</p>
","j","html-keyboard-response","58","2.1.0","113062","F=YES, J=NO","62u9ah5428","2","68","55","80","","","","","","lextale","false","false","","","","","","","",""
"687","
  <p style=""font-size: 40px;"">jungle</p>
  <p style=""font-size: 16px;"">F = YES &nbsp;&nbsp;&nbsp; J = NO</p>
","f","html-keyboard-response","59","2.1.0","113749","F=YES, J=NO","62u9ah5428","2","68","55","80","","","","","","lextale","true","false","","","","","","","",""
"4232","
  <p style=""font-size: 40px;"">frolick</p>
  <p style=""font-size: 16px;"">F = YES &nbsp;&nbsp;&nbsp; J = NO</p>
","j","html-keyboard-response","60","2.1.0","117981","F=YES, J=NO","62u9ah5428","2","68","55","80","","","","","","lextale","false","false","","","","","","","",""
"3719","
      <h2>LexTALE Test Completed</h2>
      <p>Your LexTALE vocabulary score is: <strong>68%</strong></p>
      <p>Press any key to continue.</p>
    "," ","html-keyboard-response","61","2.1.0","121701","F=YES, J=NO","62u9ah5428","2","68","55","80","","","","","","","","","","","","","","","",""
"1448","
    <div style=""max-width: 800px; margin: auto; text-align: left;"">
      <h2>Break Time</h2>
      <p>You have completed the first part of the study.</p>
      <p>You may take a short <strong>30-second break</strong> before continuing.</p>
      <p>When you’re ready, press any key to continue to the final task.</p>
    </div>
  "," ","html-keyboard-response","62","2.1.0","123150","F=YES, J=NO","62u9ah5428","2","68","55","80","","","","","","","","","","","","","","","",""
"974","
    <div style=""max-width: 800px; margin: auto; text-align: left;"">
      <h2>Part 2: Lexical Decision Task</h2>
      <p>You will now begin the second part of the study.</p>
      <p>Each trial will follow this sequence:</p>
      <ul>
        <li>A fixation cross (+) appears at the center of the screen.</li>
        <li>You will hear a short beep followed by a spoken word.</li>
        <li>A written word will appear briefly on the screen.</li>
      </ul>
      <p>Your task is to judge whether the <strong>written word</strong> is a real English word.</p>
      <p style=""margin-top: 1em;""><strong>Key responses:</strong></p>
      <ul>
        <li><strong>F</strong> = YES (real English word)</li>
        <li><strong>J</strong> = NO (not a real English word)</li>
      </ul>
      <p>Please respond as quickly and accurately as you can.</p>
      <p style=""margin-top: 2em;"">Press any key to continue.</p>
    </div>
  "," ","html-keyboard-response","63","2.1.0","124125","F=YES, J=NO","62u9ah5428","2","68","55","80","","","","","","","","","","","","","","","",""
"775","
    <div style=""max-width: 800px; margin: auto; text-align: left;"">
      <h2>Before You Begin</h2>
      <p>Make sure your sound is turned on.</p>
      <p>You will hear audio during each trial, but your decision should be based only on the <strong>written word</strong> you see on the screen.</p>
      <p><strong>Reminder:</strong></p>
      <ul>
        <li><strong>F</strong> = YES (real English word)</li>
        <li><strong>J</strong> = NO (not a real English word)</li>
      </ul>
      <p style=""margin-top: 2em;"">Press any key when you are ready to begin.</p>
    </div>
  "," ","html-keyboard-response","64","2.1.0","124901","F=YES, J=NO","62u9ah5428","2","68","55","80","","","","","","","","","","","","","","","",""
"832","
    <div style=""max-width: 800px; margin: auto; text-align: left;"">
      <h2>Part 2: Practice Trials</h2>
      <p>You will now complete a few <strong>practice trials</strong> to get familiar with the task.</p>
      <p>These trials are <strong>not scored</strong> and are only to help you get used to the format.</p>
      <p style=""margin-top: 2em;"">Press any key to begin.</p>
    </div>
  "," ","html-keyboard-response","65","2.1.0","125733","F=YES, J=NO","62u9ah5428","2","68","55","80","","","","","","","","","","","","","","","",""
"1848","<p>Starting practice block 1 of 2. Press any key to continue.</p>"," ","html-keyboard-response","66","2.1.0","127582","F=YES, J=NO","62u9ah5428","2","68","55","80","","","","","","","","","","","","","","","",""
"null","<p style=""font-size: 50px;"">+</p>","null","html-keyboard-response","67","2.1.0","127893","F=YES, J=NO","62u9ah5428","2","68","55","80","","","","","","","","","","","","","","","",""
"null","audio/beep-329314.mp3","null","audio-keyboard-response","68","2.1.0","129435","F=YES, J=NO","62u9ah5428","2","68","55","80","","","","","","","","","","","","","","","",""
"null","audio/foot1.wav","null","audio-keyboard-response","69","2.1.0","130024","F=YES, J=NO","62u9ah5428","2","68","55","80","","","","","","","","","","","","","","","",""
"null","
          <p id=""word"" style=""font-size: 40px;"">thrutt</p>
          <p style=""font-size: 16px;"">F = YES &nbsp;&nbsp;&nbsp; J = NO</p>
        ","null","html-keyboard-response","70","2.1.0","131539","F=YES, J=NO","62u9ah5428","2","68","55","80","","","","","","","","","thrutt","foot1","pseudoword","pseudoword","j","false","",""
"null","<p style=""font-size: 50px;"">+</p>","null","html-keyboard-response","71","2.1.0","131848","F=YES, J=NO","62u9ah5428","2","68","55","80","","","","","","","","","","","","","","","",""
"null","audio/beep-329314.mp3","null","audio-keyboard-response","72","2.1.0","133374","F=YES, J=NO","62u9ah5428","2","68","55","80","","","","","","","","","","","","","","","",""
"null","audio/alarm1.wav","null","audio-keyboard-response","73","2.1.0","133964","F=YES, J=NO","62u9ah5428","2","68","55","80","","","","","","","","","","","","","","","",""
"217","
          <p id=""word"" style=""font-size: 40px;"">lock</p>
          <p style=""font-size: 16px;"">F = YES &nbsp;&nbsp;&nbsp; J = NO</p>
        ","f","html-keyboard-response","74","2.1.0","134181","F=YES, J=NO","62u9ah5428","2","68","55","80","","","","","","","","","lock","alarm1","filler","filler","f","true","",""
"null","<p style=""font-size: 50px;"">+</p>","null","html-keyboard-response","75","2.1.0","134490","F=YES, J=NO","62u9ah5428","2","68","55","80","","","","","","","","","","","","","","","",""
"null","audio/beep-329314.mp3","null","audio-keyboard-response","76","2.1.0","136014","F=YES, J=NO","62u9ah5428","2","68","55","80","","","","","","","","","","","","","","","",""
"null","audio/key1.wav","null","audio-keyboard-response","77","2.1.0","136484","F=YES, J=NO","62u9ah5428","2","68","55","80","","","","","","","","","","","","","","","",""
"552","
          <p id=""word"" style=""font-size: 40px;"">sminsh</p>
          <p style=""font-size: 16px;"">F = YES &nbsp;&nbsp;&nbsp; J = NO</p>
        ","j","html-keyboard-response","78","2.1.0","137037","F=YES, J=NO","62u9ah5428","2","68","55","80","","","","","","","","","sminsh","key1","pseudoword","pseudoword","j","true","",""
"null","<p style=""font-size: 50px;"">+</p>","null","html-keyboard-response","79","2.1.0","137348","F=YES, J=NO","62u9ah5428","2","68","55","80","","","","","","","","","","","","","","","",""
"null","audio/beep-329314.mp3","null","audio-keyboard-response","80","2.1.0","138874","F=YES, J=NO","62u9ah5428","2","68","55","80","","","","","","","","","","","","","","","",""
"null","audio/bridge.wav","null","audio-keyboard-response","81","2.1.0","139425","F=YES, J=NO","62u9ah5428","2","68","55","80","","","","","","","","","","","","","","","",""
"323","
          <p id=""word"" style=""font-size: 40px;"">crack</p>
          <p style=""font-size: 16px;"">F = YES &nbsp;&nbsp;&nbsp; J = NO</p>
        ","j","html-keyboard-response","82","2.1.0","139749","F=YES, J=NO","62u9ah5428","2","68","55","80","","","","","","","","","crack","bridge","filler","filler","f","false","",""
"null","<p style=""font-size: 50px;"">+</p>","null","html-keyboard-response","83","2.1.0","140053","F=YES, J=NO","62u9ah5428","2","68","55","80","","","","","","","","","","","","","","","",""
"null","audio/beep-329314.mp3","null","audio-keyboard-response","84","2.1.0","141594","F=YES, J=NO","62u9ah5428","2","68","55","80","","","","","","","","","","","","","","","",""
"null","audio/emotion.wav","null","audio-keyboard-response","85","2.1.0","142244","F=YES, J=NO","62u9ah5428","2","68","55","80","","","","","","","","","","","","","","","",""
"200","
          <p id=""word"" style=""font-size: 40px;"">devering</p>
          <p style=""font-size: 16px;"">F = YES &nbsp;&nbsp;&nbsp; J = NO</p>
        ","f","html-keyboard-response","86","2.1.0","142445","F=YES, J=NO","62u9ah5428","2","68","55","80","","","","","","","","","devering","emotion","pseudoword","pseudoword","j","false","",""
"null","<p style=""font-size: 50px;"">+</p>","null","html-keyboard-response","87","2.1.0","142757","F=YES, J=NO","62u9ah5428","2","68","55","80","","","","","","","","","","","","","","","",""
"null","audio/beep-329314.mp3","null","audio-keyboard-response","88","2.1.0","144295","F=YES, J=NO","62u9ah5428","2","68","55","80","","","","","","","","","","","","","","","",""
"null","audio/kettle1.wav","null","audio-keyboard-response","89","2.1.0","144884","F=YES, J=NO","62u9ah5428","2","68","55","80","","","","","","","","","","","","","","","",""
"233","
          <p id=""word"" style=""font-size: 40px;"">wrap</p>
          <p style=""font-size: 16px;"">F = YES &nbsp;&nbsp;&nbsp; J = NO</p>
        ","f","html-keyboard-response","90","2.1.0","145118","F=YES, J=NO","62u9ah5428","2","68","55","80","","","","","","","","","wrap","kettle1","filler","filler","f","true","",""
"null","<p style=""font-size: 50px;"">+</p>","null","html-keyboard-response","91","2.1.0","145431","F=YES, J=NO","62u9ah5428","2","68","55","80","","","","","","","","","","","","","","","",""
"null","audio/beep-329314.mp3","null","audio-keyboard-response","92","2.1.0","146955","F=YES, J=NO","62u9ah5428","2","68","55","80","","","","","","","","","","","","","","","",""
"null","audio/trout1.wav","null","audio-keyboard-response","93","2.1.0","147544","F=YES, J=NO","62u9ah5428","2","68","55","80","","","","","","","","","","","","","","","",""
"302","
          <p id=""word"" style=""font-size: 40px;"">spimt</p>
          <p style=""font-size: 16px;"">F = YES &nbsp;&nbsp;&nbsp; J = NO</p>
        ","j","html-keyboard-response","94","2.1.0","147847","F=YES, J=NO","62u9ah5428","2","68","55","80","","","","","","","","","spimt","trout1","pseudoword","pseudoword","j","true","",""
"null","<p style=""font-size: 50px;"">+</p>","null","html-keyboard-response","95","2.1.0","148149","F=YES, J=NO","62u9ah5428","2","68","55","80","","","","","","","","","","","","","","","",""
"null","audio/beep-329314.mp3","null","audio-keyboard-response","96","2.1.0","149674","F=YES, J=NO","62u9ah5428","2","68","55","80","","","","","","","","","","","","","","","",""
"null","audio/breath.wav","null","audio-keyboard-response","97","2.1.0","150244","F=YES, J=NO","62u9ah5428","2","68","55","80","","","","","","","","","","","","","","","",""
"225","
          <p id=""word"" style=""font-size: 40px;"">twets</p>
          <p style=""font-size: 16px;"">F = YES &nbsp;&nbsp;&nbsp; J = NO</p>
        ","j","html-keyboard-response","98","2.1.0","150470","F=YES, J=NO","62u9ah5428","2","68","55","80","","","","","","","","","twets","breath","pseudoword","pseudoword","j","true","",""
"null","<p style=""font-size: 50px;"">+</p>","null","html-keyboard-response","99","2.1.0","150771","F=YES, J=NO","62u9ah5428","2","68","55","80","","","","","","","","","","","","","","","",""
"null","audio/beep-329314.mp3","null","audio-keyboard-response","100","2.1.0","152295","F=YES, J=NO","62u9ah5428","2","68","55","80","","","","","","","","","","","","","","","",""
"null","audio/dome.wav","null","audio-keyboard-response","101","2.1.0","152844","F=YES, J=NO","62u9ah5428","2","68","55","80","","","","","","","","","","","","","","","",""
"281","
          <p id=""word"" style=""font-size: 40px;"">scrupliness</p>
          <p style=""font-size: 16px;"">F = YES &nbsp;&nbsp;&nbsp; J = NO</p>
        ","j","html-keyboard-response","102","2.1.0","153126","F=YES, J=NO","62u9ah5428","2","68","55","80","","","","","","","","","scrupliness","dome","pseudoword","pseudoword","j","true","",""
"null","<p style=""font-size: 50px;"">+</p>","null","html-keyboard-response","103","2.1.0","153430","F=YES, J=NO","62u9ah5428","2","68","55","80","","","","","","","","","","","","","","","",""
"null","audio/beep-329314.mp3","null","audio-keyboard-response","104","2.1.0","154954","F=YES, J=NO","62u9ah5428","2","68","55","80","","","","","","","","","","","","","","","",""
"null","audio/budget1.wav","null","audio-keyboard-response","105","2.1.0","155564","F=YES, J=NO","62u9ah5428","2","68","55","80","","","","","","","","","","","","","","","",""
"321","
          <p id=""word"" style=""font-size: 40px;"">sulist</p>
          <p style=""font-size: 16px;"">F = YES &nbsp;&nbsp;&nbsp; J = NO</p>
        ","f","html-keyboard-response","106","2.1.0","155885","F=YES, J=NO","62u9ah5428","2","68","55","80","","","","","","","","","sulist","budget1","pseudoword","pseudoword","j","false","",""
"null","<p style=""font-size: 50px;"">+</p>","null","html-keyboard-response","107","2.1.0","156197","F=YES, J=NO","62u9ah5428","2","68","55","80","","","","","","","","","","","","","","","",""
"null","audio/beep-329314.mp3","null","audio-keyboard-response","108","2.1.0","157734","F=YES, J=NO","62u9ah5428","2","68","55","80","","","","","","","","","","","","","","","",""
"null","audio/arm.wav","null","audio-keyboard-response","109","2.1.0","158284","F=YES, J=NO","62u9ah5428","2","68","55","80","","","","","","","","","","","","","","","",""
"409","
          <p id=""word"" style=""font-size: 40px;"">fold</p>
          <p style=""font-size: 16px;"">F = YES &nbsp;&nbsp;&nbsp; J = NO</p>
        ","f","html-keyboard-response","110","2.1.0","158693","F=YES, J=NO","62u9ah5428","2","68","55","80","","","","","","","","","fold","arm","filler","filler","f","true","",""
"null","<p style=""font-size: 50px;"">+</p>","null","html-keyboard-response","111","2.1.0","159009","F=YES, J=NO","62u9ah5428","2","68","55","80","","","","","","","","","","","","","","","",""
"null","audio/beep-329314.mp3","null","audio-keyboard-response","112","2.1.0","160534","F=YES, J=NO","62u9ah5428","2","68","55","80","","","","","","","","","","","","","","","",""
"null","audio/account1.wav","null","audio-keyboard-response","113","2.1.0","161224","F=YES, J=NO","62u9ah5428","2","68","55","80","","","","","","","","","","","","","","","",""
"269","
          <p id=""word"" style=""font-size: 40px;"">paint</p>
          <p style=""font-size: 16px;"">F = YES &nbsp;&nbsp;&nbsp; J = NO</p>
        ","f","html-keyboard-response","114","2.1.0","161494","F=YES, J=NO","62u9ah5428","2","68","55","80","","","","","","","","","paint","account1","filler","filler","f","true","",""
"2694","<p>Starting practice block 2 of 2. Press any key to continue.</p>","f","html-keyboard-response","115","2.1.0","164189","F=YES, J=NO","62u9ah5428","2","68","55","80","","","","","","","","","","","","","","","",""
"null","<p style=""font-size: 50px;"">+</p>","null","html-keyboard-response","116","2.1.0","164495","F=YES, J=NO","62u9ah5428","2","68","55","80","","","","","","","","","","","","","","","",""
"null","audio/beep-329314.mp3","null","audio-keyboard-response","117","2.1.0","166035","F=YES, J=NO","62u9ah5428","2","68","55","80","","","","","","","","","","","","","","","",""
"null","audio/road.wav","null","audio-keyboard-response","118","2.1.0","166645","F=YES, J=NO","62u9ah5428","2","68","55","80","","","","","","","","","","","","","","","",""
"440","
          <p id=""word"" style=""font-size: 40px;"">wappings</p>
          <p style=""font-size: 16px;"">F = YES &nbsp;&nbsp;&nbsp; J = NO</p>
        ","j","html-keyboard-response","119","2.1.0","167086","F=YES, J=NO","62u9ah5428","2","68","55","80","","","","","","","","","wappings","road","pseudoword","pseudoword","j","true","",""
"null","<p style=""font-size: 50px;"">+</p>","null","html-keyboard-response","120","2.1.0","167387","F=YES, J=NO","62u9ah5428","2","68","55","80","","","","","","","","","","","","","","","",""
"null","audio/beep-329314.mp3","null","audio-keyboard-response","121","2.1.0","168914","F=YES, J=NO","62u9ah5428","2","68","55","80","","","","","","","","","","","","","","","",""
"null","audio/brain.wav","null","audio-keyboard-response","122","2.1.0","169464","F=YES, J=NO","62u9ah5428","2","68","55","80","","","","","","","","","","","","","","","",""
"300","
          <p id=""word"" style=""font-size: 40px;"">throw</p>
          <p style=""font-size: 16px;"">F = YES &nbsp;&nbsp;&nbsp; J = NO</p>
        ","j","html-keyboard-response","123","2.1.0","169765","F=YES, J=NO","62u9ah5428","2","68","55","80","","","","","","","","","throw","brain","filler","filler","f","false","",""
"null","<p style=""font-size: 50px;"">+</p>","null","html-keyboard-response","124","2.1.0","170075","F=YES, J=NO","62u9ah5428","2","68","55","80","","","","","","","","","","","","","","","",""
"null","audio/beep-329314.mp3","null","audio-keyboard-response","125","2.1.0","171614","F=YES, J=NO","62u9ah5428","2","68","55","80","","","","","","","","","","","","","","","",""
"null","audio/bottle.wav","null","audio-keyboard-response","126","2.1.0","172144","F=YES, J=NO","62u9ah5428","2","68","55","80","","","","","","","","","","","","","","","",""
"373","
          <p id=""word"" style=""font-size: 40px;"">watch</p>
          <p style=""font-size: 16px;"">F = YES &nbsp;&nbsp;&nbsp; J = NO</p>
        ","f","html-keyboard-response","127","2.1.0","172518","F=YES, J=NO","62u9ah5428","2","68","55","80","","","","","","","","","watch","bottle","filler","filler","f","true","",""
"null","<p style=""font-size: 50px;"">+</p>","null","html-keyboard-response","128","2.1.0","172819","F=YES, J=NO","62u9ah5428","2","68","55","80","","","","","","","","","","","","","","","",""
"null","audio/beep-329314.mp3","null","audio-keyboard-response","129","2.1.0","174354","F=YES, J=NO","62u9ah5428","2","68","55","80","","","","","","","","","","","","","","","",""
"null","audio/belief.wav","null","audio-keyboard-response","130","2.1.0","174984","F=YES, J=NO","62u9ah5428","2","68","55","80","","","","","","","","","","","","","","","",""
"269","
          <p id=""word"" style=""font-size: 40px;"">read</p>
          <p style=""font-size: 16px;"">F = YES &nbsp;&nbsp;&nbsp; J = NO</p>
        ","f","html-keyboard-response","131","2.1.0","175254","F=YES, J=NO","62u9ah5428","2","68","55","80","","","","","","","","","read","belief","filler","filler","f","true","",""
"null","<p style=""font-size: 50px;"">+</p>","null","html-keyboard-response","132","2.1.0","175567","F=YES, J=NO","62u9ah5428","2","68","55","80","","","","","","","","","","","","","","","",""
"null","audio/beep-329314.mp3","null","audio-keyboard-response","133","2.1.0","177094","F=YES, J=NO","62u9ah5428","2","68","55","80","","","","","","","","","","","","","","","",""
"null","audio/age1.wav","null","audio-keyboard-response","134","2.1.0","177644","F=YES, J=NO","62u9ah5428","2","68","55","80","","","","","","","","","","","","","","","",""
"384","
          <p id=""word"" style=""font-size: 40px;"">bake</p>
          <p style=""font-size: 16px;"">F = YES &nbsp;&nbsp;&nbsp; J = NO</p>
        ","f","html-keyboard-response","135","2.1.0","178029","F=YES, J=NO","62u9ah5428","2","68","55","80","","","","","","","","","bake","age1","filler","filler","f","true","",""
"null","<p style=""font-size: 50px;"">+</p>","null","html-keyboard-response","136","2.1.0","178331","F=YES, J=NO","62u9ah5428","2","68","55","80","","","","","","","","","","","","","","","",""
"null","audio/beep-329314.mp3","null","audio-keyboard-response","137","2.1.0","179854","F=YES, J=NO","62u9ah5428","2","68","55","80","","","","","","","","","","","","","","","",""
"null","audio/battle1.wav","null","audio-keyboard-response","138","2.1.0","180424","F=YES, J=NO","62u9ah5428","2","68","55","80","","","","","","","","","","","","","","","",""
"317","
          <p id=""word"" style=""font-size: 40px;"">boil</p>
          <p style=""font-size: 16px;"">F = YES &nbsp;&nbsp;&nbsp; J = NO</p>
        ","f","html-keyboard-response","139","2.1.0","180742","F=YES, J=NO","62u9ah5428","2","68","55","80","","","","","","","","","boil","battle1","filler","filler","f","true","",""
"null","<p style=""font-size: 50px;"">+</p>","null","html-keyboard-response","140","2.1.0","181050","F=YES, J=NO","62u9ah5428","2","68","55","80","","","","","","","","","","","","","","","",""
"null","audio/beep-329314.mp3","null","audio-keyboard-response","141","2.1.0","182574","F=YES, J=NO","62u9ah5428","2","68","55","80","","","","","","","","","","","","","","","",""
"null","audio/winter.wav","null","audio-keyboard-response","142","2.1.0","183225","F=YES, J=NO","62u9ah5428","2","68","55","80","","","","","","","","","","","","","","","",""
"220","
          <p id=""word"" style=""font-size: 40px;"">straven</p>
          <p style=""font-size: 16px;"">F = YES &nbsp;&nbsp;&nbsp; J = NO</p>
        ","f","html-keyboard-response","143","2.1.0","183445","F=YES, J=NO","62u9ah5428","2","68","55","80","","","","","","","","","straven","winter","pseudoword","pseudoword","j","false","",""
"null","<p style=""font-size: 50px;"">+</p>","null","html-keyboard-response","144","2.1.0","183750","F=YES, J=NO","62u9ah5428","2","68","55","80","","","","","","","","","","","","","","","",""
"null","audio/beep-329314.mp3","null","audio-keyboard-response","145","2.1.0","185274","F=YES, J=NO","62u9ah5428","2","68","55","80","","","","","","","","","","","","","","","",""
"null","audio/van1.wav","null","audio-keyboard-response","146","2.1.0","185764","F=YES, J=NO","62u9ah5428","2","68","55","80","","","","","","","","","","","","","","","",""
"289","
          <p id=""word"" style=""font-size: 40px;"">push</p>
          <p style=""font-size: 16px;"">F = YES &nbsp;&nbsp;&nbsp; J = NO</p>
        ","j","html-keyboard-response","147","2.1.0","186054","F=YES, J=NO","62u9ah5428","2","68","55","80","","","","","","","","","push","van1","filler","filler","f","false","",""
"null","<p style=""font-size: 50px;"">+</p>","null","html-keyboard-response","148","2.1.0","186366","F=YES, J=NO","62u9ah5428","2","68","55","80","","","","","","","","","","","","","","","",""
"null","audio/beep-329314.mp3","null","audio-keyboard-response","149","2.1.0","187894","F=YES, J=NO","62u9ah5428","2","68","55","80","","","","","","","","","","","","","","","",""
"null","audio/pain1.wav","null","audio-keyboard-response","150","2.1.0","188324","F=YES, J=NO","62u9ah5428","2","68","55","80","","","","","","","","","","","","","","","",""
"317","
          <p id=""word"" style=""font-size: 40px;"">tritted</p>
          <p style=""font-size: 16px;"">F = YES &nbsp;&nbsp;&nbsp; J = NO</p>
        ","f","html-keyboard-response","151","2.1.0","188642","F=YES, J=NO","62u9ah5428","2","68","55","80","","","","","","","","","tritted","pain1","pseudoword","pseudoword","j","false","",""
"null","<p style=""font-size: 50px;"">+</p>","null","html-keyboard-response","152","2.1.0","188945","F=YES, J=NO","62u9ah5428","2","68","55","80","","","","","","","","","","","","","","","",""
"null","audio/beep-329314.mp3","null","audio-keyboard-response","153","2.1.0","190474","F=YES, J=NO","62u9ah5428","2","68","55","80","","","","","","","","","","","","","","","",""
"null","audio/tomato.wav","null","audio-keyboard-response","154","2.1.0","191145","F=YES, J=NO","62u9ah5428","2","68","55","80","","","","","","","","","","","","","","","",""
"379","
          <p id=""word"" style=""font-size: 40px;"">gladies</p>
          <p style=""font-size: 16px;"">F = YES &nbsp;&nbsp;&nbsp; J = NO</p>
        ","f","html-keyboard-response","155","2.1.0","191525","F=YES, J=NO","62u9ah5428","2","68","55","80","","","","","","","","","gladies","tomato","pseudoword","pseudoword","j","false","",""
"null","<p style=""font-size: 50px;"">+</p>","null","html-keyboard-response","156","2.1.0","191837","F=YES, J=NO","62u9ah5428","2","68","55","80","","","","","","","","","","","","","","","",""
"null","audio/beep-329314.mp3","null","audio-keyboard-response","157","2.1.0","193374","F=YES, J=NO","62u9ah5428","2","68","55","80","","","","","","","","","","","","","","","",""
"null","audio/topic.wav","null","audio-keyboard-response","158","2.1.0","193944","F=YES, J=NO","62u9ah5428","2","68","55","80","","","","","","","","","","","","","","","",""
"261","
          <p id=""word"" style=""font-size: 40px;"">infortuitist</p>
          <p style=""font-size: 16px;"">F = YES &nbsp;&nbsp;&nbsp; J = NO</p>
        ","f","html-keyboard-response","159","2.1.0","194206","F=YES, J=NO","62u9ah5428","2","68","55","80","","","","","","","","","infortuitist","topic","pseudoword","pseudoword","j","false","",""
"null","<p style=""font-size: 50px;"">+</p>","null","html-keyboard-response","160","2.1.0","194513","F=YES, J=NO","62u9ah5428","2","68","55","80","","","","","","","","","","","","","","","",""
"null","audio/beep-329314.mp3","null","audio-keyboard-response","161","2.1.0","196034","F=YES, J=NO","62u9ah5428","2","68","55","80","","","","","","","","","","","","","","","",""
"null","audio/camera1.wav","null","audio-keyboard-response","162","2.1.0","196584","F=YES, J=NO","62u9ah5428","2","68","55","80","","","","","","","","","","","","","","","",""
"397","
          <p id=""word"" style=""font-size: 40px;"">stir</p>
          <p style=""font-size: 16px;"">F = YES &nbsp;&nbsp;&nbsp; J = NO</p>
        ","j","html-keyboard-response","163","2.1.0","196982","F=YES, J=NO","62u9ah5428","2","68","55","80","","","","","","","","","stir","camera1","filler","filler","f","false","",""
"3551","
    <div style=""max-width: 800px; margin: auto; text-align: left;"">
      <h2>Part 2: Main Trials</h2>
      <p>Great job on the practice trials!</p>
      <p>You will now begin the <strong>main set of trials</strong>.</p>
      <p>Remember your key assignments:</p>
      <ul>
        <li><strong>F</strong> = YES (real English word)</li>
        <li><strong>J</strong> = NO (not a real English word)</li>
      </ul>
      <p>Try to respond as <strong>quickly and accurately</strong> as possible.</p>
      <p style=""margin-top: 2em;"">Press any key to begin the main trials.</p>
    </div>
  "," ","html-keyboard-response","164","2.1.0","200534","F=YES, J=NO","62u9ah5428","2","68","55","80","","","","","","","","","","","","","","","",""
"15311","<p>Starting main block 1 of 8. Press any key to continue.</p>"," ","html-keyboard-response","165","2.1.0","215845","F=YES, J=NO","62u9ah5428","2","68","55","80","","","","","","","","","","","","","","","",""
"null","<p style=""font-size: 50px;"">+</p>","null","html-keyboard-response","166","2.1.0","216146","F=YES, J=NO","62u9ah5428","2","68","55","80","","","","","","","","","","","","","","","",""
"null","audio/beep-329314.mp3","null","audio-keyboard-response","167","2.1.0","217665","F=YES, J=NO","62u9ah5428","2","68","55","80","","","","","","","","","","","","","","","",""
"null","audio/butter1.wav","null","audio-keyboard-response","168","2.1.0","218094","F=YES, J=NO","62u9ah5428","2","68","55","80","","","","","","","","","","","","","","","",""
"471","
          <p id=""word"" style=""font-size: 40px;"">chew</p>
          <p style=""font-size: 16px;"">F = YES &nbsp;&nbsp;&nbsp; J = NO</p>
        ","f","html-keyboard-response","169","2.1.0","218566","F=YES, J=NO","62u9ah5428","2","68","55","80","","","","","","","","","chew","butter1","filler","filler","f","true","",""
"null","<p style=""font-size: 50px;"">+</p>","null","html-keyboard-response","170","2.1.0","218879","F=YES, J=NO","62u9ah5428","2","68","55","80","","","","","","","","","","","","","","","",""
"null","audio/beep-329314.mp3","null","audio-keyboard-response","171","2.1.0","220404","F=YES, J=NO","62u9ah5428","2","68","55","80","","","","","","","","","","","","","","","",""
"null","audio/pig.wav","null","audio-keyboard-response","172","2.1.0","220774","F=YES, J=NO","62u9ah5428","2","68","55","80","","","","","","","","","","","","","","","",""
"350","
          <p id=""word"" style=""font-size: 40px;"">feed</p>
          <p style=""font-size: 16px;"">F = YES &nbsp;&nbsp;&nbsp; J = NO</p>
        ","f","html-keyboard-response","173","2.1.0","221125","F=YES, J=NO","62u9ah5428","2","68","55","80","","","","","","","","","feed","pig","literal","experimental","f","true","",""
"null","<p style=""font-size: 50px;"">+</p>","null","html-keyboard-response","174","2.1.0","221431","F=YES, J=NO","62u9ah5428","2","68","55","80","","","","","","","","","","","","","","","",""
"null","audio/beep-329314.mp3","null","audio-keyboard-response","175","2.1.0","222964","F=YES, J=NO","62u9ah5428","2","68","55","80","","","","","","","","","","","","","","","",""
"null","audio/cancer1.wav","null","audio-keyboard-response","176","2.1.0","223514","F=YES, J=NO","62u9ah5428","2","68","55","80","","","","","","","","","","","","","","","",""
"355","
          <p id=""word"" style=""font-size: 40px;"">draw</p>
          <p style=""font-size: 16px;"">F = YES &nbsp;&nbsp;&nbsp; J = NO</p>
        ","f","html-keyboard-response","177","2.1.0","223870","F=YES, J=NO","62u9ah5428","2","68","55","80","","","","","","","","","draw","cancer1","filler","filler","f","true","",""
"null","<p style=""font-size: 50px;"">+</p>","null","html-keyboard-response","178","2.1.0","224183","F=YES, J=NO","62u9ah5428","2","68","55","80","","","","","","","","","","","","","","","",""
"null","audio/beep-329314.mp3","null","audio-keyboard-response","179","2.1.0","225724","F=YES, J=NO","62u9ah5428","2","68","55","80","","","","","","","","","","","","","","","",""
"null","audio/foe1.wav","null","audio-keyboard-response","180","2.1.0","226234","F=YES, J=NO","62u9ah5428","2","68","55","80","","","","","","","","","","","","","","","",""
"379","
          <p id=""word"" style=""font-size: 40px;"">conquer</p>
          <p style=""font-size: 16px;"">F = YES &nbsp;&nbsp;&nbsp; J = NO</p>
        ","f","html-keyboard-response","181","2.1.0","226613","F=YES, J=NO","62u9ah5428","2","68","55","80","","","","","","","","","conquer","foe1","literal","experimental","f","true","",""
"null","<p style=""font-size: 50px;"">+</p>","null","html-keyboard-response","182","2.1.0","226919","F=YES, J=NO","62u9ah5428","2","68","55","80","","","","","","","","","","","","","","","",""
"null","audio/beep-329314.mp3","null","audio-keyboard-response","183","2.1.0","228444","F=YES, J=NO","62u9ah5428","2","68","55","80","","","","","","","","","","","","","","","",""
"null","audio/prisoner.wav","null","audio-keyboard-response","184","2.1.0","228954","F=YES, J=NO","62u9ah5428","2","68","55","80","","","","","","","","","","","","","","","",""
"386","
          <p id=""word"" style=""font-size: 40px;"">egotian</p>
          <p style=""font-size: 16px;"">F = YES &nbsp;&nbsp;&nbsp; J = NO</p>
        ","j","html-keyboard-response","185","2.1.0","229341","F=YES, J=NO","62u9ah5428","2","68","55","80","","","","","","","","","egotian","prisoner","pseudoword","pseudoword","j","true","",""
"null","<p style=""font-size: 50px;"">+</p>","null","html-keyboard-response","186","2.1.0","229642","F=YES, J=NO","62u9ah5428","2","68","55","80","","","","","","","","","","","","","","","",""
"null","audio/beep-329314.mp3","null","audio-keyboard-response","187","2.1.0","231164","F=YES, J=NO","62u9ah5428","2","68","55","80","","","","","","","","","","","","","","","",""
"null","audio/sand.wav","null","audio-keyboard-response","188","2.1.0","231814","F=YES, J=NO","62u9ah5428","2","68","55","80","","","","","","","","","","","","","","","",""
"455","
          <p id=""word"" style=""font-size: 40px;"">proted</p>
          <p style=""font-size: 16px;"">F = YES &nbsp;&nbsp;&nbsp; J = NO</p>
        ","f","html-keyboard-response","189","2.1.0","232269","F=YES, J=NO","62u9ah5428","2","68","55","80","","","","","","","","","proted","sand","pseudoword","pseudoword","j","false","",""
"null","<p style=""font-size: 50px;"">+</p>","null","html-keyboard-response","190","2.1.0","232576","F=YES, J=NO","62u9ah5428","2","68","55","80","","","","","","","","","","","","","","","",""
"null","audio/beep-329314.mp3","null","audio-keyboard-response","191","2.1.0","234105","F=YES, J=NO","62u9ah5428","2","68","55","80","","","","","","","","","","","","","","","",""
"null","audio/terrain.wav","null","audio-keyboard-response","192","2.1.0","234694","F=YES, J=NO","62u9ah5428","2","68","55","80","","","","","","","","","","","","","","","",""
"318","
          <p id=""word"" style=""font-size: 40px;"">twist</p>
          <p style=""font-size: 16px;"">F = YES &nbsp;&nbsp;&nbsp; J = NO</p>
        ","f","html-keyboard-response","193","2.1.0","235013","F=YES, J=NO","62u9ah5428","2","68","55","80","","","","","","","","","twist","terrain","filler","filler","f","true","",""
"null","<p style=""font-size: 50px;"">+</p>","null","html-keyboard-response","194","2.1.0","235325","F=YES, J=NO","62u9ah5428","2","68","55","80","","","","","","","","","","","","","","","",""
"null","audio/beep-329314.mp3","null","audio-keyboard-response","195","2.1.0","236865","F=YES, J=NO","62u9ah5428","2","68","55","80","","","","","","","","","","","","","","","",""
"null","audio/mile1.wav","null","audio-keyboard-response","196","2.1.0","237354","F=YES, J=NO","62u9ah5428","2","68","55","80","","","","","","","","","","","","","","","",""
"394","
          <p id=""word"" style=""font-size: 40px;"">writch</p>
          <p style=""font-size: 16px;"">F = YES &nbsp;&nbsp;&nbsp; J = NO</p>
        ","f","html-keyboard-response","197","2.1.0","237749","F=YES, J=NO","62u9ah5428","2","68","55","80","","","","","","","","","writch","mile1","pseudoword","pseudoword","j","false","",""
"null","<p style=""font-size: 50px;"">+</p>","null","html-keyboard-response","198","2.1.0","238063","F=YES, J=NO","62u9ah5428","2","68","55","80","","","","","","","","","","","","","","","",""
"null","audio/beep-329314.mp3","null","audio-keyboard-response","199","2.1.0","239584","F=YES, J=NO","62u9ah5428","2","68","55","80","","","","","","","","","","","","","","","",""
"null","audio/terrain.wav","null","audio-keyboard-response","200","2.1.0","240154","F=YES, J=NO","62u9ah5428","2","68","55","80","","","","","","","","","","","","","","","",""
"338","
          <p id=""word"" style=""font-size: 40px;"">navigate</p>
          <p style=""font-size: 16px;"">F = YES &nbsp;&nbsp;&nbsp; J = NO</p>
        ","f","html-keyboard-response","201","2.1.0","240493","F=YES, J=NO","62u9ah5428","2","68","55","80","","","","","","","","","navigate","terrain","literal","experimental","f","true","",""
"null","<p style=""font-size: 50px;"">+</p>","null","html-keyboard-response","202","2.1.0","240802","F=YES, J=NO","62u9ah5428","2","68","55","80","","","","","","","","","","","","","","","",""
"null","audio/beep-329314.mp3","null","audio-keyboard-response","203","2.1.0","242324","F=YES, J=NO","62u9ah5428","2","68","55","80","","","","","","","","","","","","","","","",""
"null","audio/floor.wav","null","audio-keyboard-response","204","2.1.0","242874","F=YES, J=NO","62u9ah5428","2","68","55","80","","","","","","","","","","","","","","","",""
"370","
          <p id=""word"" style=""font-size: 40px;"">mop</p>
          <p style=""font-size: 16px;"">F = YES &nbsp;&nbsp;&nbsp; J = NO</p>
        ","f","html-keyboard-response","205","2.1.0","243245","F=YES, J=NO","62u9ah5428","2","68","55","80","","","","","","","","","mop","floor","filler","filler","f","true","",""
"null","<p style=""font-size: 50px;"">+</p>","null","html-keyboard-response","206","2.1.0","243547","F=YES, J=NO","62u9ah5428","2","68","55","80","","","","","","","","","","","","","","","",""
"null","audio/beep-329314.mp3","null","audio-keyboard-response","207","2.1.0","245084","F=YES, J=NO","62u9ah5428","2","68","55","80","","","","","","","","","","","","","","","",""
"null","audio/holiday1.wav","null","audio-keyboard-response","208","2.1.0","245714","F=YES, J=NO","62u9ah5428","2","68","55","80","","","","","","","","","","","","","","","",""
"339","
          <p id=""word"" style=""font-size: 40px;"">drivets</p>
          <p style=""font-size: 16px;"">F = YES &nbsp;&nbsp;&nbsp; J = NO</p>
        ","f","html-keyboard-response","209","2.1.0","246054","F=YES, J=NO","62u9ah5428","2","68","55","80","","","","","","","","","drivets","holiday1","pseudoword","pseudoword","j","false","",""
"null","<p style=""font-size: 50px;"">+</p>","null","html-keyboard-response","210","2.1.0","246362","F=YES, J=NO","62u9ah5428","2","68","55","80","","","","","","","","","","","","","","","",""
"null","audio/beep-329314.mp3","null","audio-keyboard-response","211","2.1.0","247884","F=YES, J=NO","62u9ah5428","2","68","55","80","","","","","","","","","","","","","","","",""
"null","audio/emotion.wav","null","audio-keyboard-response","212","2.1.0","248514","F=YES, J=NO","62u9ah5428","2","68","55","80","","","","","","","","","","","","","","","",""
"91","
          <p id=""word"" style=""font-size: 40px;"">bury</p>
          <p style=""font-size: 16px;"">F = YES &nbsp;&nbsp;&nbsp; J = NO</p>
        ","f","html-keyboard-response","213","2.1.0","248606","F=YES, J=NO","62u9ah5428","2","68","55","80","","","","","","","","","bury","emotion","metaphor","experimental","f","true","",""
"null","<p style=""font-size: 50px;"">+</p>","null","html-keyboard-response","214","2.1.0","248922","F=YES, J=NO","62u9ah5428","2","68","55","80","","","","","","","","","","","","","","","",""
"null","audio/beep-329314.mp3","null","audio-keyboard-response","215","2.1.0","250444","F=YES, J=NO","62u9ah5428","2","68","55","80","","","","","","","","","","","","","","","",""
"null","audio/relief.wav","null","audio-keyboard-response","216","2.1.0","251094","F=YES, J=NO","62u9ah5428","2","68","55","80","","","","","","","","","","","","","","","",""
"159","
          <p id=""word"" style=""font-size: 40px;"">bring</p>
          <p style=""font-size: 16px;"">F = YES &nbsp;&nbsp;&nbsp; J = NO</p>
        ","f","html-keyboard-response","217","2.1.0","251253","F=YES, J=NO","62u9ah5428","2","68","55","80","","","","","","","","","bring","relief","metaphor","experimental","f","true","",""
"null","<p style=""font-size: 50px;"">+</p>","null","html-keyboard-response","218","2.1.0","251555","F=YES, J=NO","62u9ah5428","2","68","55","80","","","","","","","","","","","","","","","",""
"null","audio/beep-329314.mp3","null","audio-keyboard-response","219","2.1.0","253084","F=YES, J=NO","62u9ah5428","2","68","55","80","","","","","","","","","","","","","","","",""
"null","audio/cave1.wav","null","audio-keyboard-response","220","2.1.0","253634","F=YES, J=NO","62u9ah5428","2","68","55","80","","","","","","","","","","","","","","","",""
"211","
          <p id=""word"" style=""font-size: 40px;"">blacket</p>
          <p style=""font-size: 16px;"">F = YES &nbsp;&nbsp;&nbsp; J = NO</p>
        ","f","html-keyboard-response","221","2.1.0","253845","F=YES, J=NO","62u9ah5428","2","68","55","80","","","","","","","","","blacket","cave1","pseudoword","pseudoword","j","false","",""
"null","<p style=""font-size: 50px;"">+</p>","null","html-keyboard-response","222","2.1.0","254149","F=YES, J=NO","62u9ah5428","2","68","55","80","","","","","","","","","","","","","","","",""
"null","audio/beep-329314.mp3","null","audio-keyboard-response","223","2.1.0","255684","F=YES, J=NO","62u9ah5428","2","68","55","80","","","","","","","","","","","","","","","",""
"null","audio/gift1.wav","null","audio-keyboard-response","224","2.1.0","256154","F=YES, J=NO","62u9ah5428","2","68","55","80","","","","","","","","","","","","","","","",""
"210","
          <p id=""word"" style=""font-size: 40px;"">protsh</p>
          <p style=""font-size: 16px;"">F = YES &nbsp;&nbsp;&nbsp; J = NO</p>
        ","f","html-keyboard-response","225","2.1.0","256365","F=YES, J=NO","62u9ah5428","2","68","55","80","","","","","","","","","protsh","gift1","pseudoword","pseudoword","j","false","",""
"null","<p style=""font-size: 50px;"">+</p>","null","html-keyboard-response","226","2.1.0","256669","F=YES, J=NO","62u9ah5428","2","68","55","80","","","","","","","","","","","","","","","",""
"null","audio/beep-329314.mp3","null","audio-keyboard-response","227","2.1.0","258204","F=YES, J=NO","62u9ah5428","2","68","55","80","","","","","","","","","","","","","","","",""
"null","audio/tax1.wav","null","audio-keyboard-response","228","2.1.0","258814","F=YES, J=NO","62u9ah5428","2","68","55","80","","","","","","","","","","","","","","","",""
"270","
          <p id=""word"" style=""font-size: 40px;"">snate</p>
          <p style=""font-size: 16px;"">F = YES &nbsp;&nbsp;&nbsp; J = NO</p>
        ","f","html-keyboard-response","229","2.1.0","259085","F=YES, J=NO","62u9ah5428","2","68","55","80","","","","","","","","","snate","tax1","pseudoword","pseudoword","j","false","",""
"6775","<p>Excellent! You have finished block 1 of 8.</p>
                     <p>Feel free to take a 30 second break.</p>
                     <p>Press any key when you're ready to continue.</p>"," ","html-keyboard-response","230","2.1.0","265861","F=YES, J=NO","62u9ah5428","2","68","55","80","","","","","","","","","","","","","","","",""
"1072","<p>Starting main block 2 of 8. Press any key to continue.</p>"," ","html-keyboard-response","231","2.1.0","266933","F=YES, J=NO","62u9ah5428","2","68","55","80","","","","","","","","","","","","","","","",""
"null","<p style=""font-size: 50px;"">+</p>","null","html-keyboard-response","232","2.1.0","267249","F=YES, J=NO","62u9ah5428","2","68","55","80","","","","","","","","","","","","","","","",""
"null","audio/beep-329314.mp3","null","audio-keyboard-response","233","2.1.0","268785","F=YES, J=NO","62u9ah5428","2","68","55","80","","","","","","","","","","","","","","","",""
"null","audio/flaw.wav","null","audio-keyboard-response","234","2.1.0","269414","F=YES, J=NO","62u9ah5428","2","68","55","80","","","","","","","","","","","","","","","",""
"134","
          <p id=""word"" style=""font-size: 40px;"">thwool</p>
          <p style=""font-size: 16px;"">F = YES &nbsp;&nbsp;&nbsp; J = NO</p>
        ","f","html-keyboard-response","235","2.1.0","269549","F=YES, J=NO","62u9ah5428","2","68","55","80","","","","","","","","","thwool","flaw","pseudoword","pseudoword","j","false","",""
"null","<p style=""font-size: 50px;"">+</p>","null","html-keyboard-response","236","2.1.0","269860","F=YES, J=NO","62u9ah5428","2","68","55","80","","","","","","","","","","","","","","","",""
"null","audio/beep-329314.mp3","null","audio-keyboard-response","237","2.1.0","271384","F=YES, J=NO","62u9ah5428","2","68","55","80","","","","","","","","","","","","","","","",""
"null","audio/heart1.wav","null","audio-keyboard-response","238","2.1.0","272014","F=YES, J=NO","62u9ah5428","2","68","55","80","","","","","","","","","","","","","","","",""
"198","
          <p id=""word"" style=""font-size: 40px;"">dralm</p>
          <p style=""font-size: 16px;"">F = YES &nbsp;&nbsp;&nbsp; J = NO</p>
        ","f","html-keyboard-response","239","2.1.0","272213","F=YES, J=NO","62u9ah5428","2","68","55","80","","","","","","","","","dralm","heart1","pseudoword","pseudoword","j","false","",""
"null","<p style=""font-size: 50px;"">+</p>","null","html-keyboard-response","240","2.1.0","272518","F=YES, J=NO","62u9ah5428","2","68","55","80","","","","","","","","","","","","","","","",""
"null","audio/beep-329314.mp3","null","audio-keyboard-response","241","2.1.0","274044","F=YES, J=NO","62u9ah5428","2","68","55","80","","","","","","","","","","","","","","","",""
"null","audio/hawk1.wav","null","audio-keyboard-response","242","2.1.0","274634","F=YES, J=NO","62u9ah5428","2","68","55","80","","","","","","","","","","","","","","","",""
"490","
          <p id=""word"" style=""font-size: 40px;"">ostach</p>
          <p style=""font-size: 16px;"">F = YES &nbsp;&nbsp;&nbsp; J = NO</p>
        ","f","html-keyboard-response","243","2.1.0","275125","F=YES, J=NO","62u9ah5428","2","68","55","80","","","","","","","","","ostach","hawk1","pseudoword","pseudoword","j","false","",""
"null","<p style=""font-size: 50px;"">+</p>","null","html-keyboard-response","244","2.1.0","275426","F=YES, J=NO","62u9ah5428","2","68","55","80","","","","","","","","","","","","","","","",""
"null","audio/beep-329314.mp3","null","audio-keyboard-response","245","2.1.0","276964","F=YES, J=NO","62u9ah5428","2","68","55","80","","","","","","","","","","","","","","","",""
"null","audio/beach1.wav","null","audio-keyboard-response","246","2.1.0","277554","F=YES, J=NO","62u9ah5428","2","68","55","80","","","","","","","","","","","","","","","",""
"386","
          <p id=""word"" style=""font-size: 40px;"">drive</p>
          <p style=""font-size: 16px;"">F = YES &nbsp;&nbsp;&nbsp; J = NO</p>
        ","f","html-keyboard-response","247","2.1.0","277941","F=YES, J=NO","62u9ah5428","2","68","55","80","","","","","","","","","drive","beach1","filler","filler","f","true","",""
"null","<p style=""font-size: 50px;"">+</p>","null","html-keyboard-response","248","2.1.0","278245","F=YES, J=NO","62u9ah5428","2","68","55","80","","","","","","","","","","","","","","","",""
"null","audio/beep-329314.mp3","null","audio-keyboard-response","249","2.1.0","279784","F=YES, J=NO","62u9ah5428","2","68","55","80","","","","","","","","","","","","","","","",""
"null","audio/neck.wav","null","audio-keyboard-response","250","2.1.0","280334","F=YES, J=NO","62u9ah5428","2","68","55","80","","","","","","","","","","","","","","","",""
"438","
          <p id=""word"" style=""font-size: 40px;"">werling</p>
          <p style=""font-size: 16px;"">F = YES &nbsp;&nbsp;&nbsp; J = NO</p>
        ","j","html-keyboard-response","251","2.1.0","280773","F=YES, J=NO","62u9ah5428","2","68","55","80","","","","","","","","","werling","neck","pseudoword","pseudoword","j","true","",""
"null","<p style=""font-size: 50px;"">+</p>","null","html-keyboard-response","252","2.1.0","281078","F=YES, J=NO","62u9ah5428","2","68","55","80","","","","","","","","","","","","","","","",""
"null","audio/beep-329314.mp3","null","audio-keyboard-response","253","2.1.0","282604","F=YES, J=NO","62u9ah5428","2","68","55","80","","","","","","","","","","","","","","","",""
"null","audio/gossip1.wav","null","audio-keyboard-response","254","2.1.0","283234","F=YES, J=NO","62u9ah5428","2","68","55","80","","","","","","","","","","","","","","","",""
"506","
          <p id=""word"" style=""font-size: 40px;"">wrestle</p>
          <p style=""font-size: 16px;"">F = YES &nbsp;&nbsp;&nbsp; J = NO</p>
        ","f","html-keyboard-response","255","2.1.0","283741","F=YES, J=NO","62u9ah5428","2","68","55","80","","","","","","","","","wrestle","gossip1","unrelated","experimental","f","true","",""
"null","<p style=""font-size: 50px;"">+</p>","null","html-keyboard-response","256","2.1.0","284043","F=YES, J=NO","62u9ah5428","2","68","55","80","","","","","","","","","","","","","","","",""
"null","audio/beep-329314.mp3","null","audio-keyboard-response","257","2.1.0","285585","F=YES, J=NO","62u9ah5428","2","68","55","80","","","","","","","","","","","","","","","",""
"null","audio/radio1.wav","null","audio-keyboard-response","258","2.1.0","286174","F=YES, J=NO","62u9ah5428","2","68","55","80","","","","","","","","","","","","","","","",""
"222","
          <p id=""word"" style=""font-size: 40px;"">spend</p>
          <p style=""font-size: 16px;"">F = YES &nbsp;&nbsp;&nbsp; J = NO</p>
        ","f","html-keyboard-response","259","2.1.0","286397","F=YES, J=NO","62u9ah5428","2","68","55","80","","","","","","","","","spend","radio1","unrelated","experimental","f","true","",""
"null","<p style=""font-size: 50px;"">+</p>","null","html-keyboard-response","260","2.1.0","286712","F=YES, J=NO","62u9ah5428","2","68","55","80","","","","","","","","","","","","","","","",""
"null","audio/beep-329314.mp3","null","audio-keyboard-response","261","2.1.0","288244","F=YES, J=NO","62u9ah5428","2","68","55","80","","","","","","","","","","","","","","","",""
"null","audio/empire.wav","null","audio-keyboard-response","262","2.1.0","288874","F=YES, J=NO","62u9ah5428","2","68","55","80","","","","","","","","","","","","","","","",""
"138","
          <p id=""word"" style=""font-size: 40px;"">slorby</p>
          <p style=""font-size: 16px;"">F = YES &nbsp;&nbsp;&nbsp; J = NO</p>
        ","f","html-keyboard-response","263","2.1.0","289013","F=YES, J=NO","62u9ah5428","2","68","55","80","","","","","","","","","slorby","empire","pseudoword","pseudoword","j","false","",""
"null","<p style=""font-size: 50px;"">+</p>","null","html-keyboard-response","264","2.1.0","289320","F=YES, J=NO","62u9ah5428","2","68","55","80","","","","","","","","","","","","","","","",""
"null","audio/beep-329314.mp3","null","audio-keyboard-response","265","2.1.0","290844","F=YES, J=NO","62u9ah5428","2","68","55","80","","","","","","","","","","","","","","","",""
"null","audio/ankle1.wav","null","audio-keyboard-response","266","2.1.0","291374","F=YES, J=NO","62u9ah5428","2","68","55","80","","","","","","","","","","","","","","","",""
"287","
          <p id=""word"" style=""font-size: 40px;"">switm</p>
          <p style=""font-size: 16px;"">F = YES &nbsp;&nbsp;&nbsp; J = NO</p>
        ","f","html-keyboard-response","267","2.1.0","291661","F=YES, J=NO","62u9ah5428","2","68","55","80","","","","","","","","","switm","ankle1","pseudoword","pseudoword","j","false","",""
"null","<p style=""font-size: 50px;"">+</p>","null","html-keyboard-response","268","2.1.0","291978","F=YES, J=NO","62u9ah5428","2","68","55","80","","","","","","","","","","","","","","","",""
"null","audio/beep-329314.mp3","null","audio-keyboard-response","269","2.1.0","293505","F=YES, J=NO","62u9ah5428","2","68","55","80","","","","","","","","","","","","","","","",""
"null","audio/voice.wav","null","audio-keyboard-response","270","2.1.0","294094","F=YES, J=NO","62u9ah5428","2","68","55","80","","","","","","","","","","","","","","","",""
"230","
          <p id=""word"" style=""font-size: 40px;"">grintle</p>
          <p style=""font-size: 16px;"">F = YES &nbsp;&nbsp;&nbsp; J = NO</p>
        ","f","html-keyboard-response","271","2.1.0","294325","F=YES, J=NO","62u9ah5428","2","68","55","80","","","","","","","","","grintle","voice","pseudoword","pseudoword","j","false","",""
"null","<p style=""font-size: 50px;"">+</p>","null","html-keyboard-response","272","2.1.0","294635","F=YES, J=NO","62u9ah5428","2","68","55","80","","","","","","","","","","","","","","","",""
"null","audio/beep-329314.mp3","null","audio-keyboard-response","273","2.1.0","296164","F=YES, J=NO","62u9ah5428","2","68","55","80","","","","","","","","","","","","","","","",""
"null","audio/strength.wav","null","audio-keyboard-response","274","2.1.0","296894","F=YES, J=NO","62u9ah5428","2","68","55","80","","","","","","","","","","","","","","","",""
"86","
          <p id=""word"" style=""font-size: 40px;"">plabet</p>
          <p style=""font-size: 16px;"">F = YES &nbsp;&nbsp;&nbsp; J = NO</p>
        ","f","html-keyboard-response","275","2.1.0","296980","F=YES, J=NO","62u9ah5428","2","68","55","80","","","","","","","","","plabet","strength","pseudoword","pseudoword","j","false","",""
"null","<p style=""font-size: 50px;"">+</p>","null","html-keyboard-response","276","2.1.0","297288","F=YES, J=NO","62u9ah5428","2","68","55","80","","","","","","","","","","","","","","","",""
"null","audio/beep-329314.mp3","null","audio-keyboard-response","277","2.1.0","298824","F=YES, J=NO","62u9ah5428","2","68","55","80","","","","","","","","","","","","","","","",""
"null","audio/life1.wav","null","audio-keyboard-response","278","2.1.0","299394","F=YES, J=NO","62u9ah5428","2","68","55","80","","","","","","","","","","","","","","","",""
"154","
          <p id=""word"" style=""font-size: 40px;"">flimch</p>
          <p style=""font-size: 16px;"">F = YES &nbsp;&nbsp;&nbsp; J = NO</p>
        ","f","html-keyboard-response","279","2.1.0","299549","F=YES, J=NO","62u9ah5428","2","68","55","80","","","","","","","","","flimch","life1","pseudoword","pseudoword","j","false","",""
"null","<p style=""font-size: 50px;"">+</p>","null","html-keyboard-response","280","2.1.0","299850","F=YES, J=NO","62u9ah5428","2","68","55","80","","","","","","","","","","","","","","","",""
"null","audio/beep-329314.mp3","null","audio-keyboard-response","281","2.1.0","301384","F=YES, J=NO","62u9ah5428","2","68","55","80","","","","","","","","","","","","","","","",""
"null","audio/bridge.wav","null","audio-keyboard-response","282","2.1.0","301914","F=YES, J=NO","62u9ah5428","2","68","55","80","","","","","","","","","","","","","","","",""
"314","
          <p id=""word"" style=""font-size: 40px;"">build</p>
          <p style=""font-size: 16px;"">F = YES &nbsp;&nbsp;&nbsp; J = NO</p>
        ","f","html-keyboard-response","283","2.1.0","302229","F=YES, J=NO","62u9ah5428","2","68","55","80","","","","","","","","","build","bridge","literal","experimental","f","true","",""
"null","<p style=""font-size: 50px;"">+</p>","null","html-keyboard-response","284","2.1.0","302541","F=YES, J=NO","62u9ah5428","2","68","55","80","","","","","","","","","","","","","","","",""
"null","audio/beep-329314.mp3","null","audio-keyboard-response","285","2.1.0","304065","F=YES, J=NO","62u9ah5428","2","68","55","80","","","","","","","","","","","","","","","",""
"null","audio/uncle1.wav","null","audio-keyboard-response","286","2.1.0","304554","F=YES, J=NO","62u9ah5428","2","68","55","80","","","","","","","","","","","","","","","",""
"555","
          <p id=""word"" style=""font-size: 40px;"">break</p>
          <p style=""font-size: 16px;"">F = YES &nbsp;&nbsp;&nbsp; J = NO</p>
        ","f","html-keyboard-response","287","2.1.0","305109","F=YES, J=NO","62u9ah5428","2","68","55","80","","","","","","","","","break","uncle1","unrelated","experimental","f","true","",""
"null","<p style=""font-size: 50px;"">+</p>","null","html-keyboard-response","288","2.1.0","305416","F=YES, J=NO","62u9ah5428","2","68","55","80","","","","","","","","","","","","","","","",""
"null","audio/beep-329314.mp3","null","audio-keyboard-response","289","2.1.0","306945","F=YES, J=NO","62u9ah5428","2","68","55","80","","","","","","","","","","","","","","","",""
"null","audio/cash1.wav","null","audio-keyboard-response","290","2.1.0","307514","F=YES, J=NO","62u9ah5428","2","68","55","80","","","","","","","","","","","","","","","",""
"242","
          <p id=""word"" style=""font-size: 40px;"">invest</p>
          <p style=""font-size: 16px;"">F = YES &nbsp;&nbsp;&nbsp; J = NO</p>
        ","f","html-keyboard-response","291","2.1.0","307757","F=YES, J=NO","62u9ah5428","2","68","55","80","","","","","","","","","invest","cash1","literal","experimental","f","true","",""
"null","<p style=""font-size: 50px;"">+</p>","null","html-keyboard-response","292","2.1.0","308059","F=YES, J=NO","62u9ah5428","2","68","55","80","","","","","","","","","","","","","","","",""
"null","audio/beep-329314.mp3","null","audio-keyboard-response","293","2.1.0","309585","F=YES, J=NO","62u9ah5428","2","68","55","80","","","","","","","","","","","","","","","",""
"null","audio/roof1.wav","null","audio-keyboard-response","294","2.1.0","310134","F=YES, J=NO","62u9ah5428","2","68","55","80","","","","","","","","","","","","","","","",""
"335","
          <p id=""word"" style=""font-size: 40px;"">construct</p>
          <p style=""font-size: 16px;"">F = YES &nbsp;&nbsp;&nbsp; J = NO</p>
        ","f","html-keyboard-response","295","2.1.0","310469","F=YES, J=NO","62u9ah5428","2","68","55","80","","","","","","","","","construct","roof1","literal","experimental","f","true","",""
"1024","<p>Excellent! You have finished block 2 of 8.</p>
                     <p>Feel free to take a 30 second break.</p>
                     <p>Press any key when you're ready to continue.</p>"," ","html-keyboard-response","296","2.1.0","311494","F=YES, J=NO","62u9ah5428","2","68","55","80","","","","","","","","","","","","","","","",""
"367","<p>Starting main block 3 of 8. Press any key to continue.</p>"," ","html-keyboard-response","297","2.1.0","311861","F=YES, J=NO","62u9ah5428","2","68","55","80","","","","","","","","","","","","","","","",""
"null","<p style=""font-size: 50px;"">+</p>","null","html-keyboard-response","298","2.1.0","312173","F=YES, J=NO","62u9ah5428","2","68","55","80","","","","","","","","","","","","","","","",""
"null","audio/beep-329314.mp3","null","audio-keyboard-response","299","2.1.0","313704","F=YES, J=NO","62u9ah5428","2","68","55","80","","","","","","","","","","","","","","","",""
"null","audio/plane1.wav","null","audio-keyboard-response","300","2.1.0","314134","F=YES, J=NO","62u9ah5428","2","68","55","80","","","","","","","","","","","","","","","",""
"190","
          <p id=""word"" style=""font-size: 40px;"">land</p>
          <p style=""font-size: 16px;"">F = YES &nbsp;&nbsp;&nbsp; J = NO</p>
        ","f","html-keyboard-response","301","2.1.0","314325","F=YES, J=NO","62u9ah5428","2","68","55","80","","","","","","","","","land","plane1","literal","experimental","f","true","",""
"null","<p style=""font-size: 50px;"">+</p>","null","html-keyboard-response","302","2.1.0","314629","F=YES, J=NO","62u9ah5428","2","68","55","80","","","","","","","","","","","","","","","",""
"null","audio/beep-329314.mp3","null","audio-keyboard-response","303","2.1.0","316164","F=YES, J=NO","62u9ah5428","2","68","55","80","","","","","","","","","","","","","","","",""
"null","audio/sugar1.wav","null","audio-keyboard-response","304","2.1.0","316654","F=YES, J=NO","62u9ah5428","2","68","55","80","","","","","","","","","","","","","","","",""
"254","
          <p id=""word"" style=""font-size: 40px;"">glung</p>
          <p style=""font-size: 16px;"">F = YES &nbsp;&nbsp;&nbsp; J = NO</p>
        ","f","html-keyboard-response","305","2.1.0","316909","F=YES, J=NO","62u9ah5428","2","68","55","80","","","","","","","","","glung","sugar1","pseudoword","pseudoword","j","false","",""
"null","<p style=""font-size: 50px;"">+</p>","null","html-keyboard-response","306","2.1.0","317226","F=YES, J=NO","62u9ah5428","2","68","55","80","","","","","","","","","","","","","","","",""
"null","audio/beep-329314.mp3","null","audio-keyboard-response","307","2.1.0","318764","F=YES, J=NO","62u9ah5428","2","68","55","80","","","","","","","","","","","","","","","",""
"null","audio/scar.wav","null","audio-keyboard-response","308","2.1.0","319354","F=YES, J=NO","62u9ah5428","2","68","55","80","","","","","","","","","","","","","","","",""
"242","
          <p id=""word"" style=""font-size: 40px;"">adelineate</p>
          <p style=""font-size: 16px;"">F = YES &nbsp;&nbsp;&nbsp; J = NO</p>
        ","f","html-keyboard-response","309","2.1.0","319597","F=YES, J=NO","62u9ah5428","2","68","55","80","","","","","","","","","adelineate","scar","pseudoword","pseudoword","j","false","",""
"null","<p style=""font-size: 50px;"">+</p>","null","html-keyboard-response","310","2.1.0","319903","F=YES, J=NO","62u9ah5428","2","68","55","80","","","","","","","","","","","","","","","",""
"null","audio/beep-329314.mp3","null","audio-keyboard-response","311","2.1.0","321424","F=YES, J=NO","62u9ah5428","2","68","55","80","","","","","","","","","","","","","","","",""
"null","audio/cloud1.wav","null","audio-keyboard-response","312","2.1.0","321974","F=YES, J=NO","62u9ah5428","2","68","55","80","","","","","","","","","","","","","","","",""
"479","
          <p id=""word"" style=""font-size: 40px;"">scrap</p>
          <p style=""font-size: 16px;"">F = YES &nbsp;&nbsp;&nbsp; J = NO</p>
        ","j","html-keyboard-response","313","2.1.0","322453","F=YES, J=NO","62u9ah5428","2","68","55","80","","","","","","","","","scrap","cloud1","unrelated","experimental","f","false","",""
"null","<p style=""font-size: 50px;"">+</p>","null","html-keyboard-response","314","2.1.0","322758","F=YES, J=NO","62u9ah5428","2","68","55","80","","","","","","","","","","","","","","","",""
"null","audio/beep-329314.mp3","null","audio-keyboard-response","315","2.1.0","324284","F=YES, J=NO","62u9ah5428","2","68","55","80","","","","","","","","","","","","","","","",""
"null","audio/bush1.wav","null","audio-keyboard-response","316","2.1.0","324754","F=YES, J=NO","62u9ah5428","2","68","55","80","","","","","","","","","","","","","","","",""
"483","
          <p id=""word"" style=""font-size: 40px;"">platined</p>
          <p style=""font-size: 16px;"">F = YES &nbsp;&nbsp;&nbsp; J = NO</p>
        ","f","html-keyboard-response","317","2.1.0","325237","F=YES, J=NO","62u9ah5428","2","68","55","80","","","","","","","","","platined","bush1","pseudoword","pseudoword","j","false","",""
"null","<p style=""font-size: 50px;"">+</p>","null","html-keyboard-response","318","2.1.0","325553","F=YES, J=NO","62u9ah5428","2","68","55","80","","","","","","","","","","","","","","","",""
"null","audio/beep-329314.mp3","null","audio-keyboard-response","319","2.1.0","327084","F=YES, J=NO","62u9ah5428","2","68","55","80","","","","","","","","","","","","","","","",""
"null","audio/budget1.wav","null","audio-keyboard-response","320","2.1.0","327674","F=YES, J=NO","62u9ah5428","2","68","55","80","","","","","","","","","","","","","","","",""
"203","
          <p id=""word"" style=""font-size: 40px;"">cut</p>
          <p style=""font-size: 16px;"">F = YES &nbsp;&nbsp;&nbsp; J = NO</p>
        ","f","html-keyboard-response","321","2.1.0","327877","F=YES, J=NO","62u9ah5428","2","68","55","80","","","","","","","","","cut","budget1","metaphor","experimental","f","true","",""
"null","<p style=""font-size: 50px;"">+</p>","null","html-keyboard-response","322","2.1.0","328203","F=YES, J=NO","62u9ah5428","2","68","55","80","","","","","","","","","","","","","","","",""
"null","audio/beep-329314.mp3","null","audio-keyboard-response","323","2.1.0","329745","F=YES, J=NO","62u9ah5428","2","68","55","80","","","","","","","","","","","","","","","",""
"null","audio/cash1.wav","null","audio-keyboard-response","324","2.1.0","330294","F=YES, J=NO","62u9ah5428","2","68","55","80","","","","","","","","","","","","","","","",""
"166","
          <p id=""word"" style=""font-size: 40px;"">splear</p>
          <p style=""font-size: 16px;"">F = YES &nbsp;&nbsp;&nbsp; J = NO</p>
        ","f","html-keyboard-response","325","2.1.0","330461","F=YES, J=NO","62u9ah5428","2","68","55","80","","","","","","","","","splear","cash1","pseudoword","pseudoword","j","false","",""
"null","<p style=""font-size: 50px;"">+</p>","null","html-keyboard-response","326","2.1.0","330776","F=YES, J=NO","62u9ah5428","2","68","55","80","","","","","","","","","","","","","","","",""
"null","audio/beep-329314.mp3","null","audio-keyboard-response","327","2.1.0","332304","F=YES, J=NO","62u9ah5428","2","68","55","80","","","","","","","","","","","","","","","",""
"null","audio/table1.wav","null","audio-keyboard-response","328","2.1.0","332794","F=YES, J=NO","62u9ah5428","2","68","55","80","","","","","","","","","","","","","","","",""
"610","
          <p id=""word"" style=""font-size: 40px;"">stimb</p>
          <p style=""font-size: 16px;"">F = YES &nbsp;&nbsp;&nbsp; J = NO</p>
        ","j","html-keyboard-response","329","2.1.0","333405","F=YES, J=NO","62u9ah5428","2","68","55","80","","","","","","","","","stimb","table1","pseudoword","pseudoword","j","true","",""
"null","<p style=""font-size: 50px;"">+</p>","null","html-keyboard-response","330","2.1.0","333712","F=YES, J=NO","62u9ah5428","2","68","55","80","","","","","","","","","","","","","","","",""
"null","audio/beep-329314.mp3","null","audio-keyboard-response","331","2.1.0","335244","F=YES, J=NO","62u9ah5428","2","68","55","80","","","","","","","","","","","","","","","",""
"null","audio/trust.wav","null","audio-keyboard-response","332","2.1.0","335874","F=YES, J=NO","62u9ah5428","2","68","55","80","","","","","","","","","","","","","","","",""
"530","
          <p id=""word"" style=""font-size: 40px;"">swint</p>
          <p style=""font-size: 16px;"">F = YES &nbsp;&nbsp;&nbsp; J = NO</p>
        ","j","html-keyboard-response","333","2.1.0","336405","F=YES, J=NO","62u9ah5428","2","68","55","80","","","","","","","","","swint","trust","pseudoword","pseudoword","j","true","",""
"null","<p style=""font-size: 50px;"">+</p>","null","html-keyboard-response","334","2.1.0","336709","F=YES, J=NO","62u9ah5428","2","68","55","80","","","","","","","","","","","","","","","",""
"null","audio/beep-329314.mp3","null","audio-keyboard-response","335","2.1.0","338244","F=YES, J=NO","62u9ah5428","2","68","55","80","","","","","","","","","","","","","","","",""
"null","audio/camp.wav","null","audio-keyboard-response","336","2.1.0","338794","F=YES, J=NO","62u9ah5428","2","68","55","80","","","","","","","","","","","","","","","",""
"827","
          <p id=""word"" style=""font-size: 40px;"">touch</p>
          <p style=""font-size: 16px;"">F = YES &nbsp;&nbsp;&nbsp; J = NO</p>
        ","f","html-keyboard-response","337","2.1.0","339622","F=YES, J=NO","62u9ah5428","2","68","55","80","","","","","","","","","touch","camp","unrelated","experimental","f","true","",""
"null","<p style=""font-size: 50px;"">+</p>","null","html-keyboard-response","338","2.1.0","339924","F=YES, J=NO","62u9ah5428","2","68","55","80","","","","","","","","","","","","","","","",""
"null","audio/beep-329314.mp3","null","audio-keyboard-response","339","2.1.0","341464","F=YES, J=NO","62u9ah5428","2","68","55","80","","","","","","","","","","","","","","","",""
"null","audio/survey1.wav","null","audio-keyboard-response","340","2.1.0","342194","F=YES, J=NO","62u9ah5428","2","68","55","80","","","","","","","","","","","","","","","",""
"835","
          <p id=""word"" style=""font-size: 40px;"">imploth</p>
          <p style=""font-size: 16px;"">F = YES &nbsp;&nbsp;&nbsp; J = NO</p>
        ","j","html-keyboard-response","341","2.1.0","343029","F=YES, J=NO","62u9ah5428","2","68","55","80","","","","","","","","","imploth","survey1","pseudoword","pseudoword","j","true","",""
"null","<p style=""font-size: 50px;"">+</p>","null","html-keyboard-response","342","2.1.0","343341","F=YES, J=NO","62u9ah5428","2","68","55","80","","","","","","","","","","","","","","","",""
"null","audio/beep-329314.mp3","null","audio-keyboard-response","343","2.1.0","344865","F=YES, J=NO","62u9ah5428","2","68","55","80","","","","","","","","","","","","","","","",""
"null","audio/dollar.wav","null","audio-keyboard-response","344","2.1.0","345234","F=YES, J=NO","62u9ah5428","2","68","55","80","","","","","","","","","","","","","","","",""
"675","
          <p id=""word"" style=""font-size: 40px;"">gliptism</p>
          <p style=""font-size: 16px;"">F = YES &nbsp;&nbsp;&nbsp; J = NO</p>
        ","j","html-keyboard-response","345","2.1.0","345909","F=YES, J=NO","62u9ah5428","2","68","55","80","","","","","","","","","gliptism","dollar","pseudoword","pseudoword","j","true","",""
"null","<p style=""font-size: 50px;"">+</p>","null","html-keyboard-response","346","2.1.0","346227","F=YES, J=NO","62u9ah5428","2","68","55","80","","","","","","","","","","","","","","","",""
"null","audio/beep-329314.mp3","null","audio-keyboard-response","347","2.1.0","347764","F=YES, J=NO","62u9ah5428","2","68","55","80","","","","","","","","","","","","","","","",""
"null","audio/cloud1.wav","null","audio-keyboard-response","348","2.1.0","348294","F=YES, J=NO","62u9ah5428","2","68","55","80","","","","","","","","","","","","","","","",""
"662","
          <p id=""word"" style=""font-size: 40px;"">brotant</p>
          <p style=""font-size: 16px;"">F = YES &nbsp;&nbsp;&nbsp; J = NO</p>
        ","j","html-keyboard-response","349","2.1.0","348957","F=YES, J=NO","62u9ah5428","2","68","55","80","","","","","","","","","brotant","cloud1","pseudoword","pseudoword","j","true","",""
"null","<p style=""font-size: 50px;"">+</p>","null","html-keyboard-response","350","2.1.0","349270","F=YES, J=NO","62u9ah5428","2","68","55","80","","","","","","","","","","","","","","","",""
"null","audio/beep-329314.mp3","null","audio-keyboard-response","351","2.1.0","350804","F=YES, J=NO","62u9ah5428","2","68","55","80","","","","","","","","","","","","","","","",""
"null","audio/corpse1.wav","null","audio-keyboard-response","352","2.1.0","351434","F=YES, J=NO","62u9ah5428","2","68","55","80","","","","","","","","","","","","","","","",""
"554","
          <p id=""word"" style=""font-size: 40px;"">glonet</p>
          <p style=""font-size: 16px;"">F = YES &nbsp;&nbsp;&nbsp; J = NO</p>
        ","j","html-keyboard-response","353","2.1.0","351989","F=YES, J=NO","62u9ah5428","2","68","55","80","","","","","","","","","glonet","corpse1","pseudoword","pseudoword","j","true","",""
"null","<p style=""font-size: 50px;"">+</p>","null","html-keyboard-response","354","2.1.0","352299","F=YES, J=NO","62u9ah5428","2","68","55","80","","","","","","","","","","","","","","","",""
"null","audio/beep-329314.mp3","null","audio-keyboard-response","355","2.1.0","353824","F=YES, J=NO","62u9ah5428","2","68","55","80","","","","","","","","","","","","","","","",""
"null","audio/essence1.wav","null","audio-keyboard-response","356","2.1.0","354514","F=YES, J=NO","62u9ah5428","2","68","55","80","","","","","","","","","","","","","","","",""
"474","
          <p id=""word"" style=""font-size: 40px;"">grasp</p>
          <p style=""font-size: 16px;"">F = YES &nbsp;&nbsp;&nbsp; J = NO</p>
        ","j","html-keyboard-response","357","2.1.0","354989","F=YES, J=NO","62u9ah5428","2","68","55","80","","","","","","","","","grasp","essence1","metaphor","experimental","f","false","",""
"null","<p style=""font-size: 50px;"">+</p>","null","html-keyboard-response","358","2.1.0","355293","F=YES, J=NO","62u9ah5428","2","68","55","80","","","","","","","","","","","","","","","",""
"null","audio/beep-329314.mp3","null","audio-keyboard-response","359","2.1.0","356824","F=YES, J=NO","62u9ah5428","2","68","55","80","","","","","","","","","","","","","","","",""
"null","audio/test1.wav","null","audio-keyboard-response","360","2.1.0","357394","F=YES, J=NO","62u9ah5428","2","68","55","80","","","","","","","","","","","","","","","",""
"515","
          <p id=""word"" style=""font-size: 40px;"">twopch</p>
          <p style=""font-size: 16px;"">F = YES &nbsp;&nbsp;&nbsp; J = NO</p>
        ","j","html-keyboard-response","361","2.1.0","357909","F=YES, J=NO","62u9ah5428","2","68","55","80","","","","","","","","","twopch","test1","pseudoword","pseudoword","j","true","",""
"39119","<p>Excellent! You have finished block 3 of 8.</p>
                     <p>Feel free to take a 30 second break.</p>
                     <p>Press any key when you're ready to continue.</p>"," ","html-keyboard-response","362","2.1.0","397029","F=YES, J=NO","62u9ah5428","2","68","55","80","","","","","","","","","","","","","","","",""
"720","<p>Starting main block 4 of 8. Press any key to continue.</p>"," ","html-keyboard-response","363","2.1.0","397749","F=YES, J=NO","62u9ah5428","2","68","55","80","","","","","","","","","","","","","","","",""
"null","<p style=""font-size: 50px;"">+</p>","null","html-keyboard-response","364","2.1.0","398051","F=YES, J=NO","62u9ah5428","2","68","55","80","","","","","","","","","","","","","","","",""
"null","audio/beep-329314.mp3","null","audio-keyboard-response","365","2.1.0","399564","F=YES, J=NO","62u9ah5428","2","68","55","80","","","","","","","","","","","","","","","",""
"null","audio/voice.wav","null","audio-keyboard-response","366","2.1.0","400144","F=YES, J=NO","62u9ah5428","2","68","55","80","","","","","","","","","","","","","","","",""
"453","
          <p id=""word"" style=""font-size: 40px;"">flood</p>
          <p style=""font-size: 16px;"">F = YES &nbsp;&nbsp;&nbsp; J = NO</p>
        ","j","html-keyboard-response","367","2.1.0","400597","F=YES, J=NO","62u9ah5428","2","68","55","80","","","","","","","","","flood","voice","unrelated","experimental","f","false","",""
"null","<p style=""font-size: 50px;"">+</p>","null","html-keyboard-response","368","2.1.0","400910","F=YES, J=NO","62u9ah5428","2","68","55","80","","","","","","","","","","","","","","","",""
"null","audio/beep-329314.mp3","null","audio-keyboard-response","369","2.1.0","402444","F=YES, J=NO","62u9ah5428","2","68","55","80","","","","","","","","","","","","","","","",""
"null","audio/pain1.wav","null","audio-keyboard-response","370","2.1.0","402884","F=YES, J=NO","62u9ah5428","2","68","55","80","","","","","","","","","","","","","","","",""
"641","
          <p id=""word"" style=""font-size: 40px;"">sell</p>
          <p style=""font-size: 16px;"">F = YES &nbsp;&nbsp;&nbsp; J = NO</p>
        ","f","html-keyboard-response","371","2.1.0","403525","F=YES, J=NO","62u9ah5428","2","68","55","80","","","","","","","","","sell","pain1","unrelated","experimental","f","true","",""
"null","<p style=""font-size: 50px;"">+</p>","null","html-keyboard-response","372","2.1.0","403835","F=YES, J=NO","62u9ah5428","2","68","55","80","","","","","","","","","","","","","","","",""
"null","audio/beep-329314.mp3","null","audio-keyboard-response","373","2.1.0","405364","F=YES, J=NO","62u9ah5428","2","68","55","80","","","","","","","","","","","","","","","",""
"null","audio/pig.wav","null","audio-keyboard-response","374","2.1.0","405744","F=YES, J=NO","62u9ah5428","2","68","55","80","","","","","","","","","","","","","","","",""
"629","
          <p id=""word"" style=""font-size: 40px;"">tirlike</p>
          <p style=""font-size: 16px;"">F = YES &nbsp;&nbsp;&nbsp; J = NO</p>
        ","j","html-keyboard-response","375","2.1.0","406373","F=YES, J=NO","62u9ah5428","2","68","55","80","","","","","","","","","tirlike","pig","pseudoword","pseudoword","j","true","",""
"null","<p style=""font-size: 50px;"">+</p>","null","html-keyboard-response","376","2.1.0","406683","F=YES, J=NO","62u9ah5428","2","68","55","80","","","","","","","","","","","","","","","",""
"null","audio/beep-329314.mp3","null","audio-keyboard-response","377","2.1.0","408225","F=YES, J=NO","62u9ah5428","2","68","55","80","","","","","","","","","","","","","","","",""
"null","audio/desire.wav","null","audio-keyboard-response","378","2.1.0","408824","F=YES, J=NO","62u9ah5428","2","68","55","80","","","","","","","","","","","","","","","",""
"540","
          <p id=""word"" style=""font-size: 40px;"">nophed</p>
          <p style=""font-size: 16px;"">F = YES &nbsp;&nbsp;&nbsp; J = NO</p>
        ","j","html-keyboard-response","379","2.1.0","409365","F=YES, J=NO","62u9ah5428","2","68","55","80","","","","","","","","","nophed","desire","pseudoword","pseudoword","j","true","",""
"null","<p style=""font-size: 50px;"">+</p>","null","html-keyboard-response","380","2.1.0","409669","F=YES, J=NO","62u9ah5428","2","68","55","80","","","","","","","","","","","","","","","",""
"null","audio/beep-329314.mp3","null","audio-keyboard-response","381","2.1.0","411204","F=YES, J=NO","62u9ah5428","2","68","55","80","","","","","","","","","","","","","","","",""
"null","audio/floor.wav","null","audio-keyboard-response","382","2.1.0","411744","F=YES, J=NO","62u9ah5428","2","68","55","80","","","","","","","","","","","","","","","",""
"628","
          <p id=""word"" style=""font-size: 40px;"">cover</p>
          <p style=""font-size: 16px;"">F = YES &nbsp;&nbsp;&nbsp; J = NO</p>
        ","j","html-keyboard-response","383","2.1.0","412373","F=YES, J=NO","62u9ah5428","2","68","55","80","","","","","","","","","cover","floor","literal","experimental","f","false","",""
"null","<p style=""font-size: 50px;"">+</p>","null","html-keyboard-response","384","2.1.0","412687","F=YES, J=NO","62u9ah5428","2","68","55","80","","","","","","","","","","","","","","","",""
"null","audio/beep-329314.mp3","null","audio-keyboard-response","385","2.1.0","414225","F=YES, J=NO","62u9ah5428","2","68","55","80","","","","","","","","","","","","","","","",""
"null","audio/gift1.wav","null","audio-keyboard-response","386","2.1.0","414684","F=YES, J=NO","62u9ah5428","2","68","55","80","","","","","","","","","","","","","","","",""
"634","
          <p id=""word"" style=""font-size: 40px;"">give</p>
          <p style=""font-size: 16px;"">F = YES &nbsp;&nbsp;&nbsp; J = NO</p>
        ","f","html-keyboard-response","387","2.1.0","415318","F=YES, J=NO","62u9ah5428","2","68","55","80","","","","","","","","","give","gift1","literal","experimental","f","true","",""
"null","<p style=""font-size: 50px;"">+</p>","null","html-keyboard-response","388","2.1.0","415624","F=YES, J=NO","62u9ah5428","2","68","55","80","","","","","","","","","","","","","","","",""
"null","audio/beep-329314.mp3","null","audio-keyboard-response","389","2.1.0","417164","F=YES, J=NO","62u9ah5428","2","68","55","80","","","","","","","","","","","","","","","",""
"null","audio/golf1.wav","null","audio-keyboard-response","390","2.1.0","417744","F=YES, J=NO","62u9ah5428","2","68","55","80","","","","","","","","","","","","","","","",""
"604","
          <p id=""word"" style=""font-size: 40px;"">drabble</p>
          <p style=""font-size: 16px;"">F = YES &nbsp;&nbsp;&nbsp; J = NO</p>
