"rt","stimulus","response","trial_type","trial_index","plugin_version","time_elapsed","response_mapping","subject_id","list_index","lextale_score","lextale_word_score","lextale_nonword_score","success","timeout","failed_images","failed_audio","failed_video","task","isWord","isDummy","target","prime","prime_type","stimulus_type","correct_response","correct","section","question_order"
"40310","
    <div style=""max-width: 800px; margin: auto; text-align: left;"">
      <h2>STANFORD UNIVERSITY</h2>
      <h3>Research Information Sheet</h3>
      <p><strong>Protocol Director:</strong> Robert Hawkins<br>
      <strong>Protocol Title:</strong> Communication and social cognition in natural audiovisual contexts<br>
      <strong>IRB#:</strong> 77226</p>

      <p><strong>DESCRIPTION:</strong> You are invited to participate in a research study about language and communication. The purpose of the research is to understand how you interact and communicate with other people in naturalistic settings as a fluent English speaker. This research will be conducted through the Prolific platform, including participants from the US, UK, and Canada. If you decide to participate in this research, you will play a communication game in a group with one or more partners.</p>

      <p><strong>TIME INVOLVEMENT:</strong> The task will last the amount of time advertised on Prolific. You are free to withdraw from the study at any time.</p>

      <p><strong>RISKS AND BENEFITS:</strong> You may become frustrated if your partner gets distracted, or experience discomfort if other participants in your group send text that is inappropriate for the task. We ask you to please be respectful of other participants you might be interacting with to mitigate these risks. You may also experience discomfort when being asked to discuss or challenge emotionally salient political beliefs. Study data will be stored securely, in compliance with Stanford University standards, minimizing the risk of confidentiality breach. This study advances our scientific understanding of how people communicate and collaborate in naturalistic settings. This study may lead to further insights about what can go wrong in teamwork, suggest potential interventions to overcome these barriers, and help to develop assistive technologies that collaborate with human partners. We cannot and do not guarantee or promise that you will receive any benefits from this study.</p>

      <p><strong>PAYMENTS:</strong> You will receive payment in the amount advertised on Prolific. If you do not complete this study, you will receive prorated payment based on the time that you have spent. Additionally, you may be eligible for bonus payments as described in the instructions.</p>

      <p><strong>PARTICIPANT’S RIGHTS:</strong> If you have read this form and have decided to participate in this project, please understand your participation is voluntary and you have the right to withdraw your consent or discontinue participation at any time without penalty or loss of benefits to which you are otherwise entitled. The alternative is not to participate. You have the right to refuse to answer particular questions. The results of this research study may be presented at scientific or professional meetings or published in scientific journals. Your individual privacy will be maintained in all published and written data resulting from the study. In accordance with scientific norms, the data from this study may be used or shared with other researchers for future research (after removing personally identifying information) without additional consent from you.</p>

      <p><strong>CONTACT INFORMATION:</strong><br>
      Questions: If you have any questions, concerns or complaints about this research, its procedures, risks and benefits, contact the Protocol Director, Robert Hawkins (<a href=""mailto:rdhawkins@stanford.edu"">rdhawkins@stanford.edu</a>, 217-549-6923).<br>
      Independent Contact: If you are not satisfied with how this study is being conducted, or if you have any concerns, complaints, or general questions about the research or your rights as a participant, please contact the Stanford Institutional Review Board (IRB) to speak to someone independent of the research team at 650-723-2480 or toll free at 1-866-680-2906, or email at <a href=""mailto:irbnon-med@stanford.edu"">irbnon-med@stanford.edu</a>. You can also write to the Stanford IRB, Stanford University, 1705 El Camino Real, Palo Alto, CA 94306.</p>

      <p><strong>Please save or print a copy of this page for your records.</strong></p>
      <p>If you agree to participate in this research, click ""Continue"" below.</p>
    </div>
  ","0","html-button-response","0","2.1.0","40319","J=YES, F=NO","675hjyj66h","0","69","53","85","","","","","","","","","","","","","","","",""
"19839","
    <div style=""max-width: 800px; margin: auto; text-align: left;"">
      <h2>Welcome!</h2>
      <p>Thank you for participating in this study. The experiment consists of three parts:</p>
      <ol>
        <li>An English vocabulary test</li>
        <li>A main task in which you will hear and see words, and decide whether the written word is a real English word</li>
        <li>A brief survey about your background</li>
      </ol>
      <p>Each part will be introduced before it begins.</p>
      <p>Please make sure you are in a quiet environment and can hear audio clearly for the final task.</p>
      <p style=""margin-top: 2em;"">Press any key to begin.</p>
    </div>
  "," ","html-keyboard-response","1","2.1.0","60159","J=YES, F=NO","675hjyj66h","0","69","53","85","","","","","","","","","","","","","","","",""
"","","","preload","2","2.1.0","60573","J=YES, F=NO","675hjyj66h","0","69","53","85","true","false","[]","[]","[]","","","","","","","","","","",""
"9033","
    <div style=""max-width: 800px; margin: auto; text-align: left;"">
      <h2>Part 1: Vocabulary Test</h2>
      <p>You will now complete the first part of the study: a short English vocabulary test.</p>
      <p>This test is called <strong>LexTALE</strong> and helps us get a general sense of your English proficiency.</p>
      <p style=""margin-top: 2em;"">Press any key to continue.</p>
    </div>
  "," ","html-keyboard-response","3","2.1.0","69607","J=YES, F=NO","675hjyj66h","0","69","53","85","","","","","","","","","","","","","","","",""
"20799","
    <div style=""max-width: 800px; margin: auto; text-align: left;"">
      <h2>LexTALE Vocabulary Test</h2>
      <p>In this test, you will see a series of letter strings—one at a time.</p>
      <p>Your task is to decide whether each string is a real English word.</p>
      <p><strong>Key responses:</strong></p>
      <ul>
        <li><strong>J</strong> = YES (real English word)</li>
        <li><strong>F</strong> = NO (not a real English word)</li>
      </ul>
      <p>There is no time limit, but please try to be accurate.</p>
      <p style=""margin-top: 2em;"">Press any key to begin.</p>
    </div>
  "," ","html-keyboard-response","4","2.1.0","90409","J=YES, F=NO","675hjyj66h","0","69","53","85","","","","","","","","","","","","","","","",""
"3529","
  <p style=""font-size: 40px;"">platery</p>
  <p style=""font-size: 16px;"">J = YES &nbsp;&nbsp;&nbsp; F = NO</p>
","j","html-keyboard-response","5","2.1.0","93941","J=YES, F=NO","675hjyj66h","0","69","53","85","","","","","","lextale","false","true","","","","","","","",""
"1721","
  <p style=""font-size: 40px;"">denial</p>
  <p style=""font-size: 16px;"">J = YES &nbsp;&nbsp;&nbsp; F = NO</p>
","j","html-keyboard-response","6","2.1.0","95663","J=YES, F=NO","675hjyj66h","0","69","53","85","","","","","","lextale","true","true","","","","","","","",""
"1661","
  <p style=""font-size: 40px;"">marrit</p>
  <p style=""font-size: 16px;"">J = YES &nbsp;&nbsp;&nbsp; F = NO</p>
","f","html-keyboard-response","7","2.1.0","97325","J=YES, F=NO","675hjyj66h","0","69","53","85","","","","","","lextale","false","true","","","","","","","",""
"2896","
  <p style=""font-size: 40px;"">bottle</p>
  <p style=""font-size: 16px;"">J = YES &nbsp;&nbsp;&nbsp; F = NO</p>
","j","html-keyboard-response","8","2.1.0","100223","J=YES, F=NO","675hjyj66h","0","69","53","85","","","","","","lextale","true","false","","","","","","","",""
"2286","
  <p style=""font-size: 40px;"">birst</p>
  <p style=""font-size: 16px;"">J = YES &nbsp;&nbsp;&nbsp; F = NO</p>
","f","html-keyboard-response","9","2.1.0","102511","J=YES, F=NO","675hjyj66h","0","69","53","85","","","","","","lextale","false","false","","","","","","","",""
"2334","
  <p style=""font-size: 40px;"">envy</p>
  <p style=""font-size: 16px;"">J = YES &nbsp;&nbsp;&nbsp; F = NO</p>
","j","html-keyboard-response","10","2.1.0","104848","J=YES, F=NO","675hjyj66h","0","69","53","85","","","","","","lextale","true","false","","","","","","","",""
"2398","
  <p style=""font-size: 40px;"">brang</p>
  <p style=""font-size: 16px;"">J = YES &nbsp;&nbsp;&nbsp; F = NO</p>
","f","html-keyboard-response","11","2.1.0","107247","J=YES, F=NO","675hjyj66h","0","69","53","85","","","","","","lextale","false","false","","","","","","","",""
"1911","
  <p style=""font-size: 40px;"">huge</p>
  <p style=""font-size: 16px;"">J = YES &nbsp;&nbsp;&nbsp; F = NO</p>
","j","html-keyboard-response","12","2.1.0","109160","J=YES, F=NO","675hjyj66h","0","69","53","85","","","","","","lextale","true","false","","","","","","","",""
"1420","
  <p style=""font-size: 40px;"">plove</p>
  <p style=""font-size: 16px;"">J = YES &nbsp;&nbsp;&nbsp; F = NO</p>
","f","html-keyboard-response","13","2.1.0","110582","J=YES, F=NO","675hjyj66h","0","69","53","85","","","","","","lextale","false","false","","","","","","","",""
"1784","
  <p style=""font-size: 40px;"">border</p>
  <p style=""font-size: 16px;"">J = YES &nbsp;&nbsp;&nbsp; F = NO</p>
","j","html-keyboard-response","14","2.1.0","112366","J=YES, F=NO","675hjyj66h","0","69","53","85","","","","","","lextale","true","false","","","","","","","",""
"1486","
  <p style=""font-size: 40px;"">flimsy</p>
  <p style=""font-size: 16px;"">J = YES &nbsp;&nbsp;&nbsp; F = NO</p>
","f","html-keyboard-response","15","2.1.0","113855","J=YES, F=NO","675hjyj66h","0","69","53","85","","","","","","lextale","true","false","","","","","","","",""
"2342","
  <p style=""font-size: 40px;"">drain</p>
  <p style=""font-size: 16px;"">J = YES &nbsp;&nbsp;&nbsp; F = NO</p>
","j","html-keyboard-response","16","2.1.0","116199","J=YES, F=NO","675hjyj66h","0","69","53","85","","","","","","lextale","true","false","","","","","","","",""
"2143","
  <p style=""font-size: 40px;"">twindle</p>
  <p style=""font-size: 16px;"">J = YES &nbsp;&nbsp;&nbsp; F = NO</p>
","f","html-keyboard-response","17","2.1.0","118343","J=YES, F=NO","675hjyj66h","0","69","53","85","","","","","","lextale","false","false","","","","","","","",""
"1070","
  <p style=""font-size: 40px;"">propose</p>
  <p style=""font-size: 16px;"">J = YES &nbsp;&nbsp;&nbsp; F = NO</p>
","j","html-keyboard-response","18","2.1.0","119415","J=YES, F=NO","675hjyj66h","0","69","53","85","","","","","","lextale","true","false","","","","","","","",""
"1773","
  <p style=""font-size: 40px;"">forlay</p>
  <p style=""font-size: 16px;"">J = YES &nbsp;&nbsp;&nbsp; F = NO</p>
","f","html-keyboard-response","19","2.1.0","121188","J=YES, F=NO","675hjyj66h","0","69","53","85","","","","","","lextale","false","false","","","","","","","",""
"4746","
  <p style=""font-size: 40px;"">tenant</p>
  <p style=""font-size: 16px;"">J = YES &nbsp;&nbsp;&nbsp; F = NO</p>
","f","html-keyboard-response","20","2.1.0","125936","J=YES, F=NO","675hjyj66h","0","69","53","85","","","","","","lextale","true","false","","","","","","","",""
"1494","
  <p style=""font-size: 40px;"">strain</p>
  <p style=""font-size: 16px;"">J = YES &nbsp;&nbsp;&nbsp; F = NO</p>
","j","html-keyboard-response","21","2.1.0","127431","J=YES, F=NO","675hjyj66h","0","69","53","85","","","","","","lextale","true","false","","","","","","","",""
"1236","
  <p style=""font-size: 40px;"">holster</p>
  <p style=""font-size: 16px;"">J = YES &nbsp;&nbsp;&nbsp; F = NO</p>
","f","html-keyboard-response","22","2.1.0","128668","J=YES, F=NO","675hjyj66h","0","69","53","85","","","","","","lextale","true","false","","","","","","","",""
"1745","
  <p style=""font-size: 40px;"">hinder</p>
  <p style=""font-size: 16px;"">J = YES &nbsp;&nbsp;&nbsp; F = NO</p>
","f","html-keyboard-response","23","2.1.0","130413","J=YES, F=NO","675hjyj66h","0","69","53","85","","","","","","lextale","true","false","","","","","","","",""
"1758","
  <p style=""font-size: 40px;"">swindle</p>
  <p style=""font-size: 16px;"">J = YES &nbsp;&nbsp;&nbsp; F = NO</p>
","f","html-keyboard-response","24","2.1.0","132172","J=YES, F=NO","675hjyj66h","0","69","53","85","","","","","","lextale","true","false","","","","","","","",""
"1167","
  <p style=""font-size: 40px;"">nuder</p>
  <p style=""font-size: 16px;"">J = YES &nbsp;&nbsp;&nbsp; F = NO</p>
","f","html-keyboard-response","25","2.1.0","133340","J=YES, F=NO","675hjyj66h","0","69","53","85","","","","","","lextale","false","false","","","","","","","",""
"888","
  <p style=""font-size: 40px;"">pillow</p>
  <p style=""font-size: 16px;"">J = YES &nbsp;&nbsp;&nbsp; F = NO</p>
","j","html-keyboard-response","26","2.1.0","134228","J=YES, F=NO","675hjyj66h","0","69","53","85","","","","","","lextale","true","false","","","","","","","",""
"1376","
  <p style=""font-size: 40px;"">shumble</p>
  <p style=""font-size: 16px;"">J = YES &nbsp;&nbsp;&nbsp; F = NO</p>
","j","html-keyboard-response","27","2.1.0","135604","J=YES, F=NO","675hjyj66h","0","69","53","85","","","","","","lextale","false","false","","","","","","","",""
"816","
  <p style=""font-size: 40px;"">thirst</p>
  <p style=""font-size: 16px;"">J = YES &nbsp;&nbsp;&nbsp; F = NO</p>
","j","html-keyboard-response","28","2.1.0","136421","J=YES, F=NO","675hjyj66h","0","69","53","85","","","","","","lextale","true","false","","","","","","","",""
"1935","
  <p style=""font-size: 40px;"">unsail</p>
  <p style=""font-size: 16px;"">J = YES &nbsp;&nbsp;&nbsp; F = NO</p>
","f","html-keyboard-response","29","2.1.0","138356","J=YES, F=NO","675hjyj66h","0","69","53","85","","","","","","lextale","false","false","","","","","","","",""
"2000","
  <p style=""font-size: 40px;"">rifle</p>
  <p style=""font-size: 16px;"">J = YES &nbsp;&nbsp;&nbsp; F = NO</p>
","f","html-keyboard-response","30","2.1.0","140356","J=YES, F=NO","675hjyj66h","0","69","53","85","","","","","","lextale","true","false","","","","","","","",""
"1920","
  <p style=""font-size: 40px;"">mush</p>
  <p style=""font-size: 16px;"">J = YES &nbsp;&nbsp;&nbsp; F = NO</p>
","f","html-keyboard-response","31","2.1.0","142277","J=YES, F=NO","675hjyj66h","0","69","53","85","","","","","","lextale","false","false","","","","","","","",""
"935","
  <p style=""font-size: 40px;"">drench</p>
  <p style=""font-size: 16px;"">J = YES &nbsp;&nbsp;&nbsp; F = NO</p>
","f","html-keyboard-response","32","2.1.0","143213","J=YES, F=NO","675hjyj66h","0","69","53","85","","","","","","lextale","true","false","","","","","","","",""
"1440","
  <p style=""font-size: 40px;"">snirt</p>
  <p style=""font-size: 16px;"">J = YES &nbsp;&nbsp;&nbsp; F = NO</p>
","f","html-keyboard-response","33","2.1.0","144652","J=YES, F=NO","675hjyj66h","0","69","53","85","","","","","","lextale","false","false","","","","","","","",""
"1023","
  <p style=""font-size: 40px;"">bitter</p>
  <p style=""font-size: 16px;"">J = YES &nbsp;&nbsp;&nbsp; F = NO</p>
","j","html-keyboard-response","34","2.1.0","145677","J=YES, F=NO","675hjyj66h","0","69","53","85","","","","","","lextale","true","false","","","","","","","",""
"1272","
  <p style=""font-size: 40px;"">pliff</p>
  <p style=""font-size: 16px;"">J = YES &nbsp;&nbsp;&nbsp; F = NO</p>
","f","html-keyboard-response","35","2.1.0","146948","J=YES, F=NO","675hjyj66h","0","69","53","85","","","","","","lextale","false","false","","","","","","","",""
"1039","
  <p style=""font-size: 40px;"">tablet</p>
  <p style=""font-size: 16px;"">J = YES &nbsp;&nbsp;&nbsp; F = NO</p>
","j","html-keyboard-response","36","2.1.0","147988","J=YES, F=NO","675hjyj66h","0","69","53","85","","","","","","lextale","true","false","","","","","","","",""
"4007","
  <p style=""font-size: 40px;"">glimmer</p>
  <p style=""font-size: 16px;"">J = YES &nbsp;&nbsp;&nbsp; F = NO</p>
","f","html-keyboard-response","37","2.1.0","151996","J=YES, F=NO","675hjyj66h","0","69","53","85","","","","","","lextale","true","false","","","","","","","",""
"1089","
  <p style=""font-size: 40px;"">slink</p>
  <p style=""font-size: 16px;"">J = YES &nbsp;&nbsp;&nbsp; F = NO</p>
","f","html-keyboard-response","38","2.1.0","153085","J=YES, F=NO","675hjyj66h","0","69","53","85","","","","","","lextale","true","false","","","","","","","",""
"952","
  <p style=""font-size: 40px;"">clever</p>
  <p style=""font-size: 16px;"">J = YES &nbsp;&nbsp;&nbsp; F = NO</p>
","j","html-keyboard-response","39","2.1.0","154037","J=YES, F=NO","675hjyj66h","0","69","53","85","","","","","","lextale","true","false","","","","","","","",""
"2016","
  <p style=""font-size: 40px;"">grum</p>
  <p style=""font-size: 16px;"">J = YES &nbsp;&nbsp;&nbsp; F = NO</p>
","f","html-keyboard-response","40","2.1.0","156053","J=YES, F=NO","675hjyj66h","0","69","53","85","","","","","","lextale","false","false","","","","","","","",""
"768","
  <p style=""font-size: 40px;"">string</p>
  <p style=""font-size: 16px;"">J = YES &nbsp;&nbsp;&nbsp; F = NO</p>
","j","html-keyboard-response","41","2.1.0","156820","J=YES, F=NO","675hjyj66h","0","69","53","85","","","","","","lextale","true","false","","","","","","","",""
"960","
  <p style=""font-size: 40px;"">plim</p>
  <p style=""font-size: 16px;"">J = YES &nbsp;&nbsp;&nbsp; F = NO</p>
","f","html-keyboard-response","42","2.1.0","157780","J=YES, F=NO","675hjyj66h","0","69","53","85","","","","","","lextale","false","false","","","","","","","",""
"832","
  <p style=""font-size: 40px;"">cable</p>
  <p style=""font-size: 16px;"">J = YES &nbsp;&nbsp;&nbsp; F = NO</p>
","j","html-keyboard-response","43","2.1.0","158613","J=YES, F=NO","675hjyj66h","0","69","53","85","","","","","","lextale","true","false","","","","","","","",""
"1000","
  <p style=""font-size: 40px;"">shrivel</p>
  <p style=""font-size: 16px;"">J = YES &nbsp;&nbsp;&nbsp; F = NO</p>
","f","html-keyboard-response","44","2.1.0","159612","J=YES, F=NO","675hjyj66h","0","69","53","85","","","","","","lextale","true","false","","","","","","","",""
"1183","
  <p style=""font-size: 40px;"">tarnish</p>
  <p style=""font-size: 16px;"">J = YES &nbsp;&nbsp;&nbsp; F = NO</p>
","f","html-keyboard-response","45","2.1.0","160796","J=YES, F=NO","675hjyj66h","0","69","53","85","","","","","","lextale","true","false","","","","","","","",""
"1160","
  <p style=""font-size: 40px;"">blim</p>
  <p style=""font-size: 16px;"">J = YES &nbsp;&nbsp;&nbsp; F = NO</p>
","f","html-keyboard-response","46","2.1.0","161957","J=YES, F=NO","675hjyj66h","0","69","53","85","","","","","","lextale","false","false","","","","","","","",""
"1559","
  <p style=""font-size: 40px;"">stifle</p>
  <p style=""font-size: 16px;"">J = YES &nbsp;&nbsp;&nbsp; F = NO</p>
","f","html-keyboard-response","47","2.1.0","163516","J=YES, F=NO","675hjyj66h","0","69","53","85","","","","","","lextale","true","false","","","","","","","",""
"1536","
  <p style=""font-size: 40px;"">bint</p>
  <p style=""font-size: 16px;"">J = YES &nbsp;&nbsp;&nbsp; F = NO</p>
","f","html-keyboard-response","48","2.1.0","165052","J=YES, F=NO","675hjyj66h","0","69","53","85","","","","","","lextale","false","false","","","","","","","",""
"744","
  <p style=""font-size: 40px;"">purple</p>
  <p style=""font-size: 16px;"">J = YES &nbsp;&nbsp;&nbsp; F = NO</p>
","j","html-keyboard-response","49","2.1.0","165797","J=YES, F=NO","675hjyj66h","0","69","53","85","","","","","","lextale","true","false","","","","","","","",""
"1263","
  <p style=""font-size: 40px;"">wriggle</p>
  <p style=""font-size: 16px;"">J = YES &nbsp;&nbsp;&nbsp; F = NO</p>
","j","html-keyboard-response","50","2.1.0","167061","J=YES, F=NO","675hjyj66h","0","69","53","85","","","","","","lextale","true","false","","","","","","","",""
"1288","
  <p style=""font-size: 40px;"">mangle</p>
  <p style=""font-size: 16px;"">J = YES &nbsp;&nbsp;&nbsp; F = NO</p>
","f","html-keyboard-response","51","2.1.0","168349","J=YES, F=NO","675hjyj66h","0","69","53","85","","","","","","lextale","true","false","","","","","","","",""
"846","
  <p style=""font-size: 40px;"">shramp</p>
  <p style=""font-size: 16px;"">J = YES &nbsp;&nbsp;&nbsp; F = NO</p>
","j","html-keyboard-response","52","2.1.0","169196","J=YES, F=NO","675hjyj66h","0","69","53","85","","","","","","lextale","false","false","","","","","","","",""
"800","
  <p style=""font-size: 40px;"">flirt</p>
  <p style=""font-size: 16px;"">J = YES &nbsp;&nbsp;&nbsp; F = NO</p>
","j","html-keyboard-response","53","2.1.0","169997","J=YES, F=NO","675hjyj66h","0","69","53","85","","","","","","lextale","true","false","","","","","","","",""
"1199","
  <p style=""font-size: 40px;"">frip</p>
  <p style=""font-size: 16px;"">J = YES &nbsp;&nbsp;&nbsp; F = NO</p>
","f","html-keyboard-response","54","2.1.0","171196","J=YES, F=NO","675hjyj66h","0","69","53","85","","","","","","lextale","false","false","","","","","","","",""
"991","
  <p style=""font-size: 40px;"">tangle</p>
  <p style=""font-size: 16px;"">J = YES &nbsp;&nbsp;&nbsp; F = NO</p>
","j","html-keyboard-response","55","2.1.0","172188","J=YES, F=NO","675hjyj66h","0","69","53","85","","","","","","lextale","true","false","","","","","","","",""
"952","
  <p style=""font-size: 40px;"">crumble</p>
  <p style=""font-size: 16px;"">J = YES &nbsp;&nbsp;&nbsp; F = NO</p>
","j","html-keyboard-response","56","2.1.0","173140","J=YES, F=NO","675hjyj66h","0","69","53","85","","","","","","lextale","true","false","","","","","","","",""
"856","
  <p style=""font-size: 40px;"">wrinkle</p>
  <p style=""font-size: 16px;"">J = YES &nbsp;&nbsp;&nbsp; F = NO</p>
","j","html-keyboard-response","57","2.1.0","173997","J=YES, F=NO","675hjyj66h","0","69","53","85","","","","","","lextale","true","false","","","","","","","",""
"1495","
  <p style=""font-size: 40px;"">slumb</p>
  <p style=""font-size: 16px;"">J = YES &nbsp;&nbsp;&nbsp; F = NO</p>
","f","html-keyboard-response","58","2.1.0","175493","J=YES, F=NO","675hjyj66h","0","69","53","85","","","","","","lextale","false","false","","","","","","","",""
"736","
  <p style=""font-size: 40px;"">jungle</p>
  <p style=""font-size: 16px;"">J = YES &nbsp;&nbsp;&nbsp; F = NO</p>
","j","html-keyboard-response","59","2.1.0","176229","J=YES, F=NO","675hjyj66h","0","69","53","85","","","","","","lextale","true","false","","","","","","","",""
"1175","
  <p style=""font-size: 40px;"">frolick</p>
  <p style=""font-size: 16px;"">J = YES &nbsp;&nbsp;&nbsp; F = NO</p>
","f","html-keyboard-response","60","2.1.0","177405","J=YES, F=NO","675hjyj66h","0","69","53","85","","","","","","lextale","false","false","","","","","","","",""
"4327","
      <h2>LexTALE Test Completed</h2>
      <p>Your LexTALE vocabulary score is: <strong>69%</strong></p>
      <p>Press any key to continue.</p>
    "," ","html-keyboard-response","61","2.1.0","181734","J=YES, F=NO","675hjyj66h","0","69","53","85","","","","","","","","","","","","","","","",""
"5886","
    <div style=""max-width: 800px; margin: auto; text-align: left;"">
      <h2>Break Time</h2>
      <p>You have completed the first part of the study.</p>
      <p>You may take a short <strong>30-second break</strong> before continuing.</p>
      <p>When you’re ready, press any key to continue to the final task.</p>
    </div>
  ","j","html-keyboard-response","62","2.1.0","187620","J=YES, F=NO","675hjyj66h","0","69","53","85","","","","","","","","","","","","","","","",""
"24001","
    <div style=""max-width: 800px; margin: auto; text-align: left;"">
      <h2>Part 2: Lexical Decision Task</h2>
      <p>You will now begin the second part of the study.</p>
      <p>Each trial will follow this sequence:</p>
      <ul>
        <li>A fixation cross (+) appears at the center of the screen.</li>
        <li>You will hear a short beep followed by a spoken word.</li>
        <li>A written word will appear briefly on the screen.</li>
      </ul>
      <p>Your task is to judge whether the <strong>written word</strong> is a real English word.</p>
      <p style=""margin-top: 1em;""><strong>Key responses:</strong></p>
      <ul>
        <li><strong>J</strong> = YES (real English word)</li>
        <li><strong>F</strong> = NO (not a real English word)</li>
      </ul>
      <p>Please respond as quickly and accurately as you can.</p>
      <p style=""margin-top: 2em;"">Press any key to continue.</p>
    </div>
  "," ","html-keyboard-response","63","2.1.0","211622","J=YES, F=NO","675hjyj66h","0","69","53","85","","","","","","","","","","","","","","","",""
"12208","
    <div style=""max-width: 800px; margin: auto; text-align: left;"">
      <h2>Before You Begin</h2>
      <p>Make sure your sound is turned on.</p>
      <p>You will hear audio during each trial, but your decision should be based only on the <strong>written word</strong> you see on the screen.</p>
      <p><strong>Reminder:</strong></p>
      <ul>
        <li><strong>J</strong> = YES (real English word)</li>
        <li><strong>F</strong> = NO (not a real English word)</li>
      </ul>
      <p style=""margin-top: 2em;"">Press any key when you are ready to begin.</p>
    </div>
  "," ","html-keyboard-response","64","2.1.0","223830","J=YES, F=NO","675hjyj66h","0","69","53","85","","","","","","","","","","","","","","","",""
"5160","
    <div style=""max-width: 800px; margin: auto; text-align: left;"">
      <h2>Part 2: Practice Trials</h2>
      <p>You will now complete a few <strong>practice trials</strong> to get familiar with the task.</p>
      <p>These trials are <strong>not scored</strong> and are only to help you get used to the format.</p>
      <p style=""margin-top: 2em;"">Press any key to begin.</p>
    </div>
  "," ","html-keyboard-response","65","2.1.0","228990","J=YES, F=NO","675hjyj66h","0","69","53","85","","","","","","","","","","","","","","","",""
"1927","<p>Starting practice block 1 of 2. Press any key to continue.</p>"," ","html-keyboard-response","66","2.1.0","230919","J=YES, F=NO","675hjyj66h","0","69","53","85","","","","","","","","","","","","","","","",""
"null","<p style=""font-size: 50px;"">+</p>","null","html-keyboard-response","67","2.1.0","231233","J=YES, F=NO","675hjyj66h","0","69","53","85","","","","","","","","","","","","","","","",""
"null","audio/beep-329314.mp3","null","audio-keyboard-response","68","2.1.0","232760","J=YES, F=NO","675hjyj66h","0","69","53","85","","","","","","","","","","","","","","","",""
"null","audio/tunnel.wav","null","audio-keyboard-response","69","2.1.0","233288","J=YES, F=NO","675hjyj66h","0","69","53","85","","","","","","","","","","","","","","","",""
"null","
          <p id=""word"" style=""font-size: 40px;"">gred</p>
          <p style=""font-size: 16px;"">J = YES &nbsp;&nbsp;&nbsp; F = NO</p>
        ","null","html-keyboard-response","70","2.1.0","234889","J=YES, F=NO","675hjyj66h","0","69","53","85","","","","","","","","","gred","tunnel","pseudoword","pseudoword","f","false","",""
"null","<p style=""font-size: 50px;"">+</p>","null","html-keyboard-response","71","2.1.0","235205","J=YES, F=NO","675hjyj66h","0","69","53","85","","","","","","","","","","","","","","","",""
"null","audio/beep-329314.mp3","null","audio-keyboard-response","72","2.1.0","236723","J=YES, F=NO","675hjyj66h","0","69","53","85","","","","","","","","","","","","","","","",""
"null","audio/desire.wav","null","audio-keyboard-response","73","2.1.0","237467","J=YES, F=NO","675hjyj66h","0","69","53","85","","","","","","","","","","","","","","","",""
"1332","
          <p id=""word"" style=""font-size: 40px;"">nophed</p>
          <p style=""font-size: 16px;"">J = YES &nbsp;&nbsp;&nbsp; F = NO</p>
        ","f","html-keyboard-response","74","2.1.0","238798","J=YES, F=NO","675hjyj66h","0","69","53","85","","","","","","","","","nophed","desire","pseudoword","pseudoword","f","true","",""
"null","<p style=""font-size: 50px;"">+</p>","null","html-keyboard-response","75","2.1.0","239107","J=YES, F=NO","675hjyj66h","0","69","53","85","","","","","","","","","","","","","","","",""
"null","audio/beep-329314.mp3","null","audio-keyboard-response","76","2.1.0","240625","J=YES, F=NO","675hjyj66h","0","69","53","85","","","","","","","","","","","","","","","",""
"null","audio/truth1.wav","null","audio-keyboard-response","77","2.1.0","241198","J=YES, F=NO","675hjyj66h","0","69","53","85","","","","","","","","","","","","","","","",""
"1367","
          <p id=""word"" style=""font-size: 40px;"">calitom</p>
          <p style=""font-size: 16px;"">J = YES &nbsp;&nbsp;&nbsp; F = NO</p>
        ","f","html-keyboard-response","78","2.1.0","242567","J=YES, F=NO","675hjyj66h","0","69","53","85","","","","","","","","","calitom","truth1","pseudoword","pseudoword","f","true","",""
"null","<p style=""font-size: 50px;"">+</p>","null","html-keyboard-response","79","2.1.0","242872","J=YES, F=NO","675hjyj66h","0","69","53","85","","","","","","","","","","","","","","","",""
"null","audio/beep-329314.mp3","null","audio-keyboard-response","80","2.1.0","244388","J=YES, F=NO","675hjyj66h","0","69","53","85","","","","","","","","","","","","","","","",""
"null","audio/pattern.wav","null","audio-keyboard-response","81","2.1.0","245023","J=YES, F=NO","675hjyj66h","0","69","53","85","","","","","","","","","","","","","","","",""
"888","
          <p id=""word"" style=""font-size: 40px;"">tug</p>
          <p style=""font-size: 16px;"">J = YES &nbsp;&nbsp;&nbsp; F = NO</p>
        ","f","html-keyboard-response","82","2.1.0","245910","J=YES, F=NO","675hjyj66h","0","69","53","85","","","","","","","","","tug","pattern","filler","filler","j","false","",""
"null","<p style=""font-size: 50px;"">+</p>","null","html-keyboard-response","83","2.1.0","246228","J=YES, F=NO","675hjyj66h","0","69","53","85","","","","","","","","","","","","","","","",""
"null","audio/beep-329314.mp3","null","audio-keyboard-response","84","2.1.0","247750","J=YES, F=NO","675hjyj66h","0","69","53","85","","","","","","","","","","","","","","","",""
"null","audio/brain.wav","null","audio-keyboard-response","85","2.1.0","248250","J=YES, F=NO","675hjyj66h","0","69","53","85","","","","","","","","","","","","","","","",""
"1076","
          <p id=""word"" style=""font-size: 40px;"">throw</p>
          <p style=""font-size: 16px;"">J = YES &nbsp;&nbsp;&nbsp; F = NO</p>
        ","j","html-keyboard-response","86","2.1.0","249326","J=YES, F=NO","675hjyj66h","0","69","53","85","","","","","","","","","throw","brain","filler","filler","j","true","",""
"null","<p style=""font-size: 50px;"">+</p>","null","html-keyboard-response","87","2.1.0","249635","J=YES, F=NO","675hjyj66h","0","69","53","85","","","","","","","","","","","","","","","",""
"null","audio/beep-329314.mp3","null","audio-keyboard-response","88","2.1.0","251153","J=YES, F=NO","675hjyj66h","0","69","53","85","","","","","","","","","","","","","","","",""
"null","audio/alarm1.wav","null","audio-keyboard-response","89","2.1.0","251707","J=YES, F=NO","675hjyj66h","0","69","53","85","","","","","","","","","","","","","","","",""
"780","
          <p id=""word"" style=""font-size: 40px;"">swetp</p>
          <p style=""font-size: 16px;"">J = YES &nbsp;&nbsp;&nbsp; F = NO</p>
        ","f","html-keyboard-response","90","2.1.0","252486","J=YES, F=NO","675hjyj66h","0","69","53","85","","","","","","","","","swetp","alarm1","pseudoword","pseudoword","f","true","",""
"null","<p style=""font-size: 50px;"">+</p>","null","html-keyboard-response","91","2.1.0","252792","J=YES, F=NO","675hjyj66h","0","69","53","85","","","","","","","","","","","","","","","",""
"null","audio/beep-329314.mp3","null","audio-keyboard-response","92","2.1.0","254315","J=YES, F=NO","675hjyj66h","0","69","53","85","","","","","","","","","","","","","","","",""
"null","audio/breath.wav","null","audio-keyboard-response","93","2.1.0","254848","J=YES, F=NO","675hjyj66h","0","69","53","85","","","","","","","","","","","","","","","",""
"1253","
          <p id=""word"" style=""font-size: 40px;"">pack</p>
          <p style=""font-size: 16px;"">J = YES &nbsp;&nbsp;&nbsp; F = NO</p>
        ","f","html-keyboard-response","94","2.1.0","256102","J=YES, F=NO","675hjyj66h","0","69","53","85","","","","","","","","","pack","breath","filler","filler","j","false","",""
"null","<p style=""font-size: 50px;"">+</p>","null","html-keyboard-response","95","2.1.0","256415","J=YES, F=NO","675hjyj66h","0","69","53","85","","","","","","","","","","","","","","","",""
"null","audio/beep-329314.mp3","null","audio-keyboard-response","96","2.1.0","257933","J=YES, F=NO","675hjyj66h","0","69","53","85","","","","","","","","","","","","","","","",""
"null","audio/van1.wav","null","audio-keyboard-response","97","2.1.0","258556","J=YES, F=NO","675hjyj66h","0","69","53","85","","","","","","","","","","","","","","","",""
"746","
          <p id=""word"" style=""font-size: 40px;"">push</p>
          <p style=""font-size: 16px;"">J = YES &nbsp;&nbsp;&nbsp; F = NO</p>
        ","j","html-keyboard-response","98","2.1.0","259303","J=YES, F=NO","675hjyj66h","0","69","53","85","","","","","","","","","push","van1","filler","filler","j","true","",""
"null","<p style=""font-size: 50px;"">+</p>","null","html-keyboard-response","99","2.1.0","259608","J=YES, F=NO","675hjyj66h","0","69","53","85","","","","","","","","","","","","","","","",""
"null","audio/beep-329314.mp3","null","audio-keyboard-response","100","2.1.0","261122","J=YES, F=NO","675hjyj66h","0","69","53","85","","","","","","","","","","","","","","","",""
"null","audio/pine.wav","null","audio-keyboard-response","101","2.1.0","261594","J=YES, F=NO","675hjyj66h","0","69","53","85","","","","","","","","","","","","","","","",""
"906","
          <p id=""word"" style=""font-size: 40px;"">crebble</p>
          <p style=""font-size: 16px;"">J = YES &nbsp;&nbsp;&nbsp; F = NO</p>
        ","f","html-keyboard-response","102","2.1.0","262502","J=YES, F=NO","675hjyj66h","0","69","53","85","","","","","","","","","crebble","pine","pseudoword","pseudoword","f","true","",""
"null","<p style=""font-size: 50px;"">+</p>","null","html-keyboard-response","103","2.1.0","262813","J=YES, F=NO","675hjyj66h","0","69","53","85","","","","","","","","","","","","","","","",""
"null","audio/beep-329314.mp3","null","audio-keyboard-response","104","2.1.0","264330","J=YES, F=NO","675hjyj66h","0","69","53","85","","","","","","","","","","","","","","","",""
"null","audio/trust.wav","null","audio-keyboard-response","105","2.1.0","265090","J=YES, F=NO","675hjyj66h","0","69","53","85","","","","","","","","","","","","","","","",""
"947","
          <p id=""word"" style=""font-size: 40px;"">swint</p>
          <p style=""font-size: 16px;"">J = YES &nbsp;&nbsp;&nbsp; F = NO</p>
        ","f","html-keyboard-response","106","2.1.0","266038","J=YES, F=NO","675hjyj66h","0","69","53","85","","","","","","","","","swint","trust","pseudoword","pseudoword","f","true","",""
"null","<p style=""font-size: 50px;"">+</p>","null","html-keyboard-response","107","2.1.0","266349","J=YES, F=NO","675hjyj66h","0","69","53","85","","","","","","","","","","","","","","","",""
"null","audio/beep-329314.mp3","null","audio-keyboard-response","108","2.1.0","267867","J=YES, F=NO","675hjyj66h","0","69","53","85","","","","","","","","","","","","","","","",""
"null","audio/account1.wav","null","audio-keyboard-response","109","2.1.0","268521","J=YES, F=NO","675hjyj66h","0","69","53","85","","","","","","","","","","","","","","","",""
"781","
          <p id=""word"" style=""font-size: 40px;"">paint</p>
          <p style=""font-size: 16px;"">J = YES &nbsp;&nbsp;&nbsp; F = NO</p>
        ","j","html-keyboard-response","110","2.1.0","269303","J=YES, F=NO","675hjyj66h","0","69","53","85","","","","","","","","","paint","account1","filler","filler","j","true","",""
"null","<p style=""font-size: 50px;"">+</p>","null","html-keyboard-response","111","2.1.0","269617","J=YES, F=NO","675hjyj66h","0","69","53","85","","","","","","","","","","","","","","","",""
"null","audio/beep-329314.mp3","null","audio-keyboard-response","112","2.1.0","271135","J=YES, F=NO","675hjyj66h","0","69","53","85","","","","","","","","","","","","","","","",""
"null","audio/butter1.wav","null","audio-keyboard-response","113","2.1.0","271711","J=YES, F=NO","675hjyj66h","0","69","53","85","","","","","","","","","","","","","","","",""
"1038","
          <p id=""word"" style=""font-size: 40px;"">chew</p>
          <p style=""font-size: 16px;"">J = YES &nbsp;&nbsp;&nbsp; F = NO</p>
        ","j","html-keyboard-response","114","2.1.0","272751","J=YES, F=NO","675hjyj66h","0","69","53","85","","","","","","","","","chew","butter1","filler","filler","j","true","",""
"2023","<p>Starting practice block 2 of 2. Press any key to continue.</p>","j","html-keyboard-response","115","2.1.0","274775","J=YES, F=NO","675hjyj66h","0","69","53","85","","","","","","","","","","","","","","","",""
"null","<p style=""font-size: 50px;"">+</p>","null","html-keyboard-response","116","2.1.0","275100","J=YES, F=NO","675hjyj66h","0","69","53","85","","","","","","","","","","","","","","","",""
"null","audio/beep-329314.mp3","null","audio-keyboard-response","117","2.1.0","276617","J=YES, F=NO","675hjyj66h","0","69","53","85","","","","","","","","","","","","","","","",""
"null","audio/client1.wav","null","audio-keyboard-response","118","2.1.0","277319","J=YES, F=NO","675hjyj66h","0","69","53","85","","","","","","","","","","","","","","","",""
"784","
          <p id=""word"" style=""font-size: 40px;"">droothe</p>
          <p style=""font-size: 16px;"">J = YES &nbsp;&nbsp;&nbsp; F = NO</p>
        ","f","html-keyboard-response","119","2.1.0","278103","J=YES, F=NO","675hjyj66h","0","69","53","85","","","","","","","","","droothe","client1","pseudoword","pseudoword","f","true","",""
"null","<p style=""font-size: 50px;"">+</p>","null","html-keyboard-response","120","2.1.0","278406","J=YES, F=NO","675hjyj66h","0","69","53","85","","","","","","","","","","","","","","","",""
"null","audio/beep-329314.mp3","null","audio-keyboard-response","121","2.1.0","279930","J=YES, F=NO","675hjyj66h","0","69","53","85","","","","","","","","","","","","","","","",""
"null","audio/road.wav","null","audio-keyboard-response","122","2.1.0","280479","J=YES, F=NO","675hjyj66h","0","69","53","85","","","","","","","","","","","","","","","",""
"878","
          <p id=""word"" style=""font-size: 40px;"">wappings</p>
          <p style=""font-size: 16px;"">J = YES &nbsp;&nbsp;&nbsp; F = NO</p>
        ","f","html-keyboard-response","123","2.1.0","281358","J=YES, F=NO","675hjyj66h","0","69","53","85","","","","","","","","","wappings","road","pseudoword","pseudoword","f","true","",""
"null","<p style=""font-size: 50px;"">+</p>","null","html-keyboard-response","124","2.1.0","281671","J=YES, F=NO","675hjyj66h","0","69","53","85","","","","","","","","","","","","","","","",""
"null","audio/beep-329314.mp3","null","audio-keyboard-response","125","2.1.0","283188","J=YES, F=NO","675hjyj66h","0","69","53","85","","","","","","","","","","","","","","","",""
"null","audio/floor.wav","null","audio-keyboard-response","126","2.1.0","283886","J=YES, F=NO","675hjyj66h","0","69","53","85","","","","","","","","","","","","","","","",""
"1032","
          <p id=""word"" style=""font-size: 40px;"">mop</p>
          <p style=""font-size: 16px;"">J = YES &nbsp;&nbsp;&nbsp; F = NO</p>
        ","j","html-keyboard-response","127","2.1.0","284919","J=YES, F=NO","675hjyj66h","0","69","53","85","","","","","","","","","mop","floor","filler","filler","j","true","",""
"null","<p style=""font-size: 50px;"">+</p>","null","html-keyboard-response","128","2.1.0","285222","J=YES, F=NO","675hjyj66h","0","69","53","85","","","","","","","","","","","","","","","",""
"null","audio/beep-329314.mp3","null","audio-keyboard-response","129","2.1.0","286738","J=YES, F=NO","675hjyj66h","0","69","53","85","","","","","","","","","","","","","","","",""
"null","audio/mile1.wav","null","audio-keyboard-response","130","2.1.0","287347","J=YES, F=NO","675hjyj66h","0","69","53","85","","","","","","","","","","","","","","","",""
"953","
          <p id=""word"" style=""font-size: 40px;"">writch</p>
          <p style=""font-size: 16px;"">J = YES &nbsp;&nbsp;&nbsp; F = NO</p>
        ","j","html-keyboard-response","131","2.1.0","288302","J=YES, F=NO","675hjyj66h","0","69","53","85","","","","","","","","","writch","mile1","pseudoword","pseudoword","f","false","",""
"null","<p style=""font-size: 50px;"">+</p>","null","html-keyboard-response","132","2.1.0","288610","J=YES, F=NO","675hjyj66h","0","69","53","85","","","","","","","","","","","","","","","",""
"null","audio/beep-329314.mp3","null","audio-keyboard-response","133","2.1.0","290127","J=YES, F=NO","675hjyj66h","0","69","53","85","","","","","","","","","","","","","","","",""
"null","audio/birth1.wav","null","audio-keyboard-response","134","2.1.0","290793","J=YES, F=NO","675hjyj66h","0","69","53","85","","","","","","","","","","","","","","","",""
"796","
          <p id=""word"" style=""font-size: 40px;"">peel</p>
          <p style=""font-size: 16px;"">J = YES &nbsp;&nbsp;&nbsp; F = NO</p>
        ","j","html-keyboard-response","135","2.1.0","291591","J=YES, F=NO","675hjyj66h","0","69","53","85","","","","","","","","","peel","birth1","filler","filler","j","true","",""
"null","<p style=""font-size: 50px;"">+</p>","null","html-keyboard-response","136","2.1.0","291904","J=YES, F=NO","675hjyj66h","0","69","53","85","","","","","","","","","","","","","","","",""
"null","audio/beep-329314.mp3","null","audio-keyboard-response","137","2.1.0","293421","J=YES, F=NO","675hjyj66h","0","69","53","85","","","","","","","","","","","","","","","",""
"null","audio/radio1.wav","null","audio-keyboard-response","138","2.1.0","294145","J=YES, F=NO","675hjyj66h","0","69","53","85","","","","","","","","","","","","","","","",""
"1085","
          <p id=""word"" style=""font-size: 40px;"">blanter</p>
          <p style=""font-size: 16px;"">J = YES &nbsp;&nbsp;&nbsp; F = NO</p>
        ","f","html-keyboard-response","139","2.1.0","295230","J=YES, F=NO","675hjyj66h","0","69","53","85","","","","","","","","","blanter","radio1","pseudoword","pseudoword","f","true","",""
"null","<p style=""font-size: 50px;"">+</p>","null","html-keyboard-response","140","2.1.0","295535","J=YES, F=NO","675hjyj66h","0","69","53","85","","","","","","","","","","","","","","","",""
"null","audio/beep-329314.mp3","null","audio-keyboard-response","141","2.1.0","297050","J=YES, F=NO","675hjyj66h","0","69","53","85","","","","","","","","","","","","","","","",""
"null","audio/bomb1.wav","null","audio-keyboard-response","142","2.1.0","297406","J=YES, F=NO","675hjyj66h","0","69","53","85","","","","","","","","","","","","","","","",""
"774","
          <p id=""word"" style=""font-size: 40px;"">clean</p>
          <p style=""font-size: 16px;"">J = YES &nbsp;&nbsp;&nbsp; F = NO</p>
        ","j","html-keyboard-response","143","2.1.0","298182","J=YES, F=NO","675hjyj66h","0","69","53","85","","","","","","","","","clean","bomb1","filler","filler","j","true","",""
"null","<p style=""font-size: 50px;"">+</p>","null","html-keyboard-response","144","2.1.0","298488","J=YES, F=NO","675hjyj66h","0","69","53","85","","","","","","","","","","","","","","","",""
"null","audio/beep-329314.mp3","null","audio-keyboard-response","145","2.1.0","299995","J=YES, F=NO","675hjyj66h","0","69","53","85","","","","","","","","","","","","","","","",""
"null","audio/purpose.wav","null","audio-keyboard-response","146","2.1.0","300683","J=YES, F=NO","675hjyj66h","0","69","53","85","","","","","","","","","","","","","","","",""
"923","
          <p id=""word"" style=""font-size: 40px;"">whigm</p>
          <p style=""font-size: 16px;"">J = YES &nbsp;&nbsp;&nbsp; F = NO</p>
        ","f","html-keyboard-response","147","2.1.0","301607","J=YES, F=NO","675hjyj66h","0","69","53","85","","","","","","","","","whigm","purpose","pseudoword","pseudoword","f","true","",""
"null","<p style=""font-size: 50px;"">+</p>","null","html-keyboard-response","148","2.1.0","301908","J=YES, F=NO","675hjyj66h","0","69","53","85","","","","","","","","","","","","","","","",""
"null","audio/beep-329314.mp3","null","audio-keyboard-response","149","2.1.0","303430","J=YES, F=NO","675hjyj66h","0","69","53","85","","","","","","","","","","","","","","","",""
"null","audio/baby.wav","null","audio-keyboard-response","150","2.1.0","303867","J=YES, F=NO","675hjyj66h","0","69","53","85","","","","","","","","","","","","","","","",""
"875","
          <p id=""word"" style=""font-size: 40px;"">lift</p>
          <p style=""font-size: 16px;"">J = YES &nbsp;&nbsp;&nbsp; F = NO</p>
        ","j","html-keyboard-response","151","2.1.0","304743","J=YES, F=NO","675hjyj66h","0","69","53","85","","","","","","","","","lift","baby","filler","filler","j","true","",""
"null","<p style=""font-size: 50px;"">+</p>","null","html-keyboard-response","152","2.1.0","305046","J=YES, F=NO","675hjyj66h","0","69","53","85","","","","","","","","","","","","","","","",""
"null","audio/beep-329314.mp3","null","audio-keyboard-response","153","2.1.0","306563","J=YES, F=NO","675hjyj66h","0","69","53","85","","","","","","","","","","","","","","","",""
"null","audio/emotion.wav","null","audio-keyboard-response","154","2.1.0","307197","J=YES, F=NO","675hjyj66h","0","69","53","85","","","","","","","","","","","","","","","",""
"961","
          <p id=""word"" style=""font-size: 40px;"">devering</p>
          <p style=""font-size: 16px;"">J = YES &nbsp;&nbsp;&nbsp; F = NO</p>
        ","f","html-keyboard-response","155","2.1.0","308159","J=YES, F=NO","675hjyj66h","0","69","53","85","","","","","","","","","devering","emotion","pseudoword","pseudoword","f","true","",""
"null","<p style=""font-size: 50px;"">+</p>","null","html-keyboard-response","156","2.1.0","308473","J=YES, F=NO","675hjyj66h","0","69","53","85","","","","","","","","","","","","","","","",""
"null","audio/beep-329314.mp3","null","audio-keyboard-response","157","2.1.0","309991","J=YES, F=NO","675hjyj66h","0","69","53","85","","","","","","","","","","","","","","","",""
"null","audio/fence.wav","null","audio-keyboard-response","158","2.1.0","310771","J=YES, F=NO","675hjyj66h","0","69","53","85","","","","","","","","","","","","","","","",""
"1068","
          <p id=""word"" style=""font-size: 40px;"">trim</p>
          <p style=""font-size: 16px;"">J = YES &nbsp;&nbsp;&nbsp; F = NO</p>
        ","j","html-keyboard-response","159","2.1.0","311839","J=YES, F=NO","675hjyj66h","0","69","53","85","","","","","","","","","trim","fence","filler","filler","j","true","",""
"null","<p style=""font-size: 50px;"">+</p>","null","html-keyboard-response","160","2.1.0","312143","J=YES, F=NO","675hjyj66h","0","69","53","85","","","","","","","","","","","","","","","",""
"null","audio/beep-329314.mp3","null","audio-keyboard-response","161","2.1.0","313660","J=YES, F=NO","675hjyj66h","0","69","53","85","","","","","","","","","","","","","","","",""
"null","audio/window1.wav","null","audio-keyboard-response","162","2.1.0","314247","J=YES, F=NO","675hjyj66h","0","69","53","85","","","","","","","","","","","","","","","",""
"1453","
          <p id=""word"" style=""font-size: 40px;"">toss</p>
          <p style=""font-size: 16px;"">J = YES &nbsp;&nbsp;&nbsp; F = NO</p>
        ","j","html-keyboard-response","163","2.1.0","315701","J=YES, F=NO","675hjyj66h","0","69","53","85","","","","","","","","","toss","window1","filler","filler","j","true","",""
"7650","
    <div style=""max-width: 800px; margin: auto; text-align: left;"">
      <h2>Part 2: Main Trials</h2>
      <p>Great job on the practice trials!</p>
      <p>You will now begin the <strong>main set of trials</strong>.</p>
      <p>Remember your key assignments:</p>
      <ul>
        <li><strong>J</strong> = YES (real English word)</li>
        <li><strong>F</strong> = NO (not a real English word)</li>
      </ul>
      <p>Try to respond as <strong>quickly and accurately</strong> as possible.</p>
      <p style=""margin-top: 2em;"">Press any key to begin the main trials.</p>
    </div>
  ","j","html-keyboard-response","164","2.1.0","323351","J=YES, F=NO","675hjyj66h","0","69","53","85","","","","","","","","","","","","","","","",""
"3423","<p>Starting main block 1 of 8. Press any key to continue.</p>","j","html-keyboard-response","165","2.1.0","326775","J=YES, F=NO","675hjyj66h","0","69","53","85","","","","","","","","","","","","","","","",""
"null","<p style=""font-size: 50px;"">+</p>","null","html-keyboard-response","166","2.1.0","327084","J=YES, F=NO","675hjyj66h","0","69","53","85","","","","","","","","","","","","","","","",""
"null","audio/beep-329314.mp3","null","audio-keyboard-response","167","2.1.0","328597","J=YES, F=NO","675hjyj66h","0","69","53","85","","","","","","","","","","","","","","","",""
"null","audio/mind.wav","null","audio-keyboard-response","168","2.1.0","329135","J=YES, F=NO","675hjyj66h","0","69","53","85","","","","","","","","","","","","","","","",""
"1040","
          <p id=""word"" style=""font-size: 40px;"">crainate</p>
          <p style=""font-size: 16px;"">J = YES &nbsp;&nbsp;&nbsp; F = NO</p>
        ","f","html-keyboard-response","169","2.1.0","330175","J=YES, F=NO","675hjyj66h","0","69","53","85","","","","","","","","","crainate","mind","pseudoword","pseudoword","f","true","",""
"null","<p style=""font-size: 50px;"">+</p>","null","html-keyboard-response","170","2.1.0","330487","J=YES, F=NO","675hjyj66h","0","69","53","85","","","","","","","","","","","","","","","",""
"null","audio/beep-329314.mp3","null","audio-keyboard-response","171","2.1.0","332010","J=YES, F=NO","675hjyj66h","0","69","53","85","","","","","","","","","","","","","","","",""
"null","audio/arm.wav","null","audio-keyboard-response","172","2.1.0","332527","J=YES, F=NO","675hjyj66h","0","69","53","85","","","","","","","","","","","","","","","",""
"725","
          <p id=""word"" style=""font-size: 40px;"">pigne</p>
          <p style=""font-size: 16px;"">J = YES &nbsp;&nbsp;&nbsp; F = NO</p>
        ","f","html-keyboard-response","173","2.1.0","333253","J=YES, F=NO","675hjyj66h","0","69","53","85","","","","","","","","","pigne","arm","pseudoword","pseudoword","f","true","",""
"null","<p style=""font-size: 50px;"">+</p>","null","html-keyboard-response","174","2.1.0","333562","J=YES, F=NO","675hjyj66h","0","69","53","85","","","","","","","","","","","","","","","",""
"null","audio/beep-329314.mp3","null","audio-keyboard-response","175","2.1.0","335080","J=YES, F=NO","675hjyj66h","0","69","53","85","","","","","","","","","","","","","","","",""
"null","audio/garden1.wav","null","audio-keyboard-response","176","2.1.0","335585","J=YES, F=NO","675hjyj66h","0","69","53","85","","","","","","","","","","","","","","","",""
"913","
          <p id=""word"" style=""font-size: 40px;"">invest</p>
          <p style=""font-size: 16px;"">J = YES &nbsp;&nbsp;&nbsp; F = NO</p>
        ","j","html-keyboard-response","177","2.1.0","336501","J=YES, F=NO","675hjyj66h","0","69","53","85","","","","","","","","","invest","garden1","unrelated","experimental","j","true","",""
"null","<p style=""font-size: 50px;"">+</p>","null","html-keyboard-response","178","2.1.0","336803","J=YES, F=NO","675hjyj66h","0","69","53","85","","","","","","","","","","","","","","","",""
"null","audio/beep-329314.mp3","null","audio-keyboard-response","179","2.1.0","338317","J=YES, F=NO","675hjyj66h","0","69","53","85","","","","","","","","","","","","","","","",""
"null","audio/effort.wav","null","audio-keyboard-response","180","2.1.0","338876","J=YES, F=NO","675hjyj66h","0","69","53","85","","","","","","","","","","","","","","","",""
"698","
          <p id=""word"" style=""font-size: 40px;"">whonk</p>
          <p style=""font-size: 16px;"">J = YES &nbsp;&nbsp;&nbsp; F = NO</p>
        ","f","html-keyboard-response","181","2.1.0","339575","J=YES, F=NO","675hjyj66h","0","69","53","85","","","","","","","","","whonk","effort","pseudoword","pseudoword","f","true","",""
"null","<p style=""font-size: 50px;"">+</p>","null","html-keyboard-response","182","2.1.0","339876","J=YES, F=NO","675hjyj66h","0","69","53","85","","","","","","","","","","","","","","","",""
"null","audio/beep-329314.mp3","null","audio-keyboard-response","183","2.1.0","341392","J=YES, F=NO","675hjyj66h","0","69","53","85","","","","","","","","","","","","","","","",""
"null","audio/novel.wav","null","audio-keyboard-response","184","2.1.0","341869","J=YES, F=NO","675hjyj66h","0","69","53","85","","","","","","","","","","","","","","","",""
"975","
          <p id=""word"" style=""font-size: 40px;"">type</p>
          <p style=""font-size: 16px;"">J = YES &nbsp;&nbsp;&nbsp; F = NO</p>
        ","j","html-keyboard-response","185","2.1.0","342847","J=YES, F=NO","675hjyj66h","0","69","53","85","","","","","","","","","type","novel","filler","filler","j","true","",""
"null","<p style=""font-size: 50px;"">+</p>","null","html-keyboard-response","186","2.1.0","343152","J=YES, F=NO","675hjyj66h","0","69","53","85","","","","","","","","","","","","","","","",""
"null","audio/beep-329314.mp3","null","audio-keyboard-response","187","2.1.0","344665","J=YES, F=NO","675hjyj66h","0","69","53","85","","","","","","","","","","","","","","","",""
"null","audio/ankle1.wav","null","audio-keyboard-response","188","2.1.0","345165","J=YES, F=NO","675hjyj66h","0","69","53","85","","","","","","","","","","","","","","","",""
"792","
          <p id=""word"" style=""font-size: 40px;"">switm</p>
          <p style=""font-size: 16px;"">J = YES &nbsp;&nbsp;&nbsp; F = NO</p>
        ","f","html-keyboard-response","189","2.1.0","345959","J=YES, F=NO","675hjyj66h","0","69","53","85","","","","","","","","","switm","ankle1","pseudoword","pseudoword","f","true","",""
"null","<p style=""font-size: 50px;"">+</p>","null","html-keyboard-response","190","2.1.0","346268","J=YES, F=NO","675hjyj66h","0","69","53","85","","","","","","","","","","","","","","","",""
"null","audio/beep-329314.mp3","null","audio-keyboard-response","191","2.1.0","347786","J=YES, F=NO","675hjyj66h","0","69","53","85","","","","","","","","","","","","","","","",""
"null","audio/grass.wav","null","audio-keyboard-response","192","2.1.0","348413","J=YES, F=NO","675hjyj66h","0","69","53","85","","","","","","","","","","","","","","","",""
"766","
          <p id=""word"" style=""font-size: 40px;"">cut</p>
          <p style=""font-size: 16px;"">J = YES &nbsp;&nbsp;&nbsp; F = NO</p>
        ","j","html-keyboard-response","193","2.1.0","349180","J=YES, F=NO","675hjyj66h","0","69","53","85","","","","","","","","","cut","grass","literal","experimental","j","true","",""
"null","<p style=""font-size: 50px;"">+</p>","null","html-keyboard-response","194","2.1.0","349487","J=YES, F=NO","675hjyj66h","0","69","53","85","","","","","","","","","","","","","","","",""
"null","audio/beep-329314.mp3","null","audio-keyboard-response","195","2.1.0","351004","J=YES, F=NO","675hjyj66h","0","69","53","85","","","","","","","","","","","","","","","",""
"null","audio/holiday1.wav","null","audio-keyboard-response","196","2.1.0","351614","J=YES, F=NO","675hjyj66h","0","69","53","85","","","","","","","","","","","","","","","",""
"792","
          <p id=""word"" style=""font-size: 40px;"">drivets</p>
          <p style=""font-size: 16px;"">J = YES &nbsp;&nbsp;&nbsp; F = NO</p>
        ","f","html-keyboard-response","197","2.1.0","352407","J=YES, F=NO","675hjyj66h","0","69","53","85","","","","","","","","","drivets","holiday1","pseudoword","pseudoword","f","true","",""
"null","<p style=""font-size: 50px;"">+</p>","null","html-keyboard-response","198","2.1.0","352713","J=YES, F=NO","675hjyj66h","0","69","53","85","","","","","","","","","","","","","","","",""
"null","audio/beep-329314.mp3","null","audio-keyboard-response","199","2.1.0","354231","J=YES, F=NO","675hjyj66h","0","69","53","85","","","","","","","","","","","","","","","",""
"null","audio/pain1.wav","null","audio-keyboard-response","200","2.1.0","354648","J=YES, F=NO","675hjyj66h","0","69","53","85","","","","","","","","","","","","","","","",""
"1085","
          <p id=""word"" style=""font-size: 40px;"">sell</p>
          <p style=""font-size: 16px;"">J = YES &nbsp;&nbsp;&nbsp; F = NO</p>
        ","j","html-keyboard-response","201","2.1.0","355733","J=YES, F=NO","675hjyj66h","0","69","53","85","","","","","","","","","sell","pain1","unrelated","experimental","j","true","",""
"null","<p style=""font-size: 50px;"">+</p>","null","html-keyboard-response","202","2.1.0","356039","J=YES, F=NO","675hjyj66h","0","69","53","85","","","","","","","","","","","","","","","",""
"null","audio/beep-329314.mp3","null","audio-keyboard-response","203","2.1.0","357557","J=YES, F=NO","675hjyj66h","0","69","53","85","","","","","","","","","","","","","","","",""
"null","audio/window1.wav","null","audio-keyboard-response","204","2.1.0","358144","J=YES, F=NO","675hjyj66h","0","69","53","85","","","","","","","","","","","","","","","",""
"878","
          <p id=""word"" style=""font-size: 40px;"">break</p>
          <p style=""font-size: 16px;"">J = YES &nbsp;&nbsp;&nbsp; F = NO</p>
        ","j","html-keyboard-response","205","2.1.0","359023","J=YES, F=NO","675hjyj66h","0","69","53","85","","","","","","","","","break","window1","literal","experimental","j","true","",""
"null","<p style=""font-size: 50px;"">+</p>","null","html-keyboard-response","206","2.1.0","359337","J=YES, F=NO","675hjyj66h","0","69","53","85","","","","","","","","","","","","","","","",""
"null","audio/beep-329314.mp3","null","audio-keyboard-response","207","2.1.0","360851","J=YES, F=NO","675hjyj66h","0","69","53","85","","","","","","","","","","","","","","","",""
"null","audio/arm.wav","null","audio-keyboard-response","208","2.1.0","361366","J=YES, F=NO","675hjyj66h","0","69","53","85","","","","","","","","","","","","","","","",""
"808","
          <p id=""word"" style=""font-size: 40px;"">fold</p>
          <p style=""font-size: 16px;"">J = YES &nbsp;&nbsp;&nbsp; F = NO</p>
        ","j","html-keyboard-response","209","2.1.0","362174","J=YES, F=NO","675hjyj66h","0","69","53","85","","","","","","","","","fold","arm","filler","filler","j","true","",""
"null","<p style=""font-size: 50px;"">+</p>","null","html-keyboard-response","210","2.1.0","362487","J=YES, F=NO","675hjyj66h","0","69","53","85","","","","","","","","","","","","","","","",""
"null","audio/beep-329314.mp3","null","audio-keyboard-response","211","2.1.0","364005","J=YES, F=NO","675hjyj66h","0","69","53","85","","","","","","","","","","","","","","","",""
"null","audio/death1.wav","null","audio-keyboard-response","212","2.1.0","364463","J=YES, F=NO","675hjyj66h","0","69","53","85","","","","","","","","","","","","","","","",""
"984","
          <p id=""word"" style=""font-size: 40px;"">conquer</p>
          <p style=""font-size: 16px;"">J = YES &nbsp;&nbsp;&nbsp; F = NO</p>
        ","f","html-keyboard-response","213","2.1.0","365447","J=YES, F=NO","675hjyj66h","0","69","53","85","","","","","","","","","conquer","death1","metaphor","experimental","j","false","",""
"null","<p style=""font-size: 50px;"">+</p>","null","html-keyboard-response","214","2.1.0","365751","J=YES, F=NO","675hjyj66h","0","69","53","85","","","","","","","","","","","","","","","",""
"null","audio/beep-329314.mp3","null","audio-keyboard-response","215","2.1.0","367268","J=YES, F=NO","675hjyj66h","0","69","53","85","","","","","","","","","","","","","","","",""
"null","audio/story.wav","null","audio-keyboard-response","216","2.1.0","367914","J=YES, F=NO","675hjyj66h","0","69","53","85","","","","","","","","","","","","","","","",""
"747","
          <p id=""word"" style=""font-size: 40px;"">cover</p>
          <p style=""font-size: 16px;"">J = YES &nbsp;&nbsp;&nbsp; F = NO</p>
        ","j","html-keyboard-response","217","2.1.0","368662","J=YES, F=NO","675hjyj66h","0","69","53","85","","","","","","","","","cover","story","metaphor","experimental","j","true","",""
"null","<p style=""font-size: 50px;"">+</p>","null","html-keyboard-response","218","2.1.0","368980","J=YES, F=NO","675hjyj66h","0","69","53","85","","","","","","","","","","","","","","","",""
"null","audio/beep-329314.mp3","null","audio-keyboard-response","219","2.1.0","370497","J=YES, F=NO","675hjyj66h","0","69","53","85","","","","","","","","","","","","","","","",""
"null","audio/belief.wav","null","audio-keyboard-response","220","2.1.0","371104","J=YES, F=NO","675hjyj66h","0","69","53","85","","","","","","","","","","","","","","","",""
"853","
          <p id=""word"" style=""font-size: 40px;"">read</p>
          <p style=""font-size: 16px;"">J = YES &nbsp;&nbsp;&nbsp; F = NO</p>
        ","j","html-keyboard-response","221","2.1.0","371959","J=YES, F=NO","675hjyj66h","0","69","53","85","","","","","","","","","read","belief","filler","filler","j","true","",""
"null","<p style=""font-size: 50px;"">+</p>","null","html-keyboard-response","222","2.1.0","372261","J=YES, F=NO","675hjyj66h","0","69","53","85","","","","","","","","","","","","","","","",""
"null","audio/beep-329314.mp3","null","audio-keyboard-response","223","2.1.0","373779","J=YES, F=NO","675hjyj66h","0","69","53","85","","","","","","","","","","","","","","","",""
"null","audio/gift1.wav","null","audio-keyboard-response","224","2.1.0","374216","J=YES, F=NO","675hjyj66h","0","69","53","85","","","","","","","","","","","","","","","",""
"942","
          <p id=""word"" style=""font-size: 40px;"">protsh</p>
          <p style=""font-size: 16px;"">J = YES &nbsp;&nbsp;&nbsp; F = NO</p>
        ","f","html-keyboard-response","225","2.1.0","375158","J=YES, F=NO","675hjyj66h","0","69","53","85","","","","","","","","","protsh","gift1","pseudoword","pseudoword","f","true","",""
"null","<p style=""font-size: 50px;"">+</p>","null","html-keyboard-response","226","2.1.0","375474","J=YES, F=NO","675hjyj66h","0","69","53","85","","","","","","","","","","","","","","","",""
"null","audio/beep-329314.mp3","null","audio-keyboard-response","227","2.1.0","376993","J=YES, F=NO","675hjyj66h","0","69","53","85","","","","","","","","","","","","","","","",""
"null","audio/cave1.wav","null","audio-keyboard-response","228","2.1.0","377520","J=YES, F=NO","675hjyj66h","0","69","53","85","","","","","","","","","","","","","","","",""
"630","
          <p id=""word"" style=""font-size: 40px;"">hurt</p>
          <p style=""font-size: 16px;"">J = YES &nbsp;&nbsp;&nbsp; F = NO</p>
        ","j","html-keyboard-response","229","2.1.0","378151","J=YES, F=NO","675hjyj66h","0","69","53","85","","","","","","","","","hurt","cave1","unrelated","experimental","j","true","",""
"23600","<p>Excellent! You have finished block 1 of 8.</p>
                     <p>Feel free to take a 30 second break.</p>
                     <p>Press any key when you're ready to continue.</p>","j","html-keyboard-response","230","2.1.0","401752","J=YES, F=NO","675hjyj66h","0","69","53","85","","","","","","","","","","","","","","","",""
"1717","<p>Starting main block 2 of 8. Press any key to continue.</p>","j","html-keyboard-response","231","2.1.0","403469","J=YES, F=NO","675hjyj66h","0","69","53","85","","","","","","","","","","","","","","","",""
"null","<p style=""font-size: 50px;"">+</p>","null","html-keyboard-response","232","2.1.0","403773","J=YES, F=NO","675hjyj66h","0","69","53","85","","","","","","","","","","","","","","","",""
"null","audio/beep-329314.mp3","null","audio-keyboard-response","233","2.1.0","405291","J=YES, F=NO","675hjyj66h","0","69","53","85","","","","","","","","","","","","","","","",""
"null","audio/menu.wav","null","audio-keyboard-response","234","2.1.0","405838","J=YES, F=NO","675hjyj66h","0","69","53","85","","","","","","","","","","","","","","","",""
"790","
          <p id=""word"" style=""font-size: 40px;"">navigate</p>
          <p style=""font-size: 16px;"">J = YES &nbsp;&nbsp;&nbsp; F = NO</p>
        ","j","html-keyboard-response","235","2.1.0","406630","J=YES, F=NO","675hjyj66h","0","69","53","85","","","","","","","","","navigate","menu","metaphor","experimental","j","true","",""
"null","<p style=""font-size: 50px;"">+</p>","null","html-keyboard-response","236","2.1.0","406941","J=YES, F=NO","675hjyj66h","0","69","53","85","","","","","","","","","","","","","","","",""
"null","audio/beep-329314.mp3","null","audio-keyboard-response","237","2.1.0","408459","J=YES, F=NO","675hjyj66h","0","69","53","85","","","","","","","","","","","","","","","",""
"null","audio/skin1.wav","null","audio-keyboard-response","238","2.1.0","409016","J=YES, F=NO","675hjyj66h","0","69","53","85","","","","","","","","","","","","","","","",""
"null","
          <p id=""word"" style=""font-size: 40px;"">expose</p>
          <p style=""font-size: 16px;"">J = YES &nbsp;&nbsp;&nbsp; F = NO</p>
        ","null","html-keyboard-response","239","2.1.0","410523","J=YES, F=NO","675hjyj66h","0","69","53","85","","","","","","","","","expose","skin1","literal","experimental","j","false","",""
"null","<p style=""font-size: 50px;"">+</p>","null","html-keyboard-response","240","2.1.0","410834","J=YES, F=NO","675hjyj66h","0","69","53","85","","","","","","","","","","","","","","","",""
"null","audio/beep-329314.mp3","null","audio-keyboard-response","241","2.1.0","412350","J=YES, F=NO","675hjyj66h","0","69","53","85","","","","","","","","","","","","","","","",""
"null","audio/heart1.wav","null","audio-keyboard-response","242","2.1.0","412940","J=YES, F=NO","675hjyj66h","0","69","53","85","","","","","","","","","","","","","","","",""
"810","
          <p id=""word"" style=""font-size: 40px;"">dralm</p>
          <p style=""font-size: 16px;"">J = YES &nbsp;&nbsp;&nbsp; F = NO</p>
        ","f","html-keyboard-response","243","2.1.0","413751","J=YES, F=NO","675hjyj66h","0","69","53","85","","","","","","","","","dralm","heart1","pseudoword","pseudoword","f","true","",""
"null","<p style=""font-size: 50px;"">+</p>","null","html-keyboard-response","244","2.1.0","414058","J=YES, F=NO","675hjyj66h","0","69","53","85","","","","","","","","","","","","","","","",""
"null","audio/beep-329314.mp3","null","audio-keyboard-response","245","2.1.0","415576","J=YES, F=NO","675hjyj66h","0","69","53","85","","","","","","","","","","","","","","","",""
"null","audio/mouth1.wav","null","audio-keyboard-response","246","2.1.0","416121","J=YES, F=NO","675hjyj66h","0","69","53","85","","","","","","","","","","","","","","","",""
"1382","
          <p id=""word"" style=""font-size: 40px;"">spolial</p>
          <p style=""font-size: 16px;"">J = YES &nbsp;&nbsp;&nbsp; F = NO</p>
        ","f","html-keyboard-response","247","2.1.0","417503","J=YES, F=NO","675hjyj66h","0","69","53","85","","","","","","","","","spolial","mouth1","pseudoword","pseudoword","f","true","",""
"null","<p style=""font-size: 50px;"">+</p>","null","html-keyboard-response","248","2.1.0","417817","J=YES, F=NO","675hjyj66h","0","69","53","85","","","","","","","","","","","","","","","",""
"null","audio/beep-329314.mp3","null","audio-keyboard-response","249","2.1.0","419335","J=YES, F=NO","675hjyj66h","0","69","53","85","","","","","","","","","","","","","","","",""
"null","audio/dome.wav","null","audio-keyboard-response","250","2.1.0","419751","J=YES, F=NO","675hjyj66h","0","69","53","85","","","","","","","","","","","","","","","",""
"718","
          <p id=""word"" style=""font-size: 40px;"">feed</p>
          <p style=""font-size: 16px;"">J = YES &nbsp;&nbsp;&nbsp; F = NO</p>
        ","j","html-keyboard-response","251","2.1.0","420470","J=YES, F=NO","675hjyj66h","0","69","53","85","","","","","","","","","feed","dome","unrelated","experimental","j","true","",""
"null","<p style=""font-size: 50px;"">+</p>","null","html-keyboard-response","252","2.1.0","420784","J=YES, F=NO","675hjyj66h","0","69","53","85","","","","","","","","","","","","","","","",""
"null","audio/beep-329314.mp3","null","audio-keyboard-response","253","2.1.0","422299","J=YES, F=NO","675hjyj66h","0","69","53","85","","","","","","","","","","","","","","","",""
"null","audio/storm1.wav","null","audio-keyboard-response","254","2.1.0","422897","J=YES, F=NO","675hjyj66h","0","69","53","85","","","","","","","","","","","","","","","",""
"813","
          <p id=""word"" style=""font-size: 40px;"">climb</p>
          <p style=""font-size: 16px;"">J = YES &nbsp;&nbsp;&nbsp; F = NO</p>
        ","j","html-keyboard-response","255","2.1.0","423711","J=YES, F=NO","675hjyj66h","0","69","53","85","","","","","","","","","climb","storm1","unrelated","experimental","j","true","",""
"null","<p style=""font-size: 50px;"">+</p>","null","html-keyboard-response","256","2.1.0","424025","J=YES, F=NO","675hjyj66h","0","69","53","85","","","","","","","","","","","","","","","",""
"null","audio/beep-329314.mp3","null","audio-keyboard-response","257","2.1.0","425542","J=YES, F=NO","675hjyj66h","0","69","53","85","","","","","","","","","","","","","","","",""
"null","audio/winter.wav","null","audio-keyboard-response","258","2.1.0","426090","J=YES, F=NO","675hjyj66h","0","69","53","85","","","","","","","","","","","","","","","",""
"988","
          <p id=""word"" style=""font-size: 40px;"">straven</p>
          <p style=""font-size: 16px;"">J = YES &nbsp;&nbsp;&nbsp; F = NO</p>
        ","f","html-keyboard-response","259","2.1.0","427079","J=YES, F=NO","675hjyj66h","0","69","53","85","","","","","","","","","straven","winter","pseudoword","pseudoword","f","true","",""
"null","<p style=""font-size: 50px;"">+</p>","null","html-keyboard-response","260","2.1.0","427388","J=YES, F=NO","675hjyj66h","0","69","53","85","","","","","","","","","","","","","","","",""
"null","audio/beep-329314.mp3","null","audio-keyboard-response","261","2.1.0","428910","J=YES, F=NO","675hjyj66h","0","69","53","85","","","","","","","","","","","","","","","",""
"null","audio/smirk1.wav","null","audio-keyboard-response","262","2.1.0","429608","J=YES, F=NO","675hjyj66h","0","69","53","85","","","","","","","","","","","","","","","",""
"772","
          <p id=""word"" style=""font-size: 40px;"">snopt</p>
          <p style=""font-size: 16px;"">J = YES &nbsp;&nbsp;&nbsp; F = NO</p>
        ","f","html-keyboard-response","263","2.1.0","430381","J=YES, F=NO","675hjyj66h","0","69","53","85","","","","","","","","","snopt","smirk1","pseudoword","pseudoword","f","true","",""
"null","<p style=""font-size: 50px;"">+</p>","null","html-keyboard-response","264","2.1.0","430693","J=YES, F=NO","675hjyj66h","0","69","53","85","","","","","","","","","","","","","","","",""
"null","audio/beep-329314.mp3","null","audio-keyboard-response","265","2.1.0","432216","J=YES, F=NO","675hjyj66h","0","69","53","85","","","","","","","","","","","","","","","",""
"null","audio/life1.wav","null","audio-keyboard-response","266","2.1.0","432752","J=YES, F=NO","675hjyj66h","0","69","53","85","","","","","","","","","","","","","","","",""
"734","
          <p id=""word"" style=""font-size: 40px;"">flimch</p>
          <p style=""font-size: 16px;"">J = YES &nbsp;&nbsp;&nbsp; F = NO</p>
        ","f","html-keyboard-response","267","2.1.0","433487","J=YES, F=NO","675hjyj66h","0","69","53","85","","","","","","","","","flimch","life1","pseudoword","pseudoword","f","true","",""
"null","<p style=""font-size: 50px;"">+</p>","null","html-keyboard-response","268","2.1.0","433796","J=YES, F=NO","675hjyj66h","0","69","53","85","","","","","","","","","","","","","","","",""
"null","audio/beep-329314.mp3","null","audio-keyboard-response","269","2.1.0","435314","J=YES, F=NO","675hjyj66h","0","69","53","85","","","","","","","","","","","","","","","",""
"null","audio/empire.wav","null","audio-keyboard-response","270","2.1.0","435921","J=YES, F=NO","675hjyj66h","0","69","53","85","","","","","","","","","","","","","","","",""
"765","
          <p id=""word"" style=""font-size: 40px;"">slorby</p>
          <p style=""font-size: 16px;"">J = YES &nbsp;&nbsp;&nbsp; F = NO</p>
        ","f","html-keyboard-response","271","2.1.0","436688","J=YES, F=NO","675hjyj66h","0","69","53","85","","","","","","","","","slorby","empire","pseudoword","pseudoword","f","true","",""
"null","<p style=""font-size: 50px;"">+</p>","null","html-keyboard-response","272","2.1.0","437009","J=YES, F=NO","675hjyj66h","0","69","53","85","","","","","","","","","","","","","","","",""
"null","audio/beep-329314.mp3","null","audio-keyboard-response","273","2.1.0","438527","J=YES, F=NO","675hjyj66h","0","69","53","85","","","","","","","","","","","","","","","",""
"null","audio/scar.wav","null","audio-keyboard-response","274","2.1.0","439103","J=YES, F=NO","675hjyj66h","0","69","53","85","","","","","","","","","","","","","","","",""
"1311","
          <p id=""word"" style=""font-size: 40px;"">adelineate</p>
          <p style=""font-size: 16px;"">J = YES &nbsp;&nbsp;&nbsp; F = NO</p>
        ","f","html-keyboard-response","275","2.1.0","440415","J=YES, F=NO","675hjyj66h","0","69","53","85","","","","","","","","","adelineate","scar","pseudoword","pseudoword","f","true","",""
"null","<p style=""font-size: 50px;"">+</p>","null","html-keyboard-response","276","2.1.0","440726","J=YES, F=NO","675hjyj66h","0","69","53","85","","","","","","","","","","","","","","","",""
"null","audio/beep-329314.mp3","null","audio-keyboard-response","277","2.1.0","442245","J=YES, F=NO","675hjyj66h","0","69","53","85","","","","","","","","","","","","","","","",""
"null","audio/plot1.wav","null","audio-keyboard-response","278","2.1.0","442755","J=YES, F=NO","675hjyj66h","0","69","53","85","","","","","","","","","","","","","","","",""
"971","
          <p id=""word"" style=""font-size: 40px;"">glenter</p>
          <p style=""font-size: 16px;"">J = YES &nbsp;&nbsp;&nbsp; F = NO</p>
        ","f","html-keyboard-response","279","2.1.0","443727","J=YES, F=NO","675hjyj66h","0","69","53","85","","","","","","","","","glenter","plot1","pseudoword","pseudoword","f","true","",""
"null","<p style=""font-size: 50px;"">+</p>","null","html-keyboard-response","280","2.1.0","444036","J=YES, F=NO","675hjyj66h","0","69","53","85","","","","","","","","","","","","","","","",""
"null","audio/beep-329314.mp3","null","audio-keyboard-response","281","2.1.0","445560","J=YES, F=NO","675hjyj66h","0","69","53","85","","","","","","","","","","","","","","","",""
"null","audio/key1.wav","null","audio-keyboard-response","282","2.1.0","445914","J=YES, F=NO","675hjyj66h","0","69","53","85","","","","","","","","","","","","","","","",""
"796","
          <p id=""word"" style=""font-size: 40px;"">sminsh</p>
          <p style=""font-size: 16px;"">J = YES &nbsp;&nbsp;&nbsp; F = NO</p>
        ","f","html-keyboard-response","283","2.1.0","446711","J=YES, F=NO","675hjyj66h","0","69","53","85","","","","","","","","","sminsh","key1","pseudoword","pseudoword","f","true","",""
"null","<p style=""font-size: 50px;"">+</p>","null","html-keyboard-response","284","2.1.0","447011","J=YES, F=NO","675hjyj66h","0","69","53","85","","","","","","","","","","","","","","","",""
"null","audio/beep-329314.mp3","null","audio-keyboard-response","285","2.1.0","448522","J=YES, F=NO","675hjyj66h","0","69","53","85","","","","","","","","","","","","","","","",""
"null","audio/terrain.wav","null","audio-keyboard-response","286","2.1.0","449080","J=YES, F=NO","675hjyj66h","0","69","53","85","","","","","","","","","","","","","","","",""
"678","
          <p id=""word"" style=""font-size: 40px;"">twist</p>
          <p style=""font-size: 16px;"">J = YES &nbsp;&nbsp;&nbsp; F = NO</p>
        ","j","html-keyboard-response","287","2.1.0","449758","J=YES, F=NO","675hjyj66h","0","69","53","85","","","","","","","","","twist","terrain","filler","filler","j","true","",""
"null","<p style=""font-size: 50px;"">+</p>","null","html-keyboard-response","288","2.1.0","450066","J=YES, F=NO","675hjyj66h","0","69","53","85","","","","","","","","","","","","","","","",""
"null","audio/beep-329314.mp3","null","audio-keyboard-response","289","2.1.0","451586","J=YES, F=NO","675hjyj66h","0","69","53","85","","","","","","","","","","","","","","","",""
"null","audio/neck.wav","null","audio-keyboard-response","290","2.1.0","452104","J=YES, F=NO","675hjyj66h","0","69","53","85","","","","","","","","","","","","","","","",""
"606","
          <p id=""word"" style=""font-size: 40px;"">share</p>
          <p style=""font-size: 16px;"">J = YES &nbsp;&nbsp;&nbsp; F = NO</p>
        ","j","html-keyboard-response","291","2.1.0","452711","J=YES, F=NO","675hjyj66h","0","69","53","85","","","","","","","","","share","neck","unrelated","experimental","j","true","",""
"null","<p style=""font-size: 50px;"">+</p>","null","html-keyboard-response","292","2.1.0","453020","J=YES, F=NO","675hjyj66h","0","69","53","85","","","","","","","","","","","","","","","",""
"null","audio/beep-329314.mp3","null","audio-keyboard-response","293","2.1.0","454536","J=YES, F=NO","675hjyj66h","0","69","53","85","","","","","","","","","","","","","","","",""
"null","audio/devil1.wav","null","audio-keyboard-response","294","2.1.0","454930","J=YES, F=NO","675hjyj66h","0","69","53","85","","","","","","","","","","","","","","","",""
"571","
          <p id=""word"" style=""font-size: 40px;"">carry</p>
          <p style=""font-size: 16px;"">J = YES &nbsp;&nbsp;&nbsp; F = NO</p>
        ","j","html-keyboard-response","295","2.1.0","455502","J=YES, F=NO","675hjyj66h","0","69","53","85","","","","","","","","","carry","devil1","unrelated","experimental","j","true","",""
"2274","<p>Excellent! You have finished block 2 of 8.</p>
                     <p>Feel free to take a 30 second break.</p>
                     <p>Press any key when you're ready to continue.</p>","j","html-keyboard-response","296","2.1.0","457775","J=YES, F=NO","675hjyj66h","0","69","53","85","","","","","","","","","","","","","","","",""
"2012","<p>Starting main block 3 of 8. Press any key to continue.</p>","j","html-keyboard-response","297","2.1.0","459789","J=YES, F=NO","675hjyj66h","0","69","53","85","","","","","","","","","","","","","","","",""
"null","<p style=""font-size: 50px;"">+</p>","null","html-keyboard-response","298","2.1.0","460091","J=YES, F=NO","675hjyj66h","0","69","53","85","","","","","","","","","","","","","","","",""
"null","audio/beep-329314.mp3","null","audio-keyboard-response","299","2.1.0","461610","J=YES, F=NO","675hjyj66h","0","69","53","85","","","","","","","","","","","","","","","",""
"null","audio/haste1.wav","null","audio-keyboard-response","300","2.1.0","462147","J=YES, F=NO","675hjyj66h","0","69","53","85","","","","","","","","","","","","","","","",""
"1131","
          <p id=""word"" style=""font-size: 40px;"">coraconate</p>
          <p style=""font-size: 16px;"">J = YES &nbsp;&nbsp;&nbsp; F = NO</p>
        ","f","html-keyboard-response","301","2.1.0","463279","J=YES, F=NO","675hjyj66h","0","69","53","85","","","","","","","","","coraconate","haste1","pseudoword","pseudoword","f","true","",""
"null","<p style=""font-size: 50px;"">+</p>","null","html-keyboard-response","302","2.1.0","463580","J=YES, F=NO","675hjyj66h","0","69","53","85","","","","","","","","","","","","","","","",""
"null","audio/beep-329314.mp3","null","audio-keyboard-response","303","2.1.0","465092","J=YES, F=NO","675hjyj66h","0","69","53","85","","","","","","","","","","","","","","","",""
"null","audio/haste1.wav","null","audio-keyboard-response","304","2.1.0","465630","J=YES, F=NO","675hjyj66h","0","69","53","85","","","","","","","","","","","","","","","",""
"1015","
          <p id=""word"" style=""font-size: 40px;"">hide</p>
          <p style=""font-size: 16px;"">J = YES &nbsp;&nbsp;&nbsp; F = NO</p>
        ","j","html-keyboard-response","305","2.1.0","466647","J=YES, F=NO","675hjyj66h","0","69","53","85","","","","","","","","","hide","haste1","unrelated","experimental","j","true","",""
"null","<p style=""font-size: 50px;"">+</p>","null","html-keyboard-response","306","2.1.0","466963","J=YES, F=NO","675hjyj66h","0","69","53","85","","","","","","","","","","","","","","","",""
"null","audio/beep-329314.mp3","null","audio-keyboard-response","307","2.1.0","468475","J=YES, F=NO","675hjyj66h","0","69","53","85","","","","","","","","","","","","","","","",""
"null","audio/planet1.wav","null","audio-keyboard-response","308","2.1.0","469050","J=YES, F=NO","675hjyj66h","0","69","53","85","","","","","","","","","","","","","","","",""
"1003","
          <p id=""word"" style=""font-size: 40px;"">cratched</p>
          <p style=""font-size: 16px;"">J = YES &nbsp;&nbsp;&nbsp; F = NO</p>
        ","j","html-keyboard-response","309","2.1.0","470055","J=YES, F=NO","675hjyj66h","0","69","53","85","","","","","","","","","cratched","planet1","pseudoword","pseudoword","f","false","",""
"null","<p style=""font-size: 50px;"">+</p>","null","html-keyboard-response","310","2.1.0","470368","J=YES, F=NO","675hjyj66h","0","69","53","85","","","","","","","","","","","","","","","",""
"null","audio/beep-329314.mp3","null","audio-keyboard-response","311","2.1.0","471886","J=YES, F=NO","675hjyj66h","0","69","53","85","","","","","","","","","","","","","","","",""
"null","audio/pizza1.wav","null","audio-keyboard-response","312","2.1.0","472433","J=YES, F=NO","675hjyj66h","0","69","53","85","","","","","","","","","","","","","","","",""
"940","
          <p id=""word"" style=""font-size: 40px;"">devour</p>
          <p style=""font-size: 16px;"">J = YES &nbsp;&nbsp;&nbsp; F = NO</p>
        ","f","html-keyboard-response","313","2.1.0","473374","J=YES, F=NO","675hjyj66h","0","69","53","85","","","","","","","","","devour","pizza1","literal","experimental","j","false","",""
"null","<p style=""font-size: 50px;"">+</p>","null","html-keyboard-response","314","2.1.0","473679","J=YES, F=NO","675hjyj66h","0","69","53","85","","","","","","","","","","","","","","","",""
"null","audio/beep-329314.mp3","null","audio-keyboard-response","315","2.1.0","475196","J=YES, F=NO","675hjyj66h","0","69","53","85","","","","","","","","","","","","","","","",""
"null","audio/roof1.wav","null","audio-keyboard-response","316","2.1.0","475704","J=YES, F=NO","675hjyj66h","0","69","53","85","","","","","","","","","","","","","","","",""
"814","
          <p id=""word"" style=""font-size: 40px;"">wronb</p>
          <p style=""font-size: 16px;"">J = YES &nbsp;&nbsp;&nbsp; F = NO</p>
        ","f","html-keyboard-response","317","2.1.0","476519","J=YES, F=NO","675hjyj66h","0","69","53","85","","","","","","","","","wronb","roof1","pseudoword","pseudoword","f","true","",""
"null","<p style=""font-size: 50px;"">+</p>","null","html-keyboard-response","318","2.1.0","476827","J=YES, F=NO","675hjyj66h","0","69","53","85","","","","","","","","","","","","","","","",""
"null","audio/beep-329314.mp3","null","audio-keyboard-response","319","2.1.0","478341","J=YES, F=NO","675hjyj66h","0","69","53","85","","","","","","","","","","","","","","","",""
"null","audio/sugar1.wav","null","audio-keyboard-response","320","2.1.0","478792","J=YES, F=NO","675hjyj66h","0","69","53","85","","","","","","","","","","","","","","","",""
"764","
          <p id=""word"" style=""font-size: 40px;"">glung</p>
          <p style=""font-size: 16px;"">J = YES &nbsp;&nbsp;&nbsp; F = NO</p>
        ","f","html-keyboard-response","321","2.1.0","479557","J=YES, F=NO","675hjyj66h","0","69","53","85","","","","","","","","","glung","sugar1","pseudoword","pseudoword","f","true","",""
"null","<p style=""font-size: 50px;"">+</p>","null","html-keyboard-response","322","2.1.0","479871","J=YES, F=NO","675hjyj66h","0","69","53","85","","","","","","","","","","","","","","","",""
"null","audio/beep-329314.mp3","null","audio-keyboard-response","323","2.1.0","481388","J=YES, F=NO","675hjyj66h","0","69","53","85","","","","","","","","","","","","","","","",""
"null","audio/voice.wav","null","audio-keyboard-response","324","2.1.0","481965","J=YES, F=NO","675hjyj66h","0","69","53","85","","","","","","","","","","","","","","","",""
"976","
          <p id=""word"" style=""font-size: 40px;"">flood</p>
          <p style=""font-size: 16px;"">J = YES &nbsp;&nbsp;&nbsp; F = NO</p>
        ","j","html-keyboard-response","325","2.1.0","482941","J=YES, F=NO","675hjyj66h","0","69","53","85","","","","","","","","","flood","voice","unrelated","experimental","j","true","",""
"null","<p style=""font-size: 50px;"">+</p>","null","html-keyboard-response","326","2.1.0","483251","J=YES, F=NO","675hjyj66h","0","69","53","85","","","","","","","","","","","","","","","",""
"null","audio/beep-329314.mp3","null","audio-keyboard-response","327","2.1.0","484765","J=YES, F=NO","675hjyj66h","0","69","53","85","","","","","","","","","","","","","","","",""
"null","audio/pain1.wav","null","audio-keyboard-response","328","2.1.0","485171","J=YES, F=NO","675hjyj66h","0","69","53","85","","","","","","","","","","","","","","","",""
"875","
          <p id=""word"" style=""font-size: 40px;"">tritted</p>
          <p style=""font-size: 16px;"">J = YES &nbsp;&nbsp;&nbsp; F = NO</p>
        ","f","html-keyboard-response","329","2.1.0","486046","J=YES, F=NO","675hjyj66h","0","69","53","85","","","","","","","","","tritted","pain1","pseudoword","pseudoword","f","true","",""
"null","<p style=""font-size: 50px;"">+</p>","null","html-keyboard-response","330","2.1.0","486356","J=YES, F=NO","675hjyj66h","0","69","53","85","","","","","","","","","","","","","","","",""
"null","audio/beep-329314.mp3","null","audio-keyboard-response","331","2.1.0","487873","J=YES, F=NO","675hjyj66h","0","69","53","85","","","","","","","","","","","","","","","",""
"null","audio/cancer1.wav","null","audio-keyboard-response","332","2.1.0","488409","J=YES, F=NO","675hjyj66h","0","69","53","85","","","","","","","","","","","","","","","",""
"875","
          <p id=""word"" style=""font-size: 40px;"">fight</p>
          <p style=""font-size: 16px;"">J = YES &nbsp;&nbsp;&nbsp; F = NO</p>
        ","j","html-keyboard-response","333","2.1.0","489287","J=YES, F=NO","675hjyj66h","0","69","53","85","","","","","","","","","fight","cancer1","metaphor","experimental","j","true","",""
"null","<p style=""font-size: 50px;"">+</p>","null","html-keyboard-response","334","2.1.0","489593","J=YES, F=NO","675hjyj66h","0","69","53","85","","","","","","","","","","","","","","","",""
"null","audio/beep-329314.mp3","null","audio-keyboard-response","335","2.1.0","491110","J=YES, F=NO","675hjyj66h","0","69","53","85","","","","","","","","","","","","","","","",""
"null","audio/revenue1.wav","null","audio-keyboard-response","336","2.1.0","491756","J=YES, F=NO","675hjyj66h","0","69","53","85","","","","","","","","","","","","","","","",""
"634","
          <p id=""word"" style=""font-size: 40px;"">grow</p>
          <p style=""font-size: 16px;"">J = YES &nbsp;&nbsp;&nbsp; F = NO</p>
        ","j","html-keyboard-response","337","2.1.0","492391","J=YES, F=NO","675hjyj66h","0","69","53","85","","","","","","","","","grow","revenue1","metaphor","experimental","j","true","",""
"null","<p style=""font-size: 50px;"">+</p>","null","html-keyboard-response","338","2.1.0","492704","J=YES, F=NO","675hjyj66h","0","69","53","85","","","","","","","","","","","","","","","",""
"null","audio/beep-329314.mp3","null","audio-keyboard-response","339","2.1.0","494220","J=YES, F=NO","675hjyj66h","0","69","53","85","","","","","","","","","","","","","","","",""
"null","audio/bishop1.wav","null","audio-keyboard-response","340","2.1.0","494787","J=YES, F=NO","675hjyj66h","0","69","53","85","","","","","","","","","","","","","","","",""
"587","
          <p id=""word"" style=""font-size: 40px;"">play</p>
          <p style=""font-size: 16px;"">J = YES &nbsp;&nbsp;&nbsp; F = NO</p>
        ","j","html-keyboard-response","341","2.1.0","495374","J=YES, F=NO","675hjyj66h","0","69","53","85","","","","","","","","","play","bishop1","filler","filler","j","true","",""
"null","<p style=""font-size: 50px;"">+</p>","null","html-keyboard-response","342","2.1.0","495683","J=YES, F=NO","675hjyj66h","0","69","53","85","","","","","","","","","","","","","","","",""
"null","audio/beep-329314.mp3","null","audio-keyboard-response","343","2.1.0","497191","J=YES, F=NO","675hjyj66h","0","69","53","85","","","","","","","","","","","","","","","",""
"null","audio/hawk1.wav","null","audio-keyboard-response","344","2.1.0","497752","J=YES, F=NO","675hjyj66h","0","69","53","85","","","","","","","","","","","","","","","",""
"757","
          <p id=""word"" style=""font-size: 40px;"">wipe</p>
          <p style=""font-size: 16px;"">J = YES &nbsp;&nbsp;&nbsp; F = NO</p>
        ","j","html-keyboard-response","345","2.1.0","498511","J=YES, F=NO","675hjyj66h","0","69","53","85","","","","","","","","","wipe","hawk1","unrelated","experimental","j","true","",""
"null","<p style=""font-size: 50px;"">+</p>","null","html-keyboard-response","346","2.1.0","498824","J=YES, F=NO","675hjyj66h","0","69","53","85","","","","","","","","","","","","","","","",""
"null","audio/beep-329314.mp3","null","audio-keyboard-response","347","2.1.0","500340","J=YES, F=NO","675hjyj66h","0","69","53","85","","","","","","","","","","","","","","","",""
"null","audio/emotion.wav","null","audio-keyboard-response","348","2.1.0","500976","J=YES, F=NO","675hjyj66h","0","69","53","85","","","","","","","","","","","","","","","",""
"1102","
          <p id=""word"" style=""font-size: 40px;"">bury</p>
          <p style=""font-size: 16px;"">J = YES &nbsp;&nbsp;&nbsp; F = NO</p>
        ","j","html-keyboard-response","349","2.1.0","502079","J=YES, F=NO","675hjyj66h","0","69","53","85","","","","","","","","","bury","emotion","metaphor","experimental","j","true","",""
"null","<p style=""font-size: 50px;"">+</p>","null","html-keyboard-response","350","2.1.0","502392","J=YES, F=NO","675hjyj66h","0","69","53","85","","","","","","","","","","","","","","","",""
"null","audio/beep-329314.mp3","null","audio-keyboard-response","351","2.1.0","503908","J=YES, F=NO","675hjyj66h","0","69","53","85","","","","","","","","","","","","","","","",""
"null","audio/pine.wav","null","audio-keyboard-response","352","2.1.0","504385","J=YES, F=NO","675hjyj66h","0","69","53","85","","","","","","","","","","","","","","","",""
"997","
          <p id=""word"" style=""font-size: 40px;"">weave</p>
          <p style=""font-size: 16px;"">J = YES &nbsp;&nbsp;&nbsp; F = NO</p>
        ","f","html-keyboard-response","353","2.1.0","505383","J=YES, F=NO","675hjyj66h","0","69","53","85","","","","","","","","","weave","pine","unrelated","experimental","j","false","",""
"null","<p style=""font-size: 50px;"">+</p>","null","html-keyboard-response","354","2.1.0","505688","J=YES, F=NO","675hjyj66h","0","69","53","85","","","","","","","","","","","","","","","",""
"null","audio/beep-329314.mp3","null","audio-keyboard-response","355","2.1.0","507197","J=YES, F=NO","675hjyj66h","0","69","53","85","","","","","","","","","","","","","","","",""
"null","audio/vehicle1.wav","null","audio-keyboard-response","356","2.1.0","507820","J=YES, F=NO","675hjyj66h","0","69","53","85","","","","","","","","","","","","","","","",""
"706","
          <p id=""word"" style=""font-size: 40px;"">dropt</p>
          <p style=""font-size: 16px;"">J = YES &nbsp;&nbsp;&nbsp; F = NO</p>
        ","f","html-keyboard-response","357","2.1.0","508527","J=YES, F=NO","675hjyj66h","0","69","53","85","","","","","","","","","dropt","vehicle1","pseudoword","pseudoword","f","true","",""
"null","<p style=""font-size: 50px;"">+</p>","null","html-keyboard-response","358","2.1.0","508837","J=YES, F=NO","675hjyj66h","0","69","53","85","","","","","","","","","","","","","","","",""
"null","audio/beep-329314.mp3","null","audio-keyboard-response","359","2.1.0","510354","J=YES, F=NO","675hjyj66h","0","69","53","85","","","","","","","","","","","","","","","",""
"null","audio/menu.wav","null","audio-keyboard-response","360","2.1.0","510901","J=YES, F=NO","675hjyj66h","0","69","53","85","","","","","","","","","","","","","","","",""
"872","
          <p id=""word"" style=""font-size: 40px;"">slice</p>
          <p style=""font-size: 16px;"">J = YES &nbsp;&nbsp;&nbsp; F = NO</p>
        ","j","html-keyboard-response","361","2.1.0","511773","J=YES, F=NO","675hjyj66h","0","69","53","85","","","","","","","","","slice","menu","filler","filler","j","true","",""
"22472","<p>Excellent! You have finished block 3 of 8.</p>
                     <p>Feel free to take a 30 second break.</p>
                     <p>Press any key when you're ready to continue.</p>","j","html-keyboard-response","362","2.1.0","534247","J=YES, F=NO","675hjyj66h","0","69","53","85","","","","","","","","","","","","","","","",""
"775","<p>Starting main block 4 of 8. Press any key to continue.</p>","j","html-keyboard-response","363","2.1.0","535023","J=YES, F=NO","675hjyj66h","0","69","53","85","","","","","","","","","","","","","","","",""
"null","<p style=""font-size: 50px;"">+</p>","null","html-keyboard-response","364","2.1.0","535325","J=YES, F=NO","675hjyj66h","0","69","53","85","","","","","","","","","","","","","","","",""
"null","audio/beep-329314.mp3","null","audio-keyboard-response","365","2.1.0","536843","J=YES, F=NO","675hjyj66h","0","69","53","85","","","","","","","","","","","","","","","",""
"null","audio/grass.wav","null","audio-keyboard-response","366","2.1.0","537467","J=YES, F=NO","675hjyj66h","0","69","53","85","","","","","","","","","","","","","","","",""
"1018","
          <p id=""word"" style=""font-size: 40px;"">milames</p>
          <p style=""font-size: 16px;"">J = YES &nbsp;&nbsp;&nbsp; F = NO</p>
        ","f","html-keyboard-response","367","2.1.0","538486","J=YES, F=NO","675hjyj66h","0","69","53","85","","","","","","","","","milames","grass","pseudoword","pseudoword","f","true","",""
"null","<p style=""font-size: 50px;"">+</p>","null","html-keyboard-response","368","2.1.0","538793","J=YES, F=NO","675hjyj66h","0","69","53","85","","","","","","","","","","","","","","","",""
"null","audio/beep-329314.mp3","null","audio-keyboard-response","369","2.1.0","540316","J=YES, F=NO","675hjyj66h","0","69","53","85","","","","","","","","","","","","","","","",""
"null","audio/heart1.wav","null","audio-keyboard-response","370","2.1.0","540912","J=YES, F=NO","675hjyj66h","0","69","53","85","","","","","","","","","","","","","","","",""
"692","
          <p id=""word"" style=""font-size: 40px;"">touch</p>
          <p style=""font-size: 16px;"">J = YES &nbsp;&nbsp;&nbsp; F = NO</p>
        ","j","html-keyboard-response","371","2.1.0","541605","J=YES, F=NO","675hjyj66h","0","69","53","85","","","","","","","","","touch","heart1","metaphor","experimental","j","true","",""
"null","<p style=""font-size: 50px;"">+</p>","null","html-keyboard-response","372","2.1.0","541911","J=YES, F=NO","675hjyj66h","0","69","53","85","","","","","","","","","","","","","","","",""
"null","audio/beep-329314.mp3","null","audio-keyboard-response","373","2.1.0","543429","J=YES, F=NO","675hjyj66h","0","69","53","85","","","","","","","","","","","","","","","",""
"null","audio/cancer1.wav","null","audio-keyboard-response","374","2.1.0","543965","J=YES, F=NO","675hjyj66h","0","69","53","85","","","","","","","","","","","","","","","",""
"848","
          <p id=""word"" style=""font-size: 40px;"">draw</p>
          <p style=""font-size: 16px;"">J = YES &nbsp;&nbsp;&nbsp; F = NO</p>
        ","j","html-keyboard-response","375","2.1.0","544814","J=YES, F=NO","675hjyj66h","0","69","53","85","","","","","","","","","draw","cancer1","filler","filler","j","true","",""
"null","<p style=""font-size: 50px;"">+</p>","null","html-keyboard-response","376","2.1.0","545118","J=YES, F=NO","675hjyj66h","0","69","53","85","","","","","","","","","","","","","","","",""
"null","audio/beep-329314.mp3","null","audio-keyboard-response","377","2.1.0","546637","J=YES, F=NO","675hjyj66h","0","69","53","85","","","","","","","","","","","","","","","",""
"null","audio/trout1.wav","null","audio-keyboard-response","378","2.1.0","547203","J=YES, F=NO","675hjyj66h","0","69","53","85","","","","","","","","","","","","","","","",""
"1112","
          <p id=""word"" style=""font-size: 40px;"">catch</p>
          <p style=""font-size: 16px;"">J = YES &nbsp;&nbsp;&nbsp; F = NO</p>
        ","j","html-keyboard-response","379","2.1.0","548317","J=YES, F=NO","675hjyj66h","0","69","53","85","","","","","","","","","catch","trout1","literal","experimental","j","true","",""
"null","<p style=""font-size: 50px;"">+</p>","null","html-keyboard-response","380","2.1.0","548622","J=YES, F=NO","675hjyj66h","0","69","53","85","","","","","","","","","","","","","","","",""
"null","audio/beep-329314.mp3","null","audio-keyboard-response","381","2.1.0","550134","J=YES, F=NO","675hjyj66h","0","69","53","85","","","","","","","","","","","","","","","",""
"null","audio/relief.wav","null","audio-keyboard-response","382","2.1.0","550767","J=YES, F=NO","675hjyj66h","0","69","53","85","","","","","","","","","","","","","","","",""
"687","
          <p id=""word"" style=""font-size: 40px;"">grigg</p>
          <p style=""font-size: 16px;"">J = YES &nbsp;&nbsp;&nbsp; F = NO</p>
        ","f","html-keyboard-response","383","2.1.0","551454","J=YES, F=NO","675hjyj66h","0","69","53","85","","","","","","","","","grigg","relief","pseudoword","pseudoword","f","true","",""
"null","<p style=""font-size: 50px;"">+</p>","null","html-keyboard-response","384","2.1.0","551759","J=YES, F=NO","675hjyj66h","0","69","53","85","","","","","","","","","","","","","","","",""
"null","audio/beep-329314.mp3","null","audio-keyboard-response","385","2.1.0","553276","J=YES, F=NO","675hjyj66h","0","69","53","85","","","","","","","","","","","","","","","",""
"null","audio/uncle1.wav","null","audio-keyboard-response","386","2.1.0","553733","J=YES, F=NO","675hjyj66h","0","69","53","85","","","","","","","","","","","","","","","",""
"1241","
          <p id=""word"" style=""font-size: 40px;"">dramble</p>
          <p style=""font-size: 16px;"">J = YES &nbsp;&nbsp;&nbsp; F = NO</p>
        ","f","html-keyboard-response","387","2.1.0","554975","J=YES, F=NO","675hjyj66h","0","69","53","85","","","","","","","","","dramble","uncle1","pseudoword","pseudoword","f","true","",""
"null","<p style=""font-size: 50px;"">+</p>","null","html-keyboard-response","388","2.1.0","555287","J=YES, F=NO","675hjyj66h","0","69","53","85","","","","","","","","","","","","","","","",""
"null","audio/beep-329314.mp3","null","audio-keyboard-response","389","2.1.0","556803","J=YES, F=NO","675hjyj66h","0","69","53","85","","","","","","","","","","","","","","","",""
"null","audio/roof1.wav","null","audio-keyboard-response","390","2.1.0","557308","J=YES, F=NO","675hjyj66h","0","69","53","85","","","","","","","","","","","","","","","",""
"952","
          <p id=""word"" style=""font-size: 40px;"">construct</p>
          <p style=""font-size: 16px;"">J = YES &nbsp;&nbsp;&nbsp; F = NO</p>
