"rt","stimulus","response","trial_type","trial_index","plugin_version","time_elapsed","response_mapping","subject_id","list_index","lextale_score","lextale_word_score","lextale_nonword_score","success","timeout","failed_images","failed_audio","failed_video","task","isWord","isDummy","target","prime","prime_type","stimulus_type","correct_response","correct","section","question_order"
"146153","
    <div style=""max-width: 800px; margin: auto; text-align: left;"">
      <h2>STANFORD UNIVERSITY</h2>
      <h3>Research Information Sheet</h3>
      <p><strong>Protocol Director:</strong> Robert Hawkins<br>
      <strong>Protocol Title:</strong> Communication and social cognition in natural audiovisual contexts<br>
      <strong>IRB#:</strong> 77226</p>

      <p><strong>DESCRIPTION:</strong> You are invited to participate in a research study about language and communication. The purpose of the research is to understand how you interact and communicate with other people in naturalistic settings as a fluent English speaker. This research will be conducted through the Prolific platform, including participants from the US, UK, and Canada. If you decide to participate in this research, you will play a communication game in a group with one or more partners.</p>

      <p><strong>TIME INVOLVEMENT:</strong> The task will last the amount of time advertised on Prolific. You are free to withdraw from the study at any time.</p>

      <p><strong>RISKS AND BENEFITS:</strong> You may become frustrated if your partner gets distracted, or experience discomfort if other participants in your group send text that is inappropriate for the task. We ask you to please be respectful of other participants you might be interacting with to mitigate these risks. You may also experience discomfort when being asked to discuss or challenge emotionally salient political beliefs. Study data will be stored securely, in compliance with Stanford University standards, minimizing the risk of confidentiality breach. This study advances our scientific understanding of how people communicate and collaborate in naturalistic settings. This study may lead to further insights about what can go wrong in teamwork, suggest potential interventions to overcome these barriers, and help to develop assistive technologies that collaborate with human partners. We cannot and do not guarantee or promise that you will receive any benefits from this study.</p>

      <p><strong>PAYMENTS:</strong> You will receive payment in the amount advertised on Prolific. If you do not complete this study, you will receive prorated payment based on the time that you have spent. Additionally, you may be eligible for bonus payments as described in the instructions.</p>

      <p><strong>PARTICIPANT’S RIGHTS:</strong> If you have read this form and have decided to participate in this project, please understand your participation is voluntary and you have the right to withdraw your consent or discontinue participation at any time without penalty or loss of benefits to which you are otherwise entitled. The alternative is not to participate. You have the right to refuse to answer particular questions. The results of this research study may be presented at scientific or professional meetings or published in scientific journals. Your individual privacy will be maintained in all published and written data resulting from the study. In accordance with scientific norms, the data from this study may be used or shared with other researchers for future research (after removing personally identifying information) without additional consent from you.</p>

      <p><strong>CONTACT INFORMATION:</strong><br>
      Questions: If you have any questions, concerns or complaints about this research, its procedures, risks and benefits, contact the Protocol Director, Robert Hawkins (<a href=""mailto:rdhawkins@stanford.edu"">rdhawkins@stanford.edu</a>, 217-549-6923).<br>
      Independent Contact: If you are not satisfied with how this study is being conducted, or if you have any concerns, complaints, or general questions about the research or your rights as a participant, please contact the Stanford Institutional Review Board (IRB) to speak to someone independent of the research team at 650-723-2480 or toll free at 1-866-680-2906, or email at <a href=""mailto:irbnon-med@stanford.edu"">irbnon-med@stanford.edu</a>. You can also write to the Stanford IRB, Stanford University, 1705 El Camino Real, Palo Alto, CA 94306.</p>

      <p><strong>Please save or print a copy of this page for your records.</strong></p>
      <p>If you agree to participate in this research, click ""Continue"" below.</p>
    </div>
  ","0","html-button-response","0","2.1.0","146159","F=YES, J=NO","6ezegwzwa9","2","51","48","55","","","","","","","","","","","","","","","",""
"10201","
    <div style=""max-width: 800px; margin: auto; text-align: left;"">
      <h2>Welcome!</h2>
      <p>Thank you for participating in this study. The experiment consists of three parts:</p>
      <ol>
        <li>An English vocabulary test</li>
        <li>A main task in which you will hear and see words, and decide whether the written word is a real English word</li>
        <li>A brief survey about your background</li>
      </ol>
      <p>Each part will be introduced before it begins.</p>
      <p>Please make sure you are in a quiet environment and can hear audio clearly for the final task.</p>
      <p style=""margin-top: 2em;"">Press any key to begin.</p>
    </div>
  ","ArrowRight","html-keyboard-response","1","2.1.0","156361","F=YES, J=NO","6ezegwzwa9","2","51","48","55","","","","","","","","","","","","","","","",""
"","","","preload","2","2.1.0","157293","F=YES, J=NO","6ezegwzwa9","2","51","48","55","true","false","[]","[]","[]","","","","","","","","","","",""
"7883","
    <div style=""max-width: 800px; margin: auto; text-align: left;"">
      <h2>Part 1: Vocabulary Test</h2>
      <p>You will now complete the first part of the study: a short English vocabulary test.</p>
      <p>This test is called <strong>LexTALE</strong> and helps us get a general sense of your English proficiency.</p>
      <p style=""margin-top: 2em;"">Press any key to continue.</p>
    </div>
  ","ArrowRight","html-keyboard-response","3","2.1.0","165177","F=YES, J=NO","6ezegwzwa9","2","51","48","55","","","","","","","","","","","","","","","",""
"24161","
    <div style=""max-width: 800px; margin: auto; text-align: left;"">
      <h2>LexTALE Vocabulary Test</h2>
      <p>In this test, you will see a series of letter strings—one at a time.</p>
      <p>Your task is to decide whether each string is a real English word.</p>
      <p><strong>Key responses:</strong></p>
      <ul>
        <li><strong>F</strong> = YES (real English word)</li>
        <li><strong>J</strong> = NO (not a real English word)</li>
      </ul>
      <p>There is no time limit, but please try to be accurate.</p>
      <p style=""margin-top: 2em;"">Press any key to begin.</p>
    </div>
  "," ","html-keyboard-response","4","2.1.0","189339","F=YES, J=NO","6ezegwzwa9","2","51","48","55","","","","","","","","","","","","","","","",""
"3261","
  <p style=""font-size: 40px;"">platery</p>
  <p style=""font-size: 16px;"">F = YES &nbsp;&nbsp;&nbsp; J = NO</p>
","f","html-keyboard-response","5","2.1.0","192601","F=YES, J=NO","6ezegwzwa9","2","51","48","55","","","","","","lextale","false","true","","","","","","","",""
"2004","
  <p style=""font-size: 40px;"">denial</p>
  <p style=""font-size: 16px;"">F = YES &nbsp;&nbsp;&nbsp; J = NO</p>
","j","html-keyboard-response","6","2.1.0","194606","F=YES, J=NO","6ezegwzwa9","2","51","48","55","","","","","","lextale","true","true","","","","","","","",""
"1243","
  <p style=""font-size: 40px;"">marrit</p>
  <p style=""font-size: 16px;"">F = YES &nbsp;&nbsp;&nbsp; J = NO</p>
","j","html-keyboard-response","7","2.1.0","195850","F=YES, J=NO","6ezegwzwa9","2","51","48","55","","","","","","lextale","false","true","","","","","","","",""
"2715","
  <p style=""font-size: 40px;"">bottle</p>
  <p style=""font-size: 16px;"">F = YES &nbsp;&nbsp;&nbsp; J = NO</p>
","f","html-keyboard-response","8","2.1.0","198566","F=YES, J=NO","6ezegwzwa9","2","51","48","55","","","","","","lextale","true","false","","","","","","","",""
"1822","
  <p style=""font-size: 40px;"">birst</p>
  <p style=""font-size: 16px;"">F = YES &nbsp;&nbsp;&nbsp; J = NO</p>
","j","html-keyboard-response","9","2.1.0","200388","F=YES, J=NO","6ezegwzwa9","2","51","48","55","","","","","","lextale","false","false","","","","","","","",""
"2522","
  <p style=""font-size: 40px;"">envy</p>
  <p style=""font-size: 16px;"">F = YES &nbsp;&nbsp;&nbsp; J = NO</p>
","j","html-keyboard-response","10","2.1.0","202911","F=YES, J=NO","6ezegwzwa9","2","51","48","55","","","","","","lextale","true","false","","","","","","","",""
"1948","
  <p style=""font-size: 40px;"">brang</p>
  <p style=""font-size: 16px;"">F = YES &nbsp;&nbsp;&nbsp; J = NO</p>
","j","html-keyboard-response","11","2.1.0","204860","F=YES, J=NO","6ezegwzwa9","2","51","48","55","","","","","","lextale","false","false","","","","","","","",""
"637","
  <p style=""font-size: 40px;"">huge</p>
  <p style=""font-size: 16px;"">F = YES &nbsp;&nbsp;&nbsp; J = NO</p>
","f","html-keyboard-response","12","2.1.0","205498","F=YES, J=NO","6ezegwzwa9","2","51","48","55","","","","","","lextale","true","false","","","","","","","",""
"1466","
  <p style=""font-size: 40px;"">plove</p>
  <p style=""font-size: 16px;"">F = YES &nbsp;&nbsp;&nbsp; J = NO</p>
","f","html-keyboard-response","13","2.1.0","206965","F=YES, J=NO","6ezegwzwa9","2","51","48","55","","","","","","lextale","false","false","","","","","","","",""
"828","
  <p style=""font-size: 40px;"">border</p>
  <p style=""font-size: 16px;"">F = YES &nbsp;&nbsp;&nbsp; J = NO</p>
","f","html-keyboard-response","14","2.1.0","207794","F=YES, J=NO","6ezegwzwa9","2","51","48","55","","","","","","lextale","true","false","","","","","","","",""
"769","
  <p style=""font-size: 40px;"">flimsy</p>
  <p style=""font-size: 16px;"">F = YES &nbsp;&nbsp;&nbsp; J = NO</p>
","j","html-keyboard-response","15","2.1.0","208564","F=YES, J=NO","6ezegwzwa9","2","51","48","55","","","","","","lextale","true","false","","","","","","","",""
"1124","
  <p style=""font-size: 40px;"">drain</p>
  <p style=""font-size: 16px;"">F = YES &nbsp;&nbsp;&nbsp; J = NO</p>
","f","html-keyboard-response","16","2.1.0","209689","F=YES, J=NO","6ezegwzwa9","2","51","48","55","","","","","","lextale","true","false","","","","","","","",""
"2842","
  <p style=""font-size: 40px;"">twindle</p>
  <p style=""font-size: 16px;"">F = YES &nbsp;&nbsp;&nbsp; J = NO</p>
","f","html-keyboard-response","17","2.1.0","212531","F=YES, J=NO","6ezegwzwa9","2","51","48","55","","","","","","lextale","false","false","","","","","","","",""
"897","
  <p style=""font-size: 40px;"">propose</p>
  <p style=""font-size: 16px;"">F = YES &nbsp;&nbsp;&nbsp; J = NO</p>
","f","html-keyboard-response","18","2.1.0","213429","F=YES, J=NO","6ezegwzwa9","2","51","48","55","","","","","","lextale","true","false","","","","","","","",""
"2206","
  <p style=""font-size: 40px;"">forlay</p>
  <p style=""font-size: 16px;"">F = YES &nbsp;&nbsp;&nbsp; J = NO</p>
","f","html-keyboard-response","19","2.1.0","215635","F=YES, J=NO","6ezegwzwa9","2","51","48","55","","","","","","lextale","false","false","","","","","","","",""
"1558","
  <p style=""font-size: 40px;"">tenant</p>
  <p style=""font-size: 16px;"">F = YES &nbsp;&nbsp;&nbsp; J = NO</p>
","j","html-keyboard-response","20","2.1.0","217194","F=YES, J=NO","6ezegwzwa9","2","51","48","55","","","","","","lextale","true","false","","","","","","","",""
"1799","
  <p style=""font-size: 40px;"">strain</p>
  <p style=""font-size: 16px;"">F = YES &nbsp;&nbsp;&nbsp; J = NO</p>
","f","html-keyboard-response","21","2.1.0","218994","F=YES, J=NO","6ezegwzwa9","2","51","48","55","","","","","","lextale","true","false","","","","","","","",""
"718","
  <p style=""font-size: 40px;"">holster</p>
  <p style=""font-size: 16px;"">F = YES &nbsp;&nbsp;&nbsp; J = NO</p>
","j","html-keyboard-response","22","2.1.0","219713","F=YES, J=NO","6ezegwzwa9","2","51","48","55","","","","","","lextale","true","false","","","","","","","",""
"951","
  <p style=""font-size: 40px;"">hinder</p>
  <p style=""font-size: 16px;"">F = YES &nbsp;&nbsp;&nbsp; J = NO</p>
","j","html-keyboard-response","23","2.1.0","220665","F=YES, J=NO","6ezegwzwa9","2","51","48","55","","","","","","lextale","true","false","","","","","","","",""
"1120","
  <p style=""font-size: 40px;"">swindle</p>
  <p style=""font-size: 16px;"">F = YES &nbsp;&nbsp;&nbsp; J = NO</p>
","j","html-keyboard-response","24","2.1.0","221786","F=YES, J=NO","6ezegwzwa9","2","51","48","55","","","","","","lextale","true","false","","","","","","","",""
"939","
  <p style=""font-size: 40px;"">nuder</p>
  <p style=""font-size: 16px;"">F = YES &nbsp;&nbsp;&nbsp; J = NO</p>
","j","html-keyboard-response","25","2.1.0","222725","F=YES, J=NO","6ezegwzwa9","2","51","48","55","","","","","","lextale","false","false","","","","","","","",""
"609","
  <p style=""font-size: 40px;"">pillow</p>
  <p style=""font-size: 16px;"">F = YES &nbsp;&nbsp;&nbsp; J = NO</p>
","f","html-keyboard-response","26","2.1.0","223335","F=YES, J=NO","6ezegwzwa9","2","51","48","55","","","","","","lextale","true","false","","","","","","","",""
"5909","
  <p style=""font-size: 40px;"">shumble</p>
  <p style=""font-size: 16px;"">F = YES &nbsp;&nbsp;&nbsp; J = NO</p>
","j","html-keyboard-response","27","2.1.0","229244","F=YES, J=NO","6ezegwzwa9","2","51","48","55","","","","","","lextale","false","false","","","","","","","",""
"1867","
  <p style=""font-size: 40px;"">thirst</p>
  <p style=""font-size: 16px;"">F = YES &nbsp;&nbsp;&nbsp; J = NO</p>
","f","html-keyboard-response","28","2.1.0","231112","F=YES, J=NO","6ezegwzwa9","2","51","48","55","","","","","","lextale","true","false","","","","","","","",""
"19525","
  <p style=""font-size: 40px;"">unsail</p>
  <p style=""font-size: 16px;"">F = YES &nbsp;&nbsp;&nbsp; J = NO</p>
","f","html-keyboard-response","29","2.1.0","250638","F=YES, J=NO","6ezegwzwa9","2","51","48","55","","","","","","lextale","false","false","","","","","","","",""
"2511","
  <p style=""font-size: 40px;"">rifle</p>
  <p style=""font-size: 16px;"">F = YES &nbsp;&nbsp;&nbsp; J = NO</p>
","f","html-keyboard-response","30","2.1.0","253149","F=YES, J=NO","6ezegwzwa9","2","51","48","55","","","","","","lextale","true","false","","","","","","","",""
"1991","
  <p style=""font-size: 40px;"">mush</p>
  <p style=""font-size: 16px;"">F = YES &nbsp;&nbsp;&nbsp; J = NO</p>
","j","html-keyboard-response","31","2.1.0","255141","F=YES, J=NO","6ezegwzwa9","2","51","48","55","","","","","","lextale","false","false","","","","","","","",""
"3367","
  <p style=""font-size: 40px;"">drench</p>
  <p style=""font-size: 16px;"">F = YES &nbsp;&nbsp;&nbsp; J = NO</p>
","j","html-keyboard-response","32","2.1.0","258509","F=YES, J=NO","6ezegwzwa9","2","51","48","55","","","","","","lextale","true","false","","","","","","","",""
"2169","
  <p style=""font-size: 40px;"">snirt</p>
  <p style=""font-size: 16px;"">F = YES &nbsp;&nbsp;&nbsp; J = NO</p>
","j","html-keyboard-response","33","2.1.0","260678","F=YES, J=NO","6ezegwzwa9","2","51","48","55","","","","","","lextale","false","false","","","","","","","",""
"983","
  <p style=""font-size: 40px;"">bitter</p>
  <p style=""font-size: 16px;"">F = YES &nbsp;&nbsp;&nbsp; J = NO</p>
","f","html-keyboard-response","34","2.1.0","261662","F=YES, J=NO","6ezegwzwa9","2","51","48","55","","","","","","lextale","true","false","","","","","","","",""
"5437","
  <p style=""font-size: 40px;"">pliff</p>
  <p style=""font-size: 16px;"">F = YES &nbsp;&nbsp;&nbsp; J = NO</p>
","j","html-keyboard-response","35","2.1.0","267100","F=YES, J=NO","6ezegwzwa9","2","51","48","55","","","","","","lextale","false","false","","","","","","","",""
"752","
  <p style=""font-size: 40px;"">tablet</p>
  <p style=""font-size: 16px;"">F = YES &nbsp;&nbsp;&nbsp; J = NO</p>
","f","html-keyboard-response","36","2.1.0","267852","F=YES, J=NO","6ezegwzwa9","2","51","48","55","","","","","","lextale","true","false","","","","","","","",""
"4268","
  <p style=""font-size: 40px;"">glimmer</p>
  <p style=""font-size: 16px;"">F = YES &nbsp;&nbsp;&nbsp; J = NO</p>
","j","html-keyboard-response","37","2.1.0","272120","F=YES, J=NO","6ezegwzwa9","2","51","48","55","","","","","","lextale","true","false","","","","","","","",""
"6468","
  <p style=""font-size: 40px;"">slink</p>
  <p style=""font-size: 16px;"">F = YES &nbsp;&nbsp;&nbsp; J = NO</p>
","f","html-keyboard-response","38","2.1.0","278589","F=YES, J=NO","6ezegwzwa9","2","51","48","55","","","","","","lextale","true","false","","","","","","","",""
"1785","
  <p style=""font-size: 40px;"">clever</p>
  <p style=""font-size: 16px;"">F = YES &nbsp;&nbsp;&nbsp; J = NO</p>
","f","html-keyboard-response","39","2.1.0","280374","F=YES, J=NO","6ezegwzwa9","2","51","48","55","","","","","","lextale","true","false","","","","","","","",""
"5121","
  <p style=""font-size: 40px;"">grum</p>
  <p style=""font-size: 16px;"">F = YES &nbsp;&nbsp;&nbsp; J = NO</p>
","f","html-keyboard-response","40","2.1.0","285495","F=YES, J=NO","6ezegwzwa9","2","51","48","55","","","","","","lextale","false","false","","","","","","","",""
"728","
  <p style=""font-size: 40px;"">string</p>
  <p style=""font-size: 16px;"">F = YES &nbsp;&nbsp;&nbsp; J = NO</p>
","f","html-keyboard-response","41","2.1.0","286224","F=YES, J=NO","6ezegwzwa9","2","51","48","55","","","","","","lextale","true","false","","","","","","","",""
"2235","
  <p style=""font-size: 40px;"">plim</p>
  <p style=""font-size: 16px;"">F = YES &nbsp;&nbsp;&nbsp; J = NO</p>
","f","html-keyboard-response","42","2.1.0","288460","F=YES, J=NO","6ezegwzwa9","2","51","48","55","","","","","","lextale","false","false","","","","","","","",""
"1789","
  <p style=""font-size: 40px;"">cable</p>
  <p style=""font-size: 16px;"">F = YES &nbsp;&nbsp;&nbsp; J = NO</p>
","f","html-keyboard-response","43","2.1.0","290249","F=YES, J=NO","6ezegwzwa9","2","51","48","55","","","","","","lextale","true","false","","","","","","","",""
"25346","
  <p style=""font-size: 40px;"">shrivel</p>
  <p style=""font-size: 16px;"">F = YES &nbsp;&nbsp;&nbsp; J = NO</p>
","j","html-keyboard-response","44","2.1.0","315596","F=YES, J=NO","6ezegwzwa9","2","51","48","55","","","","","","lextale","true","false","","","","","","","",""
"1553","
  <p style=""font-size: 40px;"">tarnish</p>
  <p style=""font-size: 16px;"">F = YES &nbsp;&nbsp;&nbsp; J = NO</p>
","j","html-keyboard-response","45","2.1.0","317149","F=YES, J=NO","6ezegwzwa9","2","51","48","55","","","","","","lextale","true","false","","","","","","","",""
"1498","
  <p style=""font-size: 40px;"">blim</p>
  <p style=""font-size: 16px;"">F = YES &nbsp;&nbsp;&nbsp; J = NO</p>
","f","html-keyboard-response","46","2.1.0","318648","F=YES, J=NO","6ezegwzwa9","2","51","48","55","","","","","","lextale","false","false","","","","","","","",""
"1673","
  <p style=""font-size: 40px;"">stifle</p>
  <p style=""font-size: 16px;"">F = YES &nbsp;&nbsp;&nbsp; J = NO</p>
","j","html-keyboard-response","47","2.1.0","320321","F=YES, J=NO","6ezegwzwa9","2","51","48","55","","","","","","lextale","true","false","","","","","","","",""
"1207","
  <p style=""font-size: 40px;"">bint</p>
  <p style=""font-size: 16px;"">F = YES &nbsp;&nbsp;&nbsp; J = NO</p>
","j","html-keyboard-response","48","2.1.0","321528","F=YES, J=NO","6ezegwzwa9","2","51","48","55","","","","","","lextale","false","false","","","","","","","",""
"739","
  <p style=""font-size: 40px;"">purple</p>
  <p style=""font-size: 16px;"">F = YES &nbsp;&nbsp;&nbsp; J = NO</p>
","f","html-keyboard-response","49","2.1.0","322267","F=YES, J=NO","6ezegwzwa9","2","51","48","55","","","","","","lextale","true","false","","","","","","","",""
"1353","
  <p style=""font-size: 40px;"">wriggle</p>
  <p style=""font-size: 16px;"">F = YES &nbsp;&nbsp;&nbsp; J = NO</p>
","j","html-keyboard-response","50","2.1.0","323620","F=YES, J=NO","6ezegwzwa9","2","51","48","55","","","","","","lextale","true","false","","","","","","","",""
"847","
  <p style=""font-size: 40px;"">mangle</p>
  <p style=""font-size: 16px;"">F = YES &nbsp;&nbsp;&nbsp; J = NO</p>
","j","html-keyboard-response","51","2.1.0","324468","F=YES, J=NO","6ezegwzwa9","2","51","48","55","","","","","","lextale","true","false","","","","","","","",""
"2296","
  <p style=""font-size: 40px;"">shramp</p>
  <p style=""font-size: 16px;"">F = YES &nbsp;&nbsp;&nbsp; J = NO</p>
","f","html-keyboard-response","52","2.1.0","326764","F=YES, J=NO","6ezegwzwa9","2","51","48","55","","","","","","lextale","false","false","","","","","","","",""
"1882","
  <p style=""font-size: 40px;"">flirt</p>
  <p style=""font-size: 16px;"">F = YES &nbsp;&nbsp;&nbsp; J = NO</p>
","j","html-keyboard-response","53","2.1.0","328646","F=YES, J=NO","6ezegwzwa9","2","51","48","55","","","","","","lextale","true","false","","","","","","","",""
"1978","
  <p style=""font-size: 40px;"">frip</p>
  <p style=""font-size: 16px;"">F = YES &nbsp;&nbsp;&nbsp; J = NO</p>
","j","html-keyboard-response","54","2.1.0","330624","F=YES, J=NO","6ezegwzwa9","2","51","48","55","","","","","","lextale","false","false","","","","","","","",""
"1161","
  <p style=""font-size: 40px;"">tangle</p>
  <p style=""font-size: 16px;"">F = YES &nbsp;&nbsp;&nbsp; J = NO</p>
","j","html-keyboard-response","55","2.1.0","331786","F=YES, J=NO","6ezegwzwa9","2","51","48","55","","","","","","lextale","true","false","","","","","","","",""
"1117","
  <p style=""font-size: 40px;"">crumble</p>
  <p style=""font-size: 16px;"">F = YES &nbsp;&nbsp;&nbsp; J = NO</p>
","f","html-keyboard-response","56","2.1.0","332903","F=YES, J=NO","6ezegwzwa9","2","51","48","55","","","","","","lextale","true","false","","","","","","","",""
"2379","
  <p style=""font-size: 40px;"">wrinkle</p>
  <p style=""font-size: 16px;"">F = YES &nbsp;&nbsp;&nbsp; J = NO</p>
","f","html-keyboard-response","57","2.1.0","335282","F=YES, J=NO","6ezegwzwa9","2","51","48","55","","","","","","lextale","true","false","","","","","","","",""
"1462","
  <p style=""font-size: 40px;"">slumb</p>
  <p style=""font-size: 16px;"">F = YES &nbsp;&nbsp;&nbsp; J = NO</p>
","j","html-keyboard-response","58","2.1.0","336745","F=YES, J=NO","6ezegwzwa9","2","51","48","55","","","","","","lextale","false","false","","","","","","","",""
"683","
  <p style=""font-size: 40px;"">jungle</p>
  <p style=""font-size: 16px;"">F = YES &nbsp;&nbsp;&nbsp; J = NO</p>
","f","html-keyboard-response","59","2.1.0","337429","F=YES, J=NO","6ezegwzwa9","2","51","48","55","","","","","","lextale","true","false","","","","","","","",""
"7683","
  <p style=""font-size: 40px;"">frolick</p>
  <p style=""font-size: 16px;"">F = YES &nbsp;&nbsp;&nbsp; J = NO</p>
","j","html-keyboard-response","60","2.1.0","345112","F=YES, J=NO","6ezegwzwa9","2","51","48","55","","","","","","lextale","false","false","","","","","","","",""
"5090","
      <h2>LexTALE Test Completed</h2>
      <p>Your LexTALE vocabulary score is: <strong>51%</strong></p>
      <p>Press any key to continue.</p>
    ","ArrowRight","html-keyboard-response","61","2.1.0","350203","F=YES, J=NO","6ezegwzwa9","2","51","48","55","","","","","","","","","","","","","","","",""
"26396","
    <div style=""max-width: 800px; margin: auto; text-align: left;"">
      <h2>Break Time</h2>
      <p>You have completed the first part of the study.</p>
      <p>You may take a short <strong>30-second break</strong> before continuing.</p>
      <p>When you’re ready, press any key to continue to the final task.</p>
    </div>
  ","ArrowRight","html-keyboard-response","62","2.1.0","376600","F=YES, J=NO","6ezegwzwa9","2","51","48","55","","","","","","","","","","","","","","","",""
"16263","
    <div style=""max-width: 800px; margin: auto; text-align: left;"">
      <h2>Part 2: Lexical Decision Task</h2>
      <p>You will now begin the second part of the study.</p>
      <p>Each trial will follow this sequence:</p>
      <ul>
        <li>A fixation cross (+) appears at the center of the screen.</li>
        <li>You will hear a short beep followed by a spoken word.</li>
        <li>A written word will appear briefly on the screen.</li>
      </ul>
      <p>Your task is to judge whether the <strong>written word</strong> is a real English word.</p>
      <p style=""margin-top: 1em;""><strong>Key responses:</strong></p>
      <ul>
        <li><strong>F</strong> = YES (real English word)</li>
        <li><strong>J</strong> = NO (not a real English word)</li>
      </ul>
      <p>Please respond as quickly and accurately as you can.</p>
      <p style=""margin-top: 2em;"">Press any key to continue.</p>
    </div>
  ","ArrowRight","html-keyboard-response","63","2.1.0","392864","F=YES, J=NO","6ezegwzwa9","2","51","48","55","","","","","","","","","","","","","","","",""
"4389","
    <div style=""max-width: 800px; margin: auto; text-align: left;"">
      <h2>Before You Begin</h2>
      <p>Make sure your sound is turned on.</p>
      <p>You will hear audio during each trial, but your decision should be based only on the <strong>written word</strong> you see on the screen.</p>
      <p><strong>Reminder:</strong></p>
      <ul>
        <li><strong>F</strong> = YES (real English word)</li>
        <li><strong>J</strong> = NO (not a real English word)</li>
      </ul>
      <p style=""margin-top: 2em;"">Press any key when you are ready to begin.</p>
    </div>
  ","ArrowRight","html-keyboard-response","64","2.1.0","397254","F=YES, J=NO","6ezegwzwa9","2","51","48","55","","","","","","","","","","","","","","","",""
"5528","
    <div style=""max-width: 800px; margin: auto; text-align: left;"">
      <h2>Part 2: Practice Trials</h2>
      <p>You will now complete a few <strong>practice trials</strong> to get familiar with the task.</p>
      <p>These trials are <strong>not scored</strong> and are only to help you get used to the format.</p>
      <p style=""margin-top: 2em;"">Press any key to begin.</p>
    </div>
  ","ArrowRight","html-keyboard-response","65","2.1.0","402783","F=YES, J=NO","6ezegwzwa9","2","51","48","55","","","","","","","","","","","","","","","",""
"2502","<p>Starting practice block 1 of 2. Press any key to continue.</p>","ArrowRight","html-keyboard-response","66","2.1.0","405285","F=YES, J=NO","6ezegwzwa9","2","51","48","55","","","","","","","","","","","","","","","",""
"null","<p style=""font-size: 50px;"">+</p>","null","html-keyboard-response","67","2.1.0","405601","F=YES, J=NO","6ezegwzwa9","2","51","48","55","","","","","","","","","","","","","","","",""
"null","audio/beep-329314.mp3","null","audio-keyboard-response","68","2.1.0","407130","F=YES, J=NO","6ezegwzwa9","2","51","48","55","","","","","","","","","","","","","","","",""
"null","audio/cancer1.wav","null","audio-keyboard-response","69","2.1.0","407680","F=YES, J=NO","6ezegwzwa9","2","51","48","55","","","","","","","","","","","","","","","",""
"null","
          <p id=""word"" style=""font-size: 40px;"">draw</p>
          <p style=""font-size: 16px;"">F = YES &nbsp;&nbsp;&nbsp; J = NO</p>
        ","null","html-keyboard-response","70","2.1.0","409185","F=YES, J=NO","6ezegwzwa9","2","51","48","55","","","","","","","","","draw","cancer1","filler","filler","f","false","",""
"null","<p style=""font-size: 50px;"">+</p>","null","html-keyboard-response","71","2.1.0","409490","F=YES, J=NO","6ezegwzwa9","2","51","48","55","","","","","","","","","","","","","","","",""
"null","audio/beep-329314.mp3","null","audio-keyboard-response","72","2.1.0","411030","F=YES, J=NO","6ezegwzwa9","2","51","48","55","","","","","","","","","","","","","","","",""
"null","audio/novel.wav","null","audio-keyboard-response","73","2.1.0","411561","F=YES, J=NO","6ezegwzwa9","2","51","48","55","","","","","","","","","","","","","","","",""
"null","
          <p id=""word"" style=""font-size: 40px;"">type</p>
          <p style=""font-size: 16px;"">F = YES &nbsp;&nbsp;&nbsp; J = NO</p>
        ","null","html-keyboard-response","74","2.1.0","413071","F=YES, J=NO","6ezegwzwa9","2","51","48","55","","","","","","","","","type","novel","filler","filler","f","false","",""
"null","<p style=""font-size: 50px;"">+</p>","null","html-keyboard-response","75","2.1.0","413382","F=YES, J=NO","6ezegwzwa9","2","51","48","55","","","","","","","","","","","","","","","",""
"null","audio/beep-329314.mp3","null","audio-keyboard-response","76","2.1.0","414910","F=YES, J=NO","6ezegwzwa9","2","51","48","55","","","","","","","","","","","","","","","",""
"null","audio/bishop1.wav","null","audio-keyboard-response","77","2.1.0","415560","F=YES, J=NO","6ezegwzwa9","2","51","48","55","","","","","","","","","","","","","","","",""
"746","
          <p id=""word"" style=""font-size: 40px;"">play</p>
          <p style=""font-size: 16px;"">F = YES &nbsp;&nbsp;&nbsp; J = NO</p>
        ","f","html-keyboard-response","78","2.1.0","416307","F=YES, J=NO","6ezegwzwa9","2","51","48","55","","","","","","","","","play","bishop1","filler","filler","f","true","",""
"null","<p style=""font-size: 50px;"">+</p>","null","html-keyboard-response","79","2.1.0","416621","F=YES, J=NO","6ezegwzwa9","2","51","48","55","","","","","","","","","","","","","","","",""
"null","audio/beep-329314.mp3","null","audio-keyboard-response","80","2.1.0","418150","F=YES, J=NO","6ezegwzwa9","2","51","48","55","","","","","","","","","","","","","","","",""
"null","audio/neck.wav","null","audio-keyboard-response","81","2.1.0","418740","F=YES, J=NO","6ezegwzwa9","2","51","48","55","","","","","","","","","","","","","","","",""
"null","
          <p id=""word"" style=""font-size: 40px;"">werling</p>
          <p style=""font-size: 16px;"">F = YES &nbsp;&nbsp;&nbsp; J = NO</p>
        ","null","html-keyboard-response","82","2.1.0","420244","F=YES, J=NO","6ezegwzwa9","2","51","48","55","","","","","","","","","werling","neck","pseudoword","pseudoword","j","false","",""
"null","<p style=""font-size: 50px;"">+</p>","null","html-keyboard-response","83","2.1.0","420556","F=YES, J=NO","6ezegwzwa9","2","51","48","55","","","","","","","","","","","","","","","",""
"null","audio/beep-329314.mp3","null","audio-keyboard-response","84","2.1.0","422091","F=YES, J=NO","6ezegwzwa9","2","51","48","55","","","","","","","","","","","","","","","",""
"null","audio/menu.wav","null","audio-keyboard-response","85","2.1.0","422721","F=YES, J=NO","6ezegwzwa9","2","51","48","55","","","","","","","","","","","","","","","",""
"null","
          <p id=""word"" style=""font-size: 40px;"">slice</p>
          <p style=""font-size: 16px;"">F = YES &nbsp;&nbsp;&nbsp; J = NO</p>
        ","null","html-keyboard-response","86","2.1.0","424228","F=YES, J=NO","6ezegwzwa9","2","51","48","55","","","","","","","","","slice","menu","filler","filler","f","false","",""
"null","<p style=""font-size: 50px;"">+</p>","null","html-keyboard-response","87","2.1.0","424539","F=YES, J=NO","6ezegwzwa9","2","51","48","55","","","","","","","","","","","","","","","",""
"null","audio/beep-329314.mp3","null","audio-keyboard-response","88","2.1.0","426071","F=YES, J=NO","6ezegwzwa9","2","51","48","55","","","","","","","","","","","","","","","",""
"null","audio/brain.wav","null","audio-keyboard-response","89","2.1.0","426581","F=YES, J=NO","6ezegwzwa9","2","51","48","55","","","","","","","","","","","","","","","",""
"null","
          <p id=""word"" style=""font-size: 40px;"">throw</p>
          <p style=""font-size: 16px;"">F = YES &nbsp;&nbsp;&nbsp; J = NO</p>
        ","null","html-keyboard-response","90","2.1.0","428091","F=YES, J=NO","6ezegwzwa9","2","51","48","55","","","","","","","","","throw","brain","filler","filler","f","false","",""
"null","<p style=""font-size: 50px;"">+</p>","null","html-keyboard-response","91","2.1.0","428403","F=YES, J=NO","6ezegwzwa9","2","51","48","55","","","","","","","","","","","","","","","",""
"null","audio/beep-329314.mp3","null","audio-keyboard-response","92","2.1.0","429931","F=YES, J=NO","6ezegwzwa9","2","51","48","55","","","","","","","","","","","","","","","",""
"null","audio/hotel1.wav","null","audio-keyboard-response","93","2.1.0","430581","F=YES, J=NO","6ezegwzwa9","2","51","48","55","","","","","","","","","","","","","","","",""
"null","
          <p id=""word"" style=""font-size: 40px;"">flanter</p>
          <p style=""font-size: 16px;"">F = YES &nbsp;&nbsp;&nbsp; J = NO</p>
        ","null","html-keyboard-response","94","2.1.0","432083","F=YES, J=NO","6ezegwzwa9","2","51","48","55","","","","","","","","","flanter","hotel1","pseudoword","pseudoword","j","false","",""
"null","<p style=""font-size: 50px;"">+</p>","null","html-keyboard-response","95","2.1.0","432396","F=YES, J=NO","6ezegwzwa9","2","51","48","55","","","","","","","","","","","","","","","",""
"null","audio/beep-329314.mp3","null","audio-keyboard-response","96","2.1.0","433931","F=YES, J=NO","6ezegwzwa9","2","51","48","55","","","","","","","","","","","","","","","",""
"null","audio/foot1.wav","null","audio-keyboard-response","97","2.1.0","434501","F=YES, J=NO","6ezegwzwa9","2","51","48","55","","","","","","","","","","","","","","","",""
"301","
          <p id=""word"" style=""font-size: 40px;"">thrutt</p>
          <p style=""font-size: 16px;"">F = YES &nbsp;&nbsp;&nbsp; J = NO</p>
        ","f","html-keyboard-response","98","2.1.0","434803","F=YES, J=NO","6ezegwzwa9","2","51","48","55","","","","","","","","","thrutt","foot1","pseudoword","pseudoword","j","false","",""
"null","<p style=""font-size: 50px;"">+</p>","null","html-keyboard-response","99","2.1.0","435110","F=YES, J=NO","6ezegwzwa9","2","51","48","55","","","","","","","","","","","","","","","",""
"null","audio/beep-329314.mp3","null","audio-keyboard-response","100","2.1.0","436631","F=YES, J=NO","6ezegwzwa9","2","51","48","55","","","","","","","","","","","","","","","",""
"null","audio/theory1.wav","null","audio-keyboard-response","101","2.1.0","437301","F=YES, J=NO","6ezegwzwa9","2","51","48","55","","","","","","","","","","","","","","","",""
"null","
          <p id=""word"" style=""font-size: 40px;"">scolve</p>
          <p style=""font-size: 16px;"">F = YES &nbsp;&nbsp;&nbsp; J = NO</p>
        ","null","html-keyboard-response","102","2.1.0","438810","F=YES, J=NO","6ezegwzwa9","2","51","48","55","","","","","","","","","scolve","theory1","pseudoword","pseudoword","j","false","",""
"null","<p style=""font-size: 50px;"">+</p>","null","html-keyboard-response","103","2.1.0","439119","F=YES, J=NO","6ezegwzwa9","2","51","48","55","","","","","","","","","","","","","","","",""
"null","audio/beep-329314.mp3","null","audio-keyboard-response","104","2.1.0","440651","F=YES, J=NO","6ezegwzwa9","2","51","48","55","","","","","","","","","","","","","","","",""
"null","audio/floor.wav","null","audio-keyboard-response","105","2.1.0","441241","F=YES, J=NO","6ezegwzwa9","2","51","48","55","","","","","","","","","","","","","","","",""
"470","
          <p id=""word"" style=""font-size: 40px;"">mop</p>
          <p style=""font-size: 16px;"">F = YES &nbsp;&nbsp;&nbsp; J = NO</p>
        ","j","html-keyboard-response","106","2.1.0","441712","F=YES, J=NO","6ezegwzwa9","2","51","48","55","","","","","","","","","mop","floor","filler","filler","f","false","",""
"null","<p style=""font-size: 50px;"">+</p>","null","html-keyboard-response","107","2.1.0","442021","F=YES, J=NO","6ezegwzwa9","2","51","48","55","","","","","","","","","","","","","","","",""
"null","audio/beep-329314.mp3","null","audio-keyboard-response","108","2.1.0","443551","F=YES, J=NO","6ezegwzwa9","2","51","48","55","","","","","","","","","","","","","","","",""
"null","audio/table1.wav","null","audio-keyboard-response","109","2.1.0","444061","F=YES, J=NO","6ezegwzwa9","2","51","48","55","","","","","","","","","","","","","","","",""
"202","
          <p id=""word"" style=""font-size: 40px;"">stimb</p>
          <p style=""font-size: 16px;"">F = YES &nbsp;&nbsp;&nbsp; J = NO</p>
        ","f","html-keyboard-response","110","2.1.0","444264","F=YES, J=NO","6ezegwzwa9","2","51","48","55","","","","","","","","","stimb","table1","pseudoword","pseudoword","j","false","",""
"null","<p style=""font-size: 50px;"">+</p>","null","html-keyboard-response","111","2.1.0","444569","F=YES, J=NO","6ezegwzwa9","2","51","48","55","","","","","","","","","","","","","","","",""
"null","audio/beep-329314.mp3","null","audio-keyboard-response","112","2.1.0","446092","F=YES, J=NO","6ezegwzwa9","2","51","48","55","","","","","","","","","","","","","","","",""
"null","audio/bomb1.wav","null","audio-keyboard-response","113","2.1.0","446502","F=YES, J=NO","6ezegwzwa9","2","51","48","55","","","","","","","","","","","","","","","",""
"641","
          <p id=""word"" style=""font-size: 40px;"">clean</p>
          <p style=""font-size: 16px;"">F = YES &nbsp;&nbsp;&nbsp; J = NO</p>
        ","f","html-keyboard-response","114","2.1.0","447143","F=YES, J=NO","6ezegwzwa9","2","51","48","55","","","","","","","","","clean","bomb1","filler","filler","f","true","",""
"1404","<p>Starting practice block 2 of 2. Press any key to continue.</p>"," ","html-keyboard-response","115","2.1.0","448547","F=YES, J=NO","6ezegwzwa9","2","51","48","55","","","","","","","","","","","","","","","",""
"null","<p style=""font-size: 50px;"">+</p>","null","html-keyboard-response","116","2.1.0","448860","F=YES, J=NO","6ezegwzwa9","2","51","48","55","","","","","","","","","","","","","","","",""
"null","audio/beep-329314.mp3","null","audio-keyboard-response","117","2.1.0","450392","F=YES, J=NO","6ezegwzwa9","2","51","48","55","","","","","","","","","","","","","","","",""
"null","audio/window1.wav","null","audio-keyboard-response","118","2.1.0","451042","F=YES, J=NO","6ezegwzwa9","2","51","48","55","","","","","","","","","","","","","","","",""
"648","
          <p id=""word"" style=""font-size: 40px;"">toss</p>
          <p style=""font-size: 16px;"">F = YES &nbsp;&nbsp;&nbsp; J = NO</p>
        ","j","html-keyboard-response","119","2.1.0","451691","F=YES, J=NO","6ezegwzwa9","2","51","48","55","","","","","","","","","toss","window1","filler","filler","f","false","",""
"null","<p style=""font-size: 50px;"">+</p>","null","html-keyboard-response","120","2.1.0","452003","F=YES, J=NO","6ezegwzwa9","2","51","48","55","","","","","","","","","","","","","","","",""
"null","audio/beep-329314.mp3","null","audio-keyboard-response","121","2.1.0","453532","F=YES, J=NO","6ezegwzwa9","2","51","48","55","","","","","","","","","","","","","","","",""
"null","audio/cinema1.wav","null","audio-keyboard-response","122","2.1.0","454163","F=YES, J=NO","6ezegwzwa9","2","51","48","55","","","","","","","","","","","","","","","",""
"377","
          <p id=""word"" style=""font-size: 40px;"">murple</p>
          <p style=""font-size: 16px;"">F = YES &nbsp;&nbsp;&nbsp; J = NO</p>
        ","f","html-keyboard-response","123","2.1.0","454541","F=YES, J=NO","6ezegwzwa9","2","51","48","55","","","","","","","","","murple","cinema1","pseudoword","pseudoword","j","false","",""
"null","<p style=""font-size: 50px;"">+</p>","null","html-keyboard-response","124","2.1.0","454845","F=YES, J=NO","6ezegwzwa9","2","51","48","55","","","","","","","","","","","","","","","",""
"null","audio/beep-329314.mp3","null","audio-keyboard-response","125","2.1.0","456372","F=YES, J=NO","6ezegwzwa9","2","51","48","55","","","","","","","","","","","","","","","",""
"null","audio/dollar.wav","null","audio-keyboard-response","126","2.1.0","456822","F=YES, J=NO","6ezegwzwa9","2","51","48","55","","","","","","","","","","","","","","","",""
"889","
          <p id=""word"" style=""font-size: 40px;"">gliptism</p>
          <p style=""font-size: 16px;"">F = YES &nbsp;&nbsp;&nbsp; J = NO</p>
        ","j","html-keyboard-response","127","2.1.0","457712","F=YES, J=NO","6ezegwzwa9","2","51","48","55","","","","","","","","","gliptism","dollar","pseudoword","pseudoword","j","true","",""
"null","<p style=""font-size: 50px;"">+</p>","null","html-keyboard-response","128","2.1.0","458022","F=YES, J=NO","6ezegwzwa9","2","51","48","55","","","","","","","","","","","","","","","",""
"null","audio/beep-329314.mp3","null","audio-keyboard-response","129","2.1.0","459552","F=YES, J=NO","6ezegwzwa9","2","51","48","55","","","","","","","","","","","","","","","",""
"null","audio/arm.wav","null","audio-keyboard-response","130","2.1.0","460102","F=YES, J=NO","6ezegwzwa9","2","51","48","55","","","","","","","","","","","","","","","",""
"776","
          <p id=""word"" style=""font-size: 40px;"">pigne</p>
          <p style=""font-size: 16px;"">F = YES &nbsp;&nbsp;&nbsp; J = NO</p>
        ","j","html-keyboard-response","131","2.1.0","460878","F=YES, J=NO","6ezegwzwa9","2","51","48","55","","","","","","","","","pigne","arm","pseudoword","pseudoword","j","true","",""
"null","<p style=""font-size: 50px;"">+</p>","null","html-keyboard-response","132","2.1.0","461184","F=YES, J=NO","6ezegwzwa9","2","51","48","55","","","","","","","","","","","","","","","",""
"null","audio/beep-329314.mp3","null","audio-keyboard-response","133","2.1.0","462712","F=YES, J=NO","6ezegwzwa9","2","51","48","55","","","","","","","","","","","","","","","",""
"null","audio/alarm1.wav","null","audio-keyboard-response","134","2.1.0","463322","F=YES, J=NO","6ezegwzwa9","2","51","48","55","","","","","","","","","","","","","","","",""
"1224","
          <p id=""word"" style=""font-size: 40px;"">lock</p>
          <p style=""font-size: 16px;"">F = YES &nbsp;&nbsp;&nbsp; J = NO</p>
        ","f","html-keyboard-response","135","2.1.0","464546","F=YES, J=NO","6ezegwzwa9","2","51","48","55","","","","","","","","","lock","alarm1","filler","filler","f","true","",""
"null","<p style=""font-size: 50px;"">+</p>","null","html-keyboard-response","136","2.1.0","464853","F=YES, J=NO","6ezegwzwa9","2","51","48","55","","","","","","","","","","","","","","","",""
"null","audio/beep-329314.mp3","null","audio-keyboard-response","137","2.1.0","466392","F=YES, J=NO","6ezegwzwa9","2","51","48","55","","","","","","","","","","","","","","","",""
"null","audio/age1.wav","null","audio-keyboard-response","138","2.1.0","466962","F=YES, J=NO","6ezegwzwa9","2","51","48","55","","","","","","","","","","","","","","","",""
"957","
          <p id=""word"" style=""font-size: 40px;"">lachry</p>
          <p style=""font-size: 16px;"">F = YES &nbsp;&nbsp;&nbsp; J = NO</p>
        ","j","html-keyboard-response","139","2.1.0","467920","F=YES, J=NO","6ezegwzwa9","2","51","48","55","","","","","","","","","lachry","age1","pseudoword","pseudoword","j","true","",""
"null","<p style=""font-size: 50px;"">+</p>","null","html-keyboard-response","140","2.1.0","468234","F=YES, J=NO","6ezegwzwa9","2","51","48","55","","","","","","","","","","","","","","","",""
"null","audio/beep-329314.mp3","null","audio-keyboard-response","141","2.1.0","469772","F=YES, J=NO","6ezegwzwa9","2","51","48","55","","","","","","","","","","","","","","","",""
"null","audio/breath.wav","null","audio-keyboard-response","142","2.1.0","470343","F=YES, J=NO","6ezegwzwa9","2","51","48","55","","","","","","","","","","","","","","","",""
"1027","
          <p id=""word"" style=""font-size: 40px;"">twets</p>
          <p style=""font-size: 16px;"">F = YES &nbsp;&nbsp;&nbsp; J = NO</p>
        ","f","html-keyboard-response","143","2.1.0","471370","F=YES, J=NO","6ezegwzwa9","2","51","48","55","","","","","","","","","twets","breath","pseudoword","pseudoword","j","false","",""
"null","<p style=""font-size: 50px;"">+</p>","null","html-keyboard-response","144","2.1.0","471679","F=YES, J=NO","6ezegwzwa9","2","51","48","55","","","","","","","","","","","","","","","",""
"null","audio/beep-329314.mp3","null","audio-keyboard-response","145","2.1.0","473213","F=YES, J=NO","6ezegwzwa9","2","51","48","55","","","","","","","","","","","","","","","",""
"null","audio/van1.wav","null","audio-keyboard-response","146","2.1.0","473763","F=YES, J=NO","6ezegwzwa9","2","51","48","55","","","","","","","","","","","","","","","",""
"569","
          <p id=""word"" style=""font-size: 40px;"">push</p>
          <p style=""font-size: 16px;"">F = YES &nbsp;&nbsp;&nbsp; J = NO</p>
        ","f","html-keyboard-response","147","2.1.0","474332","F=YES, J=NO","6ezegwzwa9","2","51","48","55","","","","","","","","","push","van1","filler","filler","f","true","",""
"null","<p style=""font-size: 50px;"">+</p>","null","html-keyboard-response","148","2.1.0","474634","F=YES, J=NO","6ezegwzwa9","2","51","48","55","","","","","","","","","","","","","","","",""
"null","audio/beep-329314.mp3","null","audio-keyboard-response","149","2.1.0","476173","F=YES, J=NO","6ezegwzwa9","2","51","48","55","","","","","","","","","","","","","","","",""
"null","audio/butter1.wav","null","audio-keyboard-response","150","2.1.0","476683","F=YES, J=NO","6ezegwzwa9","2","51","48","55","","","","","","","","","","","","","","","",""
"1475","
          <p id=""word"" style=""font-size: 40px;"">chew</p>
          <p style=""font-size: 16px;"">F = YES &nbsp;&nbsp;&nbsp; J = NO</p>
        ","j","html-keyboard-response","151","2.1.0","478159","F=YES, J=NO","6ezegwzwa9","2","51","48","55","","","","","","","","","chew","butter1","filler","filler","f","false","",""
"null","<p style=""font-size: 50px;"">+</p>","null","html-keyboard-response","152","2.1.0","478465","F=YES, J=NO","6ezegwzwa9","2","51","48","55","","","","","","","","","","","","","","","",""
"null","audio/beep-329314.mp3","null","audio-keyboard-response","153","2.1.0","479993","F=YES, J=NO","6ezegwzwa9","2","51","48","55","","","","","","","","","","","","","","","",""
"null","audio/gossip1.wav","null","audio-keyboard-response","154","2.1.0","480684","F=YES, J=NO","6ezegwzwa9","2","51","48","55","","","","","","","","","","","","","","","",""
"1242","
          <p id=""word"" style=""font-size: 40px;"">camerish</p>
          <p style=""font-size: 16px;"">F = YES &nbsp;&nbsp;&nbsp; J = NO</p>
        ","j","html-keyboard-response","155","2.1.0","481926","F=YES, J=NO","6ezegwzwa9","2","51","48","55","","","","","","","","","camerish","gossip1","pseudoword","pseudoword","j","true","",""
"null","<p style=""font-size: 50px;"">+</p>","null","html-keyboard-response","156","2.1.0","482232","F=YES, J=NO","6ezegwzwa9","2","51","48","55","","","","","","","","","","","","","","","",""
"null","audio/beep-329314.mp3","null","audio-keyboard-response","157","2.1.0","483773","F=YES, J=NO","6ezegwzwa9","2","51","48","55","","","","","","","","","","","","","","","",""
"null","audio/trout1.wav","null","audio-keyboard-response","158","2.1.0","484423","F=YES, J=NO","6ezegwzwa9","2","51","48","55","","","","","","","","","","","","","","","",""
"1065","
          <p id=""word"" style=""font-size: 40px;"">spimt</p>
          <p style=""font-size: 16px;"">F = YES &nbsp;&nbsp;&nbsp; J = NO</p>
        ","j","html-keyboard-response","159","2.1.0","485488","F=YES, J=NO","6ezegwzwa9","2","51","48","55","","","","","","","","","spimt","trout1","pseudoword","pseudoword","j","true","",""
"null","<p style=""font-size: 50px;"">+</p>","null","html-keyboard-response","160","2.1.0","485805","F=YES, J=NO","6ezegwzwa9","2","51","48","55","","","","","","","","","","","","","","","",""
"null","audio/beep-329314.mp3","null","audio-keyboard-response","161","2.1.0","487333","F=YES, J=NO","6ezegwzwa9","2","51","48","55","","","","","","","","","","","","","","","",""
"null","audio/bridge.wav","null","audio-keyboard-response","162","2.1.0","487923","F=YES, J=NO","6ezegwzwa9","2","51","48","55","","","","","","","","","","","","","","","",""
"832","
          <p id=""word"" style=""font-size: 40px;"">crack</p>
          <p style=""font-size: 16px;"">F = YES &nbsp;&nbsp;&nbsp; J = NO</p>
        ","f","html-keyboard-response","163","2.1.0","488756","F=YES, J=NO","6ezegwzwa9","2","51","48","55","","","","","","","","","crack","bridge","filler","filler","f","true","",""
"42880","
    <div style=""max-width: 800px; margin: auto; text-align: left;"">
      <h2>Part 2: Main Trials</h2>
      <p>Great job on the practice trials!</p>
      <p>You will now begin the <strong>main set of trials</strong>.</p>
      <p>Remember your key assignments:</p>
      <ul>
        <li><strong>F</strong> = YES (real English word)</li>
        <li><strong>J</strong> = NO (not a real English word)</li>
      </ul>
      <p>Try to respond as <strong>quickly and accurately</strong> as possible.</p>
      <p style=""margin-top: 2em;"">Press any key to begin the main trials.</p>
    </div>
  "," ","html-keyboard-response","164","2.1.0","531636","F=YES, J=NO","6ezegwzwa9","2","51","48","55","","","","","","","","","","","","","","","",""
"1616","<p>Starting main block 1 of 8. Press any key to continue.</p>"," ","html-keyboard-response","165","2.1.0","533252","F=YES, J=NO","6ezegwzwa9","2","51","48","55","","","","","","","","","","","","","","","",""
"null","<p style=""font-size: 50px;"">+</p>","null","html-keyboard-response","166","2.1.0","533567","F=YES, J=NO","6ezegwzwa9","2","51","48","55","","","","","","","","","","","","","","","",""
"null","audio/beep-329314.mp3","null","audio-keyboard-response","167","2.1.0","535085","F=YES, J=NO","6ezegwzwa9","2","51","48","55","","","","","","","","","","","","","","","",""
"null","audio/haste1.wav","null","audio-keyboard-response","168","2.1.0","535635","F=YES, J=NO","6ezegwzwa9","2","51","48","55","","","","","","","","","","","","","","","",""
"626","
          <p id=""word"" style=""font-size: 40px;"">hide</p>
          <p style=""font-size: 16px;"">F = YES &nbsp;&nbsp;&nbsp; J = NO</p>
        ","f","html-keyboard-response","169","2.1.0","536261","F=YES, J=NO","6ezegwzwa9","2","51","48","55","","","","","","","","","hide","haste1","unrelated","experimental","f","true","",""
"null","<p style=""font-size: 50px;"">+</p>","null","html-keyboard-response","170","2.1.0","536567","F=YES, J=NO","6ezegwzwa9","2","51","48","55","","","","","","","","","","","","","","","",""
"null","audio/beep-329314.mp3","null","audio-keyboard-response","171","2.1.0","538105","F=YES, J=NO","6ezegwzwa9","2","51","48","55","","","","","","","","","","","","","","","",""
"null","audio/strength.wav","null","audio-keyboard-response","172","2.1.0","538855","F=YES, J=NO","6ezegwzwa9","2","51","48","55","","","","","","","","","","","","","","","",""
"1194","
          <p id=""word"" style=""font-size: 40px;"">plabet</p>
          <p style=""font-size: 16px;"">F = YES &nbsp;&nbsp;&nbsp; J = NO</p>
        ","f","html-keyboard-response","173","2.1.0","540049","F=YES, J=NO","6ezegwzwa9","2","51","48","55","","","","","","","","","plabet","strength","pseudoword","pseudoword","j","false","",""
"null","<p style=""font-size: 50px;"">+</p>","null","html-keyboard-response","174","2.1.0","540350","F=YES, J=NO","6ezegwzwa9","2","51","48","55","","","","","","","","","","","","","","","",""
"null","audio/beep-329314.mp3","null","audio-keyboard-response","175","2.1.0","541886","F=YES, J=NO","6ezegwzwa9","2","51","48","55","","","","","","","","","","","","","","","",""
"null","audio/ankle1.wav","null","audio-keyboard-response","176","2.1.0","542435","F=YES, J=NO","6ezegwzwa9","2","51","48","55","","","","","","","","","","","","","","","",""
"648","
          <p id=""word"" style=""font-size: 40px;"">hurt</p>
          <p style=""font-size: 16px;"">F = YES &nbsp;&nbsp;&nbsp; J = NO</p>
        ","f","html-keyboard-response","177","2.1.0","543084","F=YES, J=NO","6ezegwzwa9","2","51","48","55","","","","","","","","","hurt","ankle1","literal","experimental","f","true","",""
"null","<p style=""font-size: 50px;"">+</p>","null","html-keyboard-response","178","2.1.0","543391","F=YES, J=NO","6ezegwzwa9","2","51","48","55","","","","","","","","","","","","","","","",""
"null","audio/beep-329314.mp3","null","audio-keyboard-response","179","2.1.0","544926","F=YES, J=NO","6ezegwzwa9","2","51","48","55","","","","","","","","","","","","","","","",""
"null","audio/baby.wav","null","audio-keyboard-response","180","2.1.0","545416","F=YES, J=NO","6ezegwzwa9","2","51","48","55","","","","","","","","","","","","","","","",""
"995","
          <p id=""word"" style=""font-size: 40px;"">lift</p>
          <p style=""font-size: 16px;"">F = YES &nbsp;&nbsp;&nbsp; J = NO</p>
        ","f","html-keyboard-response","181","2.1.0","546411","F=YES, J=NO","6ezegwzwa9","2","51","48","55","","","","","","","","","lift","baby","filler","filler","f","true","",""
"null","<p style=""font-size: 50px;"">+</p>","null","html-keyboard-response","182","2.1.0","546724","F=YES, J=NO","6ezegwzwa9","2","51","48","55","","","","","","","","","","","","","","","",""
"null","audio/beep-329314.mp3","null","audio-keyboard-response","183","2.1.0","548246","F=YES, J=NO","6ezegwzwa9","2","51","48","55","","","","","","","","","","","","","","","",""
"null","audio/soul.wav","null","audio-keyboard-response","184","2.1.0","548856","F=YES, J=NO","6ezegwzwa9","2","51","48","55","","","","","","","","","","","","","","","",""
"699","
          <p id=""word"" style=""font-size: 40px;"">sell</p>
          <p style=""font-size: 16px;"">F = YES &nbsp;&nbsp;&nbsp; J = NO</p>
        ","f","html-keyboard-response","185","2.1.0","549555","F=YES, J=NO","6ezegwzwa9","2","51","48","55","","","","","","","","","sell","soul","metaphor","experimental","f","true","",""
"null","<p style=""font-size: 50px;"">+</p>","null","html-keyboard-response","186","2.1.0","549862","F=YES, J=NO","6ezegwzwa9","2","51","48","55","","","","","","","","","","","","","","","",""
"null","audio/beep-329314.mp3","null","audio-keyboard-response","187","2.1.0","551386","F=YES, J=NO","6ezegwzwa9","2","51","48","55","","","","","","","","","","","","","","","",""
"null","audio/battle1.wav","null","audio-keyboard-response","188","2.1.0","551856","F=YES, J=NO","6ezegwzwa9","2","51","48","55","","","","","","","","","","","","","","","",""
"1245","
          <p id=""word"" style=""font-size: 40px;"">boil</p>
          <p style=""font-size: 16px;"">F = YES &nbsp;&nbsp;&nbsp; J = NO</p>
        ","f","html-keyboard-response","189","2.1.0","553101","F=YES, J=NO","6ezegwzwa9","2","51","48","55","","","","","","","","","boil","battle1","filler","filler","f","true","",""
"null","<p style=""font-size: 50px;"">+</p>","null","html-keyboard-response","190","2.1.0","553404","F=YES, J=NO","6ezegwzwa9","2","51","48","55","","","","","","","","","","","","","","","",""
"null","audio/beep-329314.mp3","null","audio-keyboard-response","191","2.1.0","554926","F=YES, J=NO","6ezegwzwa9","2","51","48","55","","","","","","","","","","","","","","","",""
"null","audio/golf1.wav","null","audio-keyboard-response","192","2.1.0","555496","F=YES, J=NO","6ezegwzwa9","2","51","48","55","","","","","","","","","","","","","","","",""
"1332","
          <p id=""word"" style=""font-size: 40px;"">drabble</p>
          <p style=""font-size: 16px;"">F = YES &nbsp;&nbsp;&nbsp; J = NO</p>
        ","f","html-keyboard-response","193","2.1.0","556828","F=YES, J=NO","6ezegwzwa9","2","51","48","55","","","","","","","","","drabble","golf1","pseudoword","pseudoword","j","false","",""
"null","<p style=""font-size: 50px;"">+</p>","null","html-keyboard-response","194","2.1.0","557139","F=YES, J=NO","6ezegwzwa9","2","51","48","55","","","","","","","","","","","","","","","",""
"null","audio/beep-329314.mp3","null","audio-keyboard-response","195","2.1.0","558666","F=YES, J=NO","6ezegwzwa9","2","51","48","55","","","","","","","","","","","","","","","",""
"null","audio/fence.wav","null","audio-keyboard-response","196","2.1.0","559336","F=YES, J=NO","6ezegwzwa9","2","51","48","55","","","","","","","","","","","","","","","",""
"604","
          <p id=""word"" style=""font-size: 40px;"">climb</p>
          <p style=""font-size: 16px;"">F = YES &nbsp;&nbsp;&nbsp; J = NO</p>
        ","f","html-keyboard-response","197","2.1.0","559940","F=YES, J=NO","6ezegwzwa9","2","51","48","55","","","","","","","","","climb","fence","literal","experimental","f","true","",""
"null","<p style=""font-size: 50px;"">+</p>","null","html-keyboard-response","198","2.1.0","560243","F=YES, J=NO","6ezegwzwa9","2","51","48","55","","","","","","","","","","","","","","","",""
"null","audio/beep-329314.mp3","null","audio-keyboard-response","199","2.1.0","561766","F=YES, J=NO","6ezegwzwa9","2","51","48","55","","","","","","","","","","","","","","","",""
"null","audio/age1.wav","null","audio-keyboard-response","200","2.1.0","562316","F=YES, J=NO","6ezegwzwa9","2","51","48","55","","","","","","","","","","","","","","","",""
"997","
          <p id=""word"" style=""font-size: 40px;"">bake</p>
          <p style=""font-size: 16px;"">F = YES &nbsp;&nbsp;&nbsp; J = NO</p>
        ","f","html-keyboard-response","201","2.1.0","563313","F=YES, J=NO","6ezegwzwa9","2","51","48","55","","","","","","","","","bake","age1","filler","filler","f","true","",""
"null","<p style=""font-size: 50px;"">+</p>","null","html-keyboard-response","202","2.1.0","563619","F=YES, J=NO","6ezegwzwa9","2","51","48","55","","","","","","","","","","","","","","","",""
"null","audio/beep-329314.mp3","null","audio-keyboard-response","203","2.1.0","565146","F=YES, J=NO","6ezegwzwa9","2","51","48","55","","","","","","","","","","","","","","","",""
"null","audio/hawk1.wav","null","audio-keyboard-response","204","2.1.0","565756","F=YES, J=NO","6ezegwzwa9","2","51","48","55","","","","","","","","","","","","","","","",""
"623","
          <p id=""word"" style=""font-size: 40px;"">wipe</p>
          <p style=""font-size: 16px;"">F = YES &nbsp;&nbsp;&nbsp; J = NO</p>
        ","f","html-keyboard-response","205","2.1.0","566380","F=YES, J=NO","6ezegwzwa9","2","51","48","55","","","","","","","","","wipe","hawk1","unrelated","experimental","f","true","",""
"null","<p style=""font-size: 50px;"">+</p>","null","html-keyboard-response","206","2.1.0","566686","F=YES, J=NO","6ezegwzwa9","2","51","48","55","","","","","","","","","","","","","","","",""
"null","audio/beep-329314.mp3","null","audio-keyboard-response","207","2.1.0","568226","F=YES, J=NO","6ezegwzwa9","2","51","48","55","","","","","","","","","","","","","","","",""
"null","audio/camp.wav","null","audio-keyboard-response","208","2.1.0","568777","F=YES, J=NO","6ezegwzwa9","2","51","48","55","","","","","","","","","","","","","","","",""
"561","
          <p id=""word"" style=""font-size: 40px;"">touch</p>
          <p style=""font-size: 16px;"">F = YES &nbsp;&nbsp;&nbsp; J = NO</p>
        ","f","html-keyboard-response","209","2.1.0","569338","F=YES, J=NO","6ezegwzwa9","2","51","48","55","","","","","","","","","touch","camp","unrelated","experimental","f","true","",""
"null","<p style=""font-size: 50px;"">+</p>","null","html-keyboard-response","210","2.1.0","569641","F=YES, J=NO","6ezegwzwa9","2","51","48","55","","","","","","","","","","","","","","","",""
"null","audio/beep-329314.mp3","null","audio-keyboard-response","211","2.1.0","571167","F=YES, J=NO","6ezegwzwa9","2","51","48","55","","","","","","","","","","","","","","","",""
"null","audio/vehicle1.wav","null","audio-keyboard-response","212","2.1.0","571837","F=YES, J=NO","6ezegwzwa9","2","51","48","55","","","","","","","","","","","","","","","",""
"1251","
          <p id=""word"" style=""font-size: 40px;"">dropt</p>
          <p style=""font-size: 16px;"">F = YES &nbsp;&nbsp;&nbsp; J = NO</p>
        ","j","html-keyboard-response","213","2.1.0","573088","F=YES, J=NO","6ezegwzwa9","2","51","48","55","","","","","","","","","dropt","vehicle1","pseudoword","pseudoword","j","true","",""
"null","<p style=""font-size: 50px;"">+</p>","null","html-keyboard-response","214","2.1.0","573401","F=YES, J=NO","6ezegwzwa9","2","51","48","55","","","","","","","","","","","","","","","",""
"null","audio/beep-329314.mp3","null","audio-keyboard-response","215","2.1.0","574927","F=YES, J=NO","6ezegwzwa9","2","51","48","55","","","","","","","","","","","","","","","",""
"null","audio/vehicle1.wav","null","audio-keyboard-response","216","2.1.0","575577","F=YES, J=NO","6ezegwzwa9","2","51","48","55","","","","","","","","","","","","","","","",""
"688","
          <p id=""word"" style=""font-size: 40px;"">approach</p>
          <p style=""font-size: 16px;"">F = YES &nbsp;&nbsp;&nbsp; J = NO</p>
        ","f","html-keyboard-response","217","2.1.0","576265","F=YES, J=NO","6ezegwzwa9","2","51","48","55","","","","","","","","","approach","vehicle1","literal","experimental","f","true","",""
"null","<p style=""font-size: 50px;"">+</p>","null","html-keyboard-response","218","2.1.0","576572","F=YES, J=NO","6ezegwzwa9","2","51","48","55","","","","","","","","","","","","","","","",""
"null","audio/beep-329314.mp3","null","audio-keyboard-response","219","2.1.0","578107","F=YES, J=NO","6ezegwzwa9","2","51","48","55","","","","","","","","","","","","","","","",""
"null","audio/bush1.wav","null","audio-keyboard-response","220","2.1.0","578597","F=YES, J=NO","6ezegwzwa9","2","51","48","55","","","","","","","","","","","","","","","",""
"1167","
          <p id=""word"" style=""font-size: 40px;"">platined</p>
          <p style=""font-size: 16px;"">F = YES &nbsp;&nbsp;&nbsp; J = NO</p>
        ","f","html-keyboard-response","221","2.1.0","579764","F=YES, J=NO","6ezegwzwa9","2","51","48","55","","","","","","","","","platined","bush1","pseudoword","pseudoword","j","false","",""
"null","<p style=""font-size: 50px;"">+</p>","null","html-keyboard-response","222","2.1.0","580076","F=YES, J=NO","6ezegwzwa9","2","51","48","55","","","","","","","","","","","","","","","",""
"null","audio/beep-329314.mp3","null","audio-keyboard-response","223","2.1.0","581608","F=YES, J=NO","6ezegwzwa9","2","51","48","55","","","","","","","","","","","","","","","",""
"null","audio/meal.wav","null","audio-keyboard-response","224","2.1.0","582077","F=YES, J=NO","6ezegwzwa9","2","51","48","55","","","","","","","","","","","","","","","",""
"1492","
          <p id=""word"" style=""font-size: 40px;"">gallite</p>
          <p style=""font-size: 16px;"">F = YES &nbsp;&nbsp;&nbsp; J = NO</p>
        ","j","html-keyboard-response","225","2.1.0","583569","F=YES, J=NO","6ezegwzwa9","2","51","48","55","","","","","","","","","gallite","meal","pseudoword","pseudoword","j","true","",""
"null","<p style=""font-size: 50px;"">+</p>","null","html-keyboard-response","226","2.1.0","583885","F=YES, J=NO","6ezegwzwa9","2","51","48","55","","","","","","","","","","","","","","","",""
"null","audio/beep-329314.mp3","null","audio-keyboard-response","227","2.1.0","585407","F=YES, J=NO","6ezegwzwa9","2","51","48","55","","","","","","","","","","","","","","","",""
"null","audio/ankle1.wav","null","audio-keyboard-response","228","2.1.0","585937","F=YES, J=NO","6ezegwzwa9","2","51","48","55","","","","","","","","","","","","","","","",""
"475","
          <p id=""word"" style=""font-size: 40px;"">kick</p>
          <p style=""font-size: 16px;"">F = YES &nbsp;&nbsp;&nbsp; J = NO</p>
        ","f","html-keyboard-response","229","2.1.0","586413","F=YES, J=NO","6ezegwzwa9","2","51","48","55","","","","","","","","","kick","ankle1","filler","filler","f","true","",""
"2110","<p>Excellent! You have finished block 1 of 8.</p>
                     <p>Feel free to take a 30 second break.</p>
                     <p>Press any key when you're ready to continue.</p>"," ","html-keyboard-response","230","2.1.0","588524","F=YES, J=NO","6ezegwzwa9","2","51","48","55","","","","","","","","","","","","","","","",""
"1592","<p>Starting main block 2 of 8. Press any key to continue.</p>"," ","html-keyboard-response","231","2.1.0","590116","F=YES, J=NO","6ezegwzwa9","2","51","48","55","","","","","","","","","","","","","","","",""
"null","<p style=""font-size: 50px;"">+</p>","null","html-keyboard-response","232","2.1.0","590428","F=YES, J=NO","6ezegwzwa9","2","51","48","55","","","","","","","","","","","","","","","",""
"null","audio/beep-329314.mp3","null","audio-keyboard-response","233","2.1.0","591967","F=YES, J=NO","6ezegwzwa9","2","51","48","55","","","","","","","","","","","","","","","",""
"null","audio/devil1.wav","null","audio-keyboard-response","234","2.1.0","592377","F=YES, J=NO","6ezegwzwa9","2","51","48","55","","","","","","","","","","","","","","","",""
"764","
          <p id=""word"" style=""font-size: 40px;"">carry</p>
          <p style=""font-size: 16px;"">F = YES &nbsp;&nbsp;&nbsp; J = NO</p>
        ","f","html-keyboard-response","235","2.1.0","593142","F=YES, J=NO","6ezegwzwa9","2","51","48","55","","","","","","","","","carry","devil1","unrelated","experimental","f","true","",""
"null","<p style=""font-size: 50px;"">+</p>","null","html-keyboard-response","236","2.1.0","593458","F=YES, J=NO","6ezegwzwa9","2","51","48","55","","","","","","","","","","","","","","","",""
"null","audio/beep-329314.mp3","null","audio-keyboard-response","237","2.1.0","594988","F=YES, J=NO","6ezegwzwa9","2","51","48","55","","","","","","","","","","","","","","","",""
"null","audio/cinema1.wav","null","audio-keyboard-response","238","2.1.0","595598","F=YES, J=NO","6ezegwzwa9","2","51","48","55","","","","","","","","","","","","","","","",""
"972","
          <p id=""word"" style=""font-size: 40px;"">grow</p>
          <p style=""font-size: 16px;"">F = YES &nbsp;&nbsp;&nbsp; J = NO</p>
        ","f","html-keyboard-response","239","2.1.0","596570","F=YES, J=NO","6ezegwzwa9","2","51","48","55","","","","","","","","","grow","cinema1","unrelated","experimental","f","true","",""
"null","<p style=""font-size: 50px;"">+</p>","null","html-keyboard-response","240","2.1.0","596873","F=YES, J=NO","6ezegwzwa9","2","51","48","55","","","","","","","","","","","","","","","",""
"null","audio/beep-329314.mp3","null","audio-keyboard-response","241","2.1.0","598409","F=YES, J=NO","6ezegwzwa9","2","51","48","55","","","","","","","","","","","","","","","",""
"null","audio/empire.wav","null","audio-keyboard-response","242","2.1.0","599058","F=YES, J=NO","6ezegwzwa9","2","51","48","55","","","","","","","","","","","","","","","",""
"1358","
          <p id=""word"" style=""font-size: 40px;"">slorby</p>
          <p style=""font-size: 16px;"">F = YES &nbsp;&nbsp;&nbsp; J = NO</p>
        ","j","html-keyboard-response","243","2.1.0","600416","F=YES, J=NO","6ezegwzwa9","2","51","48","55","","","","","","","","","slorby","empire","pseudoword","pseudoword","j","true","",""
"null","<p style=""font-size: 50px;"">+</p>","null","html-keyboard-response","244","2.1.0","600722","F=YES, J=NO","6ezegwzwa9","2","51","48","55","","","","","","","","","","","","","","","",""
"null","audio/beep-329314.mp3","null","audio-keyboard-response","245","2.1.0","602249","F=YES, J=NO","6ezegwzwa9","2","51","48","55","","","","","","","","","","","","","","","",""
"null","audio/roof1.wav","null","audio-keyboard-response","246","2.1.0","602798","F=YES, J=NO","6ezegwzwa9","2","51","48","55","","","","","","","","","","","","","","","",""
"813","
          <p id=""word"" style=""font-size: 40px;"">construct</p>
          <p style=""font-size: 16px;"">F = YES &nbsp;&nbsp;&nbsp; J = NO</p>
        ","f","html-keyboard-response","247","2.1.0","603611","F=YES, J=NO","6ezegwzwa9","2","51","48","55","","","","","","","","","construct","roof1","literal","experimental","f","true","",""
"null","<p style=""font-size: 50px;"">+</p>","null","html-keyboard-response","248","2.1.0","603919","F=YES, J=NO","6ezegwzwa9","2","51","48","55","","","","","","","","","","","","","","","",""
"null","audio/beep-329314.mp3","null","audio-keyboard-response","249","2.1.0","605448","F=YES, J=NO","6ezegwzwa9","2","51","48","55","","","","","","","","","","","","","","","",""
"null","audio/corpse1.wav","null","audio-keyboard-response","250","2.1.0","606098","F=YES, J=NO","6ezegwzwa9","2","51","48","55","","","","","","","","","","","","","","","",""
"874","
          <p id=""word"" style=""font-size: 40px;"">glonet</p>
          <p style=""font-size: 16px;"">F = YES &nbsp;&nbsp;&nbsp; J = NO</p>
        ","j","html-keyboard-response","251","2.1.0","606972","F=YES, J=NO","6ezegwzwa9","2","51","48","55","","","","","","","","","glonet","corpse1","pseudoword","pseudoword","j","true","",""
"null","<p style=""font-size: 50px;"">+</p>","null","html-keyboard-response","252","2.1.0","607288","F=YES, J=NO","6ezegwzwa9","2","51","48","55","","","","","","","","","","","","","","","",""
"null","audio/beep-329314.mp3","null","audio-keyboard-response","253","2.1.0","608808","F=YES, J=NO","6ezegwzwa9","2","51","48","55","","","","","","","","","","","","","","","",""
"null","audio/hawk1.wav","null","audio-keyboard-response","254","2.1.0","609398","F=YES, J=NO","6ezegwzwa9","2","51","48","55","","","","","","","","","","","","","","","",""
"784","
          <p id=""word"" style=""font-size: 40px;"">ostach</p>
          <p style=""font-size: 16px;"">F = YES &nbsp;&nbsp;&nbsp; J = NO</p>
        ","j","html-keyboard-response","255","2.1.0","610183","F=YES, J=NO","6ezegwzwa9","2","51","48","55","","","","","","","","","ostach","hawk1","pseudoword","pseudoword","j","true","",""
"null","<p style=""font-size: 50px;"">+</p>","null","html-keyboard-response","256","2.1.0","610497","F=YES, J=NO","6ezegwzwa9","2","51","48","55","","","","","","","","","","","","","","","",""
"null","audio/beep-329314.mp3","null","audio-keyboard-response","257","2.1.0","612028","F=YES, J=NO","6ezegwzwa9","2","51","48","55","","","","","","","","","","","","","","","",""
"null","audio/road.wav","null","audio-keyboard-response","258","2.1.0","612458","F=YES, J=NO","6ezegwzwa9","2","51","48","55","","","","","","","","","","","","","","","",""
"1164","
          <p id=""word"" style=""font-size: 40px;"">wappings</p>
          <p style=""font-size: 16px;"">F = YES &nbsp;&nbsp;&nbsp; J = NO</p>
        ","f","html-keyboard-response","259","2.1.0","613623","F=YES, J=NO","6ezegwzwa9","2","51","48","55","","","","","","","","","wappings","road","pseudoword","pseudoword","j","false","",""
"null","<p style=""font-size: 50px;"">+</p>","null","html-keyboard-response","260","2.1.0","613931","F=YES, J=NO","6ezegwzwa9","2","51","48","55","","","","","","","","","","","","","","","",""
"null","audio/beep-329314.mp3","null","audio-keyboard-response","261","2.1.0","615468","F=YES, J=NO","6ezegwzwa9","2","51","48","55","","","","","","","","","","","","","","","",""
"null","audio/grass.wav","null","audio-keyboard-response","262","2.1.0","616138","F=YES, J=NO","6ezegwzwa9","2","51","48","55","","","","","","","","","","","","","","","",""
"920","
          <p id=""word"" style=""font-size: 40px;"">milames</p>
          <p style=""font-size: 16px;"">F = YES &nbsp;&nbsp;&nbsp; J = NO</p>
        ","j","html-keyboard-response","263","2.1.0","617059","F=YES, J=NO","6ezegwzwa9","2","51","48","55","","","","","","","","","milames","grass","pseudoword","pseudoword","j","true","",""
"null","<p style=""font-size: 50px;"">+</p>","null","html-keyboard-response","264","2.1.0","617371","F=YES, J=NO","6ezegwzwa9","2","51","48","55","","","","","","","","","","","","","","","",""
"null","audio/beep-329314.mp3","null","audio-keyboard-response","265","2.1.0","618909","F=YES, J=NO","6ezegwzwa9","2","51","48","55","","","","","","","","","","","","","","","",""
"null","audio/uncle1.wav","null","audio-keyboard-response","266","2.1.0","619399","F=YES, J=NO","6ezegwzwa9","2","51","48","55","","","","","","","","","","","","","","","",""
"961","
          <p id=""word"" style=""font-size: 40px;"">dramble</p>
          <p style=""font-size: 16px;"">F = YES &nbsp;&nbsp;&nbsp; J = NO</p>
        ","f","html-keyboard-response","267","2.1.0","620360","F=YES, J=NO","6ezegwzwa9","2","51","48","55","","","","","","","","","dramble","uncle1","pseudoword","pseudoword","j","false","",""
"null","<p style=""font-size: 50px;"">+</p>","null","html-keyboard-response","268","2.1.0","620671","F=YES, J=NO","6ezegwzwa9","2","51","48","55","","","","","","","","","","","","","","","",""
"null","audio/beep-329314.mp3","null","audio-keyboard-response","269","2.1.0","622209","F=YES, J=NO","6ezegwzwa9","2","51","48","55","","","","","","","","","","","","","","","",""
"null","audio/heart1.wav","null","audio-keyboard-response","270","2.1.0","622859","F=YES, J=NO","6ezegwzwa9","2","51","48","55","","","","","","","","","","","","","","","",""
"787","
          <p id=""word"" style=""font-size: 40px;"">dralm</p>
          <p style=""font-size: 16px;"">F = YES &nbsp;&nbsp;&nbsp; J = NO</p>
        ","j","html-keyboard-response","271","2.1.0","623646","F=YES, J=NO","6ezegwzwa9","2","51","48","55","","","","","","","","","dralm","heart1","pseudoword","pseudoword","j","true","",""
"null","<p style=""font-size: 50px;"">+</p>","null","html-keyboard-response","272","2.1.0","623952","F=YES, J=NO","6ezegwzwa9","2","51","48","55","","","","","","","","","","","","","","","",""
"null","audio/beep-329314.mp3","null","audio-keyboard-response","273","2.1.0","625489","F=YES, J=NO","6ezegwzwa9","2","51","48","55","","","","","","","","","","","","","","","",""
"null","audio/bomb1.wav","null","audio-keyboard-response","274","2.1.0","625879","F=YES, J=NO","6ezegwzwa9","2","51","48","55","","","","","","","","","","","","","","","",""
"555","
          <p id=""word"" style=""font-size: 40px;"">drop</p>
          <p style=""font-size: 16px;"">F = YES &nbsp;&nbsp;&nbsp; J = NO</p>
        ","f","html-keyboard-response","275","2.1.0","626434","F=YES, J=NO","6ezegwzwa9","2","51","48","55","","","","","","","","","drop","bomb1","literal","experimental","f","true","",""
"null","<p style=""font-size: 50px;"">+</p>","null","html-keyboard-response","276","2.1.0","626741","F=YES, J=NO","6ezegwzwa9","2","51","48","55","","","","","","","","","","","","","","","",""
"null","audio/beep-329314.mp3","null","audio-keyboard-response","277","2.1.0","628269","F=YES, J=NO","6ezegwzwa9","2","51","48","55","","","","","","","","","","","","","","","",""
"null","audio/pizza1.wav","null","audio-keyboard-response","278","2.1.0","628859","F=YES, J=NO","6ezegwzwa9","2","51","48","55","","","","","","","","","","","","","","","",""
"1322","
          <p id=""word"" style=""font-size: 40px;"">devour</p>
          <p style=""font-size: 16px;"">F = YES &nbsp;&nbsp;&nbsp; J = NO</p>
        ","f","html-keyboard-response","279","2.1.0","630181","F=YES, J=NO","6ezegwzwa9","2","51","48","55","","","","","","","","","devour","pizza1","literal","experimental","f","true","",""
"null","<p style=""font-size: 50px;"">+</p>","null","html-keyboard-response","280","2.1.0","630491","F=YES, J=NO","6ezegwzwa9","2","51","48","55","","","","","","","","","","","","","","","",""
"null","audio/beep-329314.mp3","null","audio-keyboard-response","281","2.1.0","632029","F=YES, J=NO","6ezegwzwa9","2","51","48","55","","","","","","","","","","","","","","","",""
"null","audio/foe1.wav","null","audio-keyboard-response","282","2.1.0","632559","F=YES, J=NO","6ezegwzwa9","2","51","48","55","","","","","","","","","","","","","","","",""
"757","
          <p id=""word"" style=""font-size: 40px;"">creth</p>
          <p style=""font-size: 16px;"">F = YES &nbsp;&nbsp;&nbsp; J = NO</p>
        ","j","html-keyboard-response","283","2.1.0","633316","F=YES, J=NO","6ezegwzwa9","2","51","48","55","","","","","","","","","creth","foe1","pseudoword","pseudoword","j","true","",""
"null","<p style=""font-size: 50px;"">+</p>","null","html-keyboard-response","284","2.1.0","633630","F=YES, J=NO","6ezegwzwa9","2","51","48","55","","","","","","","","","","","","","","","",""
"null","audio/beep-329314.mp3","null","audio-keyboard-response","285","2.1.0","635169","F=YES, J=NO","6ezegwzwa9","2","51","48","55","","","","","","","","","","","","","","","",""
"null","audio/milk.wav","null","audio-keyboard-response","286","2.1.0","635759","F=YES, J=NO","6ezegwzwa9","2","51","48","55","","","","","","","","","","","","","","","",""
"768","
          <p id=""word"" style=""font-size: 40px;"">digest</p>
          <p style=""font-size: 16px;"">F = YES &nbsp;&nbsp;&nbsp; J = NO</p>
        ","j","html-keyboard-response","287","2.1.0","636528","F=YES, J=NO","6ezegwzwa9","2","51","48","55","","","","","","","","","digest","milk","literal","experimental","f","false","",""
"null","<p style=""font-size: 50px;"">+</p>","null","html-keyboard-response","288","2.1.0","636829","F=YES, J=NO","6ezegwzwa9","2","51","48","55","","","","","","","","","","","","","","","",""
"null","audio/beep-329314.mp3","null","audio-keyboard-response","289","2.1.0","638370","F=YES, J=NO","6ezegwzwa9","2","51","48","55","","","","","","","","","","","","","","","",""
"null","audio/birth1.wav","null","audio-keyboard-response","290","2.1.0","638919","F=YES, J=NO","6ezegwzwa9","2","51","48","55","","","","","","","","","","","","","","","",""
"726","
          <p id=""word"" style=""font-size: 40px;"">peel</p>
          <p style=""font-size: 16px;"">F = YES &nbsp;&nbsp;&nbsp; J = NO</p>
        ","f","html-keyboard-response","291","2.1.0","639646","F=YES, J=NO","6ezegwzwa9","2","51","48","55","","","","","","","","","peel","birth1","filler","filler","f","true","",""
"null","<p style=""font-size: 50px;"">+</p>","null","html-keyboard-response","292","2.1.0","639949","F=YES, J=NO","6ezegwzwa9","2","51","48","55","","","","","","","","","","","","","","","",""
"null","audio/beep-329314.mp3","null","audio-keyboard-response","293","2.1.0","641490","F=YES, J=NO","6ezegwzwa9","2","51","48","55","","","","","","","","","","","","","","","",""
"null","audio/uncle1.wav","null","audio-keyboard-response","294","2.1.0","641959","F=YES, J=NO","6ezegwzwa9","2","51","48","55","","","","","","","","","","","","","","","",""
"484","
          <p id=""word"" style=""font-size: 40px;"">break</p>
          <p style=""font-size: 16px;"">F = YES &nbsp;&nbsp;&nbsp; J = NO</p>
        ","f","html-keyboard-response","295","2.1.0","642444","F=YES, J=NO","6ezegwzwa9","2","51","48","55","","","","","","","","","break","uncle1","unrelated","experimental","f","true","",""
"1170","<p>Excellent! You have finished block 2 of 8.</p>
                     <p>Feel free to take a 30 second break.</p>
                     <p>Press any key when you're ready to continue.</p>"," ","html-keyboard-response","296","2.1.0","643615","F=YES, J=NO","6ezegwzwa9","2","51","48","55","","","","","","","","","","","","","","","",""
"1697","<p>Starting main block 3 of 8. Press any key to continue.</p>"," ","html-keyboard-response","297","2.1.0","645312","F=YES, J=NO","6ezegwzwa9","2","51","48","55","","","","","","","","","","","","","","","",""
"null","<p style=""font-size: 50px;"">+</p>","null","html-keyboard-response","298","2.1.0","645624","F=YES, J=NO","6ezegwzwa9","2","51","48","55","","","","","","","","","","","","","","","",""
"null","audio/beep-329314.mp3","null","audio-keyboard-response","299","2.1.0","647150","F=YES, J=NO","6ezegwzwa9","2","51","48","55","","","","","","","","","","","","","","","",""
"null","audio/purpose.wav","null","audio-keyboard-response","300","2.1.0","647840","F=YES, J=NO","6ezegwzwa9","2","51","48","55","","","","","","","","","","","","","","","",""
"822","
          <p id=""word"" style=""font-size: 40px;"">whigm</p>
          <p style=""font-size: 16px;"">F = YES &nbsp;&nbsp;&nbsp; J = NO</p>
        ","j","html-keyboard-response","301","2.1.0","648662","F=YES, J=NO","6ezegwzwa9","2","51","48","55","","","","","","","","","whigm","purpose","pseudoword","pseudoword","j","true","",""
"null","<p style=""font-size: 50px;"">+</p>","null","html-keyboard-response","302","2.1.0","648966","F=YES, J=NO","6ezegwzwa9","2","51","48","55","","","","","","","","","","","","","","","",""
"null","audio/beep-329314.mp3","null","audio-keyboard-response","303","2.1.0","650491","F=YES, J=NO","6ezegwzwa9","2","51","48","55","","","","","","","","","","","","","","","",""
"null","audio/desire.wav","null","audio-keyboard-response","304","2.1.0","651120","F=YES, J=NO","6ezegwzwa9","2","51","48","55","","","","","","","","","","","","","","","",""
"null","
          <p id=""word"" style=""font-size: 40px;"">nophed</p>
          <p style=""font-size: 16px;"">F = YES &nbsp;&nbsp;&nbsp; J = NO</p>
        ","null","html-keyboard-response","305","2.1.0","652631","F=YES, J=NO","6ezegwzwa9","2","51","48","55","","","","","","","","","nophed","desire","pseudoword","pseudoword","j","false","",""
"null","<p style=""font-size: 50px;"">+</p>","null","html-keyboard-response","306","2.1.0","652942","F=YES, J=NO","6ezegwzwa9","2","51","48","55","","","","","","","","","","","","","","","",""
"null","audio/beep-329314.mp3","null","audio-keyboard-response","307","2.1.0","654470","F=YES, J=NO","6ezegwzwa9","2","51","48","55","","","","","","","","","","","","","","","",""
"null","audio/demon1.wav","null","audio-keyboard-response","308","2.1.0","654980","F=YES, J=NO","6ezegwzwa9","2","51","48","55","","","","","","","","","","","","","","","",""
"864","
          <p id=""word"" style=""font-size: 40px;"">wrestle</p>
          <p style=""font-size: 16px;"">F = YES &nbsp;&nbsp;&nbsp; J = NO</p>
        ","f","html-keyboard-response","309","2.1.0","655844","F=YES, J=NO","6ezegwzwa9","2","51","48","55","","","","","","","","","wrestle","demon1","metaphor","experimental","f","true","",""
"null","<p style=""font-size: 50px;"">+</p>","null","html-keyboard-response","310","2.1.0","656159","F=YES, J=NO","6ezegwzwa9","2","51","48","55","","","","","","","","","","","","","","","",""
"null","audio/beep-329314.mp3","null","audio-keyboard-response","311","2.1.0","657691","F=YES, J=NO","6ezegwzwa9","2","51","48","55","","","","","","","","","","","","","","","",""
"null","audio/brain.wav","null","audio-keyboard-response","312","2.1.0","658180","F=YES, J=NO","6ezegwzwa9","2","51","48","55","","","","","","","","","","","","","","","",""
"555","
          <p id=""word"" style=""font-size: 40px;"">flood</p>
          <p style=""font-size: 16px;"">F = YES &nbsp;&nbsp;&nbsp; J = NO</p>
        ","f","html-keyboard-response","313","2.1.0","658736","F=YES, J=NO","6ezegwzwa9","2","51","48","55","","","","","","","","","flood","brain","metaphor","experimental","f","true","",""
"null","<p style=""font-size: 50px;"">+</p>","null","html-keyboard-response","314","2.1.0","659046","F=YES, J=NO","6ezegwzwa9","2","51","48","55","","","","","","","","","","","","","","","",""
"null","audio/beep-329314.mp3","null","audio-keyboard-response","315","2.1.0","660571","F=YES, J=NO","6ezegwzwa9","2","51","48","55","","","","","","","","","","","","","","","",""
"null","audio/prisoner.wav","null","audio-keyboard-response","316","2.1.0","661100","F=YES, J=NO","6ezegwzwa9","2","51","48","55","","","","","","","","","","","","","","","",""
"1235","
          <p id=""word"" style=""font-size: 40px;"">egotian</p>
          <p style=""font-size: 16px;"">F = YES &nbsp;&nbsp;&nbsp; J = NO</p>
        ","f","html-keyboard-response","317","2.1.0","662336","F=YES, J=NO","6ezegwzwa9","2","51","48","55","","","","","","","","","egotian","prisoner","pseudoword","pseudoword","j","false","",""
"null","<p style=""font-size: 50px;"">+</p>","null","html-keyboard-response","318","2.1.0","662647","F=YES, J=NO","6ezegwzwa9","2","51","48","55","","","","","","","","","","","","","","","",""
"null","audio/beep-329314.mp3","null","audio-keyboard-response","319","2.1.0","664171","F=YES, J=NO","6ezegwzwa9","2","51","48","55","","","","","","","","","","","","","","","",""
"null","audio/account1.wav","null","audio-keyboard-response","320","2.1.0","664860","F=YES, J=NO","6ezegwzwa9","2","51","48","55","","","","","","","","","","","","","","","",""
"430","
          <p id=""word"" style=""font-size: 40px;"">open</p>
          <p style=""font-size: 16px;"">F = YES &nbsp;&nbsp;&nbsp; J = NO</p>
        ","f","html-keyboard-response","321","2.1.0","665291","F=YES, J=NO","6ezegwzwa9","2","51","48","55","","","","","","","","","open","account1","metaphor","experimental","f","true","",""
"null","<p style=""font-size: 50px;"">+</p>","null","html-keyboard-response","322","2.1.0","665599","F=YES, J=NO","6ezegwzwa9","2","51","48","55","","","","","","","","","","","","","","","",""
"null","audio/beep-329314.mp3","null","audio-keyboard-response","323","2.1.0","667130","F=YES, J=NO","6ezegwzwa9","2","51","48","55","","","","","","","","","","","","","","","",""
"null","audio/effort.wav","null","audio-keyboard-response","324","2.1.0","667741","F=YES, J=NO","6ezegwzwa9","2","51","48","55","","","","","","","","","","","","","","","",""
"1095","
          <p id=""word"" style=""font-size: 40px;"">invest</p>
          <p style=""font-size: 16px;"">F = YES &nbsp;&nbsp;&nbsp; J = NO</p>
        ","f","html-keyboard-response","325","2.1.0","668836","F=YES, J=NO","6ezegwzwa9","2","51","48","55","","","","","","","","","invest","effort","metaphor","experimental","f","true","",""
"null","<p style=""font-size: 50px;"">+</p>","null","html-keyboard-response","326","2.1.0","669147","F=YES, J=NO","6ezegwzwa9","2","51","48","55","","","","","","","","","","","","","","","",""
"null","audio/beep-329314.mp3","null","audio-keyboard-response","327","2.1.0","670671","F=YES, J=NO","6ezegwzwa9","2","51","48","55","","","","","","","","","","","","","","","",""
"null","audio/tunnel.wav","null","audio-keyboard-response","328","2.1.0","671121","F=YES, J=NO","6ezegwzwa9","2","51","48","55","","","","","","","","","","","","","","","",""
"1406","
          <p id=""word"" style=""font-size: 40px;"">gred</p>
          <p style=""font-size: 16px;"">F = YES &nbsp;&nbsp;&nbsp; J = NO</p>
        ","f","html-keyboard-response","329","2.1.0","672527","F=YES, J=NO","6ezegwzwa9","2","51","48","55","","","","","","","","","gred","tunnel","pseudoword","pseudoword","j","false","",""
"null","<p style=""font-size: 50px;"">+</p>","null","html-keyboard-response","330","2.1.0","672830","F=YES, J=NO","6ezegwzwa9","2","51","48","55","","","","","","","","","","","","","","","",""
"null","audio/beep-329314.mp3","null","audio-keyboard-response","331","2.1.0","674372","F=YES, J=NO","6ezegwzwa9","2","51","48","55","","","","","","","","","","","","","","","",""
"null","audio/relief.wav","null","audio-keyboard-response","332","2.1.0","675041","F=YES, J=NO","6ezegwzwa9","2","51","48","55","","","","","","","","","","","","","","","",""
"453","
          <p id=""word"" style=""font-size: 40px;"">bring</p>
          <p style=""font-size: 16px;"">F = YES &nbsp;&nbsp;&nbsp; J = NO</p>
        ","f","html-keyboard-response","333","2.1.0","675494","F=YES, J=NO","6ezegwzwa9","2","51","48","55","","","","","","","","","bring","relief","metaphor","experimental","f","true","",""
"null","<p style=""font-size: 50px;"">+</p>","null","html-keyboard-response","334","2.1.0","675802","F=YES, J=NO","6ezegwzwa9","2","51","48","55","","","","","","","","","","","","","","","",""
"null","audio/beep-329314.mp3","null","audio-keyboard-response","335","2.1.0","677331","F=YES, J=NO","6ezegwzwa9","2","51","48","55","","","","","","","","","","","","","","","",""
"null","audio/plane1.wav","null","audio-keyboard-response","336","2.1.0","677781","F=YES, J=NO","6ezegwzwa9","2","51","48","55","","","","","","","","","","","","","","","",""
"575","
          <p id=""word"" style=""font-size: 40px;"">land</p>
          <p style=""font-size: 16px;"">F = YES &nbsp;&nbsp;&nbsp; J = NO</p>
        ","f","html-keyboard-response","337","2.1.0","678356","F=YES, J=NO","6ezegwzwa9","2","51","48","55","","","","","","","","","land","plane1","literal","experimental","f","true","",""
"null","<p style=""font-size: 50px;"">+</p>","null","html-keyboard-response","338","2.1.0","678669","F=YES, J=NO","6ezegwzwa9","2","51","48","55","","","","","","","","","","","","","","","",""
"null","audio/beep-329314.mp3","null","audio-keyboard-response","339","2.1.0","680191","F=YES, J=NO","6ezegwzwa9","2","51","48","55","","","","","","","","","","","","","","","",""
"null","audio/emotion.wav","null","audio-keyboard-response","340","2.1.0","680861","F=YES, J=NO","6ezegwzwa9","2","51","48","55","","","","","","","","","","","","","","","",""
"1452","
          <p id=""word"" style=""font-size: 40px;"">devering</p>
          <p style=""font-size: 16px;"">F = YES &nbsp;&nbsp;&nbsp; J = NO</p>
        ","f","html-keyboard-response","341","2.1.0","682313","F=YES, J=NO","6ezegwzwa9","2","51","48","55","","","","","","","","","devering","emotion","pseudoword","pseudoword","j","false","",""
"null","<p style=""font-size: 50px;"">+</p>","null","html-keyboard-response","342","2.1.0","682620","F=YES, J=NO","6ezegwzwa9","2","51","48","55","","","","","","","","","","","","","","","",""
"null","audio/beep-329314.mp3","null","audio-keyboard-response","343","2.1.0","684151","F=YES, J=NO","6ezegwzwa9","2","51","48","55","","","","","","","","","","","","","","","",""
"null","audio/pattern.wav","null","audio-keyboard-response","344","2.1.0","684681","F=YES, J=NO","6ezegwzwa9","2","51","48","55","","","","","","","","","","","","","","","",""
"625","
          <p id=""word"" style=""font-size: 40px;"">tug</p>
          <p style=""font-size: 16px;"">F = YES &nbsp;&nbsp;&nbsp; J = NO</p>
        ","j","html-keyboard-response","345","2.1.0","685307","F=YES, J=NO","6ezegwzwa9","2","51","48","55","","","","","","","","","tug","pattern","filler","filler","f","false","",""
"null","<p style=""font-size: 50px;"">+</p>","null","html-keyboard-response","346","2.1.0","685613","F=YES, J=NO","6ezegwzwa9","2","51","48","55","","","","","","","","","","","","","","","",""
"null","audio/beep-329314.mp3","null","audio-keyboard-response","347","2.1.0","687151","F=YES, J=NO","6ezegwzwa9","2","51","48","55","","","","","","","","","","","","","","","",""
"null","audio/cave1.wav","null","audio-keyboard-response","348","2.1.0","687721","F=YES, J=NO","6ezegwzwa9","2","51","48","55","","","","","","","","","","","","","","","",""
"1410","
          <p id=""word"" style=""font-size: 40px;"">blacket</p>
          <p style=""font-size: 16px;"">F = YES &nbsp;&nbsp;&nbsp; J = NO</p>
        ","j","html-keyboard-response","349","2.1.0","689132","F=YES, J=NO","6ezegwzwa9","2","51","48","55","","","","","","","","","blacket","cave1","pseudoword","pseudoword","j","true","",""
"null","<p style=""font-size: 50px;"">+</p>","null","html-keyboard-response","350","2.1.0","689444","F=YES, J=NO","6ezegwzwa9","2","51","48","55","","","","","","","","","","","","","","","",""
"null","audio/beep-329314.mp3","null","audio-keyboard-response","351","2.1.0","690972","F=YES, J=NO","6ezegwzwa9","2","51","48","55","","","","","","","","","","","","","","","",""
"null","audio/noise1.wav","null","audio-keyboard-response","352","2.1.0","691602","F=YES, J=NO","6ezegwzwa9","2","51","48","55","","","","","","","","","","","","","","","",""
"1390","
          <p id=""word"" style=""font-size: 40px;"">slintered</p>
          <p style=""font-size: 16px;"">F = YES &nbsp;&nbsp;&nbsp; J = NO</p>
        ","f","html-keyboard-response","353","2.1.0","692992","F=YES, J=NO","6ezegwzwa9","2","51","48","55","","","","","","","","","slintered","noise1","pseudoword","pseudoword","j","false","",""
"null","<p style=""font-size: 50px;"">+</p>","null","html-keyboard-response","354","2.1.0","693295","F=YES, J=NO","6ezegwzwa9","2","51","48","55","","","","","","","","","","","","","","","",""
"null","audio/beep-329314.mp3","null","audio-keyboard-response","355","2.1.0","694832","F=YES, J=NO","6ezegwzwa9","2","51","48","55","","","","","","","","","","","","","","","",""
"null","audio/pain1.wav","null","audio-keyboard-response","356","2.1.0","695302","F=YES, J=NO","6ezegwzwa9","2","51","48","55","","","","","","","","","","","","","","","",""
"775","
          <p id=""word"" style=""font-size: 40px;"">tritted</p>
          <p style=""font-size: 16px;"">F = YES &nbsp;&nbsp;&nbsp; J = NO</p>
        ","f","html-keyboard-response","357","2.1.0","696077","F=YES, J=NO","6ezegwzwa9","2","51","48","55","","","","","","","","","tritted","pain1","pseudoword","pseudoword","j","false","",""
"null","<p style=""font-size: 50px;"">+</p>","null","html-keyboard-response","358","2.1.0","696387","F=YES, J=NO","6ezegwzwa9","2","51","48","55","","","","","","","","","","","","","","","",""
"null","audio/beep-329314.mp3","null","audio-keyboard-response","359","2.1.0","697912","F=YES, J=NO","6ezegwzwa9","2","51","48","55","","","","","","","","","","","","","","","",""
"null","audio/holiday1.wav","null","audio-keyboard-response","360","2.1.0","698562","F=YES, J=NO","6ezegwzwa9","2","51","48","55","","","","","","","","","","","","","","","",""
"841","
          <p id=""word"" style=""font-size: 40px;"">drivets</p>
          <p style=""font-size: 16px;"">F = YES &nbsp;&nbsp;&nbsp; J = NO</p>
        ","f","html-keyboard-response","361","2.1.0","699403","F=YES, J=NO","6ezegwzwa9","2","51","48","55","","","","","","","","","drivets","holiday1","pseudoword","pseudoword","j","false","",""
"910","<p>Excellent! You have finished block 3 of 8.</p>
                     <p>Feel free to take a 30 second break.</p>
                     <p>Press any key when you're ready to continue.</p>"," ","html-keyboard-response","362","2.1.0","700314","F=YES, J=NO","6ezegwzwa9","2","51","48","55","","","","","","","","","","","","","","","",""
"1279","<p>Starting main block 4 of 8. Press any key to continue.</p>"," ","html-keyboard-response","363","2.1.0","701594","F=YES, J=NO","6ezegwzwa9","2","51","48","55","","","","","","","","","","","","","","","",""
"null","<p style=""font-size: 50px;"">+</p>","null","html-keyboard-response","364","2.1.0","701897","F=YES, J=NO","6ezegwzwa9","2","51","48","55","","","","","","","","","","","","","","","",""
"null","audio/beep-329314.mp3","null","audio-keyboard-response","365","2.1.0","703432","F=YES, J=NO","6ezegwzwa9","2","51","48","55","","","","","","","","","","","","","","","",""
"null","audio/client1.wav","null","audio-keyboard-response","366","2.1.0","704122","F=YES, J=NO","6ezegwzwa9","2","51","48","55","","","","","","","","","","","","","","","",""
"857","
          <p id=""word"" style=""font-size: 40px;"">droothe</p>
          <p style=""font-size: 16px;"">F = YES &nbsp;&nbsp;&nbsp; J = NO</p>
        ","j","html-keyboard-response","367","2.1.0","704980","F=YES, J=NO","6ezegwzwa9","2","51","48","55","","","","","","","","","droothe","client1","pseudoword","pseudoword","j","true","",""
"null","<p style=""font-size: 50px;"">+</p>","null","html-keyboard-response","368","2.1.0","705293","F=YES, J=NO","6ezegwzwa9","2","51","48","55","","","","","","","","","","","","","","","",""
"null","audio/beep-329314.mp3","null","audio-keyboard-response","369","2.1.0","706832","F=YES, J=NO","6ezegwzwa9","2","51","48","55","","","","","","","","","","","","","","","",""
"null","audio/flaw.wav","null","audio-keyboard-response","370","2.1.0","707482","F=YES, J=NO","6ezegwzwa9","2","51","48","55","","","","","","","","","","","","","","","",""
"869","
          <p id=""word"" style=""font-size: 40px;"">thwool</p>
          <p style=""font-size: 16px;"">F = YES &nbsp;&nbsp;&nbsp; J = NO</p>
        ","j","html-keyboard-response","371","2.1.0","708352","F=YES, J=NO","6ezegwzwa9","2","51","48","55","","","","","","","","","thwool","flaw","pseudoword","pseudoword","j","true","",""
"null","<p style=""font-size: 50px;"">+</p>","null","html-keyboard-response","372","2.1.0","708666","F=YES, J=NO","6ezegwzwa9","2","51","48","55","","","","","","","","","","","","","","","",""
"null","audio/beep-329314.mp3","null","audio-keyboard-response","373","2.1.0","710192","F=YES, J=NO","6ezegwzwa9","2","51","48","55","","","","","","","","","","","","","","","",""
"null","audio/belief.wav","null","audio-keyboard-response","374","2.1.0","710842","F=YES, J=NO","6ezegwzwa9","2","51","48","55","","","","","","","","","","","","","","","",""
"620","
          <p id=""word"" style=""font-size: 40px;"">share</p>
          <p style=""font-size: 16px;"">F = YES &nbsp;&nbsp;&nbsp; J = NO</p>
        ","f","html-keyboard-response","375","2.1.0","711463","F=YES, J=NO","6ezegwzwa9","2","51","48","55","","","","","","","","","share","belief","metaphor","experimental","f","true","",""
"null","<p style=""font-size: 50px;"">+</p>","null","html-keyboard-response","376","2.1.0","711765","F=YES, J=NO","6ezegwzwa9","2","51","48","55","","","","","","","","","","","","","","","",""
"null","audio/beep-329314.mp3","null","audio-keyboard-response","377","2.1.0","713292","F=YES, J=NO","6ezegwzwa9","2","51","48","55","","","","","","","","","","","","","","","",""
"null","audio/rain.wav","null","audio-keyboard-response","378","2.1.0","713762","F=YES, J=NO","6ezegwzwa9","2","51","48","55","","","","","","","","","","","","","","","",""
"501","
          <p id=""word"" style=""font-size: 40px;"">lose</p>
          <p style=""font-size: 16px;"">F = YES &nbsp;&nbsp;&nbsp; J = NO</p>
        ","f","html-keyboard-response","379","2.1.0","714264","F=YES, J=NO","6ezegwzwa9","2","51","48","55","","","","","","","","","lose","rain","unrelated","experimental","f","true","",""
"null","<p style=""font-size: 50px;"">+</p>","null","html-keyboard-response","380","2.1.0","714570","F=YES, J=NO","6ezegwzwa9","2","51","48","55","","","","","","","","","","","","","","","",""
"null","audio/beep-329314.mp3","null","audio-keyboard-response","381","2.1.0","716093","F=YES, J=NO","6ezegwzwa9","2","51","48","55","","","","","","","","","","","","","","","",""
"null","audio/pig.wav","null","audio-keyboard-response","382","2.1.0","716502","F=YES, J=NO","6ezegwzwa9","2","51","48","55","","","","","","","","","","","","","","","",""
"623","
          <p id=""word"" style=""font-size: 40px;"">tirlike</p>
          <p style=""font-size: 16px;"">F = YES &nbsp;&nbsp;&nbsp; J = NO</p>
        ","j","html-keyboard-response","383","2.1.0","717126","F=YES, J=NO","6ezegwzwa9","2","51","48","55","","","","","","","","","tirlike","pig","pseudoword","pseudoword","j","true","",""
"null","<p style=""font-size: 50px;"">+</p>","null","html-keyboard-response","384","2.1.0","717429","F=YES, J=NO","6ezegwzwa9","2","51","48","55","","","","","","","","","","","","","","","",""
"null","audio/beep-329314.mp3","null","audio-keyboard-response","385","2.1.0","718953","F=YES, J=NO","6ezegwzwa9","2","51","48","55","","","","","","","","","","","","","","","",""
"null","audio/cloud1.wav","null","audio-keyboard-response","386","2.1.0","719523","F=YES, J=NO","6ezegwzwa9","2","51","48","55","","","","","","","","","","","","","","","",""
"657","
          <p id=""word"" style=""font-size: 40px;"">scrap</p>
          <p style=""font-size: 16px;"">F = YES &nbsp;&nbsp;&nbsp; J = NO</p>
        ","f","html-keyboard-response","387","2.1.0","720180","F=YES, J=NO","6ezegwzwa9","2","51","48","55","","","","","","","","","scrap","cloud1","unrelated","experimental","f","true","",""
"null","<p style=""font-size: 50px;"">+</p>","null","html-keyboard-response","388","2.1.0","720487","F=YES, J=NO","6ezegwzwa9","2","51","48","55","","","","","","","","","","","","","","","",""
"null","audio/beep-329314.mp3","null","audio-keyboard-response","389","2.1.0","722014","F=YES, J=NO","6ezegwzwa9","2","51","48","55","","","","","","","","","","","","","","","",""
"null","audio/mouth1.wav","null","audio-keyboard-response","390","2.1.0","722763","F=YES, J=NO","6ezegwzwa9","2","51","48","55","","","","","","","","","","","","","","","",""
"1004","
          <p id=""word"" style=""font-size: 40px;"">spolial</p>
          <p style=""font-size: 16px;"">F = YES &nbsp;&nbsp;&nbsp; J = NO</p>
