"rt","stimulus","response","trial_type","trial_index","plugin_version","time_elapsed","response_mapping","subject_id","list_index","lextale_score","lextale_word_score","lextale_nonword_score","success","timeout","failed_images","failed_audio","failed_video","task","isWord","isDummy","target","prime","prime_type","stimulus_type","correct_response","correct","section","question_order"
"66930","
    <div style=""max-width: 800px; margin: auto; text-align: left;"">
      <h2>STANFORD UNIVERSITY</h2>
      <h3>Research Information Sheet</h3>
      <p><strong>Protocol Director:</strong> Robert Hawkins<br>
      <strong>Protocol Title:</strong> Communication and social cognition in natural audiovisual contexts<br>
      <strong>IRB#:</strong> 77226</p>

      <p><strong>DESCRIPTION:</strong> You are invited to participate in a research study about language and communication. The purpose of the research is to understand how you interact and communicate with other people in naturalistic settings as a fluent English speaker. This research will be conducted through the Prolific platform, including participants from the US, UK, and Canada. If you decide to participate in this research, you will play a communication game in a group with one or more partners.</p>

      <p><strong>TIME INVOLVEMENT:</strong> The task will last the amount of time advertised on Prolific. You are free to withdraw from the study at any time.</p>

      <p><strong>RISKS AND BENEFITS:</strong> You may become frustrated if your partner gets distracted, or experience discomfort if other participants in your group send text that is inappropriate for the task. We ask you to please be respectful of other participants you might be interacting with to mitigate these risks. You may also experience discomfort when being asked to discuss or challenge emotionally salient political beliefs. Study data will be stored securely, in compliance with Stanford University standards, minimizing the risk of confidentiality breach. This study advances our scientific understanding of how people communicate and collaborate in naturalistic settings. This study may lead to further insights about what can go wrong in teamwork, suggest potential interventions to overcome these barriers, and help to develop assistive technologies that collaborate with human partners. We cannot and do not guarantee or promise that you will receive any benefits from this study.</p>

      <p><strong>PAYMENTS:</strong> You will receive payment in the amount advertised on Prolific. If you do not complete this study, you will receive prorated payment based on the time that you have spent. Additionally, you may be eligible for bonus payments as described in the instructions.</p>

      <p><strong>PARTICIPANT’S RIGHTS:</strong> If you have read this form and have decided to participate in this project, please understand your participation is voluntary and you have the right to withdraw your consent or discontinue participation at any time without penalty or loss of benefits to which you are otherwise entitled. The alternative is not to participate. You have the right to refuse to answer particular questions. The results of this research study may be presented at scientific or professional meetings or published in scientific journals. Your individual privacy will be maintained in all published and written data resulting from the study. In accordance with scientific norms, the data from this study may be used or shared with other researchers for future research (after removing personally identifying information) without additional consent from you.</p>

      <p><strong>CONTACT INFORMATION:</strong><br>
      Questions: If you have any questions, concerns or complaints about this research, its procedures, risks and benefits, contact the Protocol Director, Robert Hawkins (<a href=""mailto:rdhawkins@stanford.edu"">rdhawkins@stanford.edu</a>, 217-549-6923).<br>
      Independent Contact: If you are not satisfied with how this study is being conducted, or if you have any concerns, complaints, or general questions about the research or your rights as a participant, please contact the Stanford Institutional Review Board (IRB) to speak to someone independent of the research team at 650-723-2480 or toll free at 1-866-680-2906, or email at <a href=""mailto:irbnon-med@stanford.edu"">irbnon-med@stanford.edu</a>. You can also write to the Stanford IRB, Stanford University, 1705 El Camino Real, Palo Alto, CA 94306.</p>

      <p><strong>Please save or print a copy of this page for your records.</strong></p>
      <p>If you agree to participate in this research, click ""Continue"" below.</p>
    </div>
  ","0","html-button-response","0","2.1.0","68269","J=YES, F=NO","6hlo3b1hgw","1","80","85","75","","","","","","","","","","","","","","","",""
"25375","
    <div style=""max-width: 800px; margin: auto; text-align: left;"">
      <h2>Welcome!</h2>
      <p>Thank you for participating in this study. The experiment consists of three parts:</p>
      <ol>
        <li>An English vocabulary test</li>
        <li>A main task in which you will hear and see words, and decide whether the written word is a real English word</li>
        <li>A brief survey about your background</li>
      </ol>
      <p>Each part will be introduced before it begins.</p>
      <p>Please make sure you are in a quiet environment and can hear audio clearly for the final task.</p>
      <p style=""margin-top: 2em;"">Press any key to begin.</p>
    </div>
  "," ","html-keyboard-response","1","2.1.0","93646","J=YES, F=NO","6hlo3b1hgw","1","80","85","75","","","","","","","","","","","","","","","",""
"","","","preload","2","2.1.0","94408","J=YES, F=NO","6hlo3b1hgw","1","80","85","75","true","false","[]","[]","[]","","","","","","","","","","",""
"5692","
    <div style=""max-width: 800px; margin: auto; text-align: left;"">
      <h2>Part 1: Vocabulary Test</h2>
      <p>You will now complete the first part of the study: a short English vocabulary test.</p>
      <p>This test is called <strong>LexTALE</strong> and helps us get a general sense of your English proficiency.</p>
      <p style=""margin-top: 2em;"">Press any key to continue.</p>
    </div>
  "," ","html-keyboard-response","3","2.1.0","100101","J=YES, F=NO","6hlo3b1hgw","1","80","85","75","","","","","","","","","","","","","","","",""
"79971","
    <div style=""max-width: 800px; margin: auto; text-align: left;"">
      <h2>LexTALE Vocabulary Test</h2>
      <p>In this test, you will see a series of letter strings—one at a time.</p>
      <p>Your task is to decide whether each string is a real English word.</p>
      <p><strong>Key responses:</strong></p>
      <ul>
        <li><strong>J</strong> = YES (real English word)</li>
        <li><strong>F</strong> = NO (not a real English word)</li>
      </ul>
      <p>There is no time limit, but please try to be accurate.</p>
      <p style=""margin-top: 2em;"">Press any key to begin.</p>
    </div>
  "," ","html-keyboard-response","4","2.1.0","180072","J=YES, F=NO","6hlo3b1hgw","1","80","85","75","","","","","","","","","","","","","","","",""
"6392","
  <p style=""font-size: 40px;"">platery</p>
  <p style=""font-size: 16px;"">J = YES &nbsp;&nbsp;&nbsp; F = NO</p>
","j","html-keyboard-response","5","2.1.0","186464","J=YES, F=NO","6hlo3b1hgw","1","80","85","75","","","","","","lextale","false","true","","","","","","","",""
"1052","
  <p style=""font-size: 40px;"">denial</p>
  <p style=""font-size: 16px;"">J = YES &nbsp;&nbsp;&nbsp; F = NO</p>
","j","html-keyboard-response","6","2.1.0","187517","J=YES, F=NO","6hlo3b1hgw","1","80","85","75","","","","","","lextale","true","true","","","","","","","",""
"2215","
  <p style=""font-size: 40px;"">marrit</p>
  <p style=""font-size: 16px;"">J = YES &nbsp;&nbsp;&nbsp; F = NO</p>
","f","html-keyboard-response","7","2.1.0","189732","J=YES, F=NO","6hlo3b1hgw","1","80","85","75","","","","","","lextale","false","true","","","","","","","",""
"1279","
  <p style=""font-size: 40px;"">bottle</p>
  <p style=""font-size: 16px;"">J = YES &nbsp;&nbsp;&nbsp; F = NO</p>
","j","html-keyboard-response","8","2.1.0","191011","J=YES, F=NO","6hlo3b1hgw","1","80","85","75","","","","","","lextale","true","false","","","","","","","",""
"1611","
  <p style=""font-size: 40px;"">birst</p>
  <p style=""font-size: 16px;"">J = YES &nbsp;&nbsp;&nbsp; F = NO</p>
","f","html-keyboard-response","9","2.1.0","192623","J=YES, F=NO","6hlo3b1hgw","1","80","85","75","","","","","","lextale","false","false","","","","","","","",""
"921","
  <p style=""font-size: 40px;"">envy</p>
  <p style=""font-size: 16px;"">J = YES &nbsp;&nbsp;&nbsp; F = NO</p>
","j","html-keyboard-response","10","2.1.0","193544","J=YES, F=NO","6hlo3b1hgw","1","80","85","75","","","","","","lextale","true","false","","","","","","","",""
"3843","
  <p style=""font-size: 40px;"">brang</p>
  <p style=""font-size: 16px;"">J = YES &nbsp;&nbsp;&nbsp; F = NO</p>
","f","html-keyboard-response","11","2.1.0","197387","J=YES, F=NO","6hlo3b1hgw","1","80","85","75","","","","","","lextale","false","false","","","","","","","",""
"882","
  <p style=""font-size: 40px;"">huge</p>
  <p style=""font-size: 16px;"">J = YES &nbsp;&nbsp;&nbsp; F = NO</p>
","j","html-keyboard-response","12","2.1.0","198269","J=YES, F=NO","6hlo3b1hgw","1","80","85","75","","","","","","lextale","true","false","","","","","","","",""
"3317","
  <p style=""font-size: 40px;"">plove</p>
  <p style=""font-size: 16px;"">J = YES &nbsp;&nbsp;&nbsp; F = NO</p>
","f","html-keyboard-response","13","2.1.0","201586","J=YES, F=NO","6hlo3b1hgw","1","80","85","75","","","","","","lextale","false","false","","","","","","","",""
"1393","
  <p style=""font-size: 40px;"">border</p>
  <p style=""font-size: 16px;"">J = YES &nbsp;&nbsp;&nbsp; F = NO</p>
","j","html-keyboard-response","14","2.1.0","202980","J=YES, F=NO","6hlo3b1hgw","1","80","85","75","","","","","","lextale","true","false","","","","","","","",""
"1122","
  <p style=""font-size: 40px;"">flimsy</p>
  <p style=""font-size: 16px;"">J = YES &nbsp;&nbsp;&nbsp; F = NO</p>
","j","html-keyboard-response","15","2.1.0","204102","J=YES, F=NO","6hlo3b1hgw","1","80","85","75","","","","","","lextale","true","false","","","","","","","",""
"755","
  <p style=""font-size: 40px;"">drain</p>
  <p style=""font-size: 16px;"">J = YES &nbsp;&nbsp;&nbsp; F = NO</p>
","j","html-keyboard-response","16","2.1.0","204857","J=YES, F=NO","6hlo3b1hgw","1","80","85","75","","","","","","lextale","true","false","","","","","","","",""
"2783","
  <p style=""font-size: 40px;"">twindle</p>
  <p style=""font-size: 16px;"">J = YES &nbsp;&nbsp;&nbsp; F = NO</p>
","j","html-keyboard-response","17","2.1.0","207640","J=YES, F=NO","6hlo3b1hgw","1","80","85","75","","","","","","lextale","false","false","","","","","","","",""
"840","
  <p style=""font-size: 40px;"">propose</p>
  <p style=""font-size: 16px;"">J = YES &nbsp;&nbsp;&nbsp; F = NO</p>
","j","html-keyboard-response","18","2.1.0","208480","J=YES, F=NO","6hlo3b1hgw","1","80","85","75","","","","","","lextale","true","false","","","","","","","",""
"1797","
  <p style=""font-size: 40px;"">forlay</p>
  <p style=""font-size: 16px;"">J = YES &nbsp;&nbsp;&nbsp; F = NO</p>
","j","html-keyboard-response","19","2.1.0","210277","J=YES, F=NO","6hlo3b1hgw","1","80","85","75","","","","","","lextale","false","false","","","","","","","",""
"956","
  <p style=""font-size: 40px;"">tenant</p>
  <p style=""font-size: 16px;"">J = YES &nbsp;&nbsp;&nbsp; F = NO</p>
","j","html-keyboard-response","20","2.1.0","211233","J=YES, F=NO","6hlo3b1hgw","1","80","85","75","","","","","","lextale","true","false","","","","","","","",""
"685","
  <p style=""font-size: 40px;"">strain</p>
  <p style=""font-size: 16px;"">J = YES &nbsp;&nbsp;&nbsp; F = NO</p>
","j","html-keyboard-response","21","2.1.0","211918","J=YES, F=NO","6hlo3b1hgw","1","80","85","75","","","","","","lextale","true","false","","","","","","","",""
"707","
  <p style=""font-size: 40px;"">holster</p>
  <p style=""font-size: 16px;"">J = YES &nbsp;&nbsp;&nbsp; F = NO</p>
","j","html-keyboard-response","22","2.1.0","212626","J=YES, F=NO","6hlo3b1hgw","1","80","85","75","","","","","","lextale","true","false","","","","","","","",""
"681","
  <p style=""font-size: 40px;"">hinder</p>
  <p style=""font-size: 16px;"">J = YES &nbsp;&nbsp;&nbsp; F = NO</p>
","j","html-keyboard-response","23","2.1.0","213308","J=YES, F=NO","6hlo3b1hgw","1","80","85","75","","","","","","lextale","true","false","","","","","","","",""
"1105","
  <p style=""font-size: 40px;"">swindle</p>
  <p style=""font-size: 16px;"">J = YES &nbsp;&nbsp;&nbsp; F = NO</p>
","j","html-keyboard-response","24","2.1.0","214412","J=YES, F=NO","6hlo3b1hgw","1","80","85","75","","","","","","lextale","true","false","","","","","","","",""
"1449","
  <p style=""font-size: 40px;"">nuder</p>
  <p style=""font-size: 16px;"">J = YES &nbsp;&nbsp;&nbsp; F = NO</p>
","f","html-keyboard-response","25","2.1.0","215861","J=YES, F=NO","6hlo3b1hgw","1","80","85","75","","","","","","lextale","false","false","","","","","","","",""
"878","
  <p style=""font-size: 40px;"">pillow</p>
  <p style=""font-size: 16px;"">J = YES &nbsp;&nbsp;&nbsp; F = NO</p>
","j","html-keyboard-response","26","2.1.0","216740","J=YES, F=NO","6hlo3b1hgw","1","80","85","75","","","","","","lextale","true","false","","","","","","","",""
"4566","
  <p style=""font-size: 40px;"">shumble</p>
  <p style=""font-size: 16px;"">J = YES &nbsp;&nbsp;&nbsp; F = NO</p>
","f","html-keyboard-response","27","2.1.0","221306","J=YES, F=NO","6hlo3b1hgw","1","80","85","75","","","","","","lextale","false","false","","","","","","","",""
"674","
  <p style=""font-size: 40px;"">thirst</p>
  <p style=""font-size: 16px;"">J = YES &nbsp;&nbsp;&nbsp; F = NO</p>
","j","html-keyboard-response","28","2.1.0","221980","J=YES, F=NO","6hlo3b1hgw","1","80","85","75","","","","","","lextale","true","false","","","","","","","",""
"2859","
  <p style=""font-size: 40px;"">unsail</p>
  <p style=""font-size: 16px;"">J = YES &nbsp;&nbsp;&nbsp; F = NO</p>
","f","html-keyboard-response","29","2.1.0","224839","J=YES, F=NO","6hlo3b1hgw","1","80","85","75","","","","","","lextale","false","false","","","","","","","",""
"1213","
  <p style=""font-size: 40px;"">rifle</p>
  <p style=""font-size: 16px;"">J = YES &nbsp;&nbsp;&nbsp; F = NO</p>
","j","html-keyboard-response","30","2.1.0","226052","J=YES, F=NO","6hlo3b1hgw","1","80","85","75","","","","","","lextale","true","false","","","","","","","",""
"696","
  <p style=""font-size: 40px;"">mush</p>
  <p style=""font-size: 16px;"">J = YES &nbsp;&nbsp;&nbsp; F = NO</p>
","j","html-keyboard-response","31","2.1.0","226748","J=YES, F=NO","6hlo3b1hgw","1","80","85","75","","","","","","lextale","false","false","","","","","","","",""
"1834","
  <p style=""font-size: 40px;"">drench</p>
  <p style=""font-size: 16px;"">J = YES &nbsp;&nbsp;&nbsp; F = NO</p>
","j","html-keyboard-response","32","2.1.0","228582","J=YES, F=NO","6hlo3b1hgw","1","80","85","75","","","","","","lextale","true","false","","","","","","","",""
"1039","
  <p style=""font-size: 40px;"">snirt</p>
  <p style=""font-size: 16px;"">J = YES &nbsp;&nbsp;&nbsp; F = NO</p>
","f","html-keyboard-response","33","2.1.0","229621","J=YES, F=NO","6hlo3b1hgw","1","80","85","75","","","","","","lextale","false","false","","","","","","","",""
"670","
  <p style=""font-size: 40px;"">bitter</p>
  <p style=""font-size: 16px;"">J = YES &nbsp;&nbsp;&nbsp; F = NO</p>
","j","html-keyboard-response","34","2.1.0","230291","J=YES, F=NO","6hlo3b1hgw","1","80","85","75","","","","","","lextale","true","false","","","","","","","",""
"2056","
  <p style=""font-size: 40px;"">pliff</p>
  <p style=""font-size: 16px;"">J = YES &nbsp;&nbsp;&nbsp; F = NO</p>
","f","html-keyboard-response","35","2.1.0","232347","J=YES, F=NO","6hlo3b1hgw","1","80","85","75","","","","","","lextale","false","false","","","","","","","",""
"639","
  <p style=""font-size: 40px;"">tablet</p>
  <p style=""font-size: 16px;"">J = YES &nbsp;&nbsp;&nbsp; F = NO</p>
","j","html-keyboard-response","36","2.1.0","232986","J=YES, F=NO","6hlo3b1hgw","1","80","85","75","","","","","","lextale","true","false","","","","","","","",""
"1094","
  <p style=""font-size: 40px;"">glimmer</p>
  <p style=""font-size: 16px;"">J = YES &nbsp;&nbsp;&nbsp; F = NO</p>
","j","html-keyboard-response","37","2.1.0","234080","J=YES, F=NO","6hlo3b1hgw","1","80","85","75","","","","","","lextale","true","false","","","","","","","",""
"1898","
  <p style=""font-size: 40px;"">slink</p>
  <p style=""font-size: 16px;"">J = YES &nbsp;&nbsp;&nbsp; F = NO</p>
","j","html-keyboard-response","38","2.1.0","235978","J=YES, F=NO","6hlo3b1hgw","1","80","85","75","","","","","","lextale","true","false","","","","","","","",""
"593","
  <p style=""font-size: 40px;"">clever</p>
  <p style=""font-size: 16px;"">J = YES &nbsp;&nbsp;&nbsp; F = NO</p>
","j","html-keyboard-response","39","2.1.0","236571","J=YES, F=NO","6hlo3b1hgw","1","80","85","75","","","","","","lextale","true","false","","","","","","","",""
"1893","
  <p style=""font-size: 40px;"">grum</p>
  <p style=""font-size: 16px;"">J = YES &nbsp;&nbsp;&nbsp; F = NO</p>
","f","html-keyboard-response","40","2.1.0","238464","J=YES, F=NO","6hlo3b1hgw","1","80","85","75","","","","","","lextale","false","false","","","","","","","",""
"875","
  <p style=""font-size: 40px;"">string</p>
  <p style=""font-size: 16px;"">J = YES &nbsp;&nbsp;&nbsp; F = NO</p>
","j","html-keyboard-response","41","2.1.0","239339","J=YES, F=NO","6hlo3b1hgw","1","80","85","75","","","","","","lextale","true","false","","","","","","","",""
"995","
  <p style=""font-size: 40px;"">plim</p>
  <p style=""font-size: 16px;"">J = YES &nbsp;&nbsp;&nbsp; F = NO</p>
","f","html-keyboard-response","42","2.1.0","240334","J=YES, F=NO","6hlo3b1hgw","1","80","85","75","","","","","","lextale","false","false","","","","","","","",""
"650","
  <p style=""font-size: 40px;"">cable</p>
  <p style=""font-size: 16px;"">J = YES &nbsp;&nbsp;&nbsp; F = NO</p>
","j","html-keyboard-response","43","2.1.0","240984","J=YES, F=NO","6hlo3b1hgw","1","80","85","75","","","","","","lextale","true","false","","","","","","","",""
"1272","
  <p style=""font-size: 40px;"">shrivel</p>
  <p style=""font-size: 16px;"">J = YES &nbsp;&nbsp;&nbsp; F = NO</p>
","j","html-keyboard-response","44","2.1.0","242256","J=YES, F=NO","6hlo3b1hgw","1","80","85","75","","","","","","lextale","true","false","","","","","","","",""
"1626","
  <p style=""font-size: 40px;"">tarnish</p>
  <p style=""font-size: 16px;"">J = YES &nbsp;&nbsp;&nbsp; F = NO</p>
","j","html-keyboard-response","45","2.1.0","243882","J=YES, F=NO","6hlo3b1hgw","1","80","85","75","","","","","","lextale","true","false","","","","","","","",""
"1688","
  <p style=""font-size: 40px;"">blim</p>
  <p style=""font-size: 16px;"">J = YES &nbsp;&nbsp;&nbsp; F = NO</p>
","f","html-keyboard-response","46","2.1.0","245570","J=YES, F=NO","6hlo3b1hgw","1","80","85","75","","","","","","lextale","false","false","","","","","","","",""
"839","
  <p style=""font-size: 40px;"">stifle</p>
  <p style=""font-size: 16px;"">J = YES &nbsp;&nbsp;&nbsp; F = NO</p>
","j","html-keyboard-response","47","2.1.0","246409","J=YES, F=NO","6hlo3b1hgw","1","80","85","75","","","","","","lextale","true","false","","","","","","","",""
"1481","
  <p style=""font-size: 40px;"">bint</p>
  <p style=""font-size: 16px;"">J = YES &nbsp;&nbsp;&nbsp; F = NO</p>
","f","html-keyboard-response","48","2.1.0","247890","J=YES, F=NO","6hlo3b1hgw","1","80","85","75","","","","","","lextale","false","false","","","","","","","",""
"881","
  <p style=""font-size: 40px;"">purple</p>
  <p style=""font-size: 16px;"">J = YES &nbsp;&nbsp;&nbsp; F = NO</p>
","j","html-keyboard-response","49","2.1.0","248771","J=YES, F=NO","6hlo3b1hgw","1","80","85","75","","","","","","lextale","true","false","","","","","","","",""
"673","
  <p style=""font-size: 40px;"">wriggle</p>
  <p style=""font-size: 16px;"">J = YES &nbsp;&nbsp;&nbsp; F = NO</p>
","j","html-keyboard-response","50","2.1.0","249444","J=YES, F=NO","6hlo3b1hgw","1","80","85","75","","","","","","lextale","true","false","","","","","","","",""
"605","
  <p style=""font-size: 40px;"">mangle</p>
  <p style=""font-size: 16px;"">J = YES &nbsp;&nbsp;&nbsp; F = NO</p>
","j","html-keyboard-response","51","2.1.0","250049","J=YES, F=NO","6hlo3b1hgw","1","80","85","75","","","","","","lextale","true","false","","","","","","","",""
"1798","
  <p style=""font-size: 40px;"">shramp</p>
  <p style=""font-size: 16px;"">J = YES &nbsp;&nbsp;&nbsp; F = NO</p>
","f","html-keyboard-response","52","2.1.0","251847","J=YES, F=NO","6hlo3b1hgw","1","80","85","75","","","","","","lextale","false","false","","","","","","","",""
"658","
  <p style=""font-size: 40px;"">flirt</p>
  <p style=""font-size: 16px;"">J = YES &nbsp;&nbsp;&nbsp; F = NO</p>
","j","html-keyboard-response","53","2.1.0","252505","J=YES, F=NO","6hlo3b1hgw","1","80","85","75","","","","","","lextale","true","false","","","","","","","",""
"875","
  <p style=""font-size: 40px;"">frip</p>
  <p style=""font-size: 16px;"">J = YES &nbsp;&nbsp;&nbsp; F = NO</p>
","f","html-keyboard-response","54","2.1.0","253380","J=YES, F=NO","6hlo3b1hgw","1","80","85","75","","","","","","lextale","false","false","","","","","","","",""
"729","
  <p style=""font-size: 40px;"">tangle</p>
  <p style=""font-size: 16px;"">J = YES &nbsp;&nbsp;&nbsp; F = NO</p>
","j","html-keyboard-response","55","2.1.0","254109","J=YES, F=NO","6hlo3b1hgw","1","80","85","75","","","","","","lextale","true","false","","","","","","","",""
"2089","
  <p style=""font-size: 40px;"">crumble</p>
  <p style=""font-size: 16px;"">J = YES &nbsp;&nbsp;&nbsp; F = NO</p>
","j","html-keyboard-response","56","2.1.0","256198","J=YES, F=NO","6hlo3b1hgw","1","80","85","75","","","","","","lextale","true","false","","","","","","","",""
"715","
  <p style=""font-size: 40px;"">wrinkle</p>
  <p style=""font-size: 16px;"">J = YES &nbsp;&nbsp;&nbsp; F = NO</p>
","j","html-keyboard-response","57","2.1.0","256913","J=YES, F=NO","6hlo3b1hgw","1","80","85","75","","","","","","lextale","true","false","","","","","","","",""
"1277","
  <p style=""font-size: 40px;"">slumb</p>
  <p style=""font-size: 16px;"">J = YES &nbsp;&nbsp;&nbsp; F = NO</p>
","f","html-keyboard-response","58","2.1.0","258190","J=YES, F=NO","6hlo3b1hgw","1","80","85","75","","","","","","lextale","false","false","","","","","","","",""
"1161","
  <p style=""font-size: 40px;"">jungle</p>
  <p style=""font-size: 16px;"">J = YES &nbsp;&nbsp;&nbsp; F = NO</p>
","j","html-keyboard-response","59","2.1.0","259352","J=YES, F=NO","6hlo3b1hgw","1","80","85","75","","","","","","lextale","true","false","","","","","","","",""
"918","
  <p style=""font-size: 40px;"">frolick</p>
  <p style=""font-size: 16px;"">J = YES &nbsp;&nbsp;&nbsp; F = NO</p>
","j","html-keyboard-response","60","2.1.0","260269","J=YES, F=NO","6hlo3b1hgw","1","80","85","75","","","","","","lextale","false","false","","","","","","","",""
"1773","
      <h2>LexTALE Test Completed</h2>
      <p>Your LexTALE vocabulary score is: <strong>80%</strong></p>
      <p>Press any key to continue.</p>
    ","j","html-keyboard-response","61","2.1.0","262044","J=YES, F=NO","6hlo3b1hgw","1","80","85","75","","","","","","","","","","","","","","","",""
"5086","
    <div style=""max-width: 800px; margin: auto; text-align: left;"">
      <h2>Break Time</h2>
      <p>You have completed the first part of the study.</p>
      <p>You may take a short <strong>30-second break</strong> before continuing.</p>
      <p>When you’re ready, press any key to continue to the final task.</p>
    </div>
  "," ","html-keyboard-response","62","2.1.0","267130","J=YES, F=NO","6hlo3b1hgw","1","80","85","75","","","","","","","","","","","","","","","",""
"61330","
    <div style=""max-width: 800px; margin: auto; text-align: left;"">
      <h2>Part 2: Lexical Decision Task</h2>
      <p>You will now begin the second part of the study.</p>
      <p>Each trial will follow this sequence:</p>
      <ul>
        <li>A fixation cross (+) appears at the center of the screen.</li>
        <li>You will hear a short beep followed by a spoken word.</li>
        <li>A written word will appear briefly on the screen.</li>
      </ul>
      <p>Your task is to judge whether the <strong>written word</strong> is a real English word.</p>
      <p style=""margin-top: 1em;""><strong>Key responses:</strong></p>
      <ul>
        <li><strong>J</strong> = YES (real English word)</li>
        <li><strong>F</strong> = NO (not a real English word)</li>
      </ul>
      <p>Please respond as quickly and accurately as you can.</p>
      <p style=""margin-top: 2em;"">Press any key to continue.</p>
    </div>
  "," ","html-keyboard-response","63","2.1.0","328460","J=YES, F=NO","6hlo3b1hgw","1","80","85","75","","","","","","","","","","","","","","","",""
"5361","
    <div style=""max-width: 800px; margin: auto; text-align: left;"">
      <h2>Before You Begin</h2>
      <p>Make sure your sound is turned on.</p>
      <p>You will hear audio during each trial, but your decision should be based only on the <strong>written word</strong> you see on the screen.</p>
      <p><strong>Reminder:</strong></p>
      <ul>
        <li><strong>J</strong> = YES (real English word)</li>
        <li><strong>F</strong> = NO (not a real English word)</li>
      </ul>
      <p style=""margin-top: 2em;"">Press any key when you are ready to begin.</p>
    </div>
  "," ","html-keyboard-response","64","2.1.0","333821","J=YES, F=NO","6hlo3b1hgw","1","80","85","75","","","","","","","","","","","","","","","",""
"3447","
    <div style=""max-width: 800px; margin: auto; text-align: left;"">
      <h2>Part 2: Practice Trials</h2>
      <p>You will now complete a few <strong>practice trials</strong> to get familiar with the task.</p>
      <p>These trials are <strong>not scored</strong> and are only to help you get used to the format.</p>
      <p style=""margin-top: 2em;"">Press any key to begin.</p>
    </div>
  "," ","html-keyboard-response","65","2.1.0","337269","J=YES, F=NO","6hlo3b1hgw","1","80","85","75","","","","","","","","","","","","","","","",""
"2095","<p>Starting practice block 1 of 2. Press any key to continue.</p>"," ","html-keyboard-response","66","2.1.0","339363","J=YES, F=NO","6hlo3b1hgw","1","80","85","75","","","","","","","","","","","","","","","",""
"null","<p style=""font-size: 50px;"">+</p>","null","html-keyboard-response","67","2.1.0","339678","J=YES, F=NO","6hlo3b1hgw","1","80","85","75","","","","","","","","","","","","","","","",""
"null","audio/beep-329314.mp3","null","audio-keyboard-response","68","2.1.0","341354","J=YES, F=NO","6hlo3b1hgw","1","80","85","75","","","","","","","","","","","","","","","",""
"null","audio/corpse1.wav","null","audio-keyboard-response","69","2.1.0","341954","J=YES, F=NO","6hlo3b1hgw","1","80","85","75","","","","","","","","","","","","","","","",""
"null","
          <p id=""word"" style=""font-size: 40px;"">glonet</p>
          <p style=""font-size: 16px;"">J = YES &nbsp;&nbsp;&nbsp; F = NO</p>
        ","null","html-keyboard-response","70","2.1.0","343458","J=YES, F=NO","6hlo3b1hgw","1","80","85","75","","","","","","","","","glonet","corpse1","pseudoword","pseudoword","f","false","",""
"null","<p style=""font-size: 50px;"">+</p>","null","html-keyboard-response","71","2.1.0","343767","J=YES, F=NO","6hlo3b1hgw","1","80","85","75","","","","","","","","","","","","","","","",""
"null","audio/beep-329314.mp3","null","audio-keyboard-response","72","2.1.0","345434","J=YES, F=NO","6hlo3b1hgw","1","80","85","75","","","","","","","","","","","","","","","",""
"null","audio/flaw.wav","null","audio-keyboard-response","73","2.1.0","346194","J=YES, F=NO","6hlo3b1hgw","1","80","85","75","","","","","","","","","","","","","","","",""
"null","
          <p id=""word"" style=""font-size: 40px;"">thwool</p>
          <p style=""font-size: 16px;"">J = YES &nbsp;&nbsp;&nbsp; F = NO</p>
        ","null","html-keyboard-response","74","2.1.0","347704","J=YES, F=NO","6hlo3b1hgw","1","80","85","75","","","","","","","","","thwool","flaw","pseudoword","pseudoword","f","false","",""
"null","<p style=""font-size: 50px;"">+</p>","null","html-keyboard-response","75","2.1.0","348009","J=YES, F=NO","6hlo3b1hgw","1","80","85","75","","","","","","","","","","","","","","","",""
"null","audio/beep-329314.mp3","null","audio-keyboard-response","76","2.1.0","349674","J=YES, F=NO","6hlo3b1hgw","1","80","85","75","","","","","","","","","","","","","","","",""
"null","audio/alarm1.wav","null","audio-keyboard-response","77","2.1.0","350254","J=YES, F=NO","6hlo3b1hgw","1","80","85","75","","","","","","","","","","","","","","","",""
"927","
          <p id=""word"" style=""font-size: 40px;"">lock</p>
          <p style=""font-size: 16px;"">J = YES &nbsp;&nbsp;&nbsp; F = NO</p>
        ","f","html-keyboard-response","78","2.1.0","351182","J=YES, F=NO","6hlo3b1hgw","1","80","85","75","","","","","","","","","lock","alarm1","filler","filler","j","false","",""
"null","<p style=""font-size: 50px;"">+</p>","null","html-keyboard-response","79","2.1.0","351482","J=YES, F=NO","6hlo3b1hgw","1","80","85","75","","","","","","","","","","","","","","","",""
"null","audio/beep-329314.mp3","null","audio-keyboard-response","80","2.1.0","353154","J=YES, F=NO","6hlo3b1hgw","1","80","85","75","","","","","","","","","","","","","","","",""
"null","audio/floor.wav","null","audio-keyboard-response","81","2.1.0","353834","J=YES, F=NO","6hlo3b1hgw","1","80","85","75","","","","","","","","","","","","","","","",""
"747","
          <p id=""word"" style=""font-size: 40px;"">mop</p>
          <p style=""font-size: 16px;"">J = YES &nbsp;&nbsp;&nbsp; F = NO</p>
        ","j","html-keyboard-response","82","2.1.0","354582","J=YES, F=NO","6hlo3b1hgw","1","80","85","75","","","","","","","","","mop","floor","filler","filler","j","true","",""
"null","<p style=""font-size: 50px;"">+</p>","null","html-keyboard-response","83","2.1.0","354893","J=YES, F=NO","6hlo3b1hgw","1","80","85","75","","","","","","","","","","","","","","","",""
"null","audio/beep-329314.mp3","null","audio-keyboard-response","84","2.1.0","356554","J=YES, F=NO","6hlo3b1hgw","1","80","85","75","","","","","","","","","","","","","","","",""
"null","audio/battle1.wav","null","audio-keyboard-response","85","2.1.0","357135","J=YES, F=NO","6hlo3b1hgw","1","80","85","75","","","","","","","","","","","","","","","",""
"456","
          <p id=""word"" style=""font-size: 40px;"">boil</p>
          <p style=""font-size: 16px;"">J = YES &nbsp;&nbsp;&nbsp; F = NO</p>
        ","j","html-keyboard-response","86","2.1.0","357591","J=YES, F=NO","6hlo3b1hgw","1","80","85","75","","","","","","","","","boil","battle1","filler","filler","j","true","",""
"null","<p style=""font-size: 50px;"">+</p>","null","html-keyboard-response","87","2.1.0","357904","J=YES, F=NO","6hlo3b1hgw","1","80","85","75","","","","","","","","","","","","","","","",""
"null","audio/beep-329314.mp3","null","audio-keyboard-response","88","2.1.0","359574","J=YES, F=NO","6hlo3b1hgw","1","80","85","75","","","","","","","","","","","","","","","",""
"null","audio/dome.wav","null","audio-keyboard-response","89","2.1.0","359994","J=YES, F=NO","6hlo3b1hgw","1","80","85","75","","","","","","","","","","","","","","","",""
"905","
          <p id=""word"" style=""font-size: 40px;"">scrupliness</p>
          <p style=""font-size: 16px;"">J = YES &nbsp;&nbsp;&nbsp; F = NO</p>
        ","f","html-keyboard-response","90","2.1.0","360900","J=YES, F=NO","6hlo3b1hgw","1","80","85","75","","","","","","","","","scrupliness","dome","pseudoword","pseudoword","f","true","",""
"null","<p style=""font-size: 50px;"">+</p>","null","html-keyboard-response","91","2.1.0","361214","J=YES, F=NO","6hlo3b1hgw","1","80","85","75","","","","","","","","","","","","","","","",""
"null","audio/beep-329314.mp3","null","audio-keyboard-response","92","2.1.0","362874","J=YES, F=NO","6hlo3b1hgw","1","80","85","75","","","","","","","","","","","","","","","",""
"null","audio/topic.wav","null","audio-keyboard-response","93","2.1.0","363574","J=YES, F=NO","6hlo3b1hgw","1","80","85","75","","","","","","","","","","","","","","","",""
"580","
          <p id=""word"" style=""font-size: 40px;"">infortuitist</p>
          <p style=""font-size: 16px;"">J = YES &nbsp;&nbsp;&nbsp; F = NO</p>
        ","f","html-keyboard-response","94","2.1.0","364154","J=YES, F=NO","6hlo3b1hgw","1","80","85","75","","","","","","","","","infortuitist","topic","pseudoword","pseudoword","f","true","",""
"null","<p style=""font-size: 50px;"">+</p>","null","html-keyboard-response","95","2.1.0","364465","J=YES, F=NO","6hlo3b1hgw","1","80","85","75","","","","","","","","","","","","","","","",""
"null","audio/beep-329314.mp3","null","audio-keyboard-response","96","2.1.0","366135","J=YES, F=NO","6hlo3b1hgw","1","80","85","75","","","","","","","","","","","","","","","",""
"null","audio/tunnel.wav","null","audio-keyboard-response","97","2.1.0","366694","J=YES, F=NO","6hlo3b1hgw","1","80","85","75","","","","","","","","","","","","","","","",""
"425","
          <p id=""word"" style=""font-size: 40px;"">gred</p>
          <p style=""font-size: 16px;"">J = YES &nbsp;&nbsp;&nbsp; F = NO</p>
        ","j","html-keyboard-response","98","2.1.0","367120","J=YES, F=NO","6hlo3b1hgw","1","80","85","75","","","","","","","","","gred","tunnel","pseudoword","pseudoword","f","false","",""
"null","<p style=""font-size: 50px;"">+</p>","null","html-keyboard-response","99","2.1.0","367422","J=YES, F=NO","6hlo3b1hgw","1","80","85","75","","","","","","","","","","","","","","","",""
"null","audio/beep-329314.mp3","null","audio-keyboard-response","100","2.1.0","369095","J=YES, F=NO","6hlo3b1hgw","1","80","85","75","","","","","","","","","","","","","","","",""
"null","audio/breath.wav","null","audio-keyboard-response","101","2.1.0","369654","J=YES, F=NO","6hlo3b1hgw","1","80","85","75","","","","","","","","","","","","","","","",""
"509","
          <p id=""word"" style=""font-size: 40px;"">pack</p>
          <p style=""font-size: 16px;"">J = YES &nbsp;&nbsp;&nbsp; F = NO</p>
        ","j","html-keyboard-response","102","2.1.0","370164","J=YES, F=NO","6hlo3b1hgw","1","80","85","75","","","","","","","","","pack","breath","filler","filler","j","true","",""
"null","<p style=""font-size: 50px;"">+</p>","null","html-keyboard-response","103","2.1.0","370474","J=YES, F=NO","6hlo3b1hgw","1","80","85","75","","","","","","","","","","","","","","","",""
"null","audio/beep-329314.mp3","null","audio-keyboard-response","104","2.1.0","372134","J=YES, F=NO","6hlo3b1hgw","1","80","85","75","","","","","","","","","","","","","","","",""
"null","audio/terrain.wav","null","audio-keyboard-response","105","2.1.0","372854","J=YES, F=NO","6hlo3b1hgw","1","80","85","75","","","","","","","","","","","","","","","",""
"474","
          <p id=""word"" style=""font-size: 40px;"">twist</p>
          <p style=""font-size: 16px;"">J = YES &nbsp;&nbsp;&nbsp; F = NO</p>
        ","j","html-keyboard-response","106","2.1.0","373329","J=YES, F=NO","6hlo3b1hgw","1","80","85","75","","","","","","","","","twist","terrain","filler","filler","j","true","",""
"null","<p style=""font-size: 50px;"">+</p>","null","html-keyboard-response","107","2.1.0","373641","J=YES, F=NO","6hlo3b1hgw","1","80","85","75","","","","","","","","","","","","","","","",""
"null","audio/beep-329314.mp3","null","audio-keyboard-response","108","2.1.0","375314","J=YES, F=NO","6hlo3b1hgw","1","80","85","75","","","","","","","","","","","","","","","",""
"null","audio/belief.wav","null","audio-keyboard-response","109","2.1.0","376074","J=YES, F=NO","6hlo3b1hgw","1","80","85","75","","","","","","","","","","","","","","","",""
"455","
          <p id=""word"" style=""font-size: 40px;"">read</p>
          <p style=""font-size: 16px;"">J = YES &nbsp;&nbsp;&nbsp; F = NO</p>
        ","j","html-keyboard-response","110","2.1.0","376529","J=YES, F=NO","6hlo3b1hgw","1","80","85","75","","","","","","","","","read","belief","filler","filler","j","true","",""
"null","<p style=""font-size: 50px;"">+</p>","null","html-keyboard-response","111","2.1.0","376833","J=YES, F=NO","6hlo3b1hgw","1","80","85","75","","","","","","","","","","","","","","","",""
"null","audio/beep-329314.mp3","null","audio-keyboard-response","112","2.1.0","378495","J=YES, F=NO","6hlo3b1hgw","1","80","85","75","","","","","","","","","","","","","","","",""
"null","audio/ankle1.wav","null","audio-keyboard-response","113","2.1.0","379014","J=YES, F=NO","6hlo3b1hgw","1","80","85","75","","","","","","","","","","","","","","","",""
"459","
          <p id=""word"" style=""font-size: 40px;"">kick</p>
          <p style=""font-size: 16px;"">J = YES &nbsp;&nbsp;&nbsp; F = NO</p>
        ","j","html-keyboard-response","114","2.1.0","379473","J=YES, F=NO","6hlo3b1hgw","1","80","85","75","","","","","","","","","kick","ankle1","filler","filler","j","true","",""
"1409","<p>Starting practice block 2 of 2. Press any key to continue.</p>"," ","html-keyboard-response","115","2.1.0","380882","J=YES, F=NO","6hlo3b1hgw","1","80","85","75","","","","","","","","","","","","","","","",""
"null","<p style=""font-size: 50px;"">+</p>","null","html-keyboard-response","116","2.1.0","381189","J=YES, F=NO","6hlo3b1hgw","1","80","85","75","","","","","","","","","","","","","","","",""
"null","audio/beep-329314.mp3","null","audio-keyboard-response","117","2.1.0","382854","J=YES, F=NO","6hlo3b1hgw","1","80","85","75","","","","","","","","","","","","","","","",""
"null","audio/voice.wav","null","audio-keyboard-response","118","2.1.0","383575","J=YES, F=NO","6hlo3b1hgw","1","80","85","75","","","","","","","","","","","","","","","",""
"735","
          <p id=""word"" style=""font-size: 40px;"">grintle</p>
          <p style=""font-size: 16px;"">J = YES &nbsp;&nbsp;&nbsp; F = NO</p>
        ","f","html-keyboard-response","119","2.1.0","384311","J=YES, F=NO","6hlo3b1hgw","1","80","85","75","","","","","","","","","grintle","voice","pseudoword","pseudoword","f","true","",""
"null","<p style=""font-size: 50px;"">+</p>","null","html-keyboard-response","120","2.1.0","384611","J=YES, F=NO","6hlo3b1hgw","1","80","85","75","","","","","","","","","","","","","","","",""
"null","audio/beep-329314.mp3","null","audio-keyboard-response","121","2.1.0","386274","J=YES, F=NO","6hlo3b1hgw","1","80","85","75","","","","","","","","","","","","","","","",""
"null","audio/empire.wav","null","audio-keyboard-response","122","2.1.0","387034","J=YES, F=NO","6hlo3b1hgw","1","80","85","75","","","","","","","","","","","","","","","",""
"628","
          <p id=""word"" style=""font-size: 40px;"">slorby</p>
          <p style=""font-size: 16px;"">J = YES &nbsp;&nbsp;&nbsp; F = NO</p>
        ","f","html-keyboard-response","123","2.1.0","387662","J=YES, F=NO","6hlo3b1hgw","1","80","85","75","","","","","","","","","slorby","empire","pseudoword","pseudoword","f","true","",""
"null","<p style=""font-size: 50px;"">+</p>","null","html-keyboard-response","124","2.1.0","387968","J=YES, F=NO","6hlo3b1hgw","1","80","85","75","","","","","","","","","","","","","","","",""
"null","audio/beep-329314.mp3","null","audio-keyboard-response","125","2.1.0","389635","J=YES, F=NO","6hlo3b1hgw","1","80","85","75","","","","","","","","","","","","","","","",""
"null","audio/bridge.wav","null","audio-keyboard-response","126","2.1.0","390315","J=YES, F=NO","6hlo3b1hgw","1","80","85","75","","","","","","","","","","","","","","","",""
"477","
          <p id=""word"" style=""font-size: 40px;"">crack</p>
          <p style=""font-size: 16px;"">J = YES &nbsp;&nbsp;&nbsp; F = NO</p>
        ","j","html-keyboard-response","127","2.1.0","390791","J=YES, F=NO","6hlo3b1hgw","1","80","85","75","","","","","","","","","crack","bridge","filler","filler","j","true","",""
"null","<p style=""font-size: 50px;"">+</p>","null","html-keyboard-response","128","2.1.0","391092","J=YES, F=NO","6hlo3b1hgw","1","80","85","75","","","","","","","","","","","","","","","",""
"null","audio/beep-329314.mp3","null","audio-keyboard-response","129","2.1.0","392755","J=YES, F=NO","6hlo3b1hgw","1","80","85","75","","","","","","","","","","","","","","","",""
"null","audio/key1.wav","null","audio-keyboard-response","130","2.1.0","393254","J=YES, F=NO","6hlo3b1hgw","1","80","85","75","","","","","","","","","","","","","","","",""
"656","
          <p id=""word"" style=""font-size: 40px;"">sminsh</p>
          <p style=""font-size: 16px;"">J = YES &nbsp;&nbsp;&nbsp; F = NO</p>
        ","f","html-keyboard-response","131","2.1.0","393911","J=YES, F=NO","6hlo3b1hgw","1","80","85","75","","","","","","","","","sminsh","key1","pseudoword","pseudoword","f","true","",""
"null","<p style=""font-size: 50px;"">+</p>","null","html-keyboard-response","132","2.1.0","394223","J=YES, F=NO","6hlo3b1hgw","1","80","85","75","","","","","","","","","","","","","","","",""
"null","audio/beep-329314.mp3","null","audio-keyboard-response","133","2.1.0","395894","J=YES, F=NO","6hlo3b1hgw","1","80","85","75","","","","","","","","","","","","","","","",""
"null","audio/baby.wav","null","audio-keyboard-response","134","2.1.0","396354","J=YES, F=NO","6hlo3b1hgw","1","80","85","75","","","","","","","","","","","","","","","",""
"474","
          <p id=""word"" style=""font-size: 40px;"">lift</p>
          <p style=""font-size: 16px;"">J = YES &nbsp;&nbsp;&nbsp; F = NO</p>
        ","j","html-keyboard-response","135","2.1.0","396829","J=YES, F=NO","6hlo3b1hgw","1","80","85","75","","","","","","","","","lift","baby","filler","filler","j","true","",""
"null","<p style=""font-size: 50px;"">+</p>","null","html-keyboard-response","136","2.1.0","397143","J=YES, F=NO","6hlo3b1hgw","1","80","85","75","","","","","","","","","","","","","","","",""
"null","audio/beep-329314.mp3","null","audio-keyboard-response","137","2.1.0","398814","J=YES, F=NO","6hlo3b1hgw","1","80","85","75","","","","","","","","","","","","","","","",""
"null","audio/weight1.wav","null","audio-keyboard-response","138","2.1.0","399474","J=YES, F=NO","6hlo3b1hgw","1","80","85","75","","","","","","","","","","","","","","","",""
"581","
          <p id=""word"" style=""font-size: 40px;"">crimsh</p>
          <p style=""font-size: 16px;"">J = YES &nbsp;&nbsp;&nbsp; F = NO</p>
        ","f","html-keyboard-response","139","2.1.0","400056","J=YES, F=NO","6hlo3b1hgw","1","80","85","75","","","","","","","","","crimsh","weight1","pseudoword","pseudoword","f","true","",""
"null","<p style=""font-size: 50px;"">+</p>","null","html-keyboard-response","140","2.1.0","400362","J=YES, F=NO","6hlo3b1hgw","1","80","85","75","","","","","","","","","","","","","","","",""
"null","audio/beep-329314.mp3","null","audio-keyboard-response","141","2.1.0","402034","J=YES, F=NO","6hlo3b1hgw","1","80","85","75","","","","","","","","","","","","","","","",""
"null","audio/bishop1.wav","null","audio-keyboard-response","142","2.1.0","402734","J=YES, F=NO","6hlo3b1hgw","1","80","85","75","","","","","","","","","","","","","","","",""
"498","
          <p id=""word"" style=""font-size: 40px;"">play</p>
          <p style=""font-size: 16px;"">J = YES &nbsp;&nbsp;&nbsp; F = NO</p>
        ","j","html-keyboard-response","143","2.1.0","403233","J=YES, F=NO","6hlo3b1hgw","1","80","85","75","","","","","","","","","play","bishop1","filler","filler","j","true","",""
"null","<p style=""font-size: 50px;"">+</p>","null","html-keyboard-response","144","2.1.0","403548","J=YES, F=NO","6hlo3b1hgw","1","80","85","75","","","","","","","","","","","","","","","",""
"null","audio/beep-329314.mp3","null","audio-keyboard-response","145","2.1.0","405215","J=YES, F=NO","6hlo3b1hgw","1","80","85","75","","","","","","","","","","","","","","","",""
"null","audio/age1.wav","null","audio-keyboard-response","146","2.1.0","405754","J=YES, F=NO","6hlo3b1hgw","1","80","85","75","","","","","","","","","","","","","","","",""
"619","
          <p id=""word"" style=""font-size: 40px;"">lachry</p>
          <p style=""font-size: 16px;"">J = YES &nbsp;&nbsp;&nbsp; F = NO</p>
        ","f","html-keyboard-response","147","2.1.0","406374","J=YES, F=NO","6hlo3b1hgw","1","80","85","75","","","","","","","","","lachry","age1","pseudoword","pseudoword","f","true","",""
"null","<p style=""font-size: 50px;"">+</p>","null","html-keyboard-response","148","2.1.0","406676","J=YES, F=NO","6hlo3b1hgw","1","80","85","75","","","","","","","","","","","","","","","",""
"null","audio/beep-329314.mp3","null","audio-keyboard-response","149","2.1.0","408354","J=YES, F=NO","6hlo3b1hgw","1","80","85","75","","","","","","","","","","","","","","","",""
"null","audio/account1.wav","null","audio-keyboard-response","150","2.1.0","409174","J=YES, F=NO","6hlo3b1hgw","1","80","85","75","","","","","","","","","","","","","","","",""
"431","
          <p id=""word"" style=""font-size: 40px;"">paint</p>
          <p style=""font-size: 16px;"">J = YES &nbsp;&nbsp;&nbsp; F = NO</p>
        ","j","html-keyboard-response","151","2.1.0","409606","J=YES, F=NO","6hlo3b1hgw","1","80","85","75","","","","","","","","","paint","account1","filler","filler","j","true","",""
"null","<p style=""font-size: 50px;"">+</p>","null","html-keyboard-response","152","2.1.0","409908","J=YES, F=NO","6hlo3b1hgw","1","80","85","75","","","","","","","","","","","","","","","",""
"null","audio/beep-329314.mp3","null","audio-keyboard-response","153","2.1.0","411574","J=YES, F=NO","6hlo3b1hgw","1","80","85","75","","","","","","","","","","","","","","","",""
"null","audio/menu.wav","null","audio-keyboard-response","154","2.1.0","412135","J=YES, F=NO","6hlo3b1hgw","1","80","85","75","","","","","","","","","","","","","","","",""
"534","
          <p id=""word"" style=""font-size: 40px;"">slice</p>
          <p style=""font-size: 16px;"">J = YES &nbsp;&nbsp;&nbsp; F = NO</p>
        ","j","html-keyboard-response","155","2.1.0","412669","J=YES, F=NO","6hlo3b1hgw","1","80","85","75","","","","","","","","","slice","menu","filler","filler","j","true","",""
"null","<p style=""font-size: 50px;"">+</p>","null","html-keyboard-response","156","2.1.0","412970","J=YES, F=NO","6hlo3b1hgw","1","80","85","75","","","","","","","","","","","","","","","",""
"null","audio/beep-329314.mp3","null","audio-keyboard-response","157","2.1.0","414635","J=YES, F=NO","6hlo3b1hgw","1","80","85","75","","","","","","","","","","","","","","","",""
"null","audio/purpose.wav","null","audio-keyboard-response","158","2.1.0","415454","J=YES, F=NO","6hlo3b1hgw","1","80","85","75","","","","","","","","","","","","","","","",""
"504","
          <p id=""word"" style=""font-size: 40px;"">whigm</p>
          <p style=""font-size: 16px;"">J = YES &nbsp;&nbsp;&nbsp; F = NO</p>
        ","f","html-keyboard-response","159","2.1.0","415959","J=YES, F=NO","6hlo3b1hgw","1","80","85","75","","","","","","","","","whigm","purpose","pseudoword","pseudoword","f","true","",""
"null","<p style=""font-size: 50px;"">+</p>","null","html-keyboard-response","160","2.1.0","416270","J=YES, F=NO","6hlo3b1hgw","1","80","85","75","","","","","","","","","","","","","","","",""
"null","audio/beep-329314.mp3","null","audio-keyboard-response","161","2.1.0","417935","J=YES, F=NO","6hlo3b1hgw","1","80","85","75","","","","","","","","","","","","","","","",""
"null","audio/stain.wav","null","audio-keyboard-response","162","2.1.0","418715","J=YES, F=NO","6hlo3b1hgw","1","80","85","75","","","","","","","","","","","","","","","",""
"658","
          <p id=""word"" style=""font-size: 40px;"">rumpsied</p>
          <p style=""font-size: 16px;"">J = YES &nbsp;&nbsp;&nbsp; F = NO</p>
        ","f","html-keyboard-response","163","2.1.0","419373","J=YES, F=NO","6hlo3b1hgw","1","80","85","75","","","","","","","","","rumpsied","stain","pseudoword","pseudoword","f","true","",""
"4928","
    <div style=""max-width: 800px; margin: auto; text-align: left;"">
      <h2>Part 2: Main Trials</h2>
      <p>Great job on the practice trials!</p>
      <p>You will now begin the <strong>main set of trials</strong>.</p>
      <p>Remember your key assignments:</p>
      <ul>
        <li><strong>J</strong> = YES (real English word)</li>
        <li><strong>F</strong> = NO (not a real English word)</li>
      </ul>
      <p>Try to respond as <strong>quickly and accurately</strong> as possible.</p>
      <p style=""margin-top: 2em;"">Press any key to begin the main trials.</p>
    </div>
  "," ","html-keyboard-response","164","2.1.0","424301","J=YES, F=NO","6hlo3b1hgw","1","80","85","75","","","","","","","","","","","","","","","",""
"1442","<p>Starting main block 1 of 8. Press any key to continue.</p>"," ","html-keyboard-response","165","2.1.0","425743","J=YES, F=NO","6hlo3b1hgw","1","80","85","75","","","","","","","","","","","","","","","",""
"null","<p style=""font-size: 50px;"">+</p>","null","html-keyboard-response","166","2.1.0","426058","J=YES, F=NO","6hlo3b1hgw","1","80","85","75","","","","","","","","","","","","","","","",""
"null","audio/beep-329314.mp3","null","audio-keyboard-response","167","2.1.0","427734","J=YES, F=NO","6hlo3b1hgw","1","80","85","75","","","","","","","","","","","","","","","",""
"null","audio/strength.wav","null","audio-keyboard-response","168","2.1.0","428455","J=YES, F=NO","6hlo3b1hgw","1","80","85","75","","","","","","","","","","","","","","","",""
"605","
          <p id=""word"" style=""font-size: 40px;"">plabet</p>
          <p style=""font-size: 16px;"">J = YES &nbsp;&nbsp;&nbsp; F = NO</p>
        ","f","html-keyboard-response","169","2.1.0","429059","J=YES, F=NO","6hlo3b1hgw","1","80","85","75","","","","","","","","","plabet","strength","pseudoword","pseudoword","f","true","",""
"null","<p style=""font-size: 50px;"">+</p>","null","html-keyboard-response","170","2.1.0","429371","J=YES, F=NO","6hlo3b1hgw","1","80","85","75","","","","","","","","","","","","","","","",""
"null","audio/beep-329314.mp3","null","audio-keyboard-response","171","2.1.0","431034","J=YES, F=NO","6hlo3b1hgw","1","80","85","75","","","","","","","","","","","","","","","",""
"null","audio/cave1.wav","null","audio-keyboard-response","172","2.1.0","431574","J=YES, F=NO","6hlo3b1hgw","1","80","85","75","","","","","","","","","","","","","","","",""
"911","
          <p id=""word"" style=""font-size: 40px;"">blacket</p>
          <p style=""font-size: 16px;"">J = YES &nbsp;&nbsp;&nbsp; F = NO</p>
        ","f","html-keyboard-response","173","2.1.0","432486","J=YES, F=NO","6hlo3b1hgw","1","80","85","75","","","","","","","","","blacket","cave1","pseudoword","pseudoword","f","true","",""
"null","<p style=""font-size: 50px;"">+</p>","null","html-keyboard-response","174","2.1.0","432787","J=YES, F=NO","6hlo3b1hgw","1","80","85","75","","","","","","","","","","","","","","","",""
"null","audio/beep-329314.mp3","null","audio-keyboard-response","175","2.1.0","434454","J=YES, F=NO","6hlo3b1hgw","1","80","85","75","","","","","","","","","","","","","","","",""
"null","audio/fear.wav","null","audio-keyboard-response","176","2.1.0","434975","J=YES, F=NO","6hlo3b1hgw","1","80","85","75","","","","","","","","","","","","","","","",""
"548","
          <p id=""word"" style=""font-size: 40px;"">spread</p>
          <p style=""font-size: 16px;"">J = YES &nbsp;&nbsp;&nbsp; F = NO</p>
        ","j","html-keyboard-response","177","2.1.0","435523","J=YES, F=NO","6hlo3b1hgw","1","80","85","75","","","","","","","","","spread","fear","metaphor","experimental","j","true","",""
"null","<p style=""font-size: 50px;"">+</p>","null","html-keyboard-response","178","2.1.0","435830","J=YES, F=NO","6hlo3b1hgw","1","80","85","75","","","","","","","","","","","","","","","",""
"null","audio/beep-329314.mp3","null","audio-keyboard-response","179","2.1.0","437495","J=YES, F=NO","6hlo3b1hgw","1","80","85","75","","","","","","","","","","","","","","","",""
"null","audio/gossip1.wav","null","audio-keyboard-response","180","2.1.0","438115","J=YES, F=NO","6hlo3b1hgw","1","80","85","75","","","","","","","","","","","","","","","",""
"620","
          <p id=""word"" style=""font-size: 40px;"">camerish</p>
          <p style=""font-size: 16px;"">J = YES &nbsp;&nbsp;&nbsp; F = NO</p>
        ","f","html-keyboard-response","181","2.1.0","438735","J=YES, F=NO","6hlo3b1hgw","1","80","85","75","","","","","","","","","camerish","gossip1","pseudoword","pseudoword","f","true","",""
"null","<p style=""font-size: 50px;"">+</p>","null","html-keyboard-response","182","2.1.0","439039","J=YES, F=NO","6hlo3b1hgw","1","80","85","75","","","","","","","","","","","","","","","",""
"null","audio/beep-329314.mp3","null","audio-keyboard-response","183","2.1.0","440714","J=YES, F=NO","6hlo3b1hgw","1","80","85","75","","","","","","","","","","","","","","","",""
"null","audio/pattern.wav","null","audio-keyboard-response","184","2.1.0","441215","J=YES, F=NO","6hlo3b1hgw","1","80","85","75","","","","","","","","","","","","","","","",""
"505","
          <p id=""word"" style=""font-size: 40px;"">defeat</p>
          <p style=""font-size: 16px;"">J = YES &nbsp;&nbsp;&nbsp; F = NO</p>
        ","j","html-keyboard-response","185","2.1.0","441720","J=YES, F=NO","6hlo3b1hgw","1","80","85","75","","","","","","","","","defeat","pattern","unrelated","experimental","j","true","",""
"null","<p style=""font-size: 50px;"">+</p>","null","html-keyboard-response","186","2.1.0","442032","J=YES, F=NO","6hlo3b1hgw","1","80","85","75","","","","","","","","","","","","","","","",""
"null","audio/beep-329314.mp3","null","audio-keyboard-response","187","2.1.0","443695","J=YES, F=NO","6hlo3b1hgw","1","80","85","75","","","","","","","","","","","","","","","",""
"null","audio/bomb1.wav","null","audio-keyboard-response","188","2.1.0","444075","J=YES, F=NO","6hlo3b1hgw","1","80","85","75","","","","","","","","","","","","","","","",""
"466","
          <p id=""word"" style=""font-size: 40px;"">clean</p>
          <p style=""font-size: 16px;"">J = YES &nbsp;&nbsp;&nbsp; F = NO</p>
        ","j","html-keyboard-response","189","2.1.0","444541","J=YES, F=NO","6hlo3b1hgw","1","80","85","75","","","","","","","","","clean","bomb1","filler","filler","j","true","",""
"null","<p style=""font-size: 50px;"">+</p>","null","html-keyboard-response","190","2.1.0","444846","J=YES, F=NO","6hlo3b1hgw","1","80","85","75","","","","","","","","","","","","","","","",""
"null","audio/beep-329314.mp3","null","audio-keyboard-response","191","2.1.0","446515","J=YES, F=NO","6hlo3b1hgw","1","80","85","75","","","","","","","","","","","","","","","",""
"null","audio/ship.wav","null","audio-keyboard-response","192","2.1.0","447054","J=YES, F=NO","6hlo3b1hgw","1","80","85","75","","","","","","","","","","","","","","","",""
"472","
          <p id=""word"" style=""font-size: 40px;"">scrap</p>
          <p style=""font-size: 16px;"">J = YES &nbsp;&nbsp;&nbsp; F = NO</p>
        ","j","html-keyboard-response","193","2.1.0","447526","J=YES, F=NO","6hlo3b1hgw","1","80","85","75","","","","","","","","","scrap","ship","literal","experimental","j","true","",""
"null","<p style=""font-size: 50px;"">+</p>","null","html-keyboard-response","194","2.1.0","447830","J=YES, F=NO","6hlo3b1hgw","1","80","85","75","","","","","","","","","","","","","","","",""
"null","audio/beep-329314.mp3","null","audio-keyboard-response","195","2.1.0","449494","J=YES, F=NO","6hlo3b1hgw","1","80","85","75","","","","","","","","","","","","","","","",""
"null","audio/ego.wav","null","audio-keyboard-response","196","2.1.0","450035","J=YES, F=NO","6hlo3b1hgw","1","80","85","75","","","","","","","","","","","","","","","",""
"607","
          <p id=""word"" style=""font-size: 40px;"">bruite</p>
          <p style=""font-size: 16px;"">J = YES &nbsp;&nbsp;&nbsp; F = NO</p>
        ","f","html-keyboard-response","197","2.1.0","450642","J=YES, F=NO","6hlo3b1hgw","1","80","85","75","","","","","","","","","bruite","ego","pseudoword","pseudoword","f","true","",""
"null","<p style=""font-size: 50px;"">+</p>","null","html-keyboard-response","198","2.1.0","450944","J=YES, F=NO","6hlo3b1hgw","1","80","85","75","","","","","","","","","","","","","","","",""
"null","audio/beep-329314.mp3","null","audio-keyboard-response","199","2.1.0","452614","J=YES, F=NO","6hlo3b1hgw","1","80","85","75","","","","","","","","","","","","","","","",""
"null","audio/cancer1.wav","null","audio-keyboard-response","200","2.1.0","453154","J=YES, F=NO","6hlo3b1hgw","1","80","85","75","","","","","","","","","","","","","","","",""
"407","
          <p id=""word"" style=""font-size: 40px;"">draw</p>
          <p style=""font-size: 16px;"">J = YES &nbsp;&nbsp;&nbsp; F = NO</p>
        ","j","html-keyboard-response","201","2.1.0","453562","J=YES, F=NO","6hlo3b1hgw","1","80","85","75","","","","","","","","","draw","cancer1","filler","filler","j","true","",""
"null","<p style=""font-size: 50px;"">+</p>","null","html-keyboard-response","202","2.1.0","453863","J=YES, F=NO","6hlo3b1hgw","1","80","85","75","","","","","","","","","","","","","","","",""
"null","audio/beep-329314.mp3","null","audio-keyboard-response","203","2.1.0","455534","J=YES, F=NO","6hlo3b1hgw","1","80","85","75","","","","","","","","","","","","","","","",""
"null","audio/novel.wav","null","audio-keyboard-response","204","2.1.0","456014","J=YES, F=NO","6hlo3b1hgw","1","80","85","75","","","","","","","","","","","","","","","",""
"406","
          <p id=""word"" style=""font-size: 40px;"">type</p>
          <p style=""font-size: 16px;"">J = YES &nbsp;&nbsp;&nbsp; F = NO</p>
        ","j","html-keyboard-response","205","2.1.0","456420","J=YES, F=NO","6hlo3b1hgw","1","80","85","75","","","","","","","","","type","novel","filler","filler","j","true","",""
"null","<p style=""font-size: 50px;"">+</p>","null","html-keyboard-response","206","2.1.0","456724","J=YES, F=NO","6hlo3b1hgw","1","80","85","75","","","","","","","","","","","","","","","",""
"null","audio/beep-329314.mp3","null","audio-keyboard-response","207","2.1.0","458394","J=YES, F=NO","6hlo3b1hgw","1","80","85","75","","","","","","","","","","","","","","","",""
"null","audio/camera1.wav","null","audio-keyboard-response","208","2.1.0","458874","J=YES, F=NO","6hlo3b1hgw","1","80","85","75","","","","","","","","","","","","","","","",""
"438","
          <p id=""word"" style=""font-size: 40px;"">bring</p>
          <p style=""font-size: 16px;"">J = YES &nbsp;&nbsp;&nbsp; F = NO</p>
        ","j","html-keyboard-response","209","2.1.0","459312","J=YES, F=NO","6hlo3b1hgw","1","80","85","75","","","","","","","","","bring","camera1","literal","experimental","j","true","",""
"null","<p style=""font-size: 50px;"">+</p>","null","html-keyboard-response","210","2.1.0","459621","J=YES, F=NO","6hlo3b1hgw","1","80","85","75","","","","","","","","","","","","","","","",""
"null","audio/beep-329314.mp3","null","audio-keyboard-response","211","2.1.0","461294","J=YES, F=NO","6hlo3b1hgw","1","80","85","75","","","","","","","","","","","","","","","",""
"null","audio/holiday1.wav","null","audio-keyboard-response","212","2.1.0","461914","J=YES, F=NO","6hlo3b1hgw","1","80","85","75","","","","","","","","","","","","","","","",""
"606","
          <p id=""word"" style=""font-size: 40px;"">drivets</p>
          <p style=""font-size: 16px;"">J = YES &nbsp;&nbsp;&nbsp; F = NO</p>
        ","f","html-keyboard-response","213","2.1.0","462520","J=YES, F=NO","6hlo3b1hgw","1","80","85","75","","","","","","","","","drivets","holiday1","pseudoword","pseudoword","f","true","",""
"null","<p style=""font-size: 50px;"">+</p>","null","html-keyboard-response","214","2.1.0","462829","J=YES, F=NO","6hlo3b1hgw","1","80","85","75","","","","","","","","","","","","","","","",""
"null","audio/beep-329314.mp3","null","audio-keyboard-response","215","2.1.0","464494","J=YES, F=NO","6hlo3b1hgw","1","80","85","75","","","","","","","","","","","","","","","",""
"null","audio/sand.wav","null","audio-keyboard-response","216","2.1.0","465135","J=YES, F=NO","6hlo3b1hgw","1","80","85","75","","","","","","","","","","","","","","","",""
"636","
          <p id=""word"" style=""font-size: 40px;"">proted</p>
          <p style=""font-size: 16px;"">J = YES &nbsp;&nbsp;&nbsp; F = NO</p>
        ","f","html-keyboard-response","217","2.1.0","465770","J=YES, F=NO","6hlo3b1hgw","1","80","85","75","","","","","","","","","proted","sand","pseudoword","pseudoword","f","true","",""
"null","<p style=""font-size: 50px;"">+</p>","null","html-keyboard-response","218","2.1.0","466079","J=YES, F=NO","6hlo3b1hgw","1","80","85","75","","","","","","","","","","","","","","","",""
"null","audio/beep-329314.mp3","null","audio-keyboard-response","219","2.1.0","467755","J=YES, F=NO","6hlo3b1hgw","1","80","85","75","","","","","","","","","","","","","","","",""
"null","audio/radio1.wav","null","audio-keyboard-response","220","2.1.0","468335","J=YES, F=NO","6hlo3b1hgw","1","80","85","75","","","","","","","","","","","","","","","",""
"455","
          <p id=""word"" style=""font-size: 40px;"">spend</p>
          <p style=""font-size: 16px;"">J = YES &nbsp;&nbsp;&nbsp; F = NO</p>
        ","j","html-keyboard-response","221","2.1.0","468789","J=YES, F=NO","6hlo3b1hgw","1","80","85","75","","","","","","","","","spend","radio1","unrelated","experimental","j","true","",""
"null","<p style=""font-size: 50px;"">+</p>","null","html-keyboard-response","222","2.1.0","469099","J=YES, F=NO","6hlo3b1hgw","1","80","85","75","","","","","","","","","","","","","","","",""
"null","audio/beep-329314.mp3","null","audio-keyboard-response","223","2.1.0","470774","J=YES, F=NO","6hlo3b1hgw","1","80","85","75","","","","","","","","","","","","","","","",""
"null","audio/planet1.wav","null","audio-keyboard-response","224","2.1.0","471354","J=YES, F=NO","6hlo3b1hgw","1","80","85","75","","","","","","","","","","","","","","","",""
"427","
          <p id=""word"" style=""font-size: 40px;"">cratched</p>
          <p style=""font-size: 16px;"">J = YES &nbsp;&nbsp;&nbsp; F = NO</p>
        ","j","html-keyboard-response","225","2.1.0","471782","J=YES, F=NO","6hlo3b1hgw","1","80","85","75","","","","","","","","","cratched","planet1","pseudoword","pseudoword","f","false","",""
"null","<p style=""font-size: 50px;"">+</p>","null","html-keyboard-response","226","2.1.0","472088","J=YES, F=NO","6hlo3b1hgw","1","80","85","75","","","","","","","","","","","","","","","",""
"null","audio/beep-329314.mp3","null","audio-keyboard-response","227","2.1.0","473754","J=YES, F=NO","6hlo3b1hgw","1","80","85","75","","","","","","","","","","","","","","","",""
"null","audio/menu.wav","null","audio-keyboard-response","228","2.1.0","474314","J=YES, F=NO","6hlo3b1hgw","1","80","85","75","","","","","","","","","","","","","","","",""
"512","
          <p id=""word"" style=""font-size: 40px;"">navigate</p>
          <p style=""font-size: 16px;"">J = YES &nbsp;&nbsp;&nbsp; F = NO</p>
        ","j","html-keyboard-response","229","2.1.0","474826","J=YES, F=NO","6hlo3b1hgw","1","80","85","75","","","","","","","","","navigate","menu","metaphor","experimental","j","true","",""
"5016","<p>Excellent! You have finished block 1 of 8.</p>
                     <p>Feel free to take a 30 second break.</p>
                     <p>Press any key when you're ready to continue.</p>"," ","html-keyboard-response","230","2.1.0","479843","J=YES, F=NO","6hlo3b1hgw","1","80","85","75","","","","","","","","","","","","","","","",""
"1123","<p>Starting main block 2 of 8. Press any key to continue.</p>"," ","html-keyboard-response","231","2.1.0","480966","J=YES, F=NO","6hlo3b1hgw","1","80","85","75","","","","","","","","","","","","","","","",""
"null","<p style=""font-size: 50px;"">+</p>","null","html-keyboard-response","232","2.1.0","481274","J=YES, F=NO","6hlo3b1hgw","1","80","85","75","","","","","","","","","","","","","","","",""
"null","audio/beep-329314.mp3","null","audio-keyboard-response","233","2.1.0","482955","J=YES, F=NO","6hlo3b1hgw","1","80","85","75","","","","","","","","","","","","","","","",""
"null","audio/mile1.wav","null","audio-keyboard-response","234","2.1.0","483434","J=YES, F=NO","6hlo3b1hgw","1","80","85","75","","","","","","","","","","","","","","","",""
"865","
          <p id=""word"" style=""font-size: 40px;"">writch</p>
          <p style=""font-size: 16px;"">J = YES &nbsp;&nbsp;&nbsp; F = NO</p>
        ","j","html-keyboard-response","235","2.1.0","484300","J=YES, F=NO","6hlo3b1hgw","1","80","85","75","","","","","","","","","writch","mile1","pseudoword","pseudoword","f","false","",""
"null","<p style=""font-size: 50px;"">+</p>","null","html-keyboard-response","236","2.1.0","484606","J=YES, F=NO","6hlo3b1hgw","1","80","85","75","","","","","","","","","","","","","","","",""
"null","audio/beep-329314.mp3","null","audio-keyboard-response","237","2.1.0","486275","J=YES, F=NO","6hlo3b1hgw","1","80","85","75","","","","","","","","","","","","","","","",""
"null","audio/plot1.wav","null","audio-keyboard-response","238","2.1.0","486814","J=YES, F=NO","6hlo3b1hgw","1","80","85","75","","","","","","","","","","","","","","","",""
"633","
          <p id=""word"" style=""font-size: 40px;"">glenter</p>
          <p style=""font-size: 16px;"">J = YES &nbsp;&nbsp;&nbsp; F = NO</p>
        ","f","html-keyboard-response","239","2.1.0","487448","J=YES, F=NO","6hlo3b1hgw","1","80","85","75","","","","","","","","","glenter","plot1","pseudoword","pseudoword","f","true","",""
"null","<p style=""font-size: 50px;"">+</p>","null","html-keyboard-response","240","2.1.0","487758","J=YES, F=NO","6hlo3b1hgw","1","80","85","75","","","","","","","","","","","","","","","",""
"null","audio/beep-329314.mp3","null","audio-keyboard-response","241","2.1.0","489434","J=YES, F=NO","6hlo3b1hgw","1","80","85","75","","","","","","","","","","","","","","","",""
"null","audio/test1.wav","null","audio-keyboard-response","242","2.1.0","489995","J=YES, F=NO","6hlo3b1hgw","1","80","85","75","","","","","","","","","","","","","","","",""
"577","
          <p id=""word"" style=""font-size: 40px;"">twopch</p>
          <p style=""font-size: 16px;"">J = YES &nbsp;&nbsp;&nbsp; F = NO</p>
        ","f","html-keyboard-response","243","2.1.0","490572","J=YES, F=NO","6hlo3b1hgw","1","80","85","75","","","","","","","","","twopch","test1","pseudoword","pseudoword","f","true","",""
"null","<p style=""font-size: 50px;"">+</p>","null","html-keyboard-response","244","2.1.0","490875","J=YES, F=NO","6hlo3b1hgw","1","80","85","75","","","","","","","","","","","","","","","",""
"null","audio/beep-329314.mp3","null","audio-keyboard-response","245","2.1.0","492554","J=YES, F=NO","6hlo3b1hgw","1","80","85","75","","","","","","","","","","","","","","","",""
"null","audio/mouth1.wav","null","audio-keyboard-response","246","2.1.0","493114","J=YES, F=NO","6hlo3b1hgw","1","80","85","75","","","","","","","","","","","","","","","",""
"573","
          <p id=""word"" style=""font-size: 40px;"">spolial</p>
          <p style=""font-size: 16px;"">J = YES &nbsp;&nbsp;&nbsp; F = NO</p>
        ","f","html-keyboard-response","247","2.1.0","493687","J=YES, F=NO","6hlo3b1hgw","1","80","85","75","","","","","","","","","spolial","mouth1","pseudoword","pseudoword","f","true","",""
"null","<p style=""font-size: 50px;"">+</p>","null","html-keyboard-response","248","2.1.0","493996","J=YES, F=NO","6hlo3b1hgw","1","80","85","75","","","","","","","","","","","","","","","",""
"null","audio/beep-329314.mp3","null","audio-keyboard-response","249","2.1.0","495674","J=YES, F=NO","6hlo3b1hgw","1","80","85","75","","","","","","","","","","","","","","","",""
"null","audio/bottle.wav","null","audio-keyboard-response","250","2.1.0","496135","J=YES, F=NO","6hlo3b1hgw","1","80","85","75","","","","","","","","","","","","","","","",""
"419","
          <p id=""word"" style=""font-size: 40px;"">open</p>
          <p style=""font-size: 16px;"">J = YES &nbsp;&nbsp;&nbsp; F = NO</p>
        ","j","html-keyboard-response","251","2.1.0","496553","J=YES, F=NO","6hlo3b1hgw","1","80","85","75","","","","","","","","","open","bottle","literal","experimental","j","true","",""
"null","<p style=""font-size: 50px;"">+</p>","null","html-keyboard-response","252","2.1.0","496862","J=YES, F=NO","6hlo3b1hgw","1","80","85","75","","","","","","","","","","","","","","","",""
"null","audio/beep-329314.mp3","null","audio-keyboard-response","253","2.1.0","498534","J=YES, F=NO","6hlo3b1hgw","1","80","85","75","","","","","","","","","","","","","","","",""
"null","audio/alarm1.wav","null","audio-keyboard-response","254","2.1.0","499114","J=YES, F=NO","6hlo3b1hgw","1","80","85","75","","","","","","","","","","","","","","","",""
"576","
          <p id=""word"" style=""font-size: 40px;"">swetp</p>
          <p style=""font-size: 16px;"">J = YES &nbsp;&nbsp;&nbsp; F = NO</p>
        ","f","html-keyboard-response","255","2.1.0","499690","J=YES, F=NO","6hlo3b1hgw","1","80","85","75","","","","","","","","","swetp","alarm1","pseudoword","pseudoword","f","true","",""
"null","<p style=""font-size: 50px;"">+</p>","null","html-keyboard-response","256","2.1.0","499992","J=YES, F=NO","6hlo3b1hgw","1","80","85","75","","","","","","","","","","","","","","","",""
"null","audio/beep-329314.mp3","null","audio-keyboard-response","257","2.1.0","501654","J=YES, F=NO","6hlo3b1hgw","1","80","85","75","","","","","","","","","","","","","","","",""
"null","audio/show.wav","null","audio-keyboard-response","258","2.1.0","502194","J=YES, F=NO","6hlo3b1hgw","1","80","85","75","","","","","","","","","","","","","","","",""
"583","
          <p id=""word"" style=""font-size: 40px;"">smark</p>
          <p style=""font-size: 16px;"">J = YES &nbsp;&nbsp;&nbsp; F = NO</p>
        ","j","html-keyboard-response","259","2.1.0","502777","J=YES, F=NO","6hlo3b1hgw","1","80","85","75","","","","","","","","","smark","show","pseudoword","pseudoword","f","false","",""
"null","<p style=""font-size: 50px;"">+</p>","null","html-keyboard-response","260","2.1.0","503082","J=YES, F=NO","6hlo3b1hgw","1","80","85","75","","","","","","","","","","","","","","","",""
"null","audio/beep-329314.mp3","null","audio-keyboard-response","261","2.1.0","504754","J=YES, F=NO","6hlo3b1hgw","1","80","85","75","","","","","","","","","","","","","","","",""
"null","audio/butter1.wav","null","audio-keyboard-response","262","2.1.0","505194","J=YES, F=NO","6hlo3b1hgw","1","80","85","75","","","","","","","","","","","","","","","",""
"519","
          <p id=""word"" style=""font-size: 40px;"">chew</p>
          <p style=""font-size: 16px;"">J = YES &nbsp;&nbsp;&nbsp; F = NO</p>
        ","j","html-keyboard-response","263","2.1.0","505713","J=YES, F=NO","6hlo3b1hgw","1","80","85","75","","","","","","","","","chew","butter1","filler","filler","j","true","",""
"null","<p style=""font-size: 50px;"">+</p>","null","html-keyboard-response","264","2.1.0","506015","J=YES, F=NO","6hlo3b1hgw","1","80","85","75","","","","","","","","","","","","","","","",""
"null","audio/beep-329314.mp3","null","audio-keyboard-response","265","2.1.0","507694","J=YES, F=NO","6hlo3b1hgw","1","80","85","75","","","","","","","","","","","","","","","",""
"null","audio/burden.wav","null","audio-keyboard-response","266","2.1.0","508194","J=YES, F=NO","6hlo3b1hgw","1","80","85","75","","","","","","","","","","","","","","","",""
"575","
          <p id=""word"" style=""font-size: 40px;"">whotth</p>
          <p style=""font-size: 16px;"">J = YES &nbsp;&nbsp;&nbsp; F = NO</p>
        ","f","html-keyboard-response","267","2.1.0","508769","J=YES, F=NO","6hlo3b1hgw","1","80","85","75","","","","","","","","","whotth","burden","pseudoword","pseudoword","f","true","",""
"null","<p style=""font-size: 50px;"">+</p>","null","html-keyboard-response","268","2.1.0","509076","J=YES, F=NO","6hlo3b1hgw","1","80","85","75","","","","","","","","","","","","","","","",""
"null","audio/beep-329314.mp3","null","audio-keyboard-response","269","2.1.0","510755","J=YES, F=NO","6hlo3b1hgw","1","80","85","75","","","","","","","","","","","","","","","",""
"null","audio/emotion.wav","null","audio-keyboard-response","270","2.1.0","511395","J=YES, F=NO","6hlo3b1hgw","1","80","85","75","","","","","","","","","","","","","","","",""
"922","
          <p id=""word"" style=""font-size: 40px;"">devering</p>
          <p style=""font-size: 16px;"">J = YES &nbsp;&nbsp;&nbsp; F = NO</p>
        ","f","html-keyboard-response","271","2.1.0","512317","J=YES, F=NO","6hlo3b1hgw","1","80","85","75","","","","","","","","","devering","emotion","pseudoword","pseudoword","f","true","",""
"null","<p style=""font-size: 50px;"">+</p>","null","html-keyboard-response","272","2.1.0","512623","J=YES, F=NO","6hlo3b1hgw","1","80","85","75","","","","","","","","","","","","","","","",""
"null","audio/beep-329314.mp3","null","audio-keyboard-response","273","2.1.0","514295","J=YES, F=NO","6hlo3b1hgw","1","80","85","75","","","","","","","","","","","","","","","",""
"null","audio/budget1.wav","null","audio-keyboard-response","274","2.1.0","514894","J=YES, F=NO","6hlo3b1hgw","1","80","85","75","","","","","","","","","","","","","","","",""
"575","
          <p id=""word"" style=""font-size: 40px;"">sulist</p>
          <p style=""font-size: 16px;"">J = YES &nbsp;&nbsp;&nbsp; F = NO</p>
        ","f","html-keyboard-response","275","2.1.0","515469","J=YES, F=NO","6hlo3b1hgw","1","80","85","75","","","","","","","","","sulist","budget1","pseudoword","pseudoword","f","true","",""
"null","<p style=""font-size: 50px;"">+</p>","null","html-keyboard-response","276","2.1.0","515771","J=YES, F=NO","6hlo3b1hgw","1","80","85","75","","","","","","","","","","","","","","","",""
"null","audio/beep-329314.mp3","null","audio-keyboard-response","277","2.1.0","517434","J=YES, F=NO","6hlo3b1hgw","1","80","85","75","","","","","","","","","","","","","","","",""
"null","audio/baby.wav","null","audio-keyboard-response","278","2.1.0","517894","J=YES, F=NO","6hlo3b1hgw","1","80","85","75","","","","","","","","","","","","","","","",""
"381","
          <p id=""word"" style=""font-size: 40px;"">hold</p>
          <p style=""font-size: 16px;"">J = YES &nbsp;&nbsp;&nbsp; F = NO</p>
        ","j","html-keyboard-response","279","2.1.0","518276","J=YES, F=NO","6hlo3b1hgw","1","80","85","75","","","","","","","","","hold","baby","literal","experimental","j","true","",""
"null","<p style=""font-size: 50px;"">+</p>","null","html-keyboard-response","280","2.1.0","518586","J=YES, F=NO","6hlo3b1hgw","1","80","85","75","","","","","","","","","","","","","","","",""
"null","audio/beep-329314.mp3","null","audio-keyboard-response","281","2.1.0","520254","J=YES, F=NO","6hlo3b1hgw","1","80","85","75","","","","","","","","","","","","","","","",""
"null","audio/size1.wav","null","audio-keyboard-response","282","2.1.0","520994","J=YES, F=NO","6hlo3b1hgw","1","80","85","75","","","","","","","","","","","","","","","",""
"321","
          <p id=""word"" style=""font-size: 40px;"">clear</p>
          <p style=""font-size: 16px;"">J = YES &nbsp;&nbsp;&nbsp; F = NO</p>
        ","j","html-keyboard-response","283","2.1.0","521316","J=YES, F=NO","6hlo3b1hgw","1","80","85","75","","","","","","","","","clear","size1","unrelated","experimental","j","true","",""
"null","<p style=""font-size: 50px;"">+</p>","null","html-keyboard-response","284","2.1.0","521627","J=YES, F=NO","6hlo3b1hgw","1","80","85","75","","","","","","","","","","","","","","","",""
"null","audio/beep-329314.mp3","null","audio-keyboard-response","285","2.1.0","523295","J=YES, F=NO","6hlo3b1hgw","1","80","85","75","","","","","","","","","","","","","","","",""
"null","audio/mile1.wav","null","audio-keyboard-response","286","2.1.0","523775","J=YES, F=NO","6hlo3b1hgw","1","80","85","75","","","","","","","","","","","","","","","",""
"394","
          <p id=""word"" style=""font-size: 40px;"">run</p>
          <p style=""font-size: 16px;"">J = YES &nbsp;&nbsp;&nbsp; F = NO</p>
        ","j","html-keyboard-response","287","2.1.0","524169","J=YES, F=NO","6hlo3b1hgw","1","80","85","75","","","","","","","","","run","mile1","literal","experimental","j","true","",""
"null","<p style=""font-size: 50px;"">+</p>","null","html-keyboard-response","288","2.1.0","524474","J=YES, F=NO","6hlo3b1hgw","1","80","85","75","","","","","","","","","","","","","","","",""
"null","audio/beep-329314.mp3","null","audio-keyboard-response","289","2.1.0","526134","J=YES, F=NO","6hlo3b1hgw","1","80","85","75","","","","","","","","","","","","","","","",""
"null","audio/life1.wav","null","audio-keyboard-response","290","2.1.0","526695","J=YES, F=NO","6hlo3b1hgw","1","80","85","75","","","","","","","","","","","","","","","",""
"512","
          <p id=""word"" style=""font-size: 40px;"">flimch</p>
          <p style=""font-size: 16px;"">J = YES &nbsp;&nbsp;&nbsp; F = NO</p>
        ","f","html-keyboard-response","291","2.1.0","527207","J=YES, F=NO","6hlo3b1hgw","1","80","85","75","","","","","","","","","flimch","life1","pseudoword","pseudoword","f","true","",""
"null","<p style=""font-size: 50px;"">+</p>","null","html-keyboard-response","292","2.1.0","527510","J=YES, F=NO","6hlo3b1hgw","1","80","85","75","","","","","","","","","","","","","","","",""
"null","audio/beep-329314.mp3","null","audio-keyboard-response","293","2.1.0","529175","J=YES, F=NO","6hlo3b1hgw","1","80","85","75","","","","","","","","","","","","","","","",""
"null","audio/survey1.wav","null","audio-keyboard-response","294","2.1.0","529895","J=YES, F=NO","6hlo3b1hgw","1","80","85","75","","","","","","","","","","","","","","","",""
"372","
          <p id=""word"" style=""font-size: 40px;"">release</p>
          <p style=""font-size: 16px;"">J = YES &nbsp;&nbsp;&nbsp; F = NO</p>
        ","j","html-keyboard-response","295","2.1.0","530267","J=YES, F=NO","6hlo3b1hgw","1","80","85","75","","","","","","","","","release","survey1","metaphor","experimental","j","true","",""
"3006","<p>Excellent! You have finished block 2 of 8.</p>
                     <p>Feel free to take a 30 second break.</p>
                     <p>Press any key when you're ready to continue.</p>"," ","html-keyboard-response","296","2.1.0","533274","J=YES, F=NO","6hlo3b1hgw","1","80","85","75","","","","","","","","","","","","","","","",""
"786","<p>Starting main block 3 of 8. Press any key to continue.</p>"," ","html-keyboard-response","297","2.1.0","534060","J=YES, F=NO","6hlo3b1hgw","1","80","85","75","","","","","","","","","","","","","","","",""
"null","<p style=""font-size: 50px;"">+</p>","null","html-keyboard-response","298","2.1.0","534369","J=YES, F=NO","6hlo3b1hgw","1","80","85","75","","","","","","","","","","","","","","","",""
"null","audio/beep-329314.mp3","null","audio-keyboard-response","299","2.1.0","536035","J=YES, F=NO","6hlo3b1hgw","1","80","85","75","","","","","","","","","","","","","","","",""
"null","audio/pig.wav","null","audio-keyboard-response","300","2.1.0","536414","J=YES, F=NO","6hlo3b1hgw","1","80","85","75","","","","","","","","","","","","","","","",""
"548","
          <p id=""word"" style=""font-size: 40px;"">tirlike</p>
          <p style=""font-size: 16px;"">J = YES &nbsp;&nbsp;&nbsp; F = NO</p>
        ","f","html-keyboard-response","301","2.1.0","536962","J=YES, F=NO","6hlo3b1hgw","1","80","85","75","","","","","","","","","tirlike","pig","pseudoword","pseudoword","f","true","",""
"null","<p style=""font-size: 50px;"">+</p>","null","html-keyboard-response","302","2.1.0","537277","J=YES, F=NO","6hlo3b1hgw","1","80","85","75","","","","","","","","","","","","","","","",""
"null","audio/beep-329314.mp3","null","audio-keyboard-response","303","2.1.0","538955","J=YES, F=NO","6hlo3b1hgw","1","80","85","75","","","","","","","","","","","","","","","",""
"null","audio/demon1.wav","null","audio-keyboard-response","304","2.1.0","539434","J=YES, F=NO","6hlo3b1hgw","1","80","85","75","","","","","","","","","","","","","","","",""
"361","
          <p id=""word"" style=""font-size: 40px;"">wrestle</p>
          <p style=""font-size: 16px;"">J = YES &nbsp;&nbsp;&nbsp; F = NO</p>
        ","j","html-keyboard-response","305","2.1.0","539795","J=YES, F=NO","6hlo3b1hgw","1","80","85","75","","","","","","","","","wrestle","demon1","metaphor","experimental","j","true","",""
"null","<p style=""font-size: 50px;"">+</p>","null","html-keyboard-response","306","2.1.0","540100","J=YES, F=NO","6hlo3b1hgw","1","80","85","75","","","","","","","","","","","","","","","",""
"null","audio/beep-329314.mp3","null","audio-keyboard-response","307","2.1.0","541774","J=YES, F=NO","6hlo3b1hgw","1","80","85","75","","","","","","","","","","","","","","","",""
"null","audio/desire.wav","null","audio-keyboard-response","308","2.1.0","542374","J=YES, F=NO","6hlo3b1hgw","1","80","85","75","","","","","","","","","","","","","","","",""
"470","
          <p id=""word"" style=""font-size: 40px;"">nophed</p>
          <p style=""font-size: 16px;"">J = YES &nbsp;&nbsp;&nbsp; F = NO</p>
        ","f","html-keyboard-response","309","2.1.0","542844","J=YES, F=NO","6hlo3b1hgw","1","80","85","75","","","","","","","","","nophed","desire","pseudoword","pseudoword","f","true","",""
"null","<p style=""font-size: 50px;"">+</p>","null","html-keyboard-response","310","2.1.0","543154","J=YES, F=NO","6hlo3b1hgw","1","80","85","75","","","","","","","","","","","","","","","",""
"null","audio/beep-329314.mp3","null","audio-keyboard-response","311","2.1.0","544814","J=YES, F=NO","6hlo3b1hgw","1","80","85","75","","","","","","","","","","","","","","","",""
"null","audio/van1.wav","null","audio-keyboard-response","312","2.1.0","545294","J=YES, F=NO","6hlo3b1hgw","1","80","85","75","","","","","","","","","","","","","","","",""
"373","
          <p id=""word"" style=""font-size: 40px;"">push</p>
          <p style=""font-size: 16px;"">J = YES &nbsp;&nbsp;&nbsp; F = NO</p>
        ","j","html-keyboard-response","313","2.1.0","545667","J=YES, F=NO","6hlo3b1hgw","1","80","85","75","","","","","","","","","push","van1","filler","filler","j","true","",""
"null","<p style=""font-size: 50px;"">+</p>","null","html-keyboard-response","314","2.1.0","545968","J=YES, F=NO","6hlo3b1hgw","1","80","85","75","","","","","","","","","","","","","","","",""
"null","audio/beep-329314.mp3","null","audio-keyboard-response","315","2.1.0","547635","J=YES, F=NO","6hlo3b1hgw","1","80","85","75","","","","","","","","","","","","","","","",""
"null","audio/prisoner.wav","null","audio-keyboard-response","316","2.1.0","548135","J=YES, F=NO","6hlo3b1hgw","1","80","85","75","","","","","","","","","","","","","","","",""
"473","
          <p id=""word"" style=""font-size: 40px;"">egotian</p>
          <p style=""font-size: 16px;"">J = YES &nbsp;&nbsp;&nbsp; F = NO</p>
        ","f","html-keyboard-response","317","2.1.0","548608","J=YES, F=NO","6hlo3b1hgw","1","80","85","75","","","","","","","","","egotian","prisoner","pseudoword","pseudoword","f","true","",""
"null","<p style=""font-size: 50px;"">+</p>","null","html-keyboard-response","318","2.1.0","548921","J=YES, F=NO","6hlo3b1hgw","1","80","85","75","","","","","","","","","","","","","","","",""
"null","audio/beep-329314.mp3","null","audio-keyboard-response","319","2.1.0","550595","J=YES, F=NO","6hlo3b1hgw","1","80","85","75","","","","","","","","","","","","","","","",""
"null","audio/cinema1.wav","null","audio-keyboard-response","320","2.1.0","551195","J=YES, F=NO","6hlo3b1hgw","1","80","85","75","","","","","","","","","","","","","","","",""
"311","
          <p id=""word"" style=""font-size: 40px;"">murple</p>
          <p style=""font-size: 16px;"">J = YES &nbsp;&nbsp;&nbsp; F = NO</p>
        ","j","html-keyboard-response","321","2.1.0","551505","J=YES, F=NO","6hlo3b1hgw","1","80","85","75","","","","","","","","","murple","cinema1","pseudoword","pseudoword","f","false","",""
"null","<p style=""font-size: 50px;"">+</p>","null","html-keyboard-response","322","2.1.0","551817","J=YES, F=NO","6hlo3b1hgw","1","80","85","75","","","","","","","","","","","","","","","",""
"null","audio/beep-329314.mp3","null","audio-keyboard-response","323","2.1.0","553494","J=YES, F=NO","6hlo3b1hgw","1","80","85","75","","","","","","","","","","","","","","","",""
"null","audio/burden.wav","null","audio-keyboard-response","324","2.1.0","553995","J=YES, F=NO","6hlo3b1hgw","1","80","85","75","","","","","","","","","","","","","","","",""
"376","
          <p id=""word"" style=""font-size: 40px;"">carry</p>
          <p style=""font-size: 16px;"">J = YES &nbsp;&nbsp;&nbsp; F = NO</p>
        ","j","html-keyboard-response","325","2.1.0","554371","J=YES, F=NO","6hlo3b1hgw","1","80","85","75","","","","","","","","","carry","burden","metaphor","experimental","j","true","",""
"null","<p style=""font-size: 50px;"">+</p>","null","html-keyboard-response","326","2.1.0","554673","J=YES, F=NO","6hlo3b1hgw","1","80","85","75","","","","","","","","","","","","","","","",""
"null","audio/beep-329314.mp3","null","audio-keyboard-response","327","2.1.0","556334","J=YES, F=NO","6hlo3b1hgw","1","80","85","75","","","","","","","","","","","","","","","",""
"null","audio/table1.wav","null","audio-keyboard-response","328","2.1.0","556814","J=YES, F=NO","6hlo3b1hgw","1","80","85","75","","","","","","","","","","","","","","","",""
"435","
          <p id=""word"" style=""font-size: 40px;"">stimb</p>
          <p style=""font-size: 16px;"">J = YES &nbsp;&nbsp;&nbsp; F = NO</p>
        ","j","html-keyboard-response","329","2.1.0","557250","J=YES, F=NO","6hlo3b1hgw","1","80","85","75","","","","","","","","","stimb","table1","pseudoword","pseudoword","f","false","",""
"null","<p style=""font-size: 50px;"">+</p>","null","html-keyboard-response","330","2.1.0","557565","J=YES, F=NO","6hlo3b1hgw","1","80","85","75","","","","","","","","","","","","","","","",""
"null","audio/beep-329314.mp3","null","audio-keyboard-response","331","2.1.0","559234","J=YES, F=NO","6hlo3b1hgw","1","80","85","75","","","","","","","","","","","","","","","",""
"null","audio/trust.wav","null","audio-keyboard-response","332","2.1.0","559854","J=YES, F=NO","6hlo3b1hgw","1","80","85","75","","","","","","","","","","","","","","","",""
"652","
          <p id=""word"" style=""font-size: 40px;"">swint</p>
          <p style=""font-size: 16px;"">J = YES &nbsp;&nbsp;&nbsp; F = NO</p>
        ","j","html-keyboard-response","333","2.1.0","560507","J=YES, F=NO","6hlo3b1hgw","1","80","85","75","","","","","","","","","swint","trust","pseudoword","pseudoword","f","false","",""
"null","<p style=""font-size: 50px;"">+</p>","null","html-keyboard-response","334","2.1.0","560821","J=YES, F=NO","6hlo3b1hgw","1","80","85","75","","","","","","","","","","","","","","","",""
"null","audio/beep-329314.mp3","null","audio-keyboard-response","335","2.1.0","562494","J=YES, F=NO","6hlo3b1hgw","1","80","85","75","","","","","","","","","","","","","","","",""
"null","audio/cash1.wav","null","audio-keyboard-response","336","2.1.0","563055","J=YES, F=NO","6hlo3b1hgw","1","80","85","75","","","","","","","","","","","","","","","",""
"395","
          <p id=""word"" style=""font-size: 40px;"">splear</p>
          <p style=""font-size: 16px;"">J = YES &nbsp;&nbsp;&nbsp; F = NO</p>
        ","j","html-keyboard-response","337","2.1.0","563450","J=YES, F=NO","6hlo3b1hgw","1","80","85","75","","","","","","","","","splear","cash1","pseudoword","pseudoword","f","false","",""
"null","<p style=""font-size: 50px;"">+</p>","null","html-keyboard-response","338","2.1.0","563757","J=YES, F=NO","6hlo3b1hgw","1","80","85","75","","","","","","","","","","","","","","","",""
"null","audio/beep-329314.mp3","null","audio-keyboard-response","339","2.1.0","565434","J=YES, F=NO","6hlo3b1hgw","1","80","85","75","","","","","","","","","","","","","","","",""
"null","audio/pine.wav","null","audio-keyboard-response","340","2.1.0","565914","J=YES, F=NO","6hlo3b1hgw","1","80","85","75","","","","","","","","","","","","","","","",""
"639","
          <p id=""word"" style=""font-size: 40px;"">crebble</p>
          <p style=""font-size: 16px;"">J = YES &nbsp;&nbsp;&nbsp; F = NO</p>
        ","f","html-keyboard-response","341","2.1.0","566554","J=YES, F=NO","6hlo3b1hgw","1","80","85","75","","","","","","","","","crebble","pine","pseudoword","pseudoword","f","true","",""
"null","<p style=""font-size: 50px;"">+</p>","null","html-keyboard-response","342","2.1.0","566864","J=YES, F=NO","6hlo3b1hgw","1","80","85","75","","","","","","","","","","","","","","","",""
"null","audio/beep-329314.mp3","null","audio-keyboard-response","343","2.1.0","568535","J=YES, F=NO","6hlo3b1hgw","1","80","85","75","","","","","","","","","","","","","","","",""
"null","audio/heart1.wav","null","audio-keyboard-response","344","2.1.0","569154","J=YES, F=NO","6hlo3b1hgw","1","80","85","75","","","","","","","","","","","","","","","",""
"575","
          <p id=""word"" style=""font-size: 40px;"">dralm</p>
          <p style=""font-size: 16px;"">J = YES &nbsp;&nbsp;&nbsp; F = NO</p>
        ","f","html-keyboard-response","345","2.1.0","569730","J=YES, F=NO","6hlo3b1hgw","1","80","85","75","","","","","","","","","dralm","heart1","pseudoword","pseudoword","f","true","",""
"null","<p style=""font-size: 50px;"">+</p>","null","html-keyboard-response","346","2.1.0","570042","J=YES, F=NO","6hlo3b1hgw","1","80","85","75","","","","","","","","","","","","","","","",""
"null","audio/beep-329314.mp3","null","audio-keyboard-response","347","2.1.0","571714","J=YES, F=NO","6hlo3b1hgw","1","80","85","75","","","","","","","","","","","","","","","",""
"null","audio/window1.wav","null","audio-keyboard-response","348","2.1.0","572314","J=YES, F=NO","6hlo3b1hgw","1","80","85","75","","","","","","","","","","","","","","","",""
"583","
          <p id=""word"" style=""font-size: 40px;"">toss</p>
          <p style=""font-size: 16px;"">J = YES &nbsp;&nbsp;&nbsp; F = NO</p>
        ","j","html-keyboard-response","349","2.1.0","572898","J=YES, F=NO","6hlo3b1hgw","1","80","85","75","","","","","","","","","toss","window1","filler","filler","j","true","",""
"null","<p style=""font-size: 50px;"">+</p>","null","html-keyboard-response","350","2.1.0","573207","J=YES, F=NO","6hlo3b1hgw","1","80","85","75","","","","","","","","","","","","","","","",""
"null","audio/beep-329314.mp3","null","audio-keyboard-response","351","2.1.0","574874","J=YES, F=NO","6hlo3b1hgw","1","80","85","75","","","","","","","","","","","","","","","",""
"null","audio/cloud1.wav","null","audio-keyboard-response","352","2.1.0","575414","J=YES, F=NO","6hlo3b1hgw","1","80","85","75","","","","","","","","","","","","","","","",""
"536","
          <p id=""word"" style=""font-size: 40px;"">brotant</p>
          <p style=""font-size: 16px;"">J = YES &nbsp;&nbsp;&nbsp; F = NO</p>
        ","f","html-keyboard-response","353","2.1.0","575950","J=YES, F=NO","6hlo3b1hgw","1","80","85","75","","","","","","","","","brotant","cloud1","pseudoword","pseudoword","f","true","",""
"null","<p style=""font-size: 50px;"">+</p>","null","html-keyboard-response","354","2.1.0","576252","J=YES, F=NO","6hlo3b1hgw","1","80","85","75","","","","","","","","","","","","","","","",""
"null","audio/beep-329314.mp3","null","audio-keyboard-response","355","2.1.0","577914","J=YES, F=NO","6hlo3b1hgw","1","80","85","75","","","","","","","","","","","","","","","",""
"null","audio/fence.wav","null","audio-keyboard-response","356","2.1.0","578554","J=YES, F=NO","6hlo3b1hgw","1","80","85","75","","","","","","","","","","","","","","","",""
"361","
          <p id=""word"" style=""font-size: 40px;"">trim</p>
          <p style=""font-size: 16px;"">J = YES &nbsp;&nbsp;&nbsp; F = NO</p>
        ","j","html-keyboard-response","357","2.1.0","578916","J=YES, F=NO","6hlo3b1hgw","1","80","85","75","","","","","","","","","trim","fence","filler","filler","j","true","",""
"null","<p style=""font-size: 50px;"">+</p>","null","html-keyboard-response","358","2.1.0","579230","J=YES, F=NO","6hlo3b1hgw","1","80","85","75","","","","","","","","","","","","","","","",""
"null","audio/beep-329314.mp3","null","audio-keyboard-response","359","2.1.0","580894","J=YES, F=NO","6hlo3b1hgw","1","80","85","75","","","","","","","","","","","","","","","",""
"null","audio/church1.wav","null","audio-keyboard-response","360","2.1.0","581575","J=YES, F=NO","6hlo3b1hgw","1","80","85","75","","","","","","","","","","","","","","","",""
"352","
          <p id=""word"" style=""font-size: 40px;"">cover</p>
          <p style=""font-size: 16px;"">J = YES &nbsp;&nbsp;&nbsp; F = NO</p>
        ","j","html-keyboard-response","361","2.1.0","581927","J=YES, F=NO","6hlo3b1hgw","1","80","85","75","","","","","","","","","cover","church1","unrelated","experimental","j","true","",""
"2310","<p>Excellent! You have finished block 3 of 8.</p>
                     <p>Feel free to take a 30 second break.</p>
                     <p>Press any key when you're ready to continue.</p>"," ","html-keyboard-response","362","2.1.0","584237","J=YES, F=NO","6hlo3b1hgw","1","80","85","75","","","","","","","","","","","","","","","",""
"6177","<p>Starting main block 4 of 8. Press any key to continue.</p>"," ","html-keyboard-response","363","2.1.0","590414","J=YES, F=NO","6hlo3b1hgw","1","80","85","75","","","","","","","","","","","","","","","",""
"null","<p style=""font-size: 50px;"">+</p>","null","html-keyboard-response","364","2.1.0","590724","J=YES, F=NO","6hlo3b1hgw","1","80","85","75","","","","","","","","","","","","","","","",""
"null","audio/beep-329314.mp3","null","audio-keyboard-response","365","2.1.0","592394","J=YES, F=NO","6hlo3b1hgw","1","80","85","75","","","","","","","","","","","","","","","",""
"null","audio/card1.wav","null","audio-keyboard-response","366","2.1.0","592904","J=YES, F=NO","6hlo3b1hgw","1","80","85","75","","","","","","","","","","","","","","","",""
"385","
          <p id=""word"" style=""font-size: 40px;"">land</p>
          <p style=""font-size: 16px;"">J = YES &nbsp;&nbsp;&nbsp; F = NO</p>
        ","j","html-keyboard-response","367","2.1.0","593289","J=YES, F=NO","6hlo3b1hgw","1","80","85","75","","","","","","","","","land","card1","unrelated","experimental","j","true","",""
"null","<p style=""font-size: 50px;"">+</p>","null","html-keyboard-response","368","2.1.0","593598","J=YES, F=NO","6hlo3b1hgw","1","80","85","75","","","","","","","","","","","","","","","",""
"null","audio/beep-329314.mp3","null","audio-keyboard-response","369","2.1.0","595274","J=YES, F=NO","6hlo3b1hgw","1","80","85","75","","","","","","","","","","","","","","","",""
"null","audio/novel.wav","null","audio-keyboard-response","370","2.1.0","595764","J=YES, F=NO","6hlo3b1hgw","1","80","85","75","","","","","","","","","","","","","","","",""
"377","
          <p id=""word"" style=""font-size: 40px;"">devour</p>
          <p style=""font-size: 16px;"">J = YES &nbsp;&nbsp;&nbsp; F = NO</p>
        ","j","html-keyboard-response","371","2.1.0","596141","J=YES, F=NO","6hlo3b1hgw","1","80","85","75","","","","","","","","","devour","novel","metaphor","experimental","j","true","",""
"null","<p style=""font-size: 50px;"">+</p>","null","html-keyboard-response","372","2.1.0","596446","J=YES, F=NO","6hlo3b1hgw","1","80","85","75","","","","","","","","","","","","","","","",""
"null","audio/beep-329314.mp3","null","audio-keyboard-response","373","2.1.0","598115","J=YES, F=NO","6hlo3b1hgw","1","80","85","75","","","","","","","","","","","","","","","",""
"null","audio/neck.wav","null","audio-keyboard-response","374","2.1.0","598644","J=YES, F=NO","6hlo3b1hgw","1","80","85","75","","","","","","","","","","","","","","","",""
"443","
          <p id=""word"" style=""font-size: 40px;"">werling</p>
          <p style=""font-size: 16px;"">J = YES &nbsp;&nbsp;&nbsp; F = NO</p>
        ","j","html-keyboard-response","375","2.1.0","599088","J=YES, F=NO","6hlo3b1hgw","1","80","85","75","","","","","","","","","werling","neck","pseudoword","pseudoword","f","false","",""
"null","<p style=""font-size: 50px;"">+</p>","null","html-keyboard-response","376","2.1.0","599400","J=YES, F=NO","6hlo3b1hgw","1","80","85","75","","","","","","","","","","","","","","","",""
"null","audio/beep-329314.mp3","null","audio-keyboard-response","377","2.1.0","601074","J=YES, F=NO","6hlo3b1hgw","1","80","85","75","","","","","","","","","","","","","","","",""
"null","audio/scar.wav","null","audio-keyboard-response","378","2.1.0","601644","J=YES, F=NO","6hlo3b1hgw","1","80","85","75","","","","","","","","","","","","","","","",""
"551","
          <p id=""word"" style=""font-size: 40px;"">adelineate</p>
          <p style=""font-size: 16px;"">J = YES &nbsp;&nbsp;&nbsp; F = NO</p>
        ","f","html-keyboard-response","379","2.1.0","602196","J=YES, F=NO","6hlo3b1hgw","1","80","85","75","","","","","","","","","adelineate","scar","pseudoword","pseudoword","f","true","",""
"null","<p style=""font-size: 50px;"">+</p>","null","html-keyboard-response","380","2.1.0","602509","J=YES, F=NO","6hlo3b1hgw","1","80","85","75","","","","","","","","","","","","","","","",""
"null","audio/beep-329314.mp3","null","audio-keyboard-response","381","2.1.0","604175","J=YES, F=NO","6hlo3b1hgw","1","80","85","75","","","","","","","","","","","","","","","",""
"null","audio/vehicle1.wav","null","audio-keyboard-response","382","2.1.0","604804","J=YES, F=NO","6hlo3b1hgw","1","80","85","75","","","","","","","","","","","","","","","",""
"382","
          <p id=""word"" style=""font-size: 40px;"">dropt</p>
          <p style=""font-size: 16px;"">J = YES &nbsp;&nbsp;&nbsp; F = NO</p>
        ","j","html-keyboard-response","383","2.1.0","605187","J=YES, F=NO","6hlo3b1hgw","1","80","85","75","","","","","","","","","dropt","vehicle1","pseudoword","pseudoword","f","false","",""
"null","<p style=""font-size: 50px;"">+</p>","null","html-keyboard-response","384","2.1.0","605498","J=YES, F=NO","6hlo3b1hgw","1","80","85","75","","","","","","","","","","","","","","","",""
"null","audio/beep-329314.mp3","null","audio-keyboard-response","385","2.1.0","607174","J=YES, F=NO","6hlo3b1hgw","1","80","85","75","","","","","","","","","","","","","","","",""
"null","audio/cancer1.wav","null","audio-keyboard-response","386","2.1.0","607704","J=YES, F=NO","6hlo3b1hgw","1","80","85","75","","","","","","","","","","","","","","","",""
"474","
          <p id=""word"" style=""font-size: 40px;"">fight</p>
          <p style=""font-size: 16px;"">J = YES &nbsp;&nbsp;&nbsp; F = NO</p>
        ","j","html-keyboard-response","387","2.1.0","608179","J=YES, F=NO","6hlo3b1hgw","1","80","85","75","","","","","","","","","fight","cancer1","metaphor","experimental","j","true","",""
"null","<p style=""font-size: 50px;"">+</p>","null","html-keyboard-response","388","2.1.0","608483","J=YES, F=NO","6hlo3b1hgw","1","80","85","75","","","","","","","","","","","","","","","",""
"null","audio/beep-329314.mp3","null","audio-keyboard-response","389","2.1.0","610155","J=YES, F=NO","6hlo3b1hgw","1","80","85","75","","","","","","","","","","","","","","","",""
"null","audio/theory1.wav","null","audio-keyboard-response","390","2.1.0","610785","J=YES, F=NO","6hlo3b1hgw","1","80","85","75","","","","","","","","","","","","","","","",""
"599","
          <p id=""word"" style=""font-size: 40px;"">scolve</p>
          <p style=""font-size: 16px;"">J = YES &nbsp;&nbsp;&nbsp; F = NO</p>
