"rt","stimulus","response","trial_type","trial_index","plugin_version","time_elapsed","response_mapping","subject_id","list_index","lextale_score","lextale_word_score","lextale_nonword_score","success","timeout","failed_images","failed_audio","failed_video","task","isWord","isDummy","target","prime","prime_type","stimulus_type","correct_response","correct","section","question_order"
"4637","
    <div style=""max-width: 800px; margin: auto; text-align: left;"">
      <h2>STANFORD UNIVERSITY</h2>
      <h3>Research Information Sheet</h3>
      <p><strong>Protocol Director:</strong> Robert Hawkins<br>
      <strong>Protocol Title:</strong> Communication and social cognition in natural audiovisual contexts<br>
      <strong>IRB#:</strong> 77226</p>

      <p><strong>DESCRIPTION:</strong> You are invited to participate in a research study about language and communication. The purpose of the research is to understand how you interact and communicate with other people in naturalistic settings as a fluent English speaker. This research will be conducted through the Prolific platform, including participants from the US, UK, and Canada. If you decide to participate in this research, you will play a communication game in a group with one or more partners.</p>

      <p><strong>TIME INVOLVEMENT:</strong> The task will last the amount of time advertised on Prolific. You are free to withdraw from the study at any time.</p>

      <p><strong>RISKS AND BENEFITS:</strong> You may become frustrated if your partner gets distracted, or experience discomfort if other participants in your group send text that is inappropriate for the task. We ask you to please be respectful of other participants you might be interacting with to mitigate these risks. You may also experience discomfort when being asked to discuss or challenge emotionally salient political beliefs. Study data will be stored securely, in compliance with Stanford University standards, minimizing the risk of confidentiality breach. This study advances our scientific understanding of how people communicate and collaborate in naturalistic settings. This study may lead to further insights about what can go wrong in teamwork, suggest potential interventions to overcome these barriers, and help to develop assistive technologies that collaborate with human partners. We cannot and do not guarantee or promise that you will receive any benefits from this study.</p>

      <p><strong>PAYMENTS:</strong> You will receive payment in the amount advertised on Prolific. If you do not complete this study, you will receive prorated payment based on the time that you have spent. Additionally, you may be eligible for bonus payments as described in the instructions.</p>

      <p><strong>PARTICIPANT’S RIGHTS:</strong> If you have read this form and have decided to participate in this project, please understand your participation is voluntary and you have the right to withdraw your consent or discontinue participation at any time without penalty or loss of benefits to which you are otherwise entitled. The alternative is not to participate. You have the right to refuse to answer particular questions. The results of this research study may be presented at scientific or professional meetings or published in scientific journals. Your individual privacy will be maintained in all published and written data resulting from the study. In accordance with scientific norms, the data from this study may be used or shared with other researchers for future research (after removing personally identifying information) without additional consent from you.</p>

      <p><strong>CONTACT INFORMATION:</strong><br>
      Questions: If you have any questions, concerns or complaints about this research, its procedures, risks and benefits, contact the Protocol Director, Robert Hawkins (<a href=""mailto:rdhawkins@stanford.edu"">rdhawkins@stanford.edu</a>, 217-549-6923).<br>
      Independent Contact: If you are not satisfied with how this study is being conducted, or if you have any concerns, complaints, or general questions about the research or your rights as a participant, please contact the Stanford Institutional Review Board (IRB) to speak to someone independent of the research team at 650-723-2480 or toll free at 1-866-680-2906, or email at <a href=""mailto:irbnon-med@stanford.edu"">irbnon-med@stanford.edu</a>. You can also write to the Stanford IRB, Stanford University, 1705 El Camino Real, Palo Alto, CA 94306.</p>

      <p><strong>Please save or print a copy of this page for your records.</strong></p>
      <p>If you agree to participate in this research, click ""Continue"" below.</p>
    </div>
  ","0","html-button-response","0","2.1.0","4645","J=YES, F=NO","6hsadd66tr","1","75","70","80","","","","","","","","","","","","","","","",""
"12805","
    <div style=""max-width: 800px; margin: auto; text-align: left;"">
      <h2>Welcome!</h2>
      <p>Thank you for participating in this study. The experiment consists of three parts:</p>
      <ol>
        <li>An English vocabulary test</li>
        <li>A main task in which you will hear and see words, and decide whether the written word is a real English word</li>
        <li>A brief survey about your background</li>
      </ol>
      <p>Each part will be introduced before it begins.</p>
      <p>Please make sure you are in a quiet environment and can hear audio clearly for the final task.</p>
      <p style=""margin-top: 2em;"">Press any key to begin.</p>
    </div>
  "," ","html-keyboard-response","1","2.1.0","17452","J=YES, F=NO","6hsadd66tr","1","75","70","80","","","","","","","","","","","","","","","",""
"","","","preload","2","2.1.0","17764","J=YES, F=NO","6hsadd66tr","1","75","70","80","true","false","[]","[]","[]","","","","","","","","","","",""
"17569","
    <div style=""max-width: 800px; margin: auto; text-align: left;"">
      <h2>Part 1: Vocabulary Test</h2>
      <p>You will now complete the first part of the study: a short English vocabulary test.</p>
      <p>This test is called <strong>LexTALE</strong> and helps us get a general sense of your English proficiency.</p>
      <p style=""margin-top: 2em;"">Press any key to continue.</p>
    </div>
  "," ","html-keyboard-response","3","2.1.0","35333","J=YES, F=NO","6hsadd66tr","1","75","70","80","","","","","","","","","","","","","","","",""
"18627","
    <div style=""max-width: 800px; margin: auto; text-align: left;"">
      <h2>LexTALE Vocabulary Test</h2>
      <p>In this test, you will see a series of letter strings—one at a time.</p>
      <p>Your task is to decide whether each string is a real English word.</p>
      <p><strong>Key responses:</strong></p>
      <ul>
        <li><strong>J</strong> = YES (real English word)</li>
        <li><strong>F</strong> = NO (not a real English word)</li>
      </ul>
      <p>There is no time limit, but please try to be accurate.</p>
      <p style=""margin-top: 2em;"">Press any key to begin.</p>
    </div>
  "," ","html-keyboard-response","4","2.1.0","53961","J=YES, F=NO","6hsadd66tr","1","75","70","80","","","","","","","","","","","","","","","",""
"3088","
  <p style=""font-size: 40px;"">platery</p>
  <p style=""font-size: 16px;"">J = YES &nbsp;&nbsp;&nbsp; F = NO</p>
","j","html-keyboard-response","5","2.1.0","57050","J=YES, F=NO","6hsadd66tr","1","75","70","80","","","","","","lextale","false","true","","","","","","","",""
"1396","
  <p style=""font-size: 40px;"">denial</p>
  <p style=""font-size: 16px;"">J = YES &nbsp;&nbsp;&nbsp; F = NO</p>
","j","html-keyboard-response","6","2.1.0","58448","J=YES, F=NO","6hsadd66tr","1","75","70","80","","","","","","lextale","true","true","","","","","","","",""
"5023","
  <p style=""font-size: 40px;"">marrit</p>
  <p style=""font-size: 16px;"">J = YES &nbsp;&nbsp;&nbsp; F = NO</p>
","f","html-keyboard-response","7","2.1.0","63471","J=YES, F=NO","6hsadd66tr","1","75","70","80","","","","","","lextale","false","true","","","","","","","",""
"1079","
  <p style=""font-size: 40px;"">bottle</p>
  <p style=""font-size: 16px;"">J = YES &nbsp;&nbsp;&nbsp; F = NO</p>
","j","html-keyboard-response","8","2.1.0","64552","J=YES, F=NO","6hsadd66tr","1","75","70","80","","","","","","lextale","true","false","","","","","","","",""
"2025","
  <p style=""font-size: 40px;"">birst</p>
  <p style=""font-size: 16px;"">J = YES &nbsp;&nbsp;&nbsp; F = NO</p>
","f","html-keyboard-response","9","2.1.0","66578","J=YES, F=NO","6hsadd66tr","1","75","70","80","","","","","","lextale","false","false","","","","","","","",""
"884","
  <p style=""font-size: 40px;"">envy</p>
  <p style=""font-size: 16px;"">J = YES &nbsp;&nbsp;&nbsp; F = NO</p>
","j","html-keyboard-response","10","2.1.0","67463","J=YES, F=NO","6hsadd66tr","1","75","70","80","","","","","","lextale","true","false","","","","","","","",""
"1815","
  <p style=""font-size: 40px;"">brang</p>
  <p style=""font-size: 16px;"">J = YES &nbsp;&nbsp;&nbsp; F = NO</p>
","j","html-keyboard-response","11","2.1.0","69279","J=YES, F=NO","6hsadd66tr","1","75","70","80","","","","","","lextale","false","false","","","","","","","",""
"821","
  <p style=""font-size: 40px;"">huge</p>
  <p style=""font-size: 16px;"">J = YES &nbsp;&nbsp;&nbsp; F = NO</p>
","j","html-keyboard-response","12","2.1.0","70101","J=YES, F=NO","6hsadd66tr","1","75","70","80","","","","","","lextale","true","false","","","","","","","",""
"1093","
  <p style=""font-size: 40px;"">plove</p>
  <p style=""font-size: 16px;"">J = YES &nbsp;&nbsp;&nbsp; F = NO</p>
","f","html-keyboard-response","13","2.1.0","71195","J=YES, F=NO","6hsadd66tr","1","75","70","80","","","","","","lextale","false","false","","","","","","","",""
"752","
  <p style=""font-size: 40px;"">border</p>
  <p style=""font-size: 16px;"">J = YES &nbsp;&nbsp;&nbsp; F = NO</p>
","j","html-keyboard-response","14","2.1.0","71948","J=YES, F=NO","6hsadd66tr","1","75","70","80","","","","","","lextale","true","false","","","","","","","",""
"1153","
  <p style=""font-size: 40px;"">flimsy</p>
  <p style=""font-size: 16px;"">J = YES &nbsp;&nbsp;&nbsp; F = NO</p>
","j","html-keyboard-response","15","2.1.0","73102","J=YES, F=NO","6hsadd66tr","1","75","70","80","","","","","","lextale","true","false","","","","","","","",""
"1003","
  <p style=""font-size: 40px;"">drain</p>
  <p style=""font-size: 16px;"">J = YES &nbsp;&nbsp;&nbsp; F = NO</p>
","j","html-keyboard-response","16","2.1.0","74106","J=YES, F=NO","6hsadd66tr","1","75","70","80","","","","","","lextale","true","false","","","","","","","",""
"1127","
  <p style=""font-size: 40px;"">twindle</p>
  <p style=""font-size: 16px;"">J = YES &nbsp;&nbsp;&nbsp; F = NO</p>
","f","html-keyboard-response","17","2.1.0","75234","J=YES, F=NO","6hsadd66tr","1","75","70","80","","","","","","lextale","false","false","","","","","","","",""
"838","
  <p style=""font-size: 40px;"">propose</p>
  <p style=""font-size: 16px;"">J = YES &nbsp;&nbsp;&nbsp; F = NO</p>
","j","html-keyboard-response","18","2.1.0","76072","J=YES, F=NO","6hsadd66tr","1","75","70","80","","","","","","lextale","true","false","","","","","","","",""
"1859","
  <p style=""font-size: 40px;"">forlay</p>
  <p style=""font-size: 16px;"">J = YES &nbsp;&nbsp;&nbsp; F = NO</p>
","f","html-keyboard-response","19","2.1.0","77933","J=YES, F=NO","6hsadd66tr","1","75","70","80","","","","","","lextale","false","false","","","","","","","",""
"2247","
  <p style=""font-size: 40px;"">tenant</p>
  <p style=""font-size: 16px;"">J = YES &nbsp;&nbsp;&nbsp; F = NO</p>
","j","html-keyboard-response","20","2.1.0","80181","J=YES, F=NO","6hsadd66tr","1","75","70","80","","","","","","lextale","true","false","","","","","","","",""
"886","
  <p style=""font-size: 40px;"">strain</p>
  <p style=""font-size: 16px;"">J = YES &nbsp;&nbsp;&nbsp; F = NO</p>
","j","html-keyboard-response","21","2.1.0","81069","J=YES, F=NO","6hsadd66tr","1","75","70","80","","","","","","lextale","true","false","","","","","","","",""
"2594","
  <p style=""font-size: 40px;"">holster</p>
  <p style=""font-size: 16px;"">J = YES &nbsp;&nbsp;&nbsp; F = NO</p>
","j","html-keyboard-response","22","2.1.0","83667","J=YES, F=NO","6hsadd66tr","1","75","70","80","","","","","","lextale","true","false","","","","","","","",""
"1153","
  <p style=""font-size: 40px;"">hinder</p>
  <p style=""font-size: 16px;"">J = YES &nbsp;&nbsp;&nbsp; F = NO</p>
","f","html-keyboard-response","23","2.1.0","84822","J=YES, F=NO","6hsadd66tr","1","75","70","80","","","","","","lextale","true","false","","","","","","","",""
"2533","
  <p style=""font-size: 40px;"">swindle</p>
  <p style=""font-size: 16px;"">J = YES &nbsp;&nbsp;&nbsp; F = NO</p>
","f","html-keyboard-response","24","2.1.0","87360","J=YES, F=NO","6hsadd66tr","1","75","70","80","","","","","","lextale","true","false","","","","","","","",""
"1095","
  <p style=""font-size: 40px;"">nuder</p>
  <p style=""font-size: 16px;"">J = YES &nbsp;&nbsp;&nbsp; F = NO</p>
","f","html-keyboard-response","25","2.1.0","88457","J=YES, F=NO","6hsadd66tr","1","75","70","80","","","","","","lextale","false","false","","","","","","","",""
"855","
  <p style=""font-size: 40px;"">pillow</p>
  <p style=""font-size: 16px;"">J = YES &nbsp;&nbsp;&nbsp; F = NO</p>
","j","html-keyboard-response","26","2.1.0","89314","J=YES, F=NO","6hsadd66tr","1","75","70","80","","","","","","lextale","true","false","","","","","","","",""
"985","
  <p style=""font-size: 40px;"">shumble</p>
  <p style=""font-size: 16px;"">J = YES &nbsp;&nbsp;&nbsp; F = NO</p>
","f","html-keyboard-response","27","2.1.0","90301","J=YES, F=NO","6hsadd66tr","1","75","70","80","","","","","","lextale","false","false","","","","","","","",""
"991","
  <p style=""font-size: 40px;"">thirst</p>
  <p style=""font-size: 16px;"">J = YES &nbsp;&nbsp;&nbsp; F = NO</p>
","j","html-keyboard-response","28","2.1.0","91294","J=YES, F=NO","6hsadd66tr","1","75","70","80","","","","","","lextale","true","false","","","","","","","",""
"1695","
  <p style=""font-size: 40px;"">unsail</p>
  <p style=""font-size: 16px;"">J = YES &nbsp;&nbsp;&nbsp; F = NO</p>
","f","html-keyboard-response","29","2.1.0","92991","J=YES, F=NO","6hsadd66tr","1","75","70","80","","","","","","lextale","false","false","","","","","","","",""
"2113","
  <p style=""font-size: 40px;"">rifle</p>
  <p style=""font-size: 16px;"">J = YES &nbsp;&nbsp;&nbsp; F = NO</p>
","j","html-keyboard-response","30","2.1.0","95107","J=YES, F=NO","6hsadd66tr","1","75","70","80","","","","","","lextale","true","false","","","","","","","",""
"1187","
  <p style=""font-size: 40px;"">mush</p>
  <p style=""font-size: 16px;"">J = YES &nbsp;&nbsp;&nbsp; F = NO</p>
","j","html-keyboard-response","31","2.1.0","96295","J=YES, F=NO","6hsadd66tr","1","75","70","80","","","","","","lextale","false","false","","","","","","","",""
"1186","
  <p style=""font-size: 40px;"">drench</p>
  <p style=""font-size: 16px;"">J = YES &nbsp;&nbsp;&nbsp; F = NO</p>
","j","html-keyboard-response","32","2.1.0","97483","J=YES, F=NO","6hsadd66tr","1","75","70","80","","","","","","lextale","true","false","","","","","","","",""
"819","
  <p style=""font-size: 40px;"">snirt</p>
  <p style=""font-size: 16px;"">J = YES &nbsp;&nbsp;&nbsp; F = NO</p>
","f","html-keyboard-response","33","2.1.0","98303","J=YES, F=NO","6hsadd66tr","1","75","70","80","","","","","","lextale","false","false","","","","","","","",""
"720","
  <p style=""font-size: 40px;"">bitter</p>
  <p style=""font-size: 16px;"">J = YES &nbsp;&nbsp;&nbsp; F = NO</p>
","j","html-keyboard-response","34","2.1.0","99024","J=YES, F=NO","6hsadd66tr","1","75","70","80","","","","","","lextale","true","false","","","","","","","",""
"2866","
  <p style=""font-size: 40px;"">pliff</p>
  <p style=""font-size: 16px;"">J = YES &nbsp;&nbsp;&nbsp; F = NO</p>
","f","html-keyboard-response","35","2.1.0","101893","J=YES, F=NO","6hsadd66tr","1","75","70","80","","","","","","lextale","false","false","","","","","","","",""
"643","
  <p style=""font-size: 40px;"">tablet</p>
  <p style=""font-size: 16px;"">J = YES &nbsp;&nbsp;&nbsp; F = NO</p>
","j","html-keyboard-response","36","2.1.0","102538","J=YES, F=NO","6hsadd66tr","1","75","70","80","","","","","","lextale","true","false","","","","","","","",""
"4349","
  <p style=""font-size: 40px;"">glimmer</p>
  <p style=""font-size: 16px;"">J = YES &nbsp;&nbsp;&nbsp; F = NO</p>
","f","html-keyboard-response","37","2.1.0","106889","J=YES, F=NO","6hsadd66tr","1","75","70","80","","","","","","lextale","true","false","","","","","","","",""
"2804","
  <p style=""font-size: 40px;"">slink</p>
  <p style=""font-size: 16px;"">J = YES &nbsp;&nbsp;&nbsp; F = NO</p>
","f","html-keyboard-response","38","2.1.0","109695","J=YES, F=NO","6hsadd66tr","1","75","70","80","","","","","","lextale","true","false","","","","","","","",""
"808","
  <p style=""font-size: 40px;"">clever</p>
  <p style=""font-size: 16px;"">J = YES &nbsp;&nbsp;&nbsp; F = NO</p>
","j","html-keyboard-response","39","2.1.0","110505","J=YES, F=NO","6hsadd66tr","1","75","70","80","","","","","","lextale","true","false","","","","","","","",""
"840","
  <p style=""font-size: 40px;"">grum</p>
  <p style=""font-size: 16px;"">J = YES &nbsp;&nbsp;&nbsp; F = NO</p>
","f","html-keyboard-response","40","2.1.0","111346","J=YES, F=NO","6hsadd66tr","1","75","70","80","","","","","","lextale","false","false","","","","","","","",""
"705","
  <p style=""font-size: 40px;"">string</p>
  <p style=""font-size: 16px;"">J = YES &nbsp;&nbsp;&nbsp; F = NO</p>
","j","html-keyboard-response","41","2.1.0","112053","J=YES, F=NO","6hsadd66tr","1","75","70","80","","","","","","lextale","true","false","","","","","","","",""
"820","
  <p style=""font-size: 40px;"">plim</p>
  <p style=""font-size: 16px;"">J = YES &nbsp;&nbsp;&nbsp; F = NO</p>
","f","html-keyboard-response","42","2.1.0","112874","J=YES, F=NO","6hsadd66tr","1","75","70","80","","","","","","lextale","false","false","","","","","","","",""
"586","
  <p style=""font-size: 40px;"">cable</p>
  <p style=""font-size: 16px;"">J = YES &nbsp;&nbsp;&nbsp; F = NO</p>
","j","html-keyboard-response","43","2.1.0","113461","J=YES, F=NO","6hsadd66tr","1","75","70","80","","","","","","lextale","true","false","","","","","","","",""
"780","
  <p style=""font-size: 40px;"">shrivel</p>
  <p style=""font-size: 16px;"">J = YES &nbsp;&nbsp;&nbsp; F = NO</p>
","f","html-keyboard-response","44","2.1.0","114243","J=YES, F=NO","6hsadd66tr","1","75","70","80","","","","","","lextale","true","false","","","","","","","",""
"1318","
  <p style=""font-size: 40px;"">tarnish</p>
  <p style=""font-size: 16px;"">J = YES &nbsp;&nbsp;&nbsp; F = NO</p>
","j","html-keyboard-response","45","2.1.0","115562","J=YES, F=NO","6hsadd66tr","1","75","70","80","","","","","","lextale","true","false","","","","","","","",""
"1527","
  <p style=""font-size: 40px;"">blim</p>
  <p style=""font-size: 16px;"">J = YES &nbsp;&nbsp;&nbsp; F = NO</p>
","f","html-keyboard-response","46","2.1.0","117090","J=YES, F=NO","6hsadd66tr","1","75","70","80","","","","","","lextale","false","false","","","","","","","",""
"765","
  <p style=""font-size: 40px;"">stifle</p>
  <p style=""font-size: 16px;"">J = YES &nbsp;&nbsp;&nbsp; F = NO</p>
","f","html-keyboard-response","47","2.1.0","117856","J=YES, F=NO","6hsadd66tr","1","75","70","80","","","","","","lextale","true","false","","","","","","","",""
"1728","
  <p style=""font-size: 40px;"">bint</p>
  <p style=""font-size: 16px;"">J = YES &nbsp;&nbsp;&nbsp; F = NO</p>
","f","html-keyboard-response","48","2.1.0","119585","J=YES, F=NO","6hsadd66tr","1","75","70","80","","","","","","lextale","false","false","","","","","","","",""
"760","
  <p style=""font-size: 40px;"">purple</p>
  <p style=""font-size: 16px;"">J = YES &nbsp;&nbsp;&nbsp; F = NO</p>
","j","html-keyboard-response","49","2.1.0","120346","J=YES, F=NO","6hsadd66tr","1","75","70","80","","","","","","lextale","true","false","","","","","","","",""
"1575","
  <p style=""font-size: 40px;"">wriggle</p>
  <p style=""font-size: 16px;"">J = YES &nbsp;&nbsp;&nbsp; F = NO</p>
","j","html-keyboard-response","50","2.1.0","121922","J=YES, F=NO","6hsadd66tr","1","75","70","80","","","","","","lextale","true","false","","","","","","","",""
"1049","
  <p style=""font-size: 40px;"">mangle</p>
  <p style=""font-size: 16px;"">J = YES &nbsp;&nbsp;&nbsp; F = NO</p>
","j","html-keyboard-response","51","2.1.0","122972","J=YES, F=NO","6hsadd66tr","1","75","70","80","","","","","","lextale","true","false","","","","","","","",""
"1665","
  <p style=""font-size: 40px;"">shramp</p>
  <p style=""font-size: 16px;"">J = YES &nbsp;&nbsp;&nbsp; F = NO</p>
","f","html-keyboard-response","52","2.1.0","124638","J=YES, F=NO","6hsadd66tr","1","75","70","80","","","","","","lextale","false","false","","","","","","","",""
"1110","
  <p style=""font-size: 40px;"">flirt</p>
  <p style=""font-size: 16px;"">J = YES &nbsp;&nbsp;&nbsp; F = NO</p>
","j","html-keyboard-response","53","2.1.0","125750","J=YES, F=NO","6hsadd66tr","1","75","70","80","","","","","","lextale","true","false","","","","","","","",""
"1106","
  <p style=""font-size: 40px;"">frip</p>
  <p style=""font-size: 16px;"">J = YES &nbsp;&nbsp;&nbsp; F = NO</p>
","f","html-keyboard-response","54","2.1.0","126856","J=YES, F=NO","6hsadd66tr","1","75","70","80","","","","","","lextale","false","false","","","","","","","",""
"872","
  <p style=""font-size: 40px;"">tangle</p>
  <p style=""font-size: 16px;"">J = YES &nbsp;&nbsp;&nbsp; F = NO</p>
","j","html-keyboard-response","55","2.1.0","127729","J=YES, F=NO","6hsadd66tr","1","75","70","80","","","","","","lextale","true","false","","","","","","","",""
"841","
  <p style=""font-size: 40px;"">crumble</p>
  <p style=""font-size: 16px;"">J = YES &nbsp;&nbsp;&nbsp; F = NO</p>
","j","html-keyboard-response","56","2.1.0","128571","J=YES, F=NO","6hsadd66tr","1","75","70","80","","","","","","lextale","true","false","","","","","","","",""
"954","
  <p style=""font-size: 40px;"">wrinkle</p>
  <p style=""font-size: 16px;"">J = YES &nbsp;&nbsp;&nbsp; F = NO</p>
","j","html-keyboard-response","57","2.1.0","129526","J=YES, F=NO","6hsadd66tr","1","75","70","80","","","","","","lextale","true","false","","","","","","","",""
"1744","
  <p style=""font-size: 40px;"">slumb</p>
  <p style=""font-size: 16px;"">J = YES &nbsp;&nbsp;&nbsp; F = NO</p>
","j","html-keyboard-response","58","2.1.0","131271","J=YES, F=NO","6hsadd66tr","1","75","70","80","","","","","","lextale","false","false","","","","","","","",""
"775","
  <p style=""font-size: 40px;"">jungle</p>
  <p style=""font-size: 16px;"">J = YES &nbsp;&nbsp;&nbsp; F = NO</p>
","j","html-keyboard-response","59","2.1.0","132047","J=YES, F=NO","6hsadd66tr","1","75","70","80","","","","","","lextale","true","false","","","","","","","",""
"751","
  <p style=""font-size: 40px;"">frolick</p>
  <p style=""font-size: 16px;"">J = YES &nbsp;&nbsp;&nbsp; F = NO</p>
","f","html-keyboard-response","60","2.1.0","132799","J=YES, F=NO","6hsadd66tr","1","75","70","80","","","","","","lextale","false","false","","","","","","","",""
"2323","
      <h2>LexTALE Test Completed</h2>
      <p>Your LexTALE vocabulary score is: <strong>75%</strong></p>
      <p>Press any key to continue.</p>
    "," ","html-keyboard-response","61","2.1.0","135124","J=YES, F=NO","6hsadd66tr","1","75","70","80","","","","","","","","","","","","","","","",""
"22062","
    <div style=""max-width: 800px; margin: auto; text-align: left;"">
      <h2>Break Time</h2>
      <p>You have completed the first part of the study.</p>
      <p>You may take a short <strong>30-second break</strong> before continuing.</p>
      <p>When you’re ready, press any key to continue to the final task.</p>
    </div>
  "," ","html-keyboard-response","62","2.1.0","157189","J=YES, F=NO","6hsadd66tr","1","75","70","80","","","","","","","","","","","","","","","",""
"6811","
    <div style=""max-width: 800px; margin: auto; text-align: left;"">
      <h2>Part 2: Lexical Decision Task</h2>
      <p>You will now begin the second part of the study.</p>
      <p>Each trial will follow this sequence:</p>
      <ul>
        <li>A fixation cross (+) appears at the center of the screen.</li>
        <li>You will hear a short beep followed by a spoken word.</li>
        <li>A written word will appear briefly on the screen.</li>
      </ul>
      <p>Your task is to judge whether the <strong>written word</strong> is a real English word.</p>
      <p style=""margin-top: 1em;""><strong>Key responses:</strong></p>
      <ul>
        <li><strong>J</strong> = YES (real English word)</li>
        <li><strong>F</strong> = NO (not a real English word)</li>
      </ul>
      <p>Please respond as quickly and accurately as you can.</p>
      <p style=""margin-top: 2em;"">Press any key to continue.</p>
    </div>
  "," ","html-keyboard-response","63","2.1.0","164001","J=YES, F=NO","6hsadd66tr","1","75","70","80","","","","","","","","","","","","","","","",""
"3132","
    <div style=""max-width: 800px; margin: auto; text-align: left;"">
      <h2>Before You Begin</h2>
      <p>Make sure your sound is turned on.</p>
      <p>You will hear audio during each trial, but your decision should be based only on the <strong>written word</strong> you see on the screen.</p>
      <p><strong>Reminder:</strong></p>
      <ul>
        <li><strong>J</strong> = YES (real English word)</li>
        <li><strong>F</strong> = NO (not a real English word)</li>
      </ul>
      <p style=""margin-top: 2em;"">Press any key when you are ready to begin.</p>
    </div>
  "," ","html-keyboard-response","64","2.1.0","167134","J=YES, F=NO","6hsadd66tr","1","75","70","80","","","","","","","","","","","","","","","",""
"2551","
    <div style=""max-width: 800px; margin: auto; text-align: left;"">
      <h2>Part 2: Practice Trials</h2>
      <p>You will now complete a few <strong>practice trials</strong> to get familiar with the task.</p>
      <p>These trials are <strong>not scored</strong> and are only to help you get used to the format.</p>
      <p style=""margin-top: 2em;"">Press any key to begin.</p>
    </div>
  "," ","html-keyboard-response","65","2.1.0","169686","J=YES, F=NO","6hsadd66tr","1","75","70","80","","","","","","","","","","","","","","","",""
"1963","<p>Starting practice block 1 of 2. Press any key to continue.</p>"," ","html-keyboard-response","66","2.1.0","171650","J=YES, F=NO","6hsadd66tr","1","75","70","80","","","","","","","","","","","","","","","",""
"null","<p style=""font-size: 50px;"">+</p>","null","html-keyboard-response","67","2.1.0","171953","J=YES, F=NO","6hsadd66tr","1","75","70","80","","","","","","","","","","","","","","","",""
"null","audio/beep-329314.mp3","null","audio-keyboard-response","68","2.1.0","173484","J=YES, F=NO","6hsadd66tr","1","75","70","80","","","","","","","","","","","","","","","",""
"null","audio/foe1.wav","null","audio-keyboard-response","69","2.1.0","173952","J=YES, F=NO","6hsadd66tr","1","75","70","80","","","","","","","","","","","","","","","",""
"null","
          <p id=""word"" style=""font-size: 40px;"">creth</p>
          <p style=""font-size: 16px;"">J = YES &nbsp;&nbsp;&nbsp; F = NO</p>
        ","null","html-keyboard-response","70","2.1.0","175455","J=YES, F=NO","6hsadd66tr","1","75","70","80","","","","","","","","","creth","foe1","pseudoword","pseudoword","f","false","",""
"null","<p style=""font-size: 50px;"">+</p>","null","html-keyboard-response","71","2.1.0","175758","J=YES, F=NO","6hsadd66tr","1","75","70","80","","","","","","","","","","","","","","","",""
"null","audio/beep-329314.mp3","null","audio-keyboard-response","72","2.1.0","177280","J=YES, F=NO","6hsadd66tr","1","75","70","80","","","","","","","","","","","","","","","",""
"null","audio/show.wav","null","audio-keyboard-response","73","2.1.0","177835","J=YES, F=NO","6hsadd66tr","1","75","70","80","","","","","","","","","","","","","","","",""
"null","
          <p id=""word"" style=""font-size: 40px;"">smark</p>
          <p style=""font-size: 16px;"">J = YES &nbsp;&nbsp;&nbsp; F = NO</p>
        ","null","html-keyboard-response","74","2.1.0","179338","J=YES, F=NO","6hsadd66tr","1","75","70","80","","","","","","","","","smark","show","pseudoword","pseudoword","f","false","",""
"null","<p style=""font-size: 50px;"">+</p>","null","html-keyboard-response","75","2.1.0","179640","J=YES, F=NO","6hsadd66tr","1","75","70","80","","","","","","","","","","","","","","","",""
"null","audio/beep-329314.mp3","null","audio-keyboard-response","76","2.1.0","181163","J=YES, F=NO","6hsadd66tr","1","75","70","80","","","","","","","","","","","","","","","",""
"null","audio/relief.wav","null","audio-keyboard-response","77","2.1.0","181846","J=YES, F=NO","6hsadd66tr","1","75","70","80","","","","","","","","","","","","","","","",""
"573","
          <p id=""word"" style=""font-size: 40px;"">grigg</p>
          <p style=""font-size: 16px;"">J = YES &nbsp;&nbsp;&nbsp; F = NO</p>
        ","j","html-keyboard-response","78","2.1.0","182420","J=YES, F=NO","6hsadd66tr","1","75","70","80","","","","","","","","","grigg","relief","pseudoword","pseudoword","f","false","",""
"null","<p style=""font-size: 50px;"">+</p>","null","html-keyboard-response","79","2.1.0","182723","J=YES, F=NO","6hsadd66tr","1","75","70","80","","","","","","","","","","","","","","","",""
"null","audio/beep-329314.mp3","null","audio-keyboard-response","80","2.1.0","184257","J=YES, F=NO","6hsadd66tr","1","75","70","80","","","","","","","","","","","","","","","",""
"null","audio/birth1.wav","null","audio-keyboard-response","81","2.1.0","184811","J=YES, F=NO","6hsadd66tr","1","75","70","80","","","","","","","","","","","","","","","",""
"459","
          <p id=""word"" style=""font-size: 40px;"">peel</p>
          <p style=""font-size: 16px;"">J = YES &nbsp;&nbsp;&nbsp; F = NO</p>
        ","f","html-keyboard-response","82","2.1.0","185271","J=YES, F=NO","6hsadd66tr","1","75","70","80","","","","","","","","","peel","birth1","filler","filler","j","false","",""
"null","<p style=""font-size: 50px;"">+</p>","null","html-keyboard-response","83","2.1.0","185573","J=YES, F=NO","6hsadd66tr","1","75","70","80","","","","","","","","","","","","","","","",""
"null","audio/beep-329314.mp3","null","audio-keyboard-response","84","2.1.0","187094","J=YES, F=NO","6hsadd66tr","1","75","70","80","","","","","","","","","","","","","","","",""
"null","audio/alarm1.wav","null","audio-keyboard-response","85","2.1.0","187670","J=YES, F=NO","6hsadd66tr","1","75","70","80","","","","","","","","","","","","","","","",""
"193","
          <p id=""word"" style=""font-size: 40px;"">lock</p>
          <p style=""font-size: 16px;"">J = YES &nbsp;&nbsp;&nbsp; F = NO</p>
        ","j","html-keyboard-response","86","2.1.0","187863","J=YES, F=NO","6hsadd66tr","1","75","70","80","","","","","","","","","lock","alarm1","filler","filler","j","true","",""
"null","<p style=""font-size: 50px;"">+</p>","null","html-keyboard-response","87","2.1.0","188165","J=YES, F=NO","6hsadd66tr","1","75","70","80","","","","","","","","","","","","","","","",""
"null","audio/beep-329314.mp3","null","audio-keyboard-response","88","2.1.0","189696","J=YES, F=NO","6hsadd66tr","1","75","70","80","","","","","","","","","","","","","","","",""
"null","audio/cancer1.wav","null","audio-keyboard-response","89","2.1.0","190293","J=YES, F=NO","6hsadd66tr","1","75","70","80","","","","","","","","","","","","","","","",""
"null","
          <p id=""word"" style=""font-size: 40px;"">draw</p>
          <p style=""font-size: 16px;"">J = YES &nbsp;&nbsp;&nbsp; F = NO</p>
        ","null","html-keyboard-response","90","2.1.0","191796","J=YES, F=NO","6hsadd66tr","1","75","70","80","","","","","","","","","draw","cancer1","filler","filler","j","false","",""
"null","<p style=""font-size: 50px;"">+</p>","null","html-keyboard-response","91","2.1.0","192099","J=YES, F=NO","6hsadd66tr","1","75","70","80","","","","","","","","","","","","","","","",""
"null","audio/beep-329314.mp3","null","audio-keyboard-response","92","2.1.0","193622","J=YES, F=NO","6hsadd66tr","1","75","70","80","","","","","","","","","","","","","","","",""
"null","audio/client1.wav","null","audio-keyboard-response","93","2.1.0","194326","J=YES, F=NO","6hsadd66tr","1","75","70","80","","","","","","","","","","","","","","","",""
"364","
          <p id=""word"" style=""font-size: 40px;"">droothe</p>
          <p style=""font-size: 16px;"">J = YES &nbsp;&nbsp;&nbsp; F = NO</p>
        ","j","html-keyboard-response","94","2.1.0","194691","J=YES, F=NO","6hsadd66tr","1","75","70","80","","","","","","","","","droothe","client1","pseudoword","pseudoword","f","false","",""
"null","<p style=""font-size: 50px;"">+</p>","null","html-keyboard-response","95","2.1.0","194994","J=YES, F=NO","6hsadd66tr","1","75","70","80","","","","","","","","","","","","","","","",""
"null","audio/beep-329314.mp3","null","audio-keyboard-response","96","2.1.0","196523","J=YES, F=NO","6hsadd66tr","1","75","70","80","","","","","","","","","","","","","","","",""
"null","audio/bush1.wav","null","audio-keyboard-response","97","2.1.0","196992","J=YES, F=NO","6hsadd66tr","1","75","70","80","","","","","","","","","","","","","","","",""
"427","
          <p id=""word"" style=""font-size: 40px;"">platined</p>
          <p style=""font-size: 16px;"">J = YES &nbsp;&nbsp;&nbsp; F = NO</p>
        ","f","html-keyboard-response","98","2.1.0","197421","J=YES, F=NO","6hsadd66tr","1","75","70","80","","","","","","","","","platined","bush1","pseudoword","pseudoword","f","true","",""
"null","<p style=""font-size: 50px;"">+</p>","null","html-keyboard-response","99","2.1.0","197723","J=YES, F=NO","6hsadd66tr","1","75","70","80","","","","","","","","","","","","","","","",""
"null","audio/beep-329314.mp3","null","audio-keyboard-response","100","2.1.0","199254","J=YES, F=NO","6hsadd66tr","1","75","70","80","","","","","","","","","","","","","","","",""
"null","audio/mouth1.wav","null","audio-keyboard-response","101","2.1.0","199851","J=YES, F=NO","6hsadd66tr","1","75","70","80","","","","","","","","","","","","","","","",""
"268","
          <p id=""word"" style=""font-size: 40px;"">spolial</p>
          <p style=""font-size: 16px;"">J = YES &nbsp;&nbsp;&nbsp; F = NO</p>
        ","j","html-keyboard-response","102","2.1.0","200121","J=YES, F=NO","6hsadd66tr","1","75","70","80","","","","","","","","","spolial","mouth1","pseudoword","pseudoword","f","false","",""
"null","<p style=""font-size: 50px;"">+</p>","null","html-keyboard-response","103","2.1.0","200423","J=YES, F=NO","6hsadd66tr","1","75","70","80","","","","","","","","","","","","","","","",""
"null","audio/beep-329314.mp3","null","audio-keyboard-response","104","2.1.0","201942","J=YES, F=NO","6hsadd66tr","1","75","70","80","","","","","","","","","","","","","","","",""
"null","audio/account1.wav","null","audio-keyboard-response","105","2.1.0","202625","J=YES, F=NO","6hsadd66tr","1","75","70","80","","","","","","","","","","","","","","","",""
"254","
          <p id=""word"" style=""font-size: 40px;"">paint</p>
          <p style=""font-size: 16px;"">J = YES &nbsp;&nbsp;&nbsp; F = NO</p>
        ","f","html-keyboard-response","106","2.1.0","202880","J=YES, F=NO","6hsadd66tr","1","75","70","80","","","","","","","","","paint","account1","filler","filler","j","false","",""
"null","<p style=""font-size: 50px;"">+</p>","null","html-keyboard-response","107","2.1.0","203182","J=YES, F=NO","6hsadd66tr","1","75","70","80","","","","","","","","","","","","","","","",""
"null","audio/beep-329314.mp3","null","audio-keyboard-response","108","2.1.0","204715","J=YES, F=NO","6hsadd66tr","1","75","70","80","","","","","","","","","","","","","","","",""
"null","audio/bishop1.wav","null","audio-keyboard-response","109","2.1.0","205334","J=YES, F=NO","6hsadd66tr","1","75","70","80","","","","","","","","","","","","","","","",""
"276","
          <p id=""word"" style=""font-size: 40px;"">play</p>
          <p style=""font-size: 16px;"">J = YES &nbsp;&nbsp;&nbsp; F = NO</p>
        ","j","html-keyboard-response","110","2.1.0","205611","J=YES, F=NO","6hsadd66tr","1","75","70","80","","","","","","","","","play","bishop1","filler","filler","j","true","",""
"null","<p style=""font-size: 50px;"">+</p>","null","html-keyboard-response","111","2.1.0","205913","J=YES, F=NO","6hsadd66tr","1","75","70","80","","","","","","","","","","","","","","","",""
"null","audio/beep-329314.mp3","null","audio-keyboard-response","112","2.1.0","207446","J=YES, F=NO","6hsadd66tr","1","75","70","80","","","","","","","","","","","","","","","",""
"null","audio/battle1.wav","null","audio-keyboard-response","113","2.1.0","207915","J=YES, F=NO","6hsadd66tr","1","75","70","80","","","","","","","","","","","","","","","",""
"214","
          <p id=""word"" style=""font-size: 40px;"">boil</p>
          <p style=""font-size: 16px;"">J = YES &nbsp;&nbsp;&nbsp; F = NO</p>
        ","j","html-keyboard-response","114","2.1.0","208130","J=YES, F=NO","6hsadd66tr","1","75","70","80","","","","","","","","","boil","battle1","filler","filler","j","true","",""
"2746","<p>Starting practice block 2 of 2. Press any key to continue.</p>"," ","html-keyboard-response","115","2.1.0","210876","J=YES, F=NO","6hsadd66tr","1","75","70","80","","","","","","","","","","","","","","","",""
"null","<p style=""font-size: 50px;"">+</p>","null","html-keyboard-response","116","2.1.0","211179","J=YES, F=NO","6hsadd66tr","1","75","70","80","","","","","","","","","","","","","","","",""
"null","audio/beep-329314.mp3","null","audio-keyboard-response","117","2.1.0","212715","J=YES, F=NO","6hsadd66tr","1","75","70","80","","","","","","","","","","","","","","","",""
"null","audio/haste1.wav","null","audio-keyboard-response","118","2.1.0","213292","J=YES, F=NO","6hsadd66tr","1","75","70","80","","","","","","","","","","","","","","","",""
"253","
          <p id=""word"" style=""font-size: 40px;"">coraconate</p>
          <p style=""font-size: 16px;"">J = YES &nbsp;&nbsp;&nbsp; F = NO</p>
        ","j","html-keyboard-response","119","2.1.0","213546","J=YES, F=NO","6hsadd66tr","1","75","70","80","","","","","","","","","coraconate","haste1","pseudoword","pseudoword","f","false","",""
"null","<p style=""font-size: 50px;"">+</p>","null","html-keyboard-response","120","2.1.0","213849","J=YES, F=NO","6hsadd66tr","1","75","70","80","","","","","","","","","","","","","","","",""
"null","audio/beep-329314.mp3","null","audio-keyboard-response","121","2.1.0","215382","J=YES, F=NO","6hsadd66tr","1","75","70","80","","","","","","","","","","","","","","","",""
"null","audio/trout1.wav","null","audio-keyboard-response","122","2.1.0","215958","J=YES, F=NO","6hsadd66tr","1","75","70","80","","","","","","","","","","","","","","","",""
"437","
          <p id=""word"" style=""font-size: 40px;"">spimt</p>
          <p style=""font-size: 16px;"">J = YES &nbsp;&nbsp;&nbsp; F = NO</p>
        ","f","html-keyboard-response","123","2.1.0","216396","J=YES, F=NO","6hsadd66tr","1","75","70","80","","","","","","","","","spimt","trout1","pseudoword","pseudoword","f","true","",""
"null","<p style=""font-size: 50px;"">+</p>","null","html-keyboard-response","124","2.1.0","216698","J=YES, F=NO","6hsadd66tr","1","75","70","80","","","","","","","","","","","","","","","",""
"null","audio/beep-329314.mp3","null","audio-keyboard-response","125","2.1.0","218219","J=YES, F=NO","6hsadd66tr","1","75","70","80","","","","","","","","","","","","","","","",""
"null","audio/smirk1.wav","null","audio-keyboard-response","126","2.1.0","218923","J=YES, F=NO","6hsadd66tr","1","75","70","80","","","","","","","","","","","","","","","",""
"291","
          <p id=""word"" style=""font-size: 40px;"">snopt</p>
          <p style=""font-size: 16px;"">J = YES &nbsp;&nbsp;&nbsp; F = NO</p>
        ","j","html-keyboard-response","127","2.1.0","219215","J=YES, F=NO","6hsadd66tr","1","75","70","80","","","","","","","","","snopt","smirk1","pseudoword","pseudoword","f","false","",""
"null","<p style=""font-size: 50px;"">+</p>","null","html-keyboard-response","128","2.1.0","219518","J=YES, F=NO","6hsadd66tr","1","75","70","80","","","","","","","","","","","","","","","",""
"null","audio/beep-329314.mp3","null","audio-keyboard-response","129","2.1.0","221057","J=YES, F=NO","6hsadd66tr","1","75","70","80","","","","","","","","","","","","","","","",""
"null","audio/arm.wav","null","audio-keyboard-response","130","2.1.0","221569","J=YES, F=NO","6hsadd66tr","1","75","70","80","","","","","","","","","","","","","","","",""
"464","
          <p id=""word"" style=""font-size: 40px;"">fold</p>
          <p style=""font-size: 16px;"">J = YES &nbsp;&nbsp;&nbsp; F = NO</p>
        ","j","html-keyboard-response","131","2.1.0","222034","J=YES, F=NO","6hsadd66tr","1","75","70","80","","","","","","","","","fold","arm","filler","filler","j","true","",""
"null","<p style=""font-size: 50px;"">+</p>","null","html-keyboard-response","132","2.1.0","222336","J=YES, F=NO","6hsadd66tr","1","75","70","80","","","","","","","","","","","","","","","",""
"null","audio/beep-329314.mp3","null","audio-keyboard-response","133","2.1.0","223873","J=YES, F=NO","6hsadd66tr","1","75","70","80","","","","","","","","","","","","","","","",""
"null","audio/baby.wav","null","audio-keyboard-response","134","2.1.0","224321","J=YES, F=NO","6hsadd66tr","1","75","70","80","","","","","","","","","","","","","","","",""
"547","
          <p id=""word"" style=""font-size: 40px;"">lift</p>
          <p style=""font-size: 16px;"">J = YES &nbsp;&nbsp;&nbsp; F = NO</p>
        ","j","html-keyboard-response","135","2.1.0","224869","J=YES, F=NO","6hsadd66tr","1","75","70","80","","","","","","","","","lift","baby","filler","filler","j","true","",""
"null","<p style=""font-size: 50px;"">+</p>","null","html-keyboard-response","136","2.1.0","225172","J=YES, F=NO","6hsadd66tr","1","75","70","80","","","","","","","","","","","","","","","",""
"null","audio/beep-329314.mp3","null","audio-keyboard-response","137","2.1.0","226710","J=YES, F=NO","6hsadd66tr","1","75","70","80","","","","","","","","","","","","","","","",""
"null","audio/sand.wav","null","audio-keyboard-response","138","2.1.0","227606","J=YES, F=NO","6hsadd66tr","1","75","70","80","","","","","","","","","","","","","","","",""
"446","
          <p id=""word"" style=""font-size: 40px;"">proted</p>
          <p style=""font-size: 16px;"">J = YES &nbsp;&nbsp;&nbsp; F = NO</p>
        ","j","html-keyboard-response","139","2.1.0","228052","J=YES, F=NO","6hsadd66tr","1","75","70","80","","","","","","","","","proted","sand","pseudoword","pseudoword","f","false","",""
"null","<p style=""font-size: 50px;"">+</p>","null","html-keyboard-response","140","2.1.0","228354","J=YES, F=NO","6hsadd66tr","1","75","70","80","","","","","","","","","","","","","","","",""
"null","audio/beep-329314.mp3","null","audio-keyboard-response","141","2.1.0","229889","J=YES, F=NO","6hsadd66tr","1","75","70","80","","","","","","","","","","","","","","","",""
"null","audio/brain.wav","null","audio-keyboard-response","142","2.1.0","230401","J=YES, F=NO","6hsadd66tr","1","75","70","80","","","","","","","","","","","","","","","",""
"395","
          <p id=""word"" style=""font-size: 40px;"">throw</p>
          <p style=""font-size: 16px;"">J = YES &nbsp;&nbsp;&nbsp; F = NO</p>
        ","j","html-keyboard-response","143","2.1.0","230797","J=YES, F=NO","6hsadd66tr","1","75","70","80","","","","","","","","","throw","brain","filler","filler","j","true","",""
"null","<p style=""font-size: 50px;"">+</p>","null","html-keyboard-response","144","2.1.0","231099","J=YES, F=NO","6hsadd66tr","1","75","70","80","","","","","","","","","","","","","","","",""
"null","audio/beep-329314.mp3","null","audio-keyboard-response","145","2.1.0","232619","J=YES, F=NO","6hsadd66tr","1","75","70","80","","","","","","","","","","","","","","","",""
"null","audio/mind.wav","null","audio-keyboard-response","146","2.1.0","233217","J=YES, F=NO","6hsadd66tr","1","75","70","80","","","","","","","","","","","","","","","",""
"295","
          <p id=""word"" style=""font-size: 40px;"">crainate</p>
          <p style=""font-size: 16px;"">J = YES &nbsp;&nbsp;&nbsp; F = NO</p>
        ","f","html-keyboard-response","147","2.1.0","233513","J=YES, F=NO","6hsadd66tr","1","75","70","80","","","","","","","","","crainate","mind","pseudoword","pseudoword","f","true","",""
"null","<p style=""font-size: 50px;"">+</p>","null","html-keyboard-response","148","2.1.0","233815","J=YES, F=NO","6hsadd66tr","1","75","70","80","","","","","","","","","","","","","","","",""
"null","audio/beep-329314.mp3","null","audio-keyboard-response","149","2.1.0","235350","J=YES, F=NO","6hsadd66tr","1","75","70","80","","","","","","","","","","","","","","","",""
"null","audio/van1.wav","null","audio-keyboard-response","150","2.1.0","235819","J=YES, F=NO","6hsadd66tr","1","75","70","80","","","","","","","","","","","","","","","",""
"330","
          <p id=""word"" style=""font-size: 40px;"">push</p>
          <p style=""font-size: 16px;"">J = YES &nbsp;&nbsp;&nbsp; F = NO</p>
        ","j","html-keyboard-response","151","2.1.0","236151","J=YES, F=NO","6hsadd66tr","1","75","70","80","","","","","","","","","push","van1","filler","filler","j","true","",""
"null","<p style=""font-size: 50px;"">+</p>","null","html-keyboard-response","152","2.1.0","236453","J=YES, F=NO","6hsadd66tr","1","75","70","80","","","","","","","","","","","","","","","",""
"null","audio/beep-329314.mp3","null","audio-keyboard-response","153","2.1.0","237974","J=YES, F=NO","6hsadd66tr","1","75","70","80","","","","","","","","","","","","","","","",""
"null","audio/window1.wav","null","audio-keyboard-response","154","2.1.0","238571","J=YES, F=NO","6hsadd66tr","1","75","70","80","","","","","","","","","","","","","","","",""
"567","
          <p id=""word"" style=""font-size: 40px;"">toss</p>
          <p style=""font-size: 16px;"">J = YES &nbsp;&nbsp;&nbsp; F = NO</p>
        ","f","html-keyboard-response","155","2.1.0","239140","J=YES, F=NO","6hsadd66tr","1","75","70","80","","","","","","","","","toss","window1","filler","filler","j","false","",""
"null","<p style=""font-size: 50px;"">+</p>","null","html-keyboard-response","156","2.1.0","239442","J=YES, F=NO","6hsadd66tr","1","75","70","80","","","","","","","","","","","","","","","",""
"null","audio/beep-329314.mp3","null","audio-keyboard-response","157","2.1.0","240961","J=YES, F=NO","6hsadd66tr","1","75","70","80","","","","","","","","","","","","","","","",""
"null","audio/bomb1.wav","null","audio-keyboard-response","158","2.1.0","241323","J=YES, F=NO","6hsadd66tr","1","75","70","80","","","","","","","","","","","","","","","",""
"322","
          <p id=""word"" style=""font-size: 40px;"">clean</p>
          <p style=""font-size: 16px;"">J = YES &nbsp;&nbsp;&nbsp; F = NO</p>
        ","j","html-keyboard-response","159","2.1.0","241647","J=YES, F=NO","6hsadd66tr","1","75","70","80","","","","","","","","","clean","bomb1","filler","filler","j","true","",""
"null","<p style=""font-size: 50px;"">+</p>","null","html-keyboard-response","160","2.1.0","241949","J=YES, F=NO","6hsadd66tr","1","75","70","80","","","","","","","","","","","","","","","",""
"null","audio/beep-329314.mp3","null","audio-keyboard-response","161","2.1.0","243478","J=YES, F=NO","6hsadd66tr","1","75","70","80","","","","","","","","","","","","","","","",""
"null","audio/truth1.wav","null","audio-keyboard-response","162","2.1.0","244054","J=YES, F=NO","6hsadd66tr","1","75","70","80","","","","","","","","","","","","","","","",""
"454","
          <p id=""word"" style=""font-size: 40px;"">calitom</p>
          <p style=""font-size: 16px;"">J = YES &nbsp;&nbsp;&nbsp; F = NO</p>
        ","j","html-keyboard-response","163","2.1.0","244509","J=YES, F=NO","6hsadd66tr","1","75","70","80","","","","","","","","","calitom","truth1","pseudoword","pseudoword","f","false","",""
"7797","
    <div style=""max-width: 800px; margin: auto; text-align: left;"">
      <h2>Part 2: Main Trials</h2>
      <p>Great job on the practice trials!</p>
      <p>You will now begin the <strong>main set of trials</strong>.</p>
      <p>Remember your key assignments:</p>
      <ul>
        <li><strong>J</strong> = YES (real English word)</li>
        <li><strong>F</strong> = NO (not a real English word)</li>
      </ul>
      <p>Try to respond as <strong>quickly and accurately</strong> as possible.</p>
      <p style=""margin-top: 2em;"">Press any key to begin the main trials.</p>
    </div>
  "," ","html-keyboard-response","164","2.1.0","252307","J=YES, F=NO","6hsadd66tr","1","75","70","80","","","","","","","","","","","","","","","",""
"3676","<p>Starting main block 1 of 8. Press any key to continue.</p>"," ","html-keyboard-response","165","2.1.0","255983","J=YES, F=NO","6hsadd66tr","1","75","70","80","","","","","","","","","","","","","","","",""
"null","<p style=""font-size: 50px;"">+</p>","null","html-keyboard-response","166","2.1.0","256286","J=YES, F=NO","6hsadd66tr","1","75","70","80","","","","","","","","","","","","","","","",""
"null","audio/beep-329314.mp3","null","audio-keyboard-response","167","2.1.0","257809","J=YES, F=NO","6hsadd66tr","1","75","70","80","","","","","","","","","","","","","","","",""
"null","audio/planet1.wav","null","audio-keyboard-response","168","2.1.0","258556","J=YES, F=NO","6hsadd66tr","1","75","70","80","","","","","","","","","","","","","","","",""
"323","
          <p id=""word"" style=""font-size: 40px;"">cratched</p>
          <p style=""font-size: 16px;"">J = YES &nbsp;&nbsp;&nbsp; F = NO</p>
        ","j","html-keyboard-response","169","2.1.0","258880","J=YES, F=NO","6hsadd66tr","1","75","70","80","","","","","","","","","cratched","planet1","pseudoword","pseudoword","f","false","",""
"null","<p style=""font-size: 50px;"">+</p>","null","html-keyboard-response","170","2.1.0","259183","J=YES, F=NO","6hsadd66tr","1","75","70","80","","","","","","","","","","","","","","","",""
"null","audio/beep-329314.mp3","null","audio-keyboard-response","171","2.1.0","260711","J=YES, F=NO","6hsadd66tr","1","75","70","80","","","","","","","","","","","","","","","",""
"null","audio/survey1.wav","null","audio-keyboard-response","172","2.1.0","261606","J=YES, F=NO","6hsadd66tr","1","75","70","80","","","","","","","","","","","","","","","",""
"237","
          <p id=""word"" style=""font-size: 40px;"">release</p>
          <p style=""font-size: 16px;"">J = YES &nbsp;&nbsp;&nbsp; F = NO</p>
        ","j","html-keyboard-response","173","2.1.0","261844","J=YES, F=NO","6hsadd66tr","1","75","70","80","","","","","","","","","release","survey1","metaphor","experimental","j","true","",""
"null","<p style=""font-size: 50px;"">+</p>","null","html-keyboard-response","174","2.1.0","262146","J=YES, F=NO","6hsadd66tr","1","75","70","80","","","","","","","","","","","","","","","",""
"null","audio/beep-329314.mp3","null","audio-keyboard-response","175","2.1.0","263676","J=YES, F=NO","6hsadd66tr","1","75","70","80","","","","","","","","","","","","","","","",""
"null","audio/bridge.wav","null","audio-keyboard-response","176","2.1.0","264361","J=YES, F=NO","6hsadd66tr","1","75","70","80","","","","","","","","","","","","","","","",""
"558","
          <p id=""word"" style=""font-size: 40px;"">crack</p>
          <p style=""font-size: 16px;"">J = YES &nbsp;&nbsp;&nbsp; F = NO</p>
        ","f","html-keyboard-response","177","2.1.0","264921","J=YES, F=NO","6hsadd66tr","1","75","70","80","","","","","","","","","crack","bridge","filler","filler","j","false","",""
"null","<p style=""font-size: 50px;"">+</p>","null","html-keyboard-response","178","2.1.0","265223","J=YES, F=NO","6hsadd66tr","1","75","70","80","","","","","","","","","","","","","","","",""
"null","audio/beep-329314.mp3","null","audio-keyboard-response","179","2.1.0","266748","J=YES, F=NO","6hsadd66tr","1","75","70","80","","","","","","","","","","","","","","","",""
"null","audio/scar.wav","null","audio-keyboard-response","180","2.1.0","267516","J=YES, F=NO","6hsadd66tr","1","75","70","80","","","","","","","","","","","","","","","",""
"811","
          <p id=""word"" style=""font-size: 40px;"">adelineate</p>
          <p style=""font-size: 16px;"">J = YES &nbsp;&nbsp;&nbsp; F = NO</p>
        ","f","html-keyboard-response","181","2.1.0","268328","J=YES, F=NO","6hsadd66tr","1","75","70","80","","","","","","","","","adelineate","scar","pseudoword","pseudoword","f","true","",""
"null","<p style=""font-size: 50px;"">+</p>","null","html-keyboard-response","182","2.1.0","268631","J=YES, F=NO","6hsadd66tr","1","75","70","80","","","","","","","","","","","","","","","",""
"null","audio/beep-329314.mp3","null","audio-keyboard-response","183","2.1.0","270161","J=YES, F=NO","6hsadd66tr","1","75","70","80","","","","","","","","","","","","","","","",""
"null","audio/ego.wav","null","audio-keyboard-response","184","2.1.0","270865","J=YES, F=NO","6hsadd66tr","1","75","70","80","","","","","","","","","","","","","","","",""
"686","
          <p id=""word"" style=""font-size: 40px;"">feed</p>
          <p style=""font-size: 16px;"">J = YES &nbsp;&nbsp;&nbsp; F = NO</p>
        ","j","html-keyboard-response","185","2.1.0","271553","J=YES, F=NO","6hsadd66tr","1","75","70","80","","","","","","","","","feed","ego","metaphor","experimental","j","true","",""
"null","<p style=""font-size: 50px;"">+</p>","null","html-keyboard-response","186","2.1.0","271856","J=YES, F=NO","6hsadd66tr","1","75","70","80","","","","","","","","","","","","","","","",""
"null","audio/beep-329314.mp3","null","audio-keyboard-response","187","2.1.0","273383","J=YES, F=NO","6hsadd66tr","1","75","70","80","","","","","","","","","","","","","","","",""
"null","audio/butter1.wav","null","audio-keyboard-response","188","2.1.0","274001","J=YES, F=NO","6hsadd66tr","1","75","70","80","","","","","","","","","","","","","","","",""
"564","
          <p id=""word"" style=""font-size: 40px;"">chew</p>
          <p style=""font-size: 16px;"">J = YES &nbsp;&nbsp;&nbsp; F = NO</p>
        ","j","html-keyboard-response","189","2.1.0","274567","J=YES, F=NO","6hsadd66tr","1","75","70","80","","","","","","","","","chew","butter1","filler","filler","j","true","",""
"null","<p style=""font-size: 50px;"">+</p>","null","html-keyboard-response","190","2.1.0","274869","J=YES, F=NO","6hsadd66tr","1","75","70","80","","","","","","","","","","","","","","","",""
"null","audio/beep-329314.mp3","null","audio-keyboard-response","191","2.1.0","276391","J=YES, F=NO","6hsadd66tr","1","75","70","80","","","","","","","","","","","","","","","",""
"null","audio/planet1.wav","null","audio-keyboard-response","192","2.1.0","276988","J=YES, F=NO","6hsadd66tr","1","75","70","80","","","","","","","","","","","","","","","",""
"457","
          <p id=""word"" style=""font-size: 40px;"">save</p>
          <p style=""font-size: 16px;"">J = YES &nbsp;&nbsp;&nbsp; F = NO</p>
        ","j","html-keyboard-response","193","2.1.0","277446","J=YES, F=NO","6hsadd66tr","1","75","70","80","","","","","","","","","save","planet1","metaphor","experimental","j","true","",""
"null","<p style=""font-size: 50px;"">+</p>","null","html-keyboard-response","194","2.1.0","277748","J=YES, F=NO","6hsadd66tr","1","75","70","80","","","","","","","","","","","","","","","",""
"null","audio/beep-329314.mp3","null","audio-keyboard-response","195","2.1.0","279271","J=YES, F=NO","6hsadd66tr","1","75","70","80","","","","","","","","","","","","","","","",""
"null","audio/noise1.wav","null","audio-keyboard-response","196","2.1.0","280039","J=YES, F=NO","6hsadd66tr","1","75","70","80","","","","","","","","","","","","","","","",""
"525","
          <p id=""word"" style=""font-size: 40px;"">build</p>
          <p style=""font-size: 16px;"">J = YES &nbsp;&nbsp;&nbsp; F = NO</p>
        ","j","html-keyboard-response","197","2.1.0","280565","J=YES, F=NO","6hsadd66tr","1","75","70","80","","","","","","","","","build","noise1","unrelated","experimental","j","true","",""
"null","<p style=""font-size: 50px;"">+</p>","null","html-keyboard-response","198","2.1.0","280867","J=YES, F=NO","6hsadd66tr","1","75","70","80","","","","","","","","","","","","","","","",""
"null","audio/beep-329314.mp3","null","audio-keyboard-response","199","2.1.0","282385","J=YES, F=NO","6hsadd66tr","1","75","70","80","","","","","","","","","","","","","","","",""
"null","audio/beach1.wav","null","audio-keyboard-response","200","2.1.0","283132","J=YES, F=NO","6hsadd66tr","1","75","70","80","","","","","","","","","","","","","","","",""
"509","
          <p id=""word"" style=""font-size: 40px;"">drive</p>
          <p style=""font-size: 16px;"">J = YES &nbsp;&nbsp;&nbsp; F = NO</p>
        ","j","html-keyboard-response","201","2.1.0","283642","J=YES, F=NO","6hsadd66tr","1","75","70","80","","","","","","","","","drive","beach1","filler","filler","j","true","",""
"null","<p style=""font-size: 50px;"">+</p>","null","html-keyboard-response","202","2.1.0","283944","J=YES, F=NO","6hsadd66tr","1","75","70","80","","","","","","","","","","","","","","","",""
"null","audio/beep-329314.mp3","null","audio-keyboard-response","203","2.1.0","285479","J=YES, F=NO","6hsadd66tr","1","75","70","80","","","","","","","","","","","","","","","",""
"null","audio/alarm1.wav","null","audio-keyboard-response","204","2.1.0","286055","J=YES, F=NO","6hsadd66tr","1","75","70","80","","","","","","","","","","","","","","","",""
"614","
          <p id=""word"" style=""font-size: 40px;"">swetp</p>
          <p style=""font-size: 16px;"">J = YES &nbsp;&nbsp;&nbsp; F = NO</p>
        ","f","html-keyboard-response","205","2.1.0","286670","J=YES, F=NO","6hsadd66tr","1","75","70","80","","","","","","","","","swetp","alarm1","pseudoword","pseudoword","f","true","",""
"null","<p style=""font-size: 50px;"">+</p>","null","html-keyboard-response","206","2.1.0","286973","J=YES, F=NO","6hsadd66tr","1","75","70","80","","","","","","","","","","","","","","","",""
"null","audio/beep-329314.mp3","null","audio-keyboard-response","207","2.1.0","288508","J=YES, F=NO","6hsadd66tr","1","75","70","80","","","","","","","","","","","","","","","",""
"null","audio/pain1.wav","null","audio-keyboard-response","208","2.1.0","288935","J=YES, F=NO","6hsadd66tr","1","75","70","80","","","","","","","","","","","","","","","",""
"542","
          <p id=""word"" style=""font-size: 40px;"">sell</p>
          <p style=""font-size: 16px;"">J = YES &nbsp;&nbsp;&nbsp; F = NO</p>
        ","j","html-keyboard-response","209","2.1.0","289479","J=YES, F=NO","6hsadd66tr","1","75","70","80","","","","","","","","","sell","pain1","unrelated","experimental","j","true","",""
"null","<p style=""font-size: 50px;"">+</p>","null","html-keyboard-response","210","2.1.0","289780","J=YES, F=NO","6hsadd66tr","1","75","70","80","","","","","","","","","","","","","","","",""
"null","audio/beep-329314.mp3","null","audio-keyboard-response","211","2.1.0","291303","J=YES, F=NO","6hsadd66tr","1","75","70","80","","","","","","","","","","","","","","","",""
"null","audio/emotion.wav","null","audio-keyboard-response","212","2.1.0","291986","J=YES, F=NO","6hsadd66tr","1","75","70","80","","","","","","","","","","","","","","","",""
"399","
          <p id=""word"" style=""font-size: 40px;"">devering</p>
          <p style=""font-size: 16px;"">J = YES &nbsp;&nbsp;&nbsp; F = NO</p>
        ","j","html-keyboard-response","213","2.1.0","292385","J=YES, F=NO","6hsadd66tr","1","75","70","80","","","","","","","","","devering","emotion","pseudoword","pseudoword","f","false","",""
"null","<p style=""font-size: 50px;"">+</p>","null","html-keyboard-response","214","2.1.0","292688","J=YES, F=NO","6hsadd66tr","1","75","70","80","","","","","","","","","","","","","","","",""
"null","audio/beep-329314.mp3","null","audio-keyboard-response","215","2.1.0","294226","J=YES, F=NO","6hsadd66tr","1","75","70","80","","","","","","","","","","","","","","","",""
"null","audio/ship.wav","null","audio-keyboard-response","216","2.1.0","294737","J=YES, F=NO","6hsadd66tr","1","75","70","80","","","","","","","","","","","","","","","",""
"525","
          <p id=""word"" style=""font-size: 40px;"">scrap</p>
          <p style=""font-size: 16px;"">J = YES &nbsp;&nbsp;&nbsp; F = NO</p>
        ","f","html-keyboard-response","217","2.1.0","295263","J=YES, F=NO","6hsadd66tr","1","75","70","80","","","","","","","","","scrap","ship","literal","experimental","j","false","",""
"null","<p style=""font-size: 50px;"">+</p>","null","html-keyboard-response","218","2.1.0","295565","J=YES, F=NO","6hsadd66tr","1","75","70","80","","","","","","","","","","","","","","","",""
"null","audio/beep-329314.mp3","null","audio-keyboard-response","219","2.1.0","297084","J=YES, F=NO","6hsadd66tr","1","75","70","80","","","","","","","","","","","","","","","",""
"null","audio/test1.wav","null","audio-keyboard-response","220","2.1.0","297660","J=YES, F=NO","6hsadd66tr","1","75","70","80","","","","","","","","","","","","","","","",""
"350","
          <p id=""word"" style=""font-size: 40px;"">twopch</p>
          <p style=""font-size: 16px;"">J = YES &nbsp;&nbsp;&nbsp; F = NO</p>
        ","j","html-keyboard-response","221","2.1.0","298012","J=YES, F=NO","6hsadd66tr","1","75","70","80","","","","","","","","","twopch","test1","pseudoword","pseudoword","f","false","",""
"null","<p style=""font-size: 50px;"">+</p>","null","html-keyboard-response","222","2.1.0","298314","J=YES, F=NO","6hsadd66tr","1","75","70","80","","","","","","","","","","","","","","","",""
"null","audio/beep-329314.mp3","null","audio-keyboard-response","223","2.1.0","299836","J=YES, F=NO","6hsadd66tr","1","75","70","80","","","","","","","","","","","","","","","",""
"null","audio/revenue1.wav","null","audio-keyboard-response","224","2.1.0","300626","J=YES, F=NO","6hsadd66tr","1","75","70","80","","","","","","","","","","","","","","","",""
"429","
          <p id=""word"" style=""font-size: 40px;"">grow</p>
          <p style=""font-size: 16px;"">J = YES &nbsp;&nbsp;&nbsp; F = NO</p>
        ","j","html-keyboard-response","225","2.1.0","301056","J=YES, F=NO","6hsadd66tr","1","75","70","80","","","","","","","","","grow","revenue1","metaphor","experimental","j","true","",""
"null","<p style=""font-size: 50px;"">+</p>","null","html-keyboard-response","226","2.1.0","301359","J=YES, F=NO","6hsadd66tr","1","75","70","80","","","","","","","","","","","","","","","",""
"null","audio/beep-329314.mp3","null","audio-keyboard-response","227","2.1.0","302887","J=YES, F=NO","6hsadd66tr","1","75","70","80","","","","","","","","","","","","","","","",""
"null","audio/effort.wav","null","audio-keyboard-response","228","2.1.0","303633","J=YES, F=NO","6hsadd66tr","1","75","70","80","","","","","","","","","","","","","","","",""
"467","
          <p id=""word"" style=""font-size: 40px;"">invest</p>
          <p style=""font-size: 16px;"">J = YES &nbsp;&nbsp;&nbsp; F = NO</p>
        ","j","html-keyboard-response","229","2.1.0","304102","J=YES, F=NO","6hsadd66tr","1","75","70","80","","","","","","","","","invest","effort","metaphor","experimental","j","true","",""
"6423","<p>Excellent! You have finished block 1 of 8.</p>
                     <p>Feel free to take a 30 second break.</p>
                     <p>Press any key when you're ready to continue.</p>"," ","html-keyboard-response","230","2.1.0","310525","J=YES, F=NO","6hsadd66tr","1","75","70","80","","","","","","","","","","","","","","","",""
"5905","<p>Starting main block 2 of 8. Press any key to continue.</p>"," ","html-keyboard-response","231","2.1.0","316431","J=YES, F=NO","6hsadd66tr","1","75","70","80","","","","","","","","","","","","","","","",""
"null","<p style=""font-size: 50px;"">+</p>","null","html-keyboard-response","232","2.1.0","316732","J=YES, F=NO","6hsadd66tr","1","75","70","80","","","","","","","","","","","","","","","",""
"null","audio/beep-329314.mp3","null","audio-keyboard-response","233","2.1.0","318251","J=YES, F=NO","6hsadd66tr","1","75","70","80","","","","","","","","","","","","","","","",""
"null","audio/vehicle1.wav","null","audio-keyboard-response","234","2.1.0","319019","J=YES, F=NO","6hsadd66tr","1","75","70","80","","","","","","","","","","","","","","","",""
"774","
          <p id=""word"" style=""font-size: 40px;"">dropt</p>
          <p style=""font-size: 16px;"">J = YES &nbsp;&nbsp;&nbsp; F = NO</p>
        ","f","html-keyboard-response","235","2.1.0","319794","J=YES, F=NO","6hsadd66tr","1","75","70","80","","","","","","","","","dropt","vehicle1","pseudoword","pseudoword","f","true","",""
"null","<p style=""font-size: 50px;"">+</p>","null","html-keyboard-response","236","2.1.0","320097","J=YES, F=NO","6hsadd66tr","1","75","70","80","","","","","","","","","","","","","","","",""
"null","audio/beep-329314.mp3","null","audio-keyboard-response","237","2.1.0","321622","J=YES, F=NO","6hsadd66tr","1","75","70","80","","","","","","","","","","","","","","","",""
"null","audio/milk.wav","null","audio-keyboard-response","238","2.1.0","322177","J=YES, F=NO","6hsadd66tr","1","75","70","80","","","","","","","","","","","","","","","",""
"642","
          <p id=""word"" style=""font-size: 40px;"">digest</p>
          <p style=""font-size: 16px;"">J = YES &nbsp;&nbsp;&nbsp; F = NO</p>
        ","f","html-keyboard-response","239","2.1.0","322820","J=YES, F=NO","6hsadd66tr","1","75","70","80","","","","","","","","","digest","milk","literal","experimental","j","false","",""
"null","<p style=""font-size: 50px;"">+</p>","null","html-keyboard-response","240","2.1.0","323122","J=YES, F=NO","6hsadd66tr","1","75","70","80","","","","","","","","","","","","","","","",""
"null","audio/beep-329314.mp3","null","audio-keyboard-response","241","2.1.0","324651","J=YES, F=NO","6hsadd66tr","1","75","70","80","","","","","","","","","","","","","","","",""
"null","audio/chance.wav","null","audio-keyboard-response","242","2.1.0","325270","J=YES, F=NO","6hsadd66tr","1","75","70","80","","","","","","","","","","","","","","","",""
"446","
          <p id=""word"" style=""font-size: 40px;"">seize</p>
          <p style=""font-size: 16px;"">J = YES &nbsp;&nbsp;&nbsp; F = NO</p>
        ","j","html-keyboard-response","243","2.1.0","325717","J=YES, F=NO","6hsadd66tr","1","75","70","80","","","","","","","","","seize","chance","metaphor","experimental","j","true","",""
"null","<p style=""font-size: 50px;"">+</p>","null","html-keyboard-response","244","2.1.0","326019","J=YES, F=NO","6hsadd66tr","1","75","70","80","","","","","","","","","","","","","","","",""
"null","audio/beep-329314.mp3","null","audio-keyboard-response","245","2.1.0","327553","J=YES, F=NO","6hsadd66tr","1","75","70","80","","","","","","","","","","","","","","","",""
"null","audio/purpose.wav","null","audio-keyboard-response","246","2.1.0","328384","J=YES, F=NO","6hsadd66tr","1","75","70","80","","","","","","","","","","","","","","","",""
"466","
          <p id=""word"" style=""font-size: 40px;"">whigm</p>
          <p style=""font-size: 16px;"">J = YES &nbsp;&nbsp;&nbsp; F = NO</p>
        ","f","html-keyboard-response","247","2.1.0","328852","J=YES, F=NO","6hsadd66tr","1","75","70","80","","","","","","","","","whigm","purpose","pseudoword","pseudoword","f","true","",""
"null","<p style=""font-size: 50px;"">+</p>","null","html-keyboard-response","248","2.1.0","329154","J=YES, F=NO","6hsadd66tr","1","75","70","80","","","","","","","","","","","","","","","",""
"null","audio/beep-329314.mp3","null","audio-keyboard-response","249","2.1.0","330689","J=YES, F=NO","6hsadd66tr","1","75","70","80","","","","","","","","","","","","","","","",""
"null","audio/strength.wav","null","audio-keyboard-response","250","2.1.0","331585","J=YES, F=NO","6hsadd66tr","1","75","70","80","","","","","","","","","","","","","","","",""
"330","
          <p id=""word"" style=""font-size: 40px;"">plabet</p>
          <p style=""font-size: 16px;"">J = YES &nbsp;&nbsp;&nbsp; F = NO</p>
        ","j","html-keyboard-response","251","2.1.0","331916","J=YES, F=NO","6hsadd66tr","1","75","70","80","","","","","","","","","plabet","strength","pseudoword","pseudoword","f","false","",""
"null","<p style=""font-size: 50px;"">+</p>","null","html-keyboard-response","252","2.1.0","332218","J=YES, F=NO","6hsadd66tr","1","75","70","80","","","","","","","","","","","","","","","",""
"null","audio/beep-329314.mp3","null","audio-keyboard-response","253","2.1.0","333740","J=YES, F=NO","6hsadd66tr","1","75","70","80","","","","","","","","","","","","","","","",""
"null","audio/age1.wav","null","audio-keyboard-response","254","2.1.0","334337","J=YES, F=NO","6hsadd66tr","1","75","70","80","","","","","","","","","","","","","","","",""
"632","
          <p id=""word"" style=""font-size: 40px;"">lachry</p>
          <p style=""font-size: 16px;"">J = YES &nbsp;&nbsp;&nbsp; F = NO</p>
        ","f","html-keyboard-response","255","2.1.0","334970","J=YES, F=NO","6hsadd66tr","1","75","70","80","","","","","","","","","lachry","age1","pseudoword","pseudoword","f","true","",""
"null","<p style=""font-size: 50px;"">+</p>","null","html-keyboard-response","256","2.1.0","335272","J=YES, F=NO","6hsadd66tr","1","75","70","80","","","","","","","","","","","","","","","",""
"null","audio/beep-329314.mp3","null","audio-keyboard-response","257","2.1.0","336812","J=YES, F=NO","6hsadd66tr","1","75","70","80","","","","","","","","","","","","","","","",""
"null","audio/smirk1.wav","null","audio-keyboard-response","258","2.1.0","337515","J=YES, F=NO","6hsadd66tr","1","75","70","80","","","","","","","","","","","","","","","",""
"531","
          <p id=""word"" style=""font-size: 40px;"">wipe</p>
          <p style=""font-size: 16px;"">J = YES &nbsp;&nbsp;&nbsp; F = NO</p>
        ","j","html-keyboard-response","259","2.1.0","338047","J=YES, F=NO","6hsadd66tr","1","75","70","80","","","","","","","","","wipe","smirk1","metaphor","experimental","j","true","",""
"null","<p style=""font-size: 50px;"">+</p>","null","html-keyboard-response","260","2.1.0","338350","J=YES, F=NO","6hsadd66tr","1","75","70","80","","","","","","","","","","","","","","","",""
"null","audio/beep-329314.mp3","null","audio-keyboard-response","261","2.1.0","339883","J=YES, F=NO","6hsadd66tr","1","75","70","80","","","","","","","","","","","","","","","",""
"null","audio/gift1.wav","null","audio-keyboard-response","262","2.1.0","340502","J=YES, F=NO","6hsadd66tr","1","75","70","80","","","","","","","","","","","","","","","",""
"543","
          <p id=""word"" style=""font-size: 40px;"">give</p>
          <p style=""font-size: 16px;"">J = YES &nbsp;&nbsp;&nbsp; F = NO</p>
        ","j","html-keyboard-response","263","2.1.0","341046","J=YES, F=NO","6hsadd66tr","1","75","70","80","","","","","","","","","give","gift1","literal","experimental","j","true","",""
"null","<p style=""font-size: 50px;"">+</p>","null","html-keyboard-response","264","2.1.0","341348","J=YES, F=NO","6hsadd66tr","1","75","70","80","","","","","","","","","","","","","","","",""
"null","audio/beep-329314.mp3","null","audio-keyboard-response","265","2.1.0","342870","J=YES, F=NO","6hsadd66tr","1","75","70","80","","","","","","","","","","","","","","","",""
"null","audio/floor.wav","null","audio-keyboard-response","266","2.1.0","343574","J=YES, F=NO","6hsadd66tr","1","75","70","80","","","","","","","","","","","","","","","",""
"528","
          <p id=""word"" style=""font-size: 40px;"">mop</p>
          <p style=""font-size: 16px;"">J = YES &nbsp;&nbsp;&nbsp; F = NO</p>
        ","f","html-keyboard-response","267","2.1.0","344103","J=YES, F=NO","6hsadd66tr","1","75","70","80","","","","","","","","","mop","floor","filler","filler","j","false","",""
"null","<p style=""font-size: 50px;"">+</p>","null","html-keyboard-response","268","2.1.0","344406","J=YES, F=NO","6hsadd66tr","1","75","70","80","","","","","","","","","","","","","","","",""
"null","audio/beep-329314.mp3","null","audio-keyboard-response","269","2.1.0","345942","J=YES, F=NO","6hsadd66tr","1","75","70","80","","","","","","","","","","","","","","","",""
"null","audio/topic.wav","null","audio-keyboard-response","270","2.1.0","346689","J=YES, F=NO","6hsadd66tr","1","75","70","80","","","","","","","","","","","","","","","",""
"642","
          <p id=""word"" style=""font-size: 40px;"">approach</p>
          <p style=""font-size: 16px;"">J = YES &nbsp;&nbsp;&nbsp; F = NO</p>
        ","j","html-keyboard-response","271","2.1.0","347332","J=YES, F=NO","6hsadd66tr","1","75","70","80","","","","","","","","","approach","topic","metaphor","experimental","j","true","",""
"null","<p style=""font-size: 50px;"">+</p>","null","html-keyboard-response","272","2.1.0","347635","J=YES, F=NO","6hsadd66tr","1","75","70","80","","","","","","","","","","","","","","","",""
"null","audio/beep-329314.mp3","null","audio-keyboard-response","273","2.1.0","349163","J=YES, F=NO","6hsadd66tr","1","75","70","80","","","","","","","","","","","","","","","",""
"null","audio/mile1.wav","null","audio-keyboard-response","274","2.1.0","349782","J=YES, F=NO","6hsadd66tr","1","75","70","80","","","","","","","","","","","","","","","",""
"null","
          <p id=""word"" style=""font-size: 40px;"">writch</p>
          <p style=""font-size: 16px;"">J = YES &nbsp;&nbsp;&nbsp; F = NO</p>
        ","null","html-keyboard-response","275","2.1.0","351286","J=YES, F=NO","6hsadd66tr","1","75","70","80","","","","","","","","","writch","mile1","pseudoword","pseudoword","f","false","",""
"null","<p style=""font-size: 50px;"">+</p>","null","html-keyboard-response","276","2.1.0","351589","J=YES, F=NO","6hsadd66tr","1","75","70","80","","","","","","","","","","","","","","","",""
"null","audio/beep-329314.mp3","null","audio-keyboard-response","277","2.1.0","353110","J=YES, F=NO","6hsadd66tr","1","75","70","80","","","","","","","","","","","","","","","",""
"null","audio/holiday1.wav","null","audio-keyboard-response","278","2.1.0","353899","J=YES, F=NO","6hsadd66tr","1","75","70","80","","","","","","","","","","","","","","","",""
"425","
          <p id=""word"" style=""font-size: 40px;"">drivets</p>
          <p style=""font-size: 16px;"">J = YES &nbsp;&nbsp;&nbsp; F = NO</p>
        ","j","html-keyboard-response","279","2.1.0","354326","J=YES, F=NO","6hsadd66tr","1","75","70","80","","","","","","","","","drivets","holiday1","pseudoword","pseudoword","f","false","",""
"null","<p style=""font-size: 50px;"">+</p>","null","html-keyboard-response","280","2.1.0","354627","J=YES, F=NO","6hsadd66tr","1","75","70","80","","","","","","","","","","","","","","","",""
"null","audio/beep-329314.mp3","null","audio-keyboard-response","281","2.1.0","356161","J=YES, F=NO","6hsadd66tr","1","75","70","80","","","","","","","","","","","","","","","",""
"null","audio/pine.wav","null","audio-keyboard-response","282","2.1.0","356908","J=YES, F=NO","6hsadd66tr","1","75","70","80","","","","","","","","","","","","","","","",""
"546","
          <p id=""word"" style=""font-size: 40px;"">crebble</p>
          <p style=""font-size: 16px;"">J = YES &nbsp;&nbsp;&nbsp; F = NO</p>
        ","f","html-keyboard-response","283","2.1.0","357454","J=YES, F=NO","6hsadd66tr","1","75","70","80","","","","","","","","","crebble","pine","pseudoword","pseudoword","f","true","",""
"null","<p style=""font-size: 50px;"">+</p>","null","html-keyboard-response","284","2.1.0","357757","J=YES, F=NO","6hsadd66tr","1","75","70","80","","","","","","","","","","","","","","","",""
"null","audio/beep-329314.mp3","null","audio-keyboard-response","285","2.1.0","359276","J=YES, F=NO","6hsadd66tr","1","75","70","80","","","","","","","","","","","","","","","",""
"null","audio/effort.wav","null","audio-keyboard-response","286","2.1.0","359851","J=YES, F=NO","6hsadd66tr","1","75","70","80","","","","","","","","","","","","","","","",""
"349","
          <p id=""word"" style=""font-size: 40px;"">whonk</p>
          <p style=""font-size: 16px;"">J = YES &nbsp;&nbsp;&nbsp; F = NO</p>
        ","j","html-keyboard-response","287","2.1.0","360201","J=YES, F=NO","6hsadd66tr","1","75","70","80","","","","","","","","","whonk","effort","pseudoword","pseudoword","f","false","",""
"null","<p style=""font-size: 50px;"">+</p>","null","html-keyboard-response","288","2.1.0","360504","J=YES, F=NO","6hsadd66tr","1","75","70","80","","","","","","","","","","","","","","","",""
"null","audio/beep-329314.mp3","null","audio-keyboard-response","289","2.1.0","362027","J=YES, F=NO","6hsadd66tr","1","75","70","80","","","","","","","","","","","","","","","",""
"null","audio/budget1.wav","null","audio-keyboard-response","290","2.1.0","362625","J=YES, F=NO","6hsadd66tr","1","75","70","80","","","","","","","","","","","","","","","",""
"726","
          <p id=""word"" style=""font-size: 40px;"">sulist</p>
          <p style=""font-size: 16px;"">J = YES &nbsp;&nbsp;&nbsp; F = NO</p>
        ","f","html-keyboard-response","291","2.1.0","363352","J=YES, F=NO","6hsadd66tr","1","75","70","80","","","","","","","","","sulist","budget1","pseudoword","pseudoword","f","true","",""
"null","<p style=""font-size: 50px;"">+</p>","null","html-keyboard-response","292","2.1.0","363655","J=YES, F=NO","6hsadd66tr","1","75","70","80","","","","","","","","","","","","","","","",""
"null","audio/beep-329314.mp3","null","audio-keyboard-response","293","2.1.0","365185","J=YES, F=NO","6hsadd66tr","1","75","70","80","","","","","","","","","","","","","","","",""
"null","audio/ankle1.wav","null","audio-keyboard-response","294","2.1.0","365739","J=YES, F=NO","6hsadd66tr","1","75","70","80","","","","","","","","","","","","","","","",""
"459","
          <p id=""word"" style=""font-size: 40px;"">hurt</p>
          <p style=""font-size: 16px;"">J = YES &nbsp;&nbsp;&nbsp; F = NO</p>
        ","j","html-keyboard-response","295","2.1.0","366200","J=YES, F=NO","6hsadd66tr","1","75","70","80","","","","","","","","","hurt","ankle1","literal","experimental","j","true","",""
"1158","<p>Excellent! You have finished block 2 of 8.</p>
                     <p>Feel free to take a 30 second break.</p>
                     <p>Press any key when you're ready to continue.</p>"," ","html-keyboard-response","296","2.1.0","367359","J=YES, F=NO","6hsadd66tr","1","75","70","80","","","","","","","","","","","","","","","",""
"1735","<p>Starting main block 3 of 8. Press any key to continue.</p>"," ","html-keyboard-response","297","2.1.0","369095","J=YES, F=NO","6hsadd66tr","1","75","70","80","","","","","","","","","","","","","","","",""
"null","<p style=""font-size: 50px;"">+</p>","null","html-keyboard-response","298","2.1.0","369398","J=YES, F=NO","6hsadd66tr","1","75","70","80","","","","","","","","","","","","","","","",""
"null","audio/beep-329314.mp3","null","audio-keyboard-response","299","2.1.0","370924","J=YES, F=NO","6hsadd66tr","1","75","70","80","","","","","","","","","","","","","","","",""
"null","audio/rank1.wav","null","audio-keyboard-response","300","2.1.0","371478","J=YES, F=NO","6hsadd66tr","1","75","70","80","","","","","","","","","","","","","","","",""
"618","
          <p id=""word"" style=""font-size: 40px;"">climb</p>
          <p style=""font-size: 16px;"">J = YES &nbsp;&nbsp;&nbsp; F = NO</p>
        ","j","html-keyboard-response","301","2.1.0","372098","J=YES, F=NO","6hsadd66tr","1","75","70","80","","","","","","","","","climb","rank1","metaphor","experimental","j","true","",""
"null","<p style=""font-size: 50px;"">+</p>","null","html-keyboard-response","302","2.1.0","372400","J=YES, F=NO","6hsadd66tr","1","75","70","80","","","","","","","","","","","","","","","",""
"null","audio/beep-329314.mp3","null","audio-keyboard-response","303","2.1.0","373932","J=YES, F=NO","6hsadd66tr","1","75","70","80","","","","","","","","","","","","","","","",""
"null","audio/breath.wav","null","audio-keyboard-response","304","2.1.0","374508","J=YES, F=NO","6hsadd66tr","1","75","70","80","","","","","","","","","","","","","","","",""
"481","
          <p id=""word"" style=""font-size: 40px;"">pack</p>
          <p style=""font-size: 16px;"">J = YES &nbsp;&nbsp;&nbsp; F = NO</p>
        ","j","html-keyboard-response","305","2.1.0","374990","J=YES, F=NO","6hsadd66tr","1","75","70","80","","","","","","","","","pack","breath","filler","filler","j","true","",""
"null","<p style=""font-size: 50px;"">+</p>","null","html-keyboard-response","306","2.1.0","375293","J=YES, F=NO","6hsadd66tr","1","75","70","80","","","","","","","","","","","","","","","",""
"null","audio/beep-329314.mp3","null","audio-keyboard-response","307","2.1.0","376812","J=YES, F=NO","6hsadd66tr","1","75","70","80","","","","","","","","","","","","","","","",""
"null","audio/foe1.wav","null","audio-keyboard-response","308","2.1.0","377302","J=YES, F=NO","6hsadd66tr","1","75","70","80","","","","","","","","","","","","","","","",""
"568","
          <p id=""word"" style=""font-size: 40px;"">conquer</p>
          <p style=""font-size: 16px;"">J = YES &nbsp;&nbsp;&nbsp; F = NO</p>
        ","f","html-keyboard-response","309","2.1.0","377871","J=YES, F=NO","6hsadd66tr","1","75","70","80","","","","","","","","","conquer","foe1","literal","experimental","j","false","",""
"null","<p style=""font-size: 50px;"">+</p>","null","html-keyboard-response","310","2.1.0","378174","J=YES, F=NO","6hsadd66tr","1","75","70","80","","","","","","","","","","","","","","","",""
"null","audio/beep-329314.mp3","null","audio-keyboard-response","311","2.1.0","379713","J=YES, F=NO","6hsadd66tr","1","75","70","80","","","","","","","","","","","","","","","",""
"null","audio/dollar.wav","null","audio-keyboard-response","312","2.1.0","380076","J=YES, F=NO","6hsadd66tr","1","75","70","80","","","","","","","","","","","","","","","",""
"615","
          <p id=""word"" style=""font-size: 40px;"">gliptism</p>
          <p style=""font-size: 16px;"">J = YES &nbsp;&nbsp;&nbsp; F = NO</p>
        ","f","html-keyboard-response","313","2.1.0","380692","J=YES, F=NO","6hsadd66tr","1","75","70","80","","","","","","","","","gliptism","dollar","pseudoword","pseudoword","f","true","",""
"null","<p style=""font-size: 50px;"">+</p>","null","html-keyboard-response","314","2.1.0","380995","J=YES, F=NO","6hsadd66tr","1","75","70","80","","","","","","","","","","","","","","","",""
"null","audio/beep-329314.mp3","null","audio-keyboard-response","315","2.1.0","382529","J=YES, F=NO","6hsadd66tr","1","75","70","80","","","","","","","","","","","","","","","",""
"null","audio/ankle1.wav","null","audio-keyboard-response","316","2.1.0","383041","J=YES, F=NO","6hsadd66tr","1","75","70","80","","","","","","","","","","","","","","","",""
"424","
          <p id=""word"" style=""font-size: 40px;"">switm</p>
          <p style=""font-size: 16px;"">J = YES &nbsp;&nbsp;&nbsp; F = NO</p>
        ","j","html-keyboard-response","317","2.1.0","383466","J=YES, F=NO","6hsadd66tr","1","75","70","80","","","","","","","","","switm","ankle1","pseudoword","pseudoword","f","false","",""
"null","<p style=""font-size: 50px;"">+</p>","null","html-keyboard-response","318","2.1.0","383769","J=YES, F=NO","6hsadd66tr","1","75","70","80","","","","","","","","","","","","","","","",""
"null","audio/beep-329314.mp3","null","audio-keyboard-response","319","2.1.0","385303","J=YES, F=NO","6hsadd66tr","1","75","70","80","","","","","","","","","","","","","","","",""
"null","audio/neck.wav","null","audio-keyboard-response","320","2.1.0","386007","J=YES, F=NO","6hsadd66tr","1","75","70","80","","","","","","","","","","","","","","","",""
"671","
          <p id=""word"" style=""font-size: 40px;"">werling</p>
          <p style=""font-size: 16px;"">J = YES &nbsp;&nbsp;&nbsp; F = NO</p>
        ","j","html-keyboard-response","321","2.1.0","386679","J=YES, F=NO","6hsadd66tr","1","75","70","80","","","","","","","","","werling","neck","pseudoword","pseudoword","f","false","",""
"null","<p style=""font-size: 50px;"">+</p>","null","html-keyboard-response","322","2.1.0","386982","J=YES, F=NO","6hsadd66tr","1","75","70","80","","","","","","","","","","","","","","","",""
"null","audio/beep-329314.mp3","null","audio-keyboard-response","323","2.1.0","388503","J=YES, F=NO","6hsadd66tr","1","75","70","80","","","","","","","","","","","","","","","",""
"null","audio/foot1.wav","null","audio-keyboard-response","324","2.1.0","389206","J=YES, F=NO","6hsadd66tr","1","75","70","80","","","","","","","","","","","","","","","",""
"620","
          <p id=""word"" style=""font-size: 40px;"">close</p>
          <p style=""font-size: 16px;"">J = YES &nbsp;&nbsp;&nbsp; F = NO</p>
        ","j","html-keyboard-response","325","2.1.0","389827","J=YES, F=NO","6hsadd66tr","1","75","70","80","","","","","","","","","close","foot1","unrelated","experimental","j","true","",""
"null","<p style=""font-size: 50px;"">+</p>","null","html-keyboard-response","326","2.1.0","390129","J=YES, F=NO","6hsadd66tr","1","75","70","80","","","","","","","","","","","","","","","",""
"null","audio/beep-329314.mp3","null","audio-keyboard-response","327","2.1.0","391660","J=YES, F=NO","6hsadd66tr","1","75","70","80","","","","","","","","","","","","","","","",""
"null","audio/topic.wav","null","audio-keyboard-response","328","2.1.0","392236","J=YES, F=NO","6hsadd66tr","1","75","70","80","","","","","","","","","","","","","","","",""
"860","
          <p id=""word"" style=""font-size: 40px;"">infortuitist</p>
          <p style=""font-size: 16px;"">J = YES &nbsp;&nbsp;&nbsp; F = NO</p>
        ","f","html-keyboard-response","329","2.1.0","393096","J=YES, F=NO","6hsadd66tr","1","75","70","80","","","","","","","","","infortuitist","topic","pseudoword","pseudoword","f","true","",""
"null","<p style=""font-size: 50px;"">+</p>","null","html-keyboard-response","330","2.1.0","393398","J=YES, F=NO","6hsadd66tr","1","75","70","80","","","","","","","","","","","","","","","",""
"null","audio/beep-329314.mp3","null","audio-keyboard-response","331","2.1.0","394924","J=YES, F=NO","6hsadd66tr","1","75","70","80","","","","","","","","","","","","","","","",""
"null","audio/stain.wav","null","audio-keyboard-response","332","2.1.0","395735","J=YES, F=NO","6hsadd66tr","1","75","70","80","","","","","","","","","","","","","","","",""
"780","
          <p id=""word"" style=""font-size: 40px;"">rumpsied</p>
          <p style=""font-size: 16px;"">J = YES &nbsp;&nbsp;&nbsp; F = NO</p>
        ","f","html-keyboard-response","333","2.1.0","396516","J=YES, F=NO","6hsadd66tr","1","75","70","80","","","","","","","","","rumpsied","stain","pseudoword","pseudoword","f","true","",""
"null","<p style=""font-size: 50px;"">+</p>","null","html-keyboard-response","334","2.1.0","396818","J=YES, F=NO","6hsadd66tr","1","75","70","80","","","","","","","","","","","","","","","",""
"null","audio/beep-329314.mp3","null","audio-keyboard-response","335","2.1.0","398337","J=YES, F=NO","6hsadd66tr","1","75","70","80","","","","","","","","","","","","","","","",""
"null","audio/budget1.wav","null","audio-keyboard-response","336","2.1.0","398935","J=YES, F=NO","6hsadd66tr","1","75","70","80","","","","","","","","","","","","","","","",""
"521","
          <p id=""word"" style=""font-size: 40px;"">cut</p>
          <p style=""font-size: 16px;"">J = YES &nbsp;&nbsp;&nbsp; F = NO</p>
        ","j","html-keyboard-response","337","2.1.0","399457","J=YES, F=NO","6hsadd66tr","1","75","70","80","","","","","","","","","cut","budget1","metaphor","experimental","j","true","",""
"null","<p style=""font-size: 50px;"">+</p>","null","html-keyboard-response","338","2.1.0","399760","J=YES, F=NO","6hsadd66tr","1","75","70","80","","","","","","","","","","","","","","","",""
"null","audio/beep-329314.mp3","null","audio-keyboard-response","339","2.1.0","401281","J=YES, F=NO","6hsadd66tr","1","75","70","80","","","","","","","","","","","","","","","",""
"null","audio/kettle1.wav","null","audio-keyboard-response","340","2.1.0","401900","J=YES, F=NO","6hsadd66tr","1","75","70","80","","","","","","","","","","","","","","","",""
"542","
          <p id=""word"" style=""font-size: 40px;"">wrap</p>
          <p style=""font-size: 16px;"">J = YES &nbsp;&nbsp;&nbsp; F = NO</p>
        ","j","html-keyboard-response","341","2.1.0","402443","J=YES, F=NO","6hsadd66tr","1","75","70","80","","","","","","","","","wrap","kettle1","filler","filler","j","true","",""
"null","<p style=""font-size: 50px;"">+</p>","null","html-keyboard-response","342","2.1.0","402746","J=YES, F=NO","6hsadd66tr","1","75","70","80","","","","","","","","","","","","","","","",""
"null","audio/beep-329314.mp3","null","audio-keyboard-response","343","2.1.0","404268","J=YES, F=NO","6hsadd66tr","1","75","70","80","","","","","","","","","","","","","","","",""
"null","audio/gossip1.wav","null","audio-keyboard-response","344","2.1.0","404908","J=YES, F=NO","6hsadd66tr","1","75","70","80","","","","","","","","","","","","","","","",""
"654","
          <p id=""word"" style=""font-size: 40px;"">camerish</p>
          <p style=""font-size: 16px;"">J = YES &nbsp;&nbsp;&nbsp; F = NO</p>
        ","f","html-keyboard-response","345","2.1.0","405563","J=YES, F=NO","6hsadd66tr","1","75","70","80","","","","","","","","","camerish","gossip1","pseudoword","pseudoword","f","true","",""
"null","<p style=""font-size: 50px;"">+</p>","null","html-keyboard-response","346","2.1.0","405865","J=YES, F=NO","6hsadd66tr","1","75","70","80","","","","","","","","","","","","","","","",""
"null","audio/beep-329314.mp3","null","audio-keyboard-response","347","2.1.0","407382","J=YES, F=NO","6hsadd66tr","1","75","70","80","","","","","","","","","","","","","","","",""
"null","audio/pattern.wav","null","audio-keyboard-response","348","2.1.0","408023","J=YES, F=NO","6hsadd66tr","1","75","70","80","","","","","","","","","","","","","","","",""
"676","
          <p id=""word"" style=""font-size: 40px;"">tug</p>
          <p style=""font-size: 16px;"">J = YES &nbsp;&nbsp;&nbsp; F = NO</p>
        ","f","html-keyboard-response","349","2.1.0","408700","J=YES, F=NO","6hsadd66tr","1","75","70","80","","","","","","","","","tug","pattern","filler","filler","j","false","",""
"null","<p style=""font-size: 50px;"">+</p>","null","html-keyboard-response","350","2.1.0","409003","J=YES, F=NO","6hsadd66tr","1","75","70","80","","","","","","","","","","","","","","","",""
"null","audio/beep-329314.mp3","null","audio-keyboard-response","351","2.1.0","410540","J=YES, F=NO","6hsadd66tr","1","75","70","80","","","","","","","","","","","","","","","",""
"null","audio/pain1.wav","null","audio-keyboard-response","352","2.1.0","410967","J=YES, F=NO","6hsadd66tr","1","75","70","80","","","","","","","","","","","","","","","",""
"775","
          <p id=""word"" style=""font-size: 40px;"">tritted</p>
          <p style=""font-size: 16px;"">J = YES &nbsp;&nbsp;&nbsp; F = NO</p>
        ","f","html-keyboard-response","353","2.1.0","411743","J=YES, F=NO","6hsadd66tr","1","75","70","80","","","","","","","","","tritted","pain1","pseudoword","pseudoword","f","true","",""
"null","<p style=""font-size: 50px;"">+</p>","null","html-keyboard-response","354","2.1.0","412045","J=YES, F=NO","6hsadd66tr","1","75","70","80","","","","","","","","","","","","","","","",""
"null","audio/beep-329314.mp3","null","audio-keyboard-response","355","2.1.0","413569","J=YES, F=NO","6hsadd66tr","1","75","70","80","","","","","","","","","","","","","","","",""
"null","audio/ankle1.wav","null","audio-keyboard-response","356","2.1.0","414081","J=YES, F=NO","6hsadd66tr","1","75","70","80","","","","","","","","","","","","","","","",""
"480","
          <p id=""word"" style=""font-size: 40px;"">kick</p>
          <p style=""font-size: 16px;"">J = YES &nbsp;&nbsp;&nbsp; F = NO</p>
        ","j","html-keyboard-response","357","2.1.0","414562","J=YES, F=NO","6hsadd66tr","1","75","70","80","","","","","","","","","kick","ankle1","filler","filler","j","true","",""
"null","<p style=""font-size: 50px;"">+</p>","null","html-keyboard-response","358","2.1.0","414865","J=YES, F=NO","6hsadd66tr","1","75","70","80","","","","","","","","","","","","","","","",""
"null","audio/beep-329314.mp3","null","audio-keyboard-response","359","2.1.0","416385","J=YES, F=NO","6hsadd66tr","1","75","70","80","","","","","","","","","","","","","","","",""
"null","audio/mirror1.wav","null","audio-keyboard-response","360","2.1.0","416812","J=YES, F=NO","6hsadd66tr","1","75","70","80","","","","","","","","","","","","","","","",""
"630","
          <p id=""word"" style=""font-size: 40px;"">fight</p>
          <p style=""font-size: 16px;"">J = YES &nbsp;&nbsp;&nbsp; F = NO</p>
        ","j","html-keyboard-response","361","2.1.0","417443","J=YES, F=NO","6hsadd66tr","1","75","70","80","","","","","","","","","fight","mirror1","unrelated","experimental","j","true","",""
"3195","<p>Excellent! You have finished block 3 of 8.</p>
                     <p>Feel free to take a 30 second break.</p>
                     <p>Press any key when you're ready to continue.</p>"," ","html-keyboard-response","362","2.1.0","420639","J=YES, F=NO","6hsadd66tr","1","75","70","80","","","","","","","","","","","","","","","",""
"2744","<p>Starting main block 4 of 8. Press any key to continue.</p>"," ","html-keyboard-response","363","2.1.0","423384","J=YES, F=NO","6hsadd66tr","1","75","70","80","","","","","","","","","","","","","","","",""
"null","<p style=""font-size: 50px;"">+</p>","null","html-keyboard-response","364","2.1.0","423686","J=YES, F=NO","6hsadd66tr","1","75","70","80","","","","","","","","","","","","","","","",""
"null","audio/beep-329314.mp3","null","audio-keyboard-response","365","2.1.0","425217","J=YES, F=NO","6hsadd66tr","1","75","70","80","","","","","","","","","","","","","","","",""
"null","audio/plot1.wav","null","audio-keyboard-response","366","2.1.0","425921","J=YES, F=NO","6hsadd66tr","1","75","70","80","","","","","","","","","","","","","","","",""
"688","
          <p id=""word"" style=""font-size: 40px;"">glenter</p>
          <p style=""font-size: 16px;"">J = YES &nbsp;&nbsp;&nbsp; F = NO</p>
        ","f","html-keyboard-response","367","2.1.0","426610","J=YES, F=NO","6hsadd66tr","1","75","70","80","","","","","","","","","glenter","plot1","pseudoword","pseudoword","f","true","",""
"null","<p style=""font-size: 50px;"">+</p>","null","html-keyboard-response","368","2.1.0","426912","J=YES, F=NO","6hsadd66tr","1","75","70","80","","","","","","","","","","","","","","","",""
"null","audio/beep-329314.mp3","null","audio-keyboard-response","369","2.1.0","428439","J=YES, F=NO","6hsadd66tr","1","75","70","80","","","","","","","","","","","","","","","",""
"null","audio/life1.wav","null","audio-keyboard-response","370","2.1.0","429036","J=YES, F=NO","6hsadd66tr","1","75","70","80","","","","","","","","","","","","","","","",""
"392","
          <p id=""word"" style=""font-size: 40px;"">flimch</p>
          <p style=""font-size: 16px;"">J = YES &nbsp;&nbsp;&nbsp; F = NO</p>
        ","j","html-keyboard-response","371","2.1.0","429429","J=YES, F=NO","6hsadd66tr","1","75","70","80","","","","","","","","","flimch","life1","pseudoword","pseudoword","f","false","",""
"null","<p style=""font-size: 50px;"">+</p>","null","html-keyboard-response","372","2.1.0","429732","J=YES, F=NO","6hsadd66tr","1","75","70","80","","","","","","","","","","","","","","","",""
"null","audio/beep-329314.mp3","null","audio-keyboard-response","373","2.1.0","431255","J=YES, F=NO","6hsadd66tr","1","75","70","80","","","","","","","","","","","","","","","",""
"null","audio/theory1.wav","null","audio-keyboard-response","374","2.1.0","432023","J=YES, F=NO","6hsadd66tr","1","75","70","80","","","","","","","","","","","","","","","",""
"644","
          <p id=""word"" style=""font-size: 40px;"">construct</p>
          <p style=""font-size: 16px;"">J = YES &nbsp;&nbsp;&nbsp; F = NO</p>
        ","f","html-keyboard-response","375","2.1.0","432667","J=YES, F=NO","6hsadd66tr","1","75","70","80","","","","","","","","","construct","theory1","metaphor","experimental","j","false","",""
"null","<p style=""font-size: 50px;"">+</p>","null","html-keyboard-response","376","2.1.0","432970","J=YES, F=NO","6hsadd66tr","1","75","70","80","","","","","","","","","","","","","","","",""
"null","audio/beep-329314.mp3","null","audio-keyboard-response","377","2.1.0","434498","J=YES, F=NO","6hsadd66tr","1","75","70","80","","","","","","","","","","","","","","","",""
"null","audio/corpse1.wav","null","audio-keyboard-response","378","2.1.0","435287","J=YES, F=NO","6hsadd66tr","1","75","70","80","","","","","","","","","","","","","","","",""
"680","
          <p id=""word"" style=""font-size: 40px;"">glonet</p>
          <p style=""font-size: 16px;"">J = YES &nbsp;&nbsp;&nbsp; F = NO</p>
        ","f","html-keyboard-response","379","2.1.0","435968","J=YES, F=NO","6hsadd66tr","1","75","70","80","","","","","","","","","glonet","corpse1","pseudoword","pseudoword","f","true","",""
"null","<p style=""font-size: 50px;"">+</p>","null","html-keyboard-response","380","2.1.0","436271","J=YES, F=NO","6hsadd66tr","1","75","70","80","","","","","","","","","","","","","","","",""
"null","audio/beep-329314.mp3","null","audio-keyboard-response","381","2.1.0","437804","J=YES, F=NO","6hsadd66tr","1","75","70","80","","","","","","","","","","","","","","","",""
"null","audio/meal.wav","null","audio-keyboard-response","382","2.1.0","438274","J=YES, F=NO","6hsadd66tr","1","75","70","80","","","","","","","","","","","","","","","",""
"438","
          <p id=""word"" style=""font-size: 40px;"">gallite</p>
          <p style=""font-size: 16px;"">J = YES &nbsp;&nbsp;&nbsp; F = NO</p>
        ","j","html-keyboard-response","383","2.1.0","438712","J=YES, F=NO","6hsadd66tr","1","75","70","80","","","","","","","","","gallite","meal","pseudoword","pseudoword","f","false","",""
"null","<p style=""font-size: 50px;"">+</p>","null","html-keyboard-response","384","2.1.0","439015","J=YES, F=NO","6hsadd66tr","1","75","70","80","","","","","","","","","","","","","","","",""
"null","audio/beep-329314.mp3","null","audio-keyboard-response","385","2.1.0","440535","J=YES, F=NO","6hsadd66tr","1","75","70","80","","","","","","","","","","","","","","","",""
"null","audio/foot1.wav","null","audio-keyboard-response","386","2.1.0","441090","J=YES, F=NO","6hsadd66tr","1","75","70","80","","","","","","","","","","","","","","","",""
"706","
          <p id=""word"" style=""font-size: 40px;"">thrutt</p>
          <p style=""font-size: 16px;"">J = YES &nbsp;&nbsp;&nbsp; F = NO</p>
        ","f","html-keyboard-response","387","2.1.0","441797","J=YES, F=NO","6hsadd66tr","1","75","70","80","","","","","","","","","thrutt","foot1","pseudoword","pseudoword","f","true","",""
"null","<p style=""font-size: 50px;"">+</p>","null","html-keyboard-response","388","2.1.0","442099","J=YES, F=NO","6hsadd66tr","1","75","70","80","","","","","","","","","","","","","","","",""
"null","audio/beep-329314.mp3","null","audio-keyboard-response","389","2.1.0","443628","J=YES, F=NO","6hsadd66tr","1","75","70","80","","","","","","","","","","","","","","","",""
"null","audio/grass.wav","null","audio-keyboard-response","390","2.1.0","444268","J=YES, F=NO","6hsadd66tr","1","75","70","80","","","","","","","","","","","","","","","",""
"534","
          <p id=""word"" style=""font-size: 40px;"">milames</p>
          <p style=""font-size: 16px;"">J = YES &nbsp;&nbsp;&nbsp; F = NO</p>
