"rt","stimulus","response","trial_type","trial_index","plugin_version","time_elapsed","response_mapping","subject_id","list_index","lextale_score","lextale_word_score","lextale_nonword_score","success","timeout","failed_images","failed_audio","failed_video","task","isWord","isDummy","target","prime","prime_type","stimulus_type","correct_response","correct","section","question_order"
"59850","
    <div style=""max-width: 800px; margin: auto; text-align: left;"">
      <h2>STANFORD UNIVERSITY</h2>
      <h3>Research Information Sheet</h3>
      <p><strong>Protocol Director:</strong> Robert Hawkins<br>
      <strong>Protocol Title:</strong> Communication and social cognition in natural audiovisual contexts<br>
      <strong>IRB#:</strong> 77226</p>

      <p><strong>DESCRIPTION:</strong> You are invited to participate in a research study about language and communication. The purpose of the research is to understand how you interact and communicate with other people in naturalistic settings as a fluent English speaker. This research will be conducted through the Prolific platform, including participants from the US, UK, and Canada. If you decide to participate in this research, you will play a communication game in a group with one or more partners.</p>

      <p><strong>TIME INVOLVEMENT:</strong> The task will last the amount of time advertised on Prolific. You are free to withdraw from the study at any time.</p>

      <p><strong>RISKS AND BENEFITS:</strong> You may become frustrated if your partner gets distracted, or experience discomfort if other participants in your group send text that is inappropriate for the task. We ask you to please be respectful of other participants you might be interacting with to mitigate these risks. You may also experience discomfort when being asked to discuss or challenge emotionally salient political beliefs. Study data will be stored securely, in compliance with Stanford University standards, minimizing the risk of confidentiality breach. This study advances our scientific understanding of how people communicate and collaborate in naturalistic settings. This study may lead to further insights about what can go wrong in teamwork, suggest potential interventions to overcome these barriers, and help to develop assistive technologies that collaborate with human partners. We cannot and do not guarantee or promise that you will receive any benefits from this study.</p>

      <p><strong>PAYMENTS:</strong> You will receive payment in the amount advertised on Prolific. If you do not complete this study, you will receive prorated payment based on the time that you have spent. Additionally, you may be eligible for bonus payments as described in the instructions.</p>

      <p><strong>PARTICIPANT’S RIGHTS:</strong> If you have read this form and have decided to participate in this project, please understand your participation is voluntary and you have the right to withdraw your consent or discontinue participation at any time without penalty or loss of benefits to which you are otherwise entitled. The alternative is not to participate. You have the right to refuse to answer particular questions. The results of this research study may be presented at scientific or professional meetings or published in scientific journals. Your individual privacy will be maintained in all published and written data resulting from the study. In accordance with scientific norms, the data from this study may be used or shared with other researchers for future research (after removing personally identifying information) without additional consent from you.</p>

      <p><strong>CONTACT INFORMATION:</strong><br>
      Questions: If you have any questions, concerns or complaints about this research, its procedures, risks and benefits, contact the Protocol Director, Robert Hawkins (<a href=""mailto:rdhawkins@stanford.edu"">rdhawkins@stanford.edu</a>, 217-549-6923).<br>
      Independent Contact: If you are not satisfied with how this study is being conducted, or if you have any concerns, complaints, or general questions about the research or your rights as a participant, please contact the Stanford Institutional Review Board (IRB) to speak to someone independent of the research team at 650-723-2480 or toll free at 1-866-680-2906, or email at <a href=""mailto:irbnon-med@stanford.edu"">irbnon-med@stanford.edu</a>. You can also write to the Stanford IRB, Stanford University, 1705 El Camino Real, Palo Alto, CA 94306.</p>

      <p><strong>Please save or print a copy of this page for your records.</strong></p>
      <p>If you agree to participate in this research, click ""Continue"" below.</p>
    </div>
  ","0","html-button-response","0","2.1.0","60146","F=YES, J=NO","6qqxabsmnr","2","76","78","75","","","","","","","","","","","","","","","",""
"16023","
    <div style=""max-width: 800px; margin: auto; text-align: left;"">
      <h2>Welcome!</h2>
      <p>Thank you for participating in this study. The experiment consists of three parts:</p>
      <ol>
        <li>An English vocabulary test</li>
        <li>A main task in which you will hear and see words, and decide whether the written word is a real English word</li>
        <li>A brief survey about your background</li>
      </ol>
      <p>Each part will be introduced before it begins.</p>
      <p>Please make sure you are in a quiet environment and can hear audio clearly for the final task.</p>
      <p style=""margin-top: 2em;"">Press any key to begin.</p>
    </div>
  "," ","html-keyboard-response","1","2.1.0","76173","F=YES, J=NO","6qqxabsmnr","2","76","78","75","","","","","","","","","","","","","","","",""
"","","","preload","2","2.1.0","77674","F=YES, J=NO","6qqxabsmnr","2","76","78","75","true","false","[]","[]","[]","","","","","","","","","","",""
"10912","
    <div style=""max-width: 800px; margin: auto; text-align: left;"">
      <h2>Part 1: Vocabulary Test</h2>
      <p>You will now complete the first part of the study: a short English vocabulary test.</p>
      <p>This test is called <strong>LexTALE</strong> and helps us get a general sense of your English proficiency.</p>
      <p style=""margin-top: 2em;"">Press any key to continue.</p>
    </div>
  "," ","html-keyboard-response","3","2.1.0","88596","F=YES, J=NO","6qqxabsmnr","2","76","78","75","","","","","","","","","","","","","","","",""
"15932","
    <div style=""max-width: 800px; margin: auto; text-align: left;"">
      <h2>LexTALE Vocabulary Test</h2>
      <p>In this test, you will see a series of letter strings—one at a time.</p>
      <p>Your task is to decide whether each string is a real English word.</p>
      <p><strong>Key responses:</strong></p>
      <ul>
        <li><strong>F</strong> = YES (real English word)</li>
        <li><strong>J</strong> = NO (not a real English word)</li>
      </ul>
      <p>There is no time limit, but please try to be accurate.</p>
      <p style=""margin-top: 2em;"">Press any key to begin.</p>
    </div>
  ","j","html-keyboard-response","4","2.1.0","104530","F=YES, J=NO","6qqxabsmnr","2","76","78","75","","","","","","","","","","","","","","","",""
"4124","
  <p style=""font-size: 40px;"">platery</p>
  <p style=""font-size: 16px;"">F = YES &nbsp;&nbsp;&nbsp; J = NO</p>
","j","html-keyboard-response","5","2.1.0","108655","F=YES, J=NO","6qqxabsmnr","2","76","78","75","","","","","","lextale","false","true","","","","","","","",""
"1295","
  <p style=""font-size: 40px;"">denial</p>
  <p style=""font-size: 16px;"">F = YES &nbsp;&nbsp;&nbsp; J = NO</p>
","f","html-keyboard-response","6","2.1.0","109952","F=YES, J=NO","6qqxabsmnr","2","76","78","75","","","","","","lextale","true","true","","","","","","","",""
"2351","
  <p style=""font-size: 40px;"">marrit</p>
  <p style=""font-size: 16px;"">F = YES &nbsp;&nbsp;&nbsp; J = NO</p>
","j","html-keyboard-response","7","2.1.0","112305","F=YES, J=NO","6qqxabsmnr","2","76","78","75","","","","","","lextale","false","true","","","","","","","",""
"1379","
  <p style=""font-size: 40px;"">bottle</p>
  <p style=""font-size: 16px;"">F = YES &nbsp;&nbsp;&nbsp; J = NO</p>
","f","html-keyboard-response","8","2.1.0","113686","F=YES, J=NO","6qqxabsmnr","2","76","78","75","","","","","","lextale","true","false","","","","","","","",""
"2395","
  <p style=""font-size: 40px;"">birst</p>
  <p style=""font-size: 16px;"">F = YES &nbsp;&nbsp;&nbsp; J = NO</p>
","j","html-keyboard-response","9","2.1.0","116082","F=YES, J=NO","6qqxabsmnr","2","76","78","75","","","","","","lextale","false","false","","","","","","","",""
"1106","
  <p style=""font-size: 40px;"">envy</p>
  <p style=""font-size: 16px;"">F = YES &nbsp;&nbsp;&nbsp; J = NO</p>
","f","html-keyboard-response","10","2.1.0","117189","F=YES, J=NO","6qqxabsmnr","2","76","78","75","","","","","","lextale","true","false","","","","","","","",""
"1418","
  <p style=""font-size: 40px;"">brang</p>
  <p style=""font-size: 16px;"">F = YES &nbsp;&nbsp;&nbsp; J = NO</p>
","j","html-keyboard-response","11","2.1.0","118607","F=YES, J=NO","6qqxabsmnr","2","76","78","75","","","","","","lextale","false","false","","","","","","","",""
"1240","
  <p style=""font-size: 40px;"">huge</p>
  <p style=""font-size: 16px;"">F = YES &nbsp;&nbsp;&nbsp; J = NO</p>
","f","html-keyboard-response","12","2.1.0","119848","F=YES, J=NO","6qqxabsmnr","2","76","78","75","","","","","","lextale","true","false","","","","","","","",""
"1235","
  <p style=""font-size: 40px;"">plove</p>
  <p style=""font-size: 16px;"">F = YES &nbsp;&nbsp;&nbsp; J = NO</p>
","j","html-keyboard-response","13","2.1.0","121084","F=YES, J=NO","6qqxabsmnr","2","76","78","75","","","","","","lextale","false","false","","","","","","","",""
"2762","
  <p style=""font-size: 40px;"">border</p>
  <p style=""font-size: 16px;"">F = YES &nbsp;&nbsp;&nbsp; J = NO</p>
","f","html-keyboard-response","14","2.1.0","123847","F=YES, J=NO","6qqxabsmnr","2","76","78","75","","","","","","lextale","true","false","","","","","","","",""
"1657","
  <p style=""font-size: 40px;"">flimsy</p>
  <p style=""font-size: 16px;"">F = YES &nbsp;&nbsp;&nbsp; J = NO</p>
","f","html-keyboard-response","15","2.1.0","125504","F=YES, J=NO","6qqxabsmnr","2","76","78","75","","","","","","lextale","true","false","","","","","","","",""
"936","
  <p style=""font-size: 40px;"">drain</p>
  <p style=""font-size: 16px;"">F = YES &nbsp;&nbsp;&nbsp; J = NO</p>
","f","html-keyboard-response","16","2.1.0","126441","F=YES, J=NO","6qqxabsmnr","2","76","78","75","","","","","","lextale","true","false","","","","","","","",""
"2263","
  <p style=""font-size: 40px;"">twindle</p>
  <p style=""font-size: 16px;"">F = YES &nbsp;&nbsp;&nbsp; J = NO</p>
","f","html-keyboard-response","17","2.1.0","128704","F=YES, J=NO","6qqxabsmnr","2","76","78","75","","","","","","lextale","false","false","","","","","","","",""
"886","
  <p style=""font-size: 40px;"">propose</p>
  <p style=""font-size: 16px;"">F = YES &nbsp;&nbsp;&nbsp; J = NO</p>
","f","html-keyboard-response","18","2.1.0","129591","F=YES, J=NO","6qqxabsmnr","2","76","78","75","","","","","","lextale","true","false","","","","","","","",""
"1310","
  <p style=""font-size: 40px;"">forlay</p>
  <p style=""font-size: 16px;"">F = YES &nbsp;&nbsp;&nbsp; J = NO</p>
","j","html-keyboard-response","19","2.1.0","130903","F=YES, J=NO","6qqxabsmnr","2","76","78","75","","","","","","lextale","false","false","","","","","","","",""
"1282","
  <p style=""font-size: 40px;"">tenant</p>
  <p style=""font-size: 16px;"">F = YES &nbsp;&nbsp;&nbsp; J = NO</p>
","f","html-keyboard-response","20","2.1.0","132185","F=YES, J=NO","6qqxabsmnr","2","76","78","75","","","","","","lextale","true","false","","","","","","","",""
"1561","
  <p style=""font-size: 40px;"">strain</p>
  <p style=""font-size: 16px;"">F = YES &nbsp;&nbsp;&nbsp; J = NO</p>
","f","html-keyboard-response","21","2.1.0","133747","F=YES, J=NO","6qqxabsmnr","2","76","78","75","","","","","","lextale","true","false","","","","","","","",""
"1306","
  <p style=""font-size: 40px;"">holster</p>
  <p style=""font-size: 16px;"">F = YES &nbsp;&nbsp;&nbsp; J = NO</p>
","f","html-keyboard-response","22","2.1.0","135054","F=YES, J=NO","6qqxabsmnr","2","76","78","75","","","","","","lextale","true","false","","","","","","","",""
"1372","
  <p style=""font-size: 40px;"">hinder</p>
  <p style=""font-size: 16px;"">F = YES &nbsp;&nbsp;&nbsp; J = NO</p>
","f","html-keyboard-response","23","2.1.0","136426","F=YES, J=NO","6qqxabsmnr","2","76","78","75","","","","","","lextale","true","false","","","","","","","",""
"1534","
  <p style=""font-size: 40px;"">swindle</p>
  <p style=""font-size: 16px;"">F = YES &nbsp;&nbsp;&nbsp; J = NO</p>
","f","html-keyboard-response","24","2.1.0","137961","F=YES, J=NO","6qqxabsmnr","2","76","78","75","","","","","","lextale","true","false","","","","","","","",""
"1302","
  <p style=""font-size: 40px;"">nuder</p>
  <p style=""font-size: 16px;"">F = YES &nbsp;&nbsp;&nbsp; J = NO</p>
","j","html-keyboard-response","25","2.1.0","139264","F=YES, J=NO","6qqxabsmnr","2","76","78","75","","","","","","lextale","false","false","","","","","","","",""
"1539","
  <p style=""font-size: 40px;"">pillow</p>
  <p style=""font-size: 16px;"">F = YES &nbsp;&nbsp;&nbsp; J = NO</p>
","f","html-keyboard-response","26","2.1.0","140803","F=YES, J=NO","6qqxabsmnr","2","76","78","75","","","","","","lextale","true","false","","","","","","","",""
"1433","
  <p style=""font-size: 40px;"">shumble</p>
  <p style=""font-size: 16px;"">F = YES &nbsp;&nbsp;&nbsp; J = NO</p>
","j","html-keyboard-response","27","2.1.0","142237","F=YES, J=NO","6qqxabsmnr","2","76","78","75","","","","","","lextale","false","false","","","","","","","",""
"2823","
  <p style=""font-size: 40px;"">thirst</p>
  <p style=""font-size: 16px;"">F = YES &nbsp;&nbsp;&nbsp; J = NO</p>
","f","html-keyboard-response","28","2.1.0","145061","F=YES, J=NO","6qqxabsmnr","2","76","78","75","","","","","","lextale","true","false","","","","","","","",""
"1336","
  <p style=""font-size: 40px;"">unsail</p>
  <p style=""font-size: 16px;"">F = YES &nbsp;&nbsp;&nbsp; J = NO</p>
","f","html-keyboard-response","29","2.1.0","146397","F=YES, J=NO","6qqxabsmnr","2","76","78","75","","","","","","lextale","false","false","","","","","","","",""
"1191","
  <p style=""font-size: 40px;"">rifle</p>
  <p style=""font-size: 16px;"">F = YES &nbsp;&nbsp;&nbsp; J = NO</p>
","f","html-keyboard-response","30","2.1.0","147589","F=YES, J=NO","6qqxabsmnr","2","76","78","75","","","","","","lextale","true","false","","","","","","","",""
"862","
  <p style=""font-size: 40px;"">mush</p>
  <p style=""font-size: 16px;"">F = YES &nbsp;&nbsp;&nbsp; J = NO</p>
","f","html-keyboard-response","31","2.1.0","148452","F=YES, J=NO","6qqxabsmnr","2","76","78","75","","","","","","lextale","false","false","","","","","","","",""
"755","
  <p style=""font-size: 40px;"">drench</p>
  <p style=""font-size: 16px;"">F = YES &nbsp;&nbsp;&nbsp; J = NO</p>
","f","html-keyboard-response","32","2.1.0","149207","F=YES, J=NO","6qqxabsmnr","2","76","78","75","","","","","","lextale","true","false","","","","","","","",""
"1341","
  <p style=""font-size: 40px;"">snirt</p>
  <p style=""font-size: 16px;"">F = YES &nbsp;&nbsp;&nbsp; J = NO</p>
","j","html-keyboard-response","33","2.1.0","150549","F=YES, J=NO","6qqxabsmnr","2","76","78","75","","","","","","lextale","false","false","","","","","","","",""
"1169","
  <p style=""font-size: 40px;"">bitter</p>
  <p style=""font-size: 16px;"">F = YES &nbsp;&nbsp;&nbsp; J = NO</p>
","f","html-keyboard-response","34","2.1.0","151719","F=YES, J=NO","6qqxabsmnr","2","76","78","75","","","","","","lextale","true","false","","","","","","","",""
"1161","
  <p style=""font-size: 40px;"">pliff</p>
  <p style=""font-size: 16px;"">F = YES &nbsp;&nbsp;&nbsp; J = NO</p>
","j","html-keyboard-response","35","2.1.0","152881","F=YES, J=NO","6qqxabsmnr","2","76","78","75","","","","","","lextale","false","false","","","","","","","",""
"1345","
  <p style=""font-size: 40px;"">tablet</p>
  <p style=""font-size: 16px;"">F = YES &nbsp;&nbsp;&nbsp; J = NO</p>
","f","html-keyboard-response","36","2.1.0","154227","F=YES, J=NO","6qqxabsmnr","2","76","78","75","","","","","","lextale","true","false","","","","","","","",""
"1619","
  <p style=""font-size: 40px;"">glimmer</p>
  <p style=""font-size: 16px;"">F = YES &nbsp;&nbsp;&nbsp; J = NO</p>
","j","html-keyboard-response","37","2.1.0","155847","F=YES, J=NO","6qqxabsmnr","2","76","78","75","","","","","","lextale","true","false","","","","","","","",""
"1273","
  <p style=""font-size: 40px;"">slink</p>
  <p style=""font-size: 16px;"">F = YES &nbsp;&nbsp;&nbsp; J = NO</p>
","j","html-keyboard-response","38","2.1.0","157120","F=YES, J=NO","6qqxabsmnr","2","76","78","75","","","","","","lextale","true","false","","","","","","","",""
"1063","
  <p style=""font-size: 40px;"">clever</p>
  <p style=""font-size: 16px;"">F = YES &nbsp;&nbsp;&nbsp; J = NO</p>
","f","html-keyboard-response","39","2.1.0","158185","F=YES, J=NO","6qqxabsmnr","2","76","78","75","","","","","","lextale","true","false","","","","","","","",""
"937","
  <p style=""font-size: 40px;"">grum</p>
  <p style=""font-size: 16px;"">F = YES &nbsp;&nbsp;&nbsp; J = NO</p>
","j","html-keyboard-response","40","2.1.0","159122","F=YES, J=NO","6qqxabsmnr","2","76","78","75","","","","","","lextale","false","false","","","","","","","",""
"942","
  <p style=""font-size: 40px;"">string</p>
  <p style=""font-size: 16px;"">F = YES &nbsp;&nbsp;&nbsp; J = NO</p>
","f","html-keyboard-response","41","2.1.0","160065","F=YES, J=NO","6qqxabsmnr","2","76","78","75","","","","","","lextale","true","false","","","","","","","",""
"937","
  <p style=""font-size: 40px;"">plim</p>
  <p style=""font-size: 16px;"">F = YES &nbsp;&nbsp;&nbsp; J = NO</p>
","j","html-keyboard-response","42","2.1.0","161004","F=YES, J=NO","6qqxabsmnr","2","76","78","75","","","","","","lextale","false","false","","","","","","","",""
"928","
  <p style=""font-size: 40px;"">cable</p>
  <p style=""font-size: 16px;"">F = YES &nbsp;&nbsp;&nbsp; J = NO</p>
","f","html-keyboard-response","43","2.1.0","161932","F=YES, J=NO","6qqxabsmnr","2","76","78","75","","","","","","lextale","true","false","","","","","","","",""
"1471","
  <p style=""font-size: 40px;"">shrivel</p>
  <p style=""font-size: 16px;"">F = YES &nbsp;&nbsp;&nbsp; J = NO</p>
","f","html-keyboard-response","44","2.1.0","163404","F=YES, J=NO","6qqxabsmnr","2","76","78","75","","","","","","lextale","true","false","","","","","","","",""
"772","
  <p style=""font-size: 40px;"">tarnish</p>
  <p style=""font-size: 16px;"">F = YES &nbsp;&nbsp;&nbsp; J = NO</p>
","f","html-keyboard-response","45","2.1.0","164176","F=YES, J=NO","6qqxabsmnr","2","76","78","75","","","","","","lextale","true","false","","","","","","","",""
"1010","
  <p style=""font-size: 40px;"">blim</p>
  <p style=""font-size: 16px;"">F = YES &nbsp;&nbsp;&nbsp; J = NO</p>
","j","html-keyboard-response","46","2.1.0","165188","F=YES, J=NO","6qqxabsmnr","2","76","78","75","","","","","","lextale","false","false","","","","","","","",""
"1529","
  <p style=""font-size: 40px;"">stifle</p>
  <p style=""font-size: 16px;"">F = YES &nbsp;&nbsp;&nbsp; J = NO</p>
","j","html-keyboard-response","47","2.1.0","166718","F=YES, J=NO","6qqxabsmnr","2","76","78","75","","","","","","lextale","true","false","","","","","","","",""
"1025","
  <p style=""font-size: 40px;"">bint</p>
  <p style=""font-size: 16px;"">F = YES &nbsp;&nbsp;&nbsp; J = NO</p>
","j","html-keyboard-response","48","2.1.0","167744","F=YES, J=NO","6qqxabsmnr","2","76","78","75","","","","","","lextale","false","false","","","","","","","",""
"1100","
  <p style=""font-size: 40px;"">purple</p>
  <p style=""font-size: 16px;"">F = YES &nbsp;&nbsp;&nbsp; J = NO</p>
","f","html-keyboard-response","49","2.1.0","168844","F=YES, J=NO","6qqxabsmnr","2","76","78","75","","","","","","lextale","true","false","","","","","","","",""
"1220","
  <p style=""font-size: 40px;"">wriggle</p>
  <p style=""font-size: 16px;"">F = YES &nbsp;&nbsp;&nbsp; J = NO</p>
","f","html-keyboard-response","50","2.1.0","170066","F=YES, J=NO","6qqxabsmnr","2","76","78","75","","","","","","lextale","true","false","","","","","","","",""
"1669","
  <p style=""font-size: 40px;"">mangle</p>
  <p style=""font-size: 16px;"">F = YES &nbsp;&nbsp;&nbsp; J = NO</p>
","f","html-keyboard-response","51","2.1.0","171735","F=YES, J=NO","6qqxabsmnr","2","76","78","75","","","","","","lextale","true","false","","","","","","","",""
"1452","
  <p style=""font-size: 40px;"">shramp</p>
  <p style=""font-size: 16px;"">F = YES &nbsp;&nbsp;&nbsp; J = NO</p>
","j","html-keyboard-response","52","2.1.0","173188","F=YES, J=NO","6qqxabsmnr","2","76","78","75","","","","","","lextale","false","false","","","","","","","",""
"1042","
  <p style=""font-size: 40px;"">flirt</p>
  <p style=""font-size: 16px;"">F = YES &nbsp;&nbsp;&nbsp; J = NO</p>
","f","html-keyboard-response","53","2.1.0","174231","F=YES, J=NO","6qqxabsmnr","2","76","78","75","","","","","","lextale","true","false","","","","","","","",""
"900","
  <p style=""font-size: 40px;"">frip</p>
  <p style=""font-size: 16px;"">F = YES &nbsp;&nbsp;&nbsp; J = NO</p>
","j","html-keyboard-response","54","2.1.0","175131","F=YES, J=NO","6qqxabsmnr","2","76","78","75","","","","","","lextale","false","false","","","","","","","",""
"2323","
  <p style=""font-size: 40px;"">tangle</p>
  <p style=""font-size: 16px;"">F = YES &nbsp;&nbsp;&nbsp; J = NO</p>
","f","html-keyboard-response","55","2.1.0","177454","F=YES, J=NO","6qqxabsmnr","2","76","78","75","","","","","","lextale","true","false","","","","","","","",""
"850","
  <p style=""font-size: 40px;"">crumble</p>
  <p style=""font-size: 16px;"">F = YES &nbsp;&nbsp;&nbsp; J = NO</p>
","f","html-keyboard-response","56","2.1.0","178305","F=YES, J=NO","6qqxabsmnr","2","76","78","75","","","","","","lextale","true","false","","","","","","","",""
"685","
  <p style=""font-size: 40px;"">wrinkle</p>
  <p style=""font-size: 16px;"">F = YES &nbsp;&nbsp;&nbsp; J = NO</p>
","f","html-keyboard-response","57","2.1.0","178992","F=YES, J=NO","6qqxabsmnr","2","76","78","75","","","","","","lextale","true","false","","","","","","","",""
"952","
  <p style=""font-size: 40px;"">slumb</p>
  <p style=""font-size: 16px;"">F = YES &nbsp;&nbsp;&nbsp; J = NO</p>
","j","html-keyboard-response","58","2.1.0","179944","F=YES, J=NO","6qqxabsmnr","2","76","78","75","","","","","","lextale","false","false","","","","","","","",""
"647","
  <p style=""font-size: 40px;"">jungle</p>
  <p style=""font-size: 16px;"">F = YES &nbsp;&nbsp;&nbsp; J = NO</p>
","f","html-keyboard-response","59","2.1.0","180592","F=YES, J=NO","6qqxabsmnr","2","76","78","75","","","","","","lextale","true","false","","","","","","","",""
"1590","
  <p style=""font-size: 40px;"">frolick</p>
  <p style=""font-size: 16px;"">F = YES &nbsp;&nbsp;&nbsp; J = NO</p>
","f","html-keyboard-response","60","2.1.0","182182","F=YES, J=NO","6qqxabsmnr","2","76","78","75","","","","","","lextale","false","false","","","","","","","",""
"3511","
      <h2>LexTALE Test Completed</h2>
      <p>Your LexTALE vocabulary score is: <strong>76%</strong></p>
      <p>Press any key to continue.</p>
    "," ","html-keyboard-response","61","2.1.0","185695","F=YES, J=NO","6qqxabsmnr","2","76","78","75","","","","","","","","","","","","","","","",""
"5357","
    <div style=""max-width: 800px; margin: auto; text-align: left;"">
      <h2>Break Time</h2>
      <p>You have completed the first part of the study.</p>
      <p>You may take a short <strong>30-second break</strong> before continuing.</p>
      <p>When you’re ready, press any key to continue to the final task.</p>
    </div>
  "," ","html-keyboard-response","62","2.1.0","191053","F=YES, J=NO","6qqxabsmnr","2","76","78","75","","","","","","","","","","","","","","","",""
"13898","
    <div style=""max-width: 800px; margin: auto; text-align: left;"">
      <h2>Part 2: Lexical Decision Task</h2>
      <p>You will now begin the second part of the study.</p>
      <p>Each trial will follow this sequence:</p>
      <ul>
        <li>A fixation cross (+) appears at the center of the screen.</li>
        <li>You will hear a short beep followed by a spoken word.</li>
        <li>A written word will appear briefly on the screen.</li>
      </ul>
      <p>Your task is to judge whether the <strong>written word</strong> is a real English word.</p>
      <p style=""margin-top: 1em;""><strong>Key responses:</strong></p>
      <ul>
        <li><strong>F</strong> = YES (real English word)</li>
        <li><strong>J</strong> = NO (not a real English word)</li>
      </ul>
      <p>Please respond as quickly and accurately as you can.</p>
      <p style=""margin-top: 2em;"">Press any key to continue.</p>
    </div>
  "," ","html-keyboard-response","63","2.1.0","204952","F=YES, J=NO","6qqxabsmnr","2","76","78","75","","","","","","","","","","","","","","","",""
"11073","
    <div style=""max-width: 800px; margin: auto; text-align: left;"">
      <h2>Before You Begin</h2>
      <p>Make sure your sound is turned on.</p>
      <p>You will hear audio during each trial, but your decision should be based only on the <strong>written word</strong> you see on the screen.</p>
      <p><strong>Reminder:</strong></p>
      <ul>
        <li><strong>F</strong> = YES (real English word)</li>
        <li><strong>J</strong> = NO (not a real English word)</li>
      </ul>
      <p style=""margin-top: 2em;"">Press any key when you are ready to begin.</p>
    </div>
  "," ","html-keyboard-response","64","2.1.0","216026","F=YES, J=NO","6qqxabsmnr","2","76","78","75","","","","","","","","","","","","","","","",""
"2884","
    <div style=""max-width: 800px; margin: auto; text-align: left;"">
      <h2>Part 2: Practice Trials</h2>
      <p>You will now complete a few <strong>practice trials</strong> to get familiar with the task.</p>
      <p>These trials are <strong>not scored</strong> and are only to help you get used to the format.</p>
      <p style=""margin-top: 2em;"">Press any key to begin.</p>
    </div>
  "," ","html-keyboard-response","65","2.1.0","218910","F=YES, J=NO","6qqxabsmnr","2","76","78","75","","","","","","","","","","","","","","","",""
"1240","<p>Starting practice block 1 of 2. Press any key to continue.</p>"," ","html-keyboard-response","66","2.1.0","220151","F=YES, J=NO","6qqxabsmnr","2","76","78","75","","","","","","","","","","","","","","","",""
"null","<p style=""font-size: 50px;"">+</p>","null","html-keyboard-response","67","2.1.0","220461","F=YES, J=NO","6qqxabsmnr","2","76","78","75","","","","","","","","","","","","","","","",""
"null","audio/beep-329314.mp3","null","audio-keyboard-response","68","2.1.0","221998","F=YES, J=NO","6qqxabsmnr","2","76","78","75","","","","","","","","","","","","","","","",""
"null","audio/haste1.wav","null","audio-keyboard-response","69","2.1.0","222548","F=YES, J=NO","6qqxabsmnr","2","76","78","75","","","","","","","","","","","","","","","",""
"null","
          <p id=""word"" style=""font-size: 40px;"">coraconate</p>
          <p style=""font-size: 16px;"">F = YES &nbsp;&nbsp;&nbsp; J = NO</p>
        ","null","html-keyboard-response","70","2.1.0","224052","F=YES, J=NO","6qqxabsmnr","2","76","78","75","","","","","","","","","coraconate","haste1","pseudoword","pseudoword","j","false","",""
"null","<p style=""font-size: 50px;"">+</p>","null","html-keyboard-response","71","2.1.0","224364","F=YES, J=NO","6qqxabsmnr","2","76","78","75","","","","","","","","","","","","","","","",""
"null","audio/beep-329314.mp3","null","audio-keyboard-response","72","2.1.0","225899","F=YES, J=NO","6qqxabsmnr","2","76","78","75","","","","","","","","","","","","","","","",""
"null","audio/trout1.wav","null","audio-keyboard-response","73","2.1.0","226548","F=YES, J=NO","6qqxabsmnr","2","76","78","75","","","","","","","","","","","","","","","",""
"889","
          <p id=""word"" style=""font-size: 40px;"">spimt</p>
          <p style=""font-size: 16px;"">F = YES &nbsp;&nbsp;&nbsp; J = NO</p>
        ","j","html-keyboard-response","74","2.1.0","227438","F=YES, J=NO","6qqxabsmnr","2","76","78","75","","","","","","","","","spimt","trout1","pseudoword","pseudoword","j","true","",""
"null","<p style=""font-size: 50px;"">+</p>","null","html-keyboard-response","75","2.1.0","227741","F=YES, J=NO","6qqxabsmnr","2","76","78","75","","","","","","","","","","","","","","","",""
"null","audio/beep-329314.mp3","null","audio-keyboard-response","76","2.1.0","229278","F=YES, J=NO","6qqxabsmnr","2","76","78","75","","","","","","","","","","","","","","","",""
"null","audio/grass.wav","null","audio-keyboard-response","77","2.1.0","229928","F=YES, J=NO","6qqxabsmnr","2","76","78","75","","","","","","","","","","","","","","","",""
"715","
          <p id=""word"" style=""font-size: 40px;"">milames</p>
          <p style=""font-size: 16px;"">F = YES &nbsp;&nbsp;&nbsp; J = NO</p>
        ","j","html-keyboard-response","78","2.1.0","230644","F=YES, J=NO","6qqxabsmnr","2","76","78","75","","","","","","","","","milames","grass","pseudoword","pseudoword","j","true","",""
"null","<p style=""font-size: 50px;"">+</p>","null","html-keyboard-response","79","2.1.0","230959","F=YES, J=NO","6qqxabsmnr","2","76","78","75","","","","","","","","","","","","","","","",""
"null","audio/beep-329314.mp3","null","audio-keyboard-response","80","2.1.0","232498","F=YES, J=NO","6qqxabsmnr","2","76","78","75","","","","","","","","","","","","","","","",""
"null","audio/breath.wav","null","audio-keyboard-response","81","2.1.0","233108","F=YES, J=NO","6qqxabsmnr","2","76","78","75","","","","","","","","","","","","","","","",""
"null","
          <p id=""word"" style=""font-size: 40px;"">twets</p>
          <p style=""font-size: 16px;"">F = YES &nbsp;&nbsp;&nbsp; J = NO</p>
        ","null","html-keyboard-response","82","2.1.0","234619","F=YES, J=NO","6qqxabsmnr","2","76","78","75","","","","","","","","","twets","breath","pseudoword","pseudoword","j","false","",""
"null","<p style=""font-size: 50px;"">+</p>","null","html-keyboard-response","83","2.1.0","234929","F=YES, J=NO","6qqxabsmnr","2","76","78","75","","","","","","","","","","","","","","","",""
"null","audio/beep-329314.mp3","null","audio-keyboard-response","84","2.1.0","236458","F=YES, J=NO","6qqxabsmnr","2","76","78","75","","","","","","","","","","","","","","","",""
"null","audio/ankle1.wav","null","audio-keyboard-response","85","2.1.0","237028","F=YES, J=NO","6qqxabsmnr","2","76","78","75","","","","","","","","","","","","","","","",""
"852","
          <p id=""word"" style=""font-size: 40px;"">kick</p>
          <p style=""font-size: 16px;"">F = YES &nbsp;&nbsp;&nbsp; J = NO</p>
        ","j","html-keyboard-response","86","2.1.0","237880","F=YES, J=NO","6qqxabsmnr","2","76","78","75","","","","","","","","","kick","ankle1","filler","filler","f","false","",""
"null","<p style=""font-size: 50px;"">+</p>","null","html-keyboard-response","87","2.1.0","238185","F=YES, J=NO","6qqxabsmnr","2","76","78","75","","","","","","","","","","","","","","","",""
"null","audio/beep-329314.mp3","null","audio-keyboard-response","88","2.1.0","239718","F=YES, J=NO","6qqxabsmnr","2","76","78","75","","","","","","","","","","","","","","","",""
"null","audio/camera1.wav","null","audio-keyboard-response","89","2.1.0","240248","F=YES, J=NO","6qqxabsmnr","2","76","78","75","","","","","","","","","","","","","","","",""
"889","
          <p id=""word"" style=""font-size: 40px;"">stir</p>
          <p style=""font-size: 16px;"">F = YES &nbsp;&nbsp;&nbsp; J = NO</p>
        ","f","html-keyboard-response","90","2.1.0","241137","F=YES, J=NO","6qqxabsmnr","2","76","78","75","","","","","","","","","stir","camera1","filler","filler","f","true","",""
"null","<p style=""font-size: 50px;"">+</p>","null","html-keyboard-response","91","2.1.0","241447","F=YES, J=NO","6qqxabsmnr","2","76","78","75","","","","","","","","","","","","","","","",""
"null","audio/beep-329314.mp3","null","audio-keyboard-response","92","2.1.0","242979","F=YES, J=NO","6qqxabsmnr","2","76","78","75","","","","","","","","","","","","","","","",""
"null","audio/scar.wav","null","audio-keyboard-response","93","2.1.0","243608","F=YES, J=NO","6qqxabsmnr","2","76","78","75","","","","","","","","","","","","","","","",""
"null","
          <p id=""word"" style=""font-size: 40px;"">adelineate</p>
          <p style=""font-size: 16px;"">F = YES &nbsp;&nbsp;&nbsp; J = NO</p>
        ","null","html-keyboard-response","94","2.1.0","245111","F=YES, J=NO","6qqxabsmnr","2","76","78","75","","","","","","","","","adelineate","scar","pseudoword","pseudoword","j","false","",""
"null","<p style=""font-size: 50px;"">+</p>","null","html-keyboard-response","95","2.1.0","245419","F=YES, J=NO","6qqxabsmnr","2","76","78","75","","","","","","","","","","","","","","","",""
"null","audio/beep-329314.mp3","null","audio-keyboard-response","96","2.1.0","246959","F=YES, J=NO","6qqxabsmnr","2","76","78","75","","","","","","","","","","","","","","","",""
"null","audio/bridge.wav","null","audio-keyboard-response","97","2.1.0","247509","F=YES, J=NO","6qqxabsmnr","2","76","78","75","","","","","","","","","","","","","","","",""
"null","
          <p id=""word"" style=""font-size: 40px;"">crack</p>
          <p style=""font-size: 16px;"">F = YES &nbsp;&nbsp;&nbsp; J = NO</p>
        ","null","html-keyboard-response","98","2.1.0","249016","F=YES, J=NO","6qqxabsmnr","2","76","78","75","","","","","","","","","crack","bridge","filler","filler","f","false","",""
"null","<p style=""font-size: 50px;"">+</p>","null","html-keyboard-response","99","2.1.0","249325","F=YES, J=NO","6qqxabsmnr","2","76","78","75","","","","","","","","","","","","","","","",""
"null","audio/beep-329314.mp3","null","audio-keyboard-response","100","2.1.0","250858","F=YES, J=NO","6qqxabsmnr","2","76","78","75","","","","","","","","","","","","","","","",""
"null","audio/sugar1.wav","null","audio-keyboard-response","101","2.1.0","251388","F=YES, J=NO","6qqxabsmnr","2","76","78","75","","","","","","","","","","","","","","","",""
"null","
          <p id=""word"" style=""font-size: 40px;"">glung</p>
          <p style=""font-size: 16px;"">F = YES &nbsp;&nbsp;&nbsp; J = NO</p>
        ","null","html-keyboard-response","102","2.1.0","252891","F=YES, J=NO","6qqxabsmnr","2","76","78","75","","","","","","","","","glung","sugar1","pseudoword","pseudoword","j","false","",""
"null","<p style=""font-size: 50px;"">+</p>","null","html-keyboard-response","103","2.1.0","253201","F=YES, J=NO","6qqxabsmnr","2","76","78","75","","","","","","","","","","","","","","","",""
"null","audio/beep-329314.mp3","null","audio-keyboard-response","104","2.1.0","254738","F=YES, J=NO","6qqxabsmnr","2","76","78","75","","","","","","","","","","","","","","","",""
"null","audio/butter1.wav","null","audio-keyboard-response","105","2.1.0","255228","F=YES, J=NO","6qqxabsmnr","2","76","78","75","","","","","","","","","","","","","","","",""
"null","
          <p id=""word"" style=""font-size: 40px;"">chew</p>
          <p style=""font-size: 16px;"">F = YES &nbsp;&nbsp;&nbsp; J = NO</p>
        ","null","html-keyboard-response","106","2.1.0","256729","F=YES, J=NO","6qqxabsmnr","2","76","78","75","","","","","","","","","chew","butter1","filler","filler","f","false","",""
"null","<p style=""font-size: 50px;"">+</p>","null","html-keyboard-response","107","2.1.0","257042","F=YES, J=NO","6qqxabsmnr","2","76","78","75","","","","","","","","","","","","","","","",""
"null","audio/beep-329314.mp3","null","audio-keyboard-response","108","2.1.0","258578","F=YES, J=NO","6qqxabsmnr","2","76","78","75","","","","","","","","","","","","","","","",""
"null","audio/ankle1.wav","null","audio-keyboard-response","109","2.1.0","259088","F=YES, J=NO","6qqxabsmnr","2","76","78","75","","","","","","","","","","","","","","","",""
"null","
          <p id=""word"" style=""font-size: 40px;"">switm</p>
          <p style=""font-size: 16px;"">F = YES &nbsp;&nbsp;&nbsp; J = NO</p>
        ","null","html-keyboard-response","110","2.1.0","260596","F=YES, J=NO","6qqxabsmnr","2","76","78","75","","","","","","","","","switm","ankle1","pseudoword","pseudoword","j","false","",""
"null","<p style=""font-size: 50px;"">+</p>","null","html-keyboard-response","111","2.1.0","260904","F=YES, J=NO","6qqxabsmnr","2","76","78","75","","","","","","","","","","","","","","","",""
"null","audio/beep-329314.mp3","null","audio-keyboard-response","112","2.1.0","262438","F=YES, J=NO","6qqxabsmnr","2","76","78","75","","","","","","","","","","","","","","","",""
"null","audio/budget1.wav","null","audio-keyboard-response","113","2.1.0","263088","F=YES, J=NO","6qqxabsmnr","2","76","78","75","","","","","","","","","","","","","","","",""
"null","
          <p id=""word"" style=""font-size: 40px;"">sulist</p>
          <p style=""font-size: 16px;"">F = YES &nbsp;&nbsp;&nbsp; J = NO</p>
        ","null","html-keyboard-response","114","2.1.0","264589","F=YES, J=NO","6qqxabsmnr","2","76","78","75","","","","","","","","","sulist","budget1","pseudoword","pseudoword","j","false","",""
"3148","<p>Starting practice block 2 of 2. Press any key to continue.</p>"," ","html-keyboard-response","115","2.1.0","267738","F=YES, J=NO","6qqxabsmnr","2","76","78","75","","","","","","","","","","","","","","","",""
"null","<p style=""font-size: 50px;"">+</p>","null","html-keyboard-response","116","2.1.0","268041","F=YES, J=NO","6qqxabsmnr","2","76","78","75","","","","","","","","","","","","","","","",""
"null","audio/beep-329314.mp3","null","audio-keyboard-response","117","2.1.0","269578","F=YES, J=NO","6qqxabsmnr","2","76","78","75","","","","","","","","","","","","","","","",""
"null","audio/van1.wav","null","audio-keyboard-response","118","2.1.0","270068","F=YES, J=NO","6qqxabsmnr","2","76","78","75","","","","","","","","","","","","","","","",""
"484","
          <p id=""word"" style=""font-size: 40px;"">push</p>
          <p style=""font-size: 16px;"">F = YES &nbsp;&nbsp;&nbsp; J = NO</p>
        ","f","html-keyboard-response","119","2.1.0","270552","F=YES, J=NO","6qqxabsmnr","2","76","78","75","","","","","","","","","push","van1","filler","filler","f","true","",""
"null","<p style=""font-size: 50px;"">+</p>","null","html-keyboard-response","120","2.1.0","270858","F=YES, J=NO","6qqxabsmnr","2","76","78","75","","","","","","","","","","","","","","","",""
"null","audio/beep-329314.mp3","null","audio-keyboard-response","121","2.1.0","272398","F=YES, J=NO","6qqxabsmnr","2","76","78","75","","","","","","","","","","","","","","","",""
"null","audio/test1.wav","null","audio-keyboard-response","122","2.1.0","273008","F=YES, J=NO","6qqxabsmnr","2","76","78","75","","","","","","","","","","","","","","","",""
"617","
          <p id=""word"" style=""font-size: 40px;"">twopch</p>
          <p style=""font-size: 16px;"">F = YES &nbsp;&nbsp;&nbsp; J = NO</p>
        ","j","html-keyboard-response","123","2.1.0","273625","F=YES, J=NO","6qqxabsmnr","2","76","78","75","","","","","","","","","twopch","test1","pseudoword","pseudoword","j","true","",""
"null","<p style=""font-size: 50px;"">+</p>","null","html-keyboard-response","124","2.1.0","273940","F=YES, J=NO","6qqxabsmnr","2","76","78","75","","","","","","","","","","","","","","","",""
"null","audio/beep-329314.mp3","null","audio-keyboard-response","125","2.1.0","275478","F=YES, J=NO","6qqxabsmnr","2","76","78","75","","","","","","","","","","","","","","","",""
"null","audio/belief.wav","null","audio-keyboard-response","126","2.1.0","276148","F=YES, J=NO","6qqxabsmnr","2","76","78","75","","","","","","","","","","","","","","","",""
"922","
          <p id=""word"" style=""font-size: 40px;"">read</p>
          <p style=""font-size: 16px;"">F = YES &nbsp;&nbsp;&nbsp; J = NO</p>
        ","f","html-keyboard-response","127","2.1.0","277070","F=YES, J=NO","6qqxabsmnr","2","76","78","75","","","","","","","","","read","belief","filler","filler","f","true","",""
"null","<p style=""font-size: 50px;"">+</p>","null","html-keyboard-response","128","2.1.0","277377","F=YES, J=NO","6qqxabsmnr","2","76","78","75","","","","","","","","","","","","","","","",""
"null","audio/beep-329314.mp3","null","audio-keyboard-response","129","2.1.0","278898","F=YES, J=NO","6qqxabsmnr","2","76","78","75","","","","","","","","","","","","","","","",""
"null","audio/terrain.wav","null","audio-keyboard-response","130","2.1.0","279528","F=YES, J=NO","6qqxabsmnr","2","76","78","75","","","","","","","","","","","","","","","",""
"705","
          <p id=""word"" style=""font-size: 40px;"">twist</p>
          <p style=""font-size: 16px;"">F = YES &nbsp;&nbsp;&nbsp; J = NO</p>
        ","f","html-keyboard-response","131","2.1.0","280234","F=YES, J=NO","6qqxabsmnr","2","76","78","75","","","","","","","","","twist","terrain","filler","filler","f","true","",""
"null","<p style=""font-size: 50px;"">+</p>","null","html-keyboard-response","132","2.1.0","280546","F=YES, J=NO","6qqxabsmnr","2","76","78","75","","","","","","","","","","","","","","","",""
"null","audio/beep-329314.mp3","null","audio-keyboard-response","133","2.1.0","282078","F=YES, J=NO","6qqxabsmnr","2","76","78","75","","","","","","","","","","","","","","","",""
"null","audio/cancer1.wav","null","audio-keyboard-response","134","2.1.0","282668","F=YES, J=NO","6qqxabsmnr","2","76","78","75","","","","","","","","","","","","","","","",""
"550","
          <p id=""word"" style=""font-size: 40px;"">draw</p>
          <p style=""font-size: 16px;"">F = YES &nbsp;&nbsp;&nbsp; J = NO</p>
        ","f","html-keyboard-response","135","2.1.0","283218","F=YES, J=NO","6qqxabsmnr","2","76","78","75","","","","","","","","","draw","cancer1","filler","filler","f","true","",""
"null","<p style=""font-size: 50px;"">+</p>","null","html-keyboard-response","136","2.1.0","283531","F=YES, J=NO","6qqxabsmnr","2","76","78","75","","","","","","","","","","","","","","","",""
"null","audio/beep-329314.mp3","null","audio-keyboard-response","137","2.1.0","285058","F=YES, J=NO","6qqxabsmnr","2","76","78","75","","","","","","","","","","","","","","","",""
"null","audio/cinema1.wav","null","audio-keyboard-response","138","2.1.0","285668","F=YES, J=NO","6qqxabsmnr","2","76","78","75","","","","","","","","","","","","","","","",""
"null","
          <p id=""word"" style=""font-size: 40px;"">murple</p>
          <p style=""font-size: 16px;"">F = YES &nbsp;&nbsp;&nbsp; J = NO</p>
        ","null","html-keyboard-response","139","2.1.0","287174","F=YES, J=NO","6qqxabsmnr","2","76","78","75","","","","","","","","","murple","cinema1","pseudoword","pseudoword","j","false","",""
"null","<p style=""font-size: 50px;"">+</p>","null","html-keyboard-response","140","2.1.0","287483","F=YES, J=NO","6qqxabsmnr","2","76","78","75","","","","","","","","","","","","","","","",""
"null","audio/beep-329314.mp3","null","audio-keyboard-response","141","2.1.0","289018","F=YES, J=NO","6qqxabsmnr","2","76","78","75","","","","","","","","","","","","","","","",""
"null","audio/uncle1.wav","null","audio-keyboard-response","142","2.1.0","289568","F=YES, J=NO","6qqxabsmnr","2","76","78","75","","","","","","","","","","","","","","","",""
"981","
          <p id=""word"" style=""font-size: 40px;"">dramble</p>
          <p style=""font-size: 16px;"">F = YES &nbsp;&nbsp;&nbsp; J = NO</p>
        ","j","html-keyboard-response","143","2.1.0","290550","F=YES, J=NO","6qqxabsmnr","2","76","78","75","","","","","","","","","dramble","uncle1","pseudoword","pseudoword","j","true","",""
"null","<p style=""font-size: 50px;"">+</p>","null","html-keyboard-response","144","2.1.0","290854","F=YES, J=NO","6qqxabsmnr","2","76","78","75","","","","","","","","","","","","","","","",""
"null","audio/beep-329314.mp3","null","audio-keyboard-response","145","2.1.0","292379","F=YES, J=NO","6qqxabsmnr","2","76","78","75","","","","","","","","","","","","","","","",""
"null","audio/bomb1.wav","null","audio-keyboard-response","146","2.1.0","292748","F=YES, J=NO","6qqxabsmnr","2","76","78","75","","","","","","","","","","","","","","","",""
"752","
          <p id=""word"" style=""font-size: 40px;"">clean</p>
          <p style=""font-size: 16px;"">F = YES &nbsp;&nbsp;&nbsp; J = NO</p>
        ","f","html-keyboard-response","147","2.1.0","293500","F=YES, J=NO","6qqxabsmnr","2","76","78","75","","","","","","","","","clean","bomb1","filler","filler","f","true","",""
"null","<p style=""font-size: 50px;"">+</p>","null","html-keyboard-response","148","2.1.0","293803","F=YES, J=NO","6qqxabsmnr","2","76","78","75","","","","","","","","","","","","","","","",""
"null","audio/beep-329314.mp3","null","audio-keyboard-response","149","2.1.0","295338","F=YES, J=NO","6qqxabsmnr","2","76","78","75","","","","","","","","","","","","","","","",""
"null","audio/baby.wav","null","audio-keyboard-response","150","2.1.0","295848","F=YES, J=NO","6qqxabsmnr","2","76","78","75","","","","","","","","","","","","","","","",""
"744","
          <p id=""word"" style=""font-size: 40px;"">lift</p>
          <p style=""font-size: 16px;"">F = YES &nbsp;&nbsp;&nbsp; J = NO</p>
        ","f","html-keyboard-response","151","2.1.0","296593","F=YES, J=NO","6qqxabsmnr","2","76","78","75","","","","","","","","","lift","baby","filler","filler","f","true","",""
"null","<p style=""font-size: 50px;"">+</p>","null","html-keyboard-response","152","2.1.0","296898","F=YES, J=NO","6qqxabsmnr","2","76","78","75","","","","","","","","","","","","","","","",""
"null","audio/beep-329314.mp3","null","audio-keyboard-response","153","2.1.0","298438","F=YES, J=NO","6qqxabsmnr","2","76","78","75","","","","","","","","","","","","","","","",""
"null","audio/breath.wav","null","audio-keyboard-response","154","2.1.0","298988","F=YES, J=NO","6qqxabsmnr","2","76","78","75","","","","","","","","","","","","","","","",""
"597","
          <p id=""word"" style=""font-size: 40px;"">pack</p>
          <p style=""font-size: 16px;"">F = YES &nbsp;&nbsp;&nbsp; J = NO</p>
        ","f","html-keyboard-response","155","2.1.0","299586","F=YES, J=NO","6qqxabsmnr","2","76","78","75","","","","","","","","","pack","breath","filler","filler","f","true","",""
"null","<p style=""font-size: 50px;"">+</p>","null","html-keyboard-response","156","2.1.0","299893","F=YES, J=NO","6qqxabsmnr","2","76","78","75","","","","","","","","","","","","","","","",""
"null","audio/beep-329314.mp3","null","audio-keyboard-response","157","2.1.0","301418","F=YES, J=NO","6qqxabsmnr","2","76","78","75","","","","","","","","","","","","","","","",""
"null","audio/corpse1.wav","null","audio-keyboard-response","158","2.1.0","302048","F=YES, J=NO","6qqxabsmnr","2","76","78","75","","","","","","","","","","","","","","","",""
"1076","
          <p id=""word"" style=""font-size: 40px;"">glonet</p>
          <p style=""font-size: 16px;"">F = YES &nbsp;&nbsp;&nbsp; J = NO</p>
        ","j","html-keyboard-response","159","2.1.0","303125","F=YES, J=NO","6qqxabsmnr","2","76","78","75","","","","","","","","","glonet","corpse1","pseudoword","pseudoword","j","true","",""
"null","<p style=""font-size: 50px;"">+</p>","null","html-keyboard-response","160","2.1.0","303429","F=YES, J=NO","6qqxabsmnr","2","76","78","75","","","","","","","","","","","","","","","",""
"null","audio/beep-329314.mp3","null","audio-keyboard-response","161","2.1.0","304958","F=YES, J=NO","6qqxabsmnr","2","76","78","75","","","","","","","","","","","","","","","",""
"null","audio/arm.wav","null","audio-keyboard-response","162","2.1.0","305508","F=YES, J=NO","6qqxabsmnr","2","76","78","75","","","","","","","","","","","","","","","",""
"655","
          <p id=""word"" style=""font-size: 40px;"">fold</p>
          <p style=""font-size: 16px;"">F = YES &nbsp;&nbsp;&nbsp; J = NO</p>
        ","f","html-keyboard-response","163","2.1.0","306164","F=YES, J=NO","6qqxabsmnr","2","76","78","75","","","","","","","","","fold","arm","filler","filler","f","true","",""
"8771","
    <div style=""max-width: 800px; margin: auto; text-align: left;"">
      <h2>Part 2: Main Trials</h2>
      <p>Great job on the practice trials!</p>
      <p>You will now begin the <strong>main set of trials</strong>.</p>
      <p>Remember your key assignments:</p>
      <ul>
        <li><strong>F</strong> = YES (real English word)</li>
        <li><strong>J</strong> = NO (not a real English word)</li>
      </ul>
      <p>Try to respond as <strong>quickly and accurately</strong> as possible.</p>
      <p style=""margin-top: 2em;"">Press any key to begin the main trials.</p>
    </div>
  "," ","html-keyboard-response","164","2.1.0","314936","F=YES, J=NO","6qqxabsmnr","2","76","78","75","","","","","","","","","","","","","","","",""
"1971","<p>Starting main block 1 of 8. Press any key to continue.</p>"," ","html-keyboard-response","165","2.1.0","316908","F=YES, J=NO","6qqxabsmnr","2","76","78","75","","","","","","","","","","","","","","","",""
"null","<p style=""font-size: 50px;"">+</p>","null","html-keyboard-response","166","2.1.0","317218","F=YES, J=NO","6qqxabsmnr","2","76","78","75","","","","","","","","","","","","","","","",""
"null","audio/beep-329314.mp3","null","audio-keyboard-response","167","2.1.0","318728","F=YES, J=NO","6qqxabsmnr","2","76","78","75","","","","","","","","","","","","","","","",""
"null","audio/kettle1.wav","null","audio-keyboard-response","168","2.1.0","319168","F=YES, J=NO","6qqxabsmnr","2","76","78","75","","","","","","","","","","","","","","","",""
"561","
          <p id=""word"" style=""font-size: 40px;"">navigate</p>
          <p style=""font-size: 16px;"">F = YES &nbsp;&nbsp;&nbsp; J = NO</p>
        ","f","html-keyboard-response","169","2.1.0","319730","F=YES, J=NO","6qqxabsmnr","2","76","78","75","","","","","","","","","navigate","kettle1","unrelated","experimental","f","true","",""
"null","<p style=""font-size: 50px;"">+</p>","null","html-keyboard-response","170","2.1.0","320043","F=YES, J=NO","6qqxabsmnr","2","76","78","75","","","","","","","","","","","","","","","",""
"null","audio/beep-329314.mp3","null","audio-keyboard-response","171","2.1.0","321568","F=YES, J=NO","6qqxabsmnr","2","76","78","75","","","","","","","","","","","","","","","",""
"null","audio/cottage1.wav","null","audio-keyboard-response","172","2.1.0","322208","F=YES, J=NO","6qqxabsmnr","2","76","78","75","","","","","","","","","","","","","","","",""
"423","
          <p id=""word"" style=""font-size: 40px;"">release</p>
          <p style=""font-size: 16px;"">F = YES &nbsp;&nbsp;&nbsp; J = NO</p>
        ","f","html-keyboard-response","173","2.1.0","322632","F=YES, J=NO","6qqxabsmnr","2","76","78","75","","","","","","","","","release","cottage1","unrelated","experimental","f","true","",""
"null","<p style=""font-size: 50px;"">+</p>","null","html-keyboard-response","174","2.1.0","322939","F=YES, J=NO","6qqxabsmnr","2","76","78","75","","","","","","","","","","","","","","","",""
"null","audio/beep-329314.mp3","null","audio-keyboard-response","175","2.1.0","324468","F=YES, J=NO","6qqxabsmnr","2","76","78","75","","","","","","","","","","","","","","","",""
"null","audio/van1.wav","null","audio-keyboard-response","176","2.1.0","324948","F=YES, J=NO","6qqxabsmnr","2","76","78","75","","","","","","","","","","","","","","","",""
"514","
          <p id=""word"" style=""font-size: 40px;"">support</p>
          <p style=""font-size: 16px;"">F = YES &nbsp;&nbsp;&nbsp; J = NO</p>
        ","f","html-keyboard-response","177","2.1.0","325463","F=YES, J=NO","6qqxabsmnr","2","76","78","75","","","","","","","","","support","van1","unrelated","experimental","f","true","",""
"null","<p style=""font-size: 50px;"">+</p>","null","html-keyboard-response","178","2.1.0","325776","F=YES, J=NO","6qqxabsmnr","2","76","78","75","","","","","","","","","","","","","","","",""
"null","audio/beep-329314.mp3","null","audio-keyboard-response","179","2.1.0","327308","F=YES, J=NO","6qqxabsmnr","2","76","78","75","","","","","","","","","","","","","","","",""
"null","audio/weight1.wav","null","audio-keyboard-response","180","2.1.0","327828","F=YES, J=NO","6qqxabsmnr","2","76","78","75","","","","","","","","","","","","","","","",""
"543","
          <p id=""word"" style=""font-size: 40px;"">crimsh</p>
          <p style=""font-size: 16px;"">F = YES &nbsp;&nbsp;&nbsp; J = NO</p>
        ","j","html-keyboard-response","181","2.1.0","328373","F=YES, J=NO","6qqxabsmnr","2","76","78","75","","","","","","","","","crimsh","weight1","pseudoword","pseudoword","j","true","",""
"null","<p style=""font-size: 50px;"">+</p>","null","html-keyboard-response","182","2.1.0","328683","F=YES, J=NO","6qqxabsmnr","2","76","78","75","","","","","","","","","","","","","","","",""
"null","audio/beep-329314.mp3","null","audio-keyboard-response","183","2.1.0","330208","F=YES, J=NO","6qqxabsmnr","2","76","78","75","","","","","","","","","","","","","","","",""
"null","audio/alarm1.wav","null","audio-keyboard-response","184","2.1.0","330788","F=YES, J=NO","6qqxabsmnr","2","76","78","75","","","","","","","","","","","","","","","",""
"632","
          <p id=""word"" style=""font-size: 40px;"">swetp</p>
          <p style=""font-size: 16px;"">F = YES &nbsp;&nbsp;&nbsp; J = NO</p>
        ","j","html-keyboard-response","185","2.1.0","331421","F=YES, J=NO","6qqxabsmnr","2","76","78","75","","","","","","","","","swetp","alarm1","pseudoword","pseudoword","j","true","",""
"null","<p style=""font-size: 50px;"">+</p>","null","html-keyboard-response","186","2.1.0","331726","F=YES, J=NO","6qqxabsmnr","2","76","78","75","","","","","","","","","","","","","","","",""
"null","audio/beep-329314.mp3","null","audio-keyboard-response","187","2.1.0","333248","F=YES, J=NO","6qqxabsmnr","2","76","78","75","","","","","","","","","","","","","","","",""
"null","audio/desire.wav","null","audio-keyboard-response","188","2.1.0","334028","F=YES, J=NO","6qqxabsmnr","2","76","78","75","","","","","","","","","","","","","","","",""
"529","
          <p id=""word"" style=""font-size: 40px;"">nophed</p>
          <p style=""font-size: 16px;"">F = YES &nbsp;&nbsp;&nbsp; J = NO</p>
        ","j","html-keyboard-response","189","2.1.0","334557","F=YES, J=NO","6qqxabsmnr","2","76","78","75","","","","","","","","","nophed","desire","pseudoword","pseudoword","j","true","",""
"null","<p style=""font-size: 50px;"">+</p>","null","html-keyboard-response","190","2.1.0","334866","F=YES, J=NO","6qqxabsmnr","2","76","78","75","","","","","","","","","","","","","","","",""
"null","audio/beep-329314.mp3","null","audio-keyboard-response","191","2.1.0","336388","F=YES, J=NO","6qqxabsmnr","2","76","78","75","","","","","","","","","","","","","","","",""
"null","audio/gossip1.wav","null","audio-keyboard-response","192","2.1.0","337188","F=YES, J=NO","6qqxabsmnr","2","76","78","75","","","","","","","","","","","","","","","",""
"709","
          <p id=""word"" style=""font-size: 40px;"">camerish</p>
          <p style=""font-size: 16px;"">F = YES &nbsp;&nbsp;&nbsp; J = NO</p>
        ","j","html-keyboard-response","193","2.1.0","337898","F=YES, J=NO","6qqxabsmnr","2","76","78","75","","","","","","","","","camerish","gossip1","pseudoword","pseudoword","j","true","",""
"null","<p style=""font-size: 50px;"">+</p>","null","html-keyboard-response","194","2.1.0","338212","F=YES, J=NO","6qqxabsmnr","2","76","78","75","","","","","","","","","","","","","","","",""
"null","audio/beep-329314.mp3","null","audio-keyboard-response","195","2.1.0","339748","F=YES, J=NO","6qqxabsmnr","2","76","78","75","","","","","","","","","","","","","","","",""
"null","audio/emotion.wav","null","audio-keyboard-response","196","2.1.0","340588","F=YES, J=NO","6qqxabsmnr","2","76","78","75","","","","","","","","","","","","","","","",""
"639","
          <p id=""word"" style=""font-size: 40px;"">devering</p>
          <p style=""font-size: 16px;"">F = YES &nbsp;&nbsp;&nbsp; J = NO</p>
        ","j","html-keyboard-response","197","2.1.0","341229","F=YES, J=NO","6qqxabsmnr","2","76","78","75","","","","","","","","","devering","emotion","pseudoword","pseudoword","j","true","",""
"null","<p style=""font-size: 50px;"">+</p>","null","html-keyboard-response","198","2.1.0","341545","F=YES, J=NO","6qqxabsmnr","2","76","78","75","","","","","","","","","","","","","","","",""
"null","audio/beep-329314.mp3","null","audio-keyboard-response","199","2.1.0","343068","F=YES, J=NO","6qqxabsmnr","2","76","78","75","","","","","","","","","","","","","","","",""
"null","audio/meal.wav","null","audio-keyboard-response","200","2.1.0","343768","F=YES, J=NO","6qqxabsmnr","2","76","78","75","","","","","","","","","","","","","","","",""
"478","
          <p id=""word"" style=""font-size: 40px;"">share</p>
          <p style=""font-size: 16px;"">F = YES &nbsp;&nbsp;&nbsp; J = NO</p>
        ","f","html-keyboard-response","201","2.1.0","344246","F=YES, J=NO","6qqxabsmnr","2","76","78","75","","","","","","","","","share","meal","literal","experimental","f","true","",""
"null","<p style=""font-size: 50px;"">+</p>","null","html-keyboard-response","202","2.1.0","344549","F=YES, J=NO","6qqxabsmnr","2","76","78","75","","","","","","","","","","","","","","","",""
"null","audio/beep-329314.mp3","null","audio-keyboard-response","203","2.1.0","346088","F=YES, J=NO","6qqxabsmnr","2","76","78","75","","","","","","","","","","","","","","","",""
"null","audio/battle1.wav","null","audio-keyboard-response","204","2.1.0","346548","F=YES, J=NO","6qqxabsmnr","2","76","78","75","","","","","","","","","","","","","","","",""
"519","
          <p id=""word"" style=""font-size: 40px;"">boil</p>
          <p style=""font-size: 16px;"">F = YES &nbsp;&nbsp;&nbsp; J = NO</p>
        ","f","html-keyboard-response","205","2.1.0","347068","F=YES, J=NO","6qqxabsmnr","2","76","78","75","","","","","","","","","boil","battle1","filler","filler","f","true","",""
"null","<p style=""font-size: 50px;"">+</p>","null","html-keyboard-response","206","2.1.0","347375","F=YES, J=NO","6qqxabsmnr","2","76","78","75","","","","","","","","","","","","","","","",""
"null","audio/beep-329314.mp3","null","audio-keyboard-response","207","2.1.0","348908","F=YES, J=NO","6qqxabsmnr","2","76","78","75","","","","","","","","","","","","","","","",""
"null","audio/road.wav","null","audio-keyboard-response","208","2.1.0","349328","F=YES, J=NO","6qqxabsmnr","2","76","78","75","","","","","","","","","","","","","","","",""
"634","
          <p id=""word"" style=""font-size: 40px;"">wappings</p>
          <p style=""font-size: 16px;"">F = YES &nbsp;&nbsp;&nbsp; J = NO</p>
        ","j","html-keyboard-response","209","2.1.0","349962","F=YES, J=NO","6qqxabsmnr","2","76","78","75","","","","","","","","","wappings","road","pseudoword","pseudoword","j","true","",""
"null","<p style=""font-size: 50px;"">+</p>","null","html-keyboard-response","210","2.1.0","350264","F=YES, J=NO","6qqxabsmnr","2","76","78","75","","","","","","","","","","","","","","","",""
"null","audio/beep-329314.mp3","null","audio-keyboard-response","211","2.1.0","351788","F=YES, J=NO","6qqxabsmnr","2","76","78","75","","","","","","","","","","","","","","","",""
"null","audio/empire.wav","null","audio-keyboard-response","212","2.1.0","352588","F=YES, J=NO","6qqxabsmnr","2","76","78","75","","","","","","","","","","","","","","","",""
"523","
          <p id=""word"" style=""font-size: 40px;"">slorby</p>
          <p style=""font-size: 16px;"">F = YES &nbsp;&nbsp;&nbsp; J = NO</p>
        ","j","html-keyboard-response","213","2.1.0","353111","F=YES, J=NO","6qqxabsmnr","2","76","78","75","","","","","","","","","slorby","empire","pseudoword","pseudoword","j","true","",""
"null","<p style=""font-size: 50px;"">+</p>","null","html-keyboard-response","214","2.1.0","353427","F=YES, J=NO","6qqxabsmnr","2","76","78","75","","","","","","","","","","","","","","","",""
"null","audio/beep-329314.mp3","null","audio-keyboard-response","215","2.1.0","354948","F=YES, J=NO","6qqxabsmnr","2","76","78","75","","","","","","","","","","","","","","","",""
"null","audio/hotel1.wav","null","audio-keyboard-response","216","2.1.0","355748","F=YES, J=NO","6qqxabsmnr","2","76","78","75","","","","","","","","","","","","","","","",""
"457","
          <p id=""word"" style=""font-size: 40px;"">flanter</p>
          <p style=""font-size: 16px;"">F = YES &nbsp;&nbsp;&nbsp; J = NO</p>
        ","j","html-keyboard-response","217","2.1.0","356206","F=YES, J=NO","6qqxabsmnr","2","76","78","75","","","","","","","","","flanter","hotel1","pseudoword","pseudoword","j","true","",""
"null","<p style=""font-size: 50px;"">+</p>","null","html-keyboard-response","218","2.1.0","356512","F=YES, J=NO","6qqxabsmnr","2","76","78","75","","","","","","","","","","","","","","","",""
"null","audio/beep-329314.mp3","null","audio-keyboard-response","219","2.1.0","358048","F=YES, J=NO","6qqxabsmnr","2","76","78","75","","","","","","","","","","","","","","","",""
"null","audio/effort.wav","null","audio-keyboard-response","220","2.1.0","358808","F=YES, J=NO","6qqxabsmnr","2","76","78","75","","","","","","","","","","","","","","","",""
"542","
          <p id=""word"" style=""font-size: 40px;"">whonk</p>
          <p style=""font-size: 16px;"">F = YES &nbsp;&nbsp;&nbsp; J = NO</p>
        ","j","html-keyboard-response","221","2.1.0","359350","F=YES, J=NO","6qqxabsmnr","2","76","78","75","","","","","","","","","whonk","effort","pseudoword","pseudoword","j","true","",""
"null","<p style=""font-size: 50px;"">+</p>","null","html-keyboard-response","222","2.1.0","359665","F=YES, J=NO","6qqxabsmnr","2","76","78","75","","","","","","","","","","","","","","","",""
"null","audio/beep-329314.mp3","null","audio-keyboard-response","223","2.1.0","361188","F=YES, J=NO","6qqxabsmnr","2","76","78","75","","","","","","","","","","","","","","","",""
"null","audio/plot1.wav","null","audio-keyboard-response","224","2.1.0","361908","F=YES, J=NO","6qqxabsmnr","2","76","78","75","","","","","","","","","","","","","","","",""
"540","
          <p id=""word"" style=""font-size: 40px;"">glenter</p>
          <p style=""font-size: 16px;"">F = YES &nbsp;&nbsp;&nbsp; J = NO</p>
        ","j","html-keyboard-response","225","2.1.0","362448","F=YES, J=NO","6qqxabsmnr","2","76","78","75","","","","","","","","","glenter","plot1","pseudoword","pseudoword","j","true","",""
"null","<p style=""font-size: 50px;"">+</p>","null","html-keyboard-response","226","2.1.0","362761","F=YES, J=NO","6qqxabsmnr","2","76","78","75","","","","","","","","","","","","","","","",""
"null","audio/beep-329314.mp3","null","audio-keyboard-response","227","2.1.0","364288","F=YES, J=NO","6qqxabsmnr","2","76","78","75","","","","","","","","","","","","","","","",""
"null","audio/roof1.wav","null","audio-keyboard-response","228","2.1.0","364988","F=YES, J=NO","6qqxabsmnr","2","76","78","75","","","","","","","","","","","","","","","",""
"567","
          <p id=""word"" style=""font-size: 40px;"">wronb</p>
          <p style=""font-size: 16px;"">F = YES &nbsp;&nbsp;&nbsp; J = NO</p>
        ","j","html-keyboard-response","229","2.1.0","365555","F=YES, J=NO","6qqxabsmnr","2","76","78","75","","","","","","","","","wronb","roof1","pseudoword","pseudoword","j","true","",""
"6492","<p>Excellent! You have finished block 1 of 8.</p>
                     <p>Feel free to take a 30 second break.</p>
                     <p>Press any key when you're ready to continue.</p>"," ","html-keyboard-response","230","2.1.0","372048","F=YES, J=NO","6qqxabsmnr","2","76","78","75","","","","","","","","","","","","","","","",""
"675","<p>Starting main block 2 of 8. Press any key to continue.</p>"," ","html-keyboard-response","231","2.1.0","372724","F=YES, J=NO","6qqxabsmnr","2","76","78","75","","","","","","","","","","","","","","","",""
"null","<p style=""font-size: 50px;"">+</p>","null","html-keyboard-response","232","2.1.0","373026","F=YES, J=NO","6qqxabsmnr","2","76","78","75","","","","","","","","","","","","","","","",""
"null","audio/beep-329314.mp3","null","audio-keyboard-response","233","2.1.0","374548","F=YES, J=NO","6qqxabsmnr","2","76","78","75","","","","","","","","","","","","","","","",""
"null","audio/mirror1.wav","null","audio-keyboard-response","234","2.1.0","374968","F=YES, J=NO","6qqxabsmnr","2","76","78","75","","","","","","","","","","","","","","","",""
"675","
          <p id=""word"" style=""font-size: 40px;"">fight</p>
          <p style=""font-size: 16px;"">F = YES &nbsp;&nbsp;&nbsp; J = NO</p>
        ","f","html-keyboard-response","235","2.1.0","375643","F=YES, J=NO","6qqxabsmnr","2","76","78","75","","","","","","","","","fight","mirror1","unrelated","experimental","f","true","",""
"null","<p style=""font-size: 50px;"">+</p>","null","html-keyboard-response","236","2.1.0","375959","F=YES, J=NO","6qqxabsmnr","2","76","78","75","","","","","","","","","","","","","","","",""
"null","audio/beep-329314.mp3","null","audio-keyboard-response","237","2.1.0","377488","F=YES, J=NO","6qqxabsmnr","2","76","78","75","","","","","","","","","","","","","","","",""
"null","audio/dome.wav","null","audio-keyboard-response","238","2.1.0","377908","F=YES, J=NO","6qqxabsmnr","2","76","78","75","","","","","","","","","","","","","","","",""
"516","
          <p id=""word"" style=""font-size: 40px;"">scrupliness</p>
          <p style=""font-size: 16px;"">F = YES &nbsp;&nbsp;&nbsp; J = NO</p>
        ","j","html-keyboard-response","239","2.1.0","378425","F=YES, J=NO","6qqxabsmnr","2","76","78","75","","","","","","","","","scrupliness","dome","pseudoword","pseudoword","j","true","",""
"null","<p style=""font-size: 50px;"">+</p>","null","html-keyboard-response","240","2.1.0","378740","F=YES, J=NO","6qqxabsmnr","2","76","78","75","","","","","","","","","","","","","","","",""
"null","audio/beep-329314.mp3","null","audio-keyboard-response","241","2.1.0","380268","F=YES, J=NO","6qqxabsmnr","2","76","78","75","","","","","","","","","","","","","","","",""
"null","audio/pattern.wav","null","audio-keyboard-response","242","2.1.0","380968","F=YES, J=NO","6qqxabsmnr","2","76","78","75","","","","","","","","","","","","","","","",""
"479","
          <p id=""word"" style=""font-size: 40px;"">tug</p>
          <p style=""font-size: 16px;"">F = YES &nbsp;&nbsp;&nbsp; J = NO</p>
        ","j","html-keyboard-response","243","2.1.0","381448","F=YES, J=NO","6qqxabsmnr","2","76","78","75","","","","","","","","","tug","pattern","filler","filler","f","false","",""
"null","<p style=""font-size: 50px;"">+</p>","null","html-keyboard-response","244","2.1.0","381763","F=YES, J=NO","6qqxabsmnr","2","76","78","75","","","","","","","","","","","","","","","",""
"null","audio/beep-329314.mp3","null","audio-keyboard-response","245","2.1.0","383288","F=YES, J=NO","6qqxabsmnr","2","76","78","75","","","","","","","","","","","","","","","",""
"null","audio/topic.wav","null","audio-keyboard-response","246","2.1.0","384028","F=YES, J=NO","6qqxabsmnr","2","76","78","75","","","","","","","","","","","","","","","",""
"547","
          <p id=""word"" style=""font-size: 40px;"">infortuitist</p>
          <p style=""font-size: 16px;"">F = YES &nbsp;&nbsp;&nbsp; J = NO</p>
        ","j","html-keyboard-response","247","2.1.0","384576","F=YES, J=NO","6qqxabsmnr","2","76","78","75","","","","","","","","","infortuitist","topic","pseudoword","pseudoword","j","true","",""
"null","<p style=""font-size: 50px;"">+</p>","null","html-keyboard-response","248","2.1.0","384889","F=YES, J=NO","6qqxabsmnr","2","76","78","75","","","","","","","","","","","","","","","",""
"null","audio/beep-329314.mp3","null","audio-keyboard-response","249","2.1.0","386428","F=YES, J=NO","6qqxabsmnr","2","76","78","75","","","","","","","","","","","","","","","",""
"null","audio/alarm1.wav","null","audio-keyboard-response","250","2.1.0","387008","F=YES, J=NO","6qqxabsmnr","2","76","78","75","","","","","","","","","","","","","","","",""
"737","
          <p id=""word"" style=""font-size: 40px;"">lock</p>
          <p style=""font-size: 16px;"">F = YES &nbsp;&nbsp;&nbsp; J = NO</p>
        ","f","html-keyboard-response","251","2.1.0","387746","F=YES, J=NO","6qqxabsmnr","2","76","78","75","","","","","","","","","lock","alarm1","filler","filler","f","true","",""
"null","<p style=""font-size: 50px;"">+</p>","null","html-keyboard-response","252","2.1.0","388048","F=YES, J=NO","6qqxabsmnr","2","76","78","75","","","","","","","","","","","","","","","",""
"null","audio/beep-329314.mp3","null","audio-keyboard-response","253","2.1.0","389589","F=YES, J=NO","6qqxabsmnr","2","76","78","75","","","","","","","","","","","","","","","",""
"null","audio/novel.wav","null","audio-keyboard-response","254","2.1.0","390068","F=YES, J=NO","6qqxabsmnr","2","76","78","75","","","","","","","","","","","","","","","",""
"491","
          <p id=""word"" style=""font-size: 40px;"">type</p>
          <p style=""font-size: 16px;"">F = YES &nbsp;&nbsp;&nbsp; J = NO</p>
        ","f","html-keyboard-response","255","2.1.0","390560","F=YES, J=NO","6qqxabsmnr","2","76","78","75","","","","","","","","","type","novel","filler","filler","f","true","",""
"null","<p style=""font-size: 50px;"">+</p>","null","html-keyboard-response","256","2.1.0","390863","F=YES, J=NO","6qqxabsmnr","2","76","78","75","","","","","","","","","","","","","","","",""
"null","audio/beep-329314.mp3","null","audio-keyboard-response","257","2.1.0","392388","F=YES, J=NO","6qqxabsmnr","2","76","78","75","","","","","","","","","","","","","","","",""
"null","audio/truth1.wav","null","audio-keyboard-response","258","2.1.0","392928","F=YES, J=NO","6qqxabsmnr","2","76","78","75","","","","","","","","","","","","","","","",""
"578","
          <p id=""word"" style=""font-size: 40px;"">calitom</p>
          <p style=""font-size: 16px;"">F = YES &nbsp;&nbsp;&nbsp; J = NO</p>
        ","j","html-keyboard-response","259","2.1.0","393507","F=YES, J=NO","6qqxabsmnr","2","76","78","75","","","","","","","","","calitom","truth1","pseudoword","pseudoword","j","true","",""
"null","<p style=""font-size: 50px;"">+</p>","null","html-keyboard-response","260","2.1.0","393815","F=YES, J=NO","6qqxabsmnr","2","76","78","75","","","","","","","","","","","","","","","",""
"null","audio/beep-329314.mp3","null","audio-keyboard-response","261","2.1.0","395348","F=YES, J=NO","6qqxabsmnr","2","76","78","75","","","","","","","","","","","","","","","",""
"null","audio/pride1.wav","null","audio-keyboard-response","262","2.1.0","396048","F=YES, J=NO","6qqxabsmnr","2","76","78","75","","","","","","","","","","","","","","","",""
"451","
          <p id=""word"" style=""font-size: 40px;"">hurt</p>
          <p style=""font-size: 16px;"">F = YES &nbsp;&nbsp;&nbsp; J = NO</p>
        ","f","html-keyboard-response","263","2.1.0","396499","F=YES, J=NO","6qqxabsmnr","2","76","78","75","","","","","","","","","hurt","pride1","metaphor","experimental","f","true","",""
"null","<p style=""font-size: 50px;"">+</p>","null","html-keyboard-response","264","2.1.0","396804","F=YES, J=NO","6qqxabsmnr","2","76","78","75","","","","","","","","","","","","","","","",""
"null","audio/beep-329314.mp3","null","audio-keyboard-response","265","2.1.0","398328","F=YES, J=NO","6qqxabsmnr","2","76","78","75","","","","","","","","","","","","","","","",""
"null","audio/stain.wav","null","audio-keyboard-response","266","2.1.0","399128","F=YES, J=NO","6qqxabsmnr","2","76","78","75","","","","","","","","","","","","","","","",""
"583","
          <p id=""word"" style=""font-size: 40px;"">rumpsied</p>
          <p style=""font-size: 16px;"">F = YES &nbsp;&nbsp;&nbsp; J = NO</p>
        ","j","html-keyboard-response","267","2.1.0","399712","F=YES, J=NO","6qqxabsmnr","2","76","78","75","","","","","","","","","rumpsied","stain","pseudoword","pseudoword","j","true","",""
"null","<p style=""font-size: 50px;"">+</p>","null","html-keyboard-response","268","2.1.0","400025","F=YES, J=NO","6qqxabsmnr","2","76","78","75","","","","","","","","","","","","","","","",""
"null","audio/beep-329314.mp3","null","audio-keyboard-response","269","2.1.0","401548","F=YES, J=NO","6qqxabsmnr","2","76","78","75","","","","","","","","","","","","","","","",""
"null","audio/birth1.wav","null","audio-keyboard-response","270","2.1.0","402268","F=YES, J=NO","6qqxabsmnr","2","76","78","75","","","","","","","","","","","","","","","",""
"554","
          <p id=""word"" style=""font-size: 40px;"">peel</p>
          <p style=""font-size: 16px;"">F = YES &nbsp;&nbsp;&nbsp; J = NO</p>
        ","f","html-keyboard-response","271","2.1.0","402823","F=YES, J=NO","6qqxabsmnr","2","76","78","75","","","","","","","","","peel","birth1","filler","filler","f","true","",""
"null","<p style=""font-size: 50px;"">+</p>","null","html-keyboard-response","272","2.1.0","403130","F=YES, J=NO","6qqxabsmnr","2","76","78","75","","","","","","","","","","","","","","","",""
"null","audio/beep-329314.mp3","null","audio-keyboard-response","273","2.1.0","404668","F=YES, J=NO","6qqxabsmnr","2","76","78","75","","","","","","","","","","","","","","","",""
"null","audio/heart1.wav","null","audio-keyboard-response","274","2.1.0","405468","F=YES, J=NO","6qqxabsmnr","2","76","78","75","","","","","","","","","","","","","","","",""
"670","
          <p id=""word"" style=""font-size: 40px;"">dralm</p>
          <p style=""font-size: 16px;"">F = YES &nbsp;&nbsp;&nbsp; J = NO</p>
        ","j","html-keyboard-response","275","2.1.0","406139","F=YES, J=NO","6qqxabsmnr","2","76","78","75","","","","","","","","","dralm","heart1","pseudoword","pseudoword","j","true","",""
"null","<p style=""font-size: 50px;"">+</p>","null","html-keyboard-response","276","2.1.0","406451","F=YES, J=NO","6qqxabsmnr","2","76","78","75","","","","","","","","","","","","","","","",""
"null","audio/beep-329314.mp3","null","audio-keyboard-response","277","2.1.0","407988","F=YES, J=NO","6qqxabsmnr","2","76","78","75","","","","","","","","","","","","","","","",""
"null","audio/planet1.wav","null","audio-keyboard-response","278","2.1.0","408608","F=YES, J=NO","6qqxabsmnr","2","76","78","75","","","","","","","","","","","","","","","",""
"716","
          <p id=""word"" style=""font-size: 40px;"">cratched</p>
          <p style=""font-size: 16px;"">F = YES &nbsp;&nbsp;&nbsp; J = NO</p>
        ","j","html-keyboard-response","279","2.1.0","409325","F=YES, J=NO","6qqxabsmnr","2","76","78","75","","","","","","","","","cratched","planet1","pseudoword","pseudoword","j","true","",""
"null","<p style=""font-size: 50px;"">+</p>","null","html-keyboard-response","280","2.1.0","409633","F=YES, J=NO","6qqxabsmnr","2","76","78","75","","","","","","","","","","","","","","","",""
"null","audio/beep-329314.mp3","null","audio-keyboard-response","281","2.1.0","411168","F=YES, J=NO","6qqxabsmnr","2","76","78","75","","","","","","","","","","","","","","","",""
"null","audio/tax1.wav","null","audio-keyboard-response","282","2.1.0","411828","F=YES, J=NO","6qqxabsmnr","2","76","78","75","","","","","","","","","","","","","","","",""
"551","
          <p id=""word"" style=""font-size: 40px;"">snate</p>
          <p style=""font-size: 16px;"">F = YES &nbsp;&nbsp;&nbsp; J = NO</p>
        ","f","html-keyboard-response","283","2.1.0","412379","F=YES, J=NO","6qqxabsmnr","2","76","78","75","","","","","","","","","snate","tax1","pseudoword","pseudoword","j","false","",""
"null","<p style=""font-size: 50px;"">+</p>","null","html-keyboard-response","284","2.1.0","412693","F=YES, J=NO","6qqxabsmnr","2","76","78","75","","","","","","","","","","","","","","","",""
"null","audio/beep-329314.mp3","null","audio-keyboard-response","285","2.1.0","414228","F=YES, J=NO","6qqxabsmnr","2","76","78","75","","","","","","","","","","","","","","","",""
"null","audio/table1.wav","null","audio-keyboard-response","286","2.1.0","414908","F=YES, J=NO","6qqxabsmnr","2","76","78","75","","","","","","","","","","","","","","","",""
"631","
          <p id=""word"" style=""font-size: 40px;"">stimb</p>
          <p style=""font-size: 16px;"">F = YES &nbsp;&nbsp;&nbsp; J = NO</p>
        ","j","html-keyboard-response","287","2.1.0","415540","F=YES, J=NO","6qqxabsmnr","2","76","78","75","","","","","","","","","stimb","table1","pseudoword","pseudoword","j","true","",""
"null","<p style=""font-size: 50px;"">+</p>","null","html-keyboard-response","288","2.1.0","415845","F=YES, J=NO","6qqxabsmnr","2","76","78","75","","","","","","","","","","","","","","","",""
"null","audio/beep-329314.mp3","null","audio-keyboard-response","289","2.1.0","417368","F=YES, J=NO","6qqxabsmnr","2","76","78","75","","","","","","","","","","","","","","","",""
"null","audio/window1.wav","null","audio-keyboard-response","290","2.1.0","418148","F=YES, J=NO","6qqxabsmnr","2","76","78","75","","","","","","","","","","","","","","","",""
"536","
          <p id=""word"" style=""font-size: 40px;"">break</p>
          <p style=""font-size: 16px;"">F = YES &nbsp;&nbsp;&nbsp; J = NO</p>
        ","f","html-keyboard-response","291","2.1.0","418685","F=YES, J=NO","6qqxabsmnr","2","76","78","75","","","","","","","","","break","window1","literal","experimental","f","true","",""
"null","<p style=""font-size: 50px;"">+</p>","null","html-keyboard-response","292","2.1.0","418999","F=YES, J=NO","6qqxabsmnr","2","76","78","75","","","","","","","","","","","","","","","",""
"null","audio/beep-329314.mp3","null","audio-keyboard-response","293","2.1.0","420528","F=YES, J=NO","6qqxabsmnr","2","76","78","75","","","","","","","","","","","","","","","",""
"null","audio/bishop1.wav","null","audio-keyboard-response","294","2.1.0","421288","F=YES, J=NO","6qqxabsmnr","2","76","78","75","","","","","","","","","","","","","","","",""
"455","
          <p id=""word"" style=""font-size: 40px;"">play</p>
          <p style=""font-size: 16px;"">F = YES &nbsp;&nbsp;&nbsp; J = NO</p>
        ","f","html-keyboard-response","295","2.1.0","421743","F=YES, J=NO","6qqxabsmnr","2","76","78","75","","","","","","","","","play","bishop1","filler","filler","f","true","",""
"3935","<p>Excellent! You have finished block 2 of 8.</p>
                     <p>Feel free to take a 30 second break.</p>
                     <p>Press any key when you're ready to continue.</p>"," ","html-keyboard-response","296","2.1.0","425679","F=YES, J=NO","6qqxabsmnr","2","76","78","75","","","","","","","","","","","","","","","",""
"918","<p>Starting main block 3 of 8. Press any key to continue.</p>"," ","html-keyboard-response","297","2.1.0","426598","F=YES, J=NO","6qqxabsmnr","2","76","78","75","","","","","","","","","","","","","","","",""
"null","<p style=""font-size: 50px;"">+</p>","null","html-keyboard-response","298","2.1.0","426905","F=YES, J=NO","6qqxabsmnr","2","76","78","75","","","","","","","","","","","","","","","",""
"null","audio/beep-329314.mp3","null","audio-keyboard-response","299","2.1.0","428429","F=YES, J=NO","6qqxabsmnr","2","76","78","75","","","","","","","","","","","","","","","",""
"null","audio/voice.wav","null","audio-keyboard-response","300","2.1.0","429188","F=YES, J=NO","6qqxabsmnr","2","76","78","75","","","","","","","","","","","","","","","",""
"481","
          <p id=""word"" style=""font-size: 40px;"">flood</p>
          <p style=""font-size: 16px;"">F = YES &nbsp;&nbsp;&nbsp; J = NO</p>
        ","f","html-keyboard-response","301","2.1.0","429670","F=YES, J=NO","6qqxabsmnr","2","76","78","75","","","","","","","","","flood","voice","unrelated","experimental","f","true","",""
"null","<p style=""font-size: 50px;"">+</p>","null","html-keyboard-response","302","2.1.0","429980","F=YES, J=NO","6qqxabsmnr","2","76","78","75","","","","","","","","","","","","","","","",""
"null","audio/beep-329314.mp3","null","audio-keyboard-response","303","2.1.0","431508","F=YES, J=NO","6qqxabsmnr","2","76","78","75","","","","","","","","","","","","","","","",""
"null","audio/bottle.wav","null","audio-keyboard-response","304","2.1.0","432009","F=YES, J=NO","6qqxabsmnr","2","76","78","75","","","","","","","","","","","","","","","",""
"402","
          <p id=""word"" style=""font-size: 40px;"">watch</p>
          <p style=""font-size: 16px;"">F = YES &nbsp;&nbsp;&nbsp; J = NO</p>
        ","f","html-keyboard-response","305","2.1.0","432412","F=YES, J=NO","6qqxabsmnr","2","76","78","75","","","","","","","","","watch","bottle","filler","filler","f","true","",""
"null","<p style=""font-size: 50px;"">+</p>","null","html-keyboard-response","306","2.1.0","432726","F=YES, J=NO","6qqxabsmnr","2","76","78","75","","","","","","","","","","","","","","","",""
"null","audio/beep-329314.mp3","null","audio-keyboard-response","307","2.1.0","434249","F=YES, J=NO","6qqxabsmnr","2","76","78","75","","","","","","","","","","","","","","","",""
"null","audio/fence.wav","null","audio-keyboard-response","308","2.1.0","435068","F=YES, J=NO","6qqxabsmnr","2","76","78","75","","","","","","","","","","","","","","","",""
"750","
          <p id=""word"" style=""font-size: 40px;"">trim</p>
          <p style=""font-size: 16px;"">F = YES &nbsp;&nbsp;&nbsp; J = NO</p>
        ","f","html-keyboard-response","309","2.1.0","435819","F=YES, J=NO","6qqxabsmnr","2","76","78","75","","","","","","","","","trim","fence","filler","filler","f","true","",""
"null","<p style=""font-size: 50px;"">+</p>","null","html-keyboard-response","310","2.1.0","436130","F=YES, J=NO","6qqxabsmnr","2","76","78","75","","","","","","","","","","","","","","","",""
"null","audio/beep-329314.mp3","null","audio-keyboard-response","311","2.1.0","437668","F=YES, J=NO","6qqxabsmnr","2","76","78","75","","","","","","","","","","","","","","","",""
"null","audio/voice.wav","null","audio-keyboard-response","312","2.1.0","438268","F=YES, J=NO","6qqxabsmnr","2","76","78","75","","","","","","","","","","","","","","","",""
"611","
          <p id=""word"" style=""font-size: 40px;"">grintle</p>
          <p style=""font-size: 16px;"">F = YES &nbsp;&nbsp;&nbsp; J = NO</p>
        ","j","html-keyboard-response","313","2.1.0","438880","F=YES, J=NO","6qqxabsmnr","2","76","78","75","","","","","","","","","grintle","voice","pseudoword","pseudoword","j","true","",""
"null","<p style=""font-size: 50px;"">+</p>","null","html-keyboard-response","314","2.1.0","439181","F=YES, J=NO","6qqxabsmnr","2","76","78","75","","","","","","","","","","","","","","","",""
"null","audio/beep-329314.mp3","null","audio-keyboard-response","315","2.1.0","440709","F=YES, J=NO","6qqxabsmnr","2","76","78","75","","","","","","","","","","","","","","","",""
"null","audio/wool1.wav","null","audio-keyboard-response","316","2.1.0","441068","F=YES, J=NO","6qqxabsmnr","2","76","78","75","","","","","","","","","","","","","","","",""
"536","
          <p id=""word"" style=""font-size: 40px;"">weave</p>
          <p style=""font-size: 16px;"">F = YES &nbsp;&nbsp;&nbsp; J = NO</p>
        ","f","html-keyboard-response","317","2.1.0","441605","F=YES, J=NO","6qqxabsmnr","2","76","78","75","","","","","","","","","weave","wool1","literal","experimental","f","true","",""
"null","<p style=""font-size: 50px;"">+</p>","null","html-keyboard-response","318","2.1.0","441918","F=YES, J=NO","6qqxabsmnr","2","76","78","75","","","","","","","","","","","","","","","",""
"null","audio/beep-329314.mp3","null","audio-keyboard-response","319","2.1.0","443448","F=YES, J=NO","6qqxabsmnr","2","76","78","75","","","","","","","","","","","","","","","",""
"null","audio/strength.wav","null","audio-keyboard-response","320","2.1.0","444348","F=YES, J=NO","6qqxabsmnr","2","76","78","75","","","","","","","","","","","","","","","",""
"500","
          <p id=""word"" style=""font-size: 40px;"">plabet</p>
          <p style=""font-size: 16px;"">F = YES &nbsp;&nbsp;&nbsp; J = NO</p>
        ","j","html-keyboard-response","321","2.1.0","444848","F=YES, J=NO","6qqxabsmnr","2","76","78","75","","","","","","","","","plabet","strength","pseudoword","pseudoword","j","true","",""
"null","<p style=""font-size: 50px;"">+</p>","null","html-keyboard-response","322","2.1.0","445164","F=YES, J=NO","6qqxabsmnr","2","76","78","75","","","","","","","","","","","","","","","",""
"null","audio/beep-329314.mp3","null","audio-keyboard-response","323","2.1.0","446688","F=YES, J=NO","6qqxabsmnr","2","76","78","75","","","","","","","","","","","","","","","",""
"null","audio/demon1.wav","null","audio-keyboard-response","324","2.1.0","447348","F=YES, J=NO","6qqxabsmnr","2","76","78","75","","","","","","","","","","","","","","","",""
"512","
          <p id=""word"" style=""font-size: 40px;"">wrestle</p>
          <p style=""font-size: 16px;"">F = YES &nbsp;&nbsp;&nbsp; J = NO</p>
        ","f","html-keyboard-response","325","2.1.0","447860","F=YES, J=NO","6qqxabsmnr","2","76","78","75","","","","","","","","","wrestle","demon1","metaphor","experimental","f","true","",""
"null","<p style=""font-size: 50px;"">+</p>","null","html-keyboard-response","326","2.1.0","448171","F=YES, J=NO","6qqxabsmnr","2","76","78","75","","","","","","","","","","","","","","","",""
"null","audio/beep-329314.mp3","null","audio-keyboard-response","327","2.1.0","449709","F=YES, J=NO","6qqxabsmnr","2","76","78","75","","","","","","","","","","","","","","","",""
"null","audio/radio1.wav","null","audio-keyboard-response","328","2.1.0","450488","F=YES, J=NO","6qqxabsmnr","2","76","78","75","","","","","","","","","","","","","","","",""
"784","
          <p id=""word"" style=""font-size: 40px;"">blanter</p>
          <p style=""font-size: 16px;"">F = YES &nbsp;&nbsp;&nbsp; J = NO</p>
        ","f","html-keyboard-response","329","2.1.0","451273","F=YES, J=NO","6qqxabsmnr","2","76","78","75","","","","","","","","","blanter","radio1","pseudoword","pseudoword","j","false","",""
"null","<p style=""font-size: 50px;"">+</p>","null","html-keyboard-response","330","2.1.0","451579","F=YES, J=NO","6qqxabsmnr","2","76","78","75","","","","","","","","","","","","","","","",""
"null","audio/beep-329314.mp3","null","audio-keyboard-response","331","2.1.0","453108","F=YES, J=NO","6qqxabsmnr","2","76","78","75","","","","","","","","","","","","","","","",""
"null","audio/desire.wav","null","audio-keyboard-response","332","2.1.0","453709","F=YES, J=NO","6qqxabsmnr","2","76","78","75","","","","","","","","","","","","","","","",""
"435","
          <p id=""word"" style=""font-size: 40px;"">open</p>
          <p style=""font-size: 16px;"">F = YES &nbsp;&nbsp;&nbsp; J = NO</p>
        ","f","html-keyboard-response","333","2.1.0","454144","F=YES, J=NO","6qqxabsmnr","2","76","78","75","","","","","","","","","open","desire","unrelated","experimental","f","true","",""
"null","<p style=""font-size: 50px;"">+</p>","null","html-keyboard-response","334","2.1.0","454453","F=YES, J=NO","6qqxabsmnr","2","76","78","75","","","","","","","","","","","","","","","",""
"null","audio/beep-329314.mp3","null","audio-keyboard-response","335","2.1.0","455988","F=YES, J=NO","6qqxabsmnr","2","76","78","75","","","","","","","","","","","","","","","",""
"null","audio/story.wav","null","audio-keyboard-response","336","2.1.0","456648","F=YES, J=NO","6qqxabsmnr","2","76","78","75","","","","","","","","","","","","","","","",""
"535","
          <p id=""word"" style=""font-size: 40px;"">cover</p>
          <p style=""font-size: 16px;"">F = YES &nbsp;&nbsp;&nbsp; J = NO</p>
        ","f","html-keyboard-response","337","2.1.0","457183","F=YES, J=NO","6qqxabsmnr","2","76","78","75","","","","","","","","","cover","story","metaphor","experimental","f","true","",""
"null","<p style=""font-size: 50px;"">+</p>","null","html-keyboard-response","338","2.1.0","457485","F=YES, J=NO","6qqxabsmnr","2","76","78","75","","","","","","","","","","","","","","","",""
"null","audio/beep-329314.mp3","null","audio-keyboard-response","339","2.1.0","459008","F=YES, J=NO","6qqxabsmnr","2","76","78","75","","","","","","","","","","","","","","","",""
"null","audio/mouth1.wav","null","audio-keyboard-response","340","2.1.0","459608","F=YES, J=NO","6qqxabsmnr","2","76","78","75","","","","","","","","","","","","","","","",""
"483","
          <p id=""word"" style=""font-size: 40px;"">spolial</p>
          <p style=""font-size: 16px;"">F = YES &nbsp;&nbsp;&nbsp; J = NO</p>
        ","j","html-keyboard-response","341","2.1.0","460091","F=YES, J=NO","6qqxabsmnr","2","76","78","75","","","","","","","","","spolial","mouth1","pseudoword","pseudoword","j","true","",""
"null","<p style=""font-size: 50px;"">+</p>","null","html-keyboard-response","342","2.1.0","460402","F=YES, J=NO","6qqxabsmnr","2","76","78","75","","","","","","","","","","","","","","","",""
"null","audio/beep-329314.mp3","null","audio-keyboard-response","343","2.1.0","461929","F=YES, J=NO","6qqxabsmnr","2","76","78","75","","","","","","","","","","","","","","","",""
"null","audio/menu.wav","null","audio-keyboard-response","344","2.1.0","462668","F=YES, J=NO","6qqxabsmnr","2","76","78","75","","","","","","","","","","","","","","","",""
"478","
          <p id=""word"" style=""font-size: 40px;"">slice</p>
          <p style=""font-size: 16px;"">F = YES &nbsp;&nbsp;&nbsp; J = NO</p>
        ","f","html-keyboard-response","345","2.1.0","463147","F=YES, J=NO","6qqxabsmnr","2","76","78","75","","","","","","","","","slice","menu","filler","filler","f","true","",""
"null","<p style=""font-size: 50px;"">+</p>","null","html-keyboard-response","346","2.1.0","463459","F=YES, J=NO","6qqxabsmnr","2","76","78","75","","","","","","","","","","","","","","","",""
"null","audio/beep-329314.mp3","null","audio-keyboard-response","347","2.1.0","464988","F=YES, J=NO","6qqxabsmnr","2","76","78","75","","","","","","","","","","","","","","","",""
"null","audio/pizza1.wav","null","audio-keyboard-response","348","2.1.0","465548","F=YES, J=NO","6qqxabsmnr","2","76","78","75","","","","","","","","","","","","","","","",""
"507","
          <p id=""word"" style=""font-size: 40px;"">devour</p>
          <p style=""font-size: 16px;"">F = YES &nbsp;&nbsp;&nbsp; J = NO</p>
        ","f","html-keyboard-response","349","2.1.0","466056","F=YES, J=NO","6qqxabsmnr","2","76","78","75","","","","","","","","","devour","pizza1","literal","experimental","f","true","",""
"null","<p style=""font-size: 50px;"">+</p>","null","html-keyboard-response","350","2.1.0","466370","F=YES, J=NO","6qqxabsmnr","2","76","78","75","","","","","","","","","","","","","","","",""
"null","audio/beep-329314.mp3","null","audio-keyboard-response","351","2.1.0","467908","F=YES, J=NO","6qqxabsmnr","2","76","78","75","","","","","","","","","","","","","","","",""
"null","audio/farm1.wav","null","audio-keyboard-response","352","2.1.0","468468","F=YES, J=NO","6qqxabsmnr","2","76","78","75","","","","","","","","","","","","","","","",""
"423","
          <p id=""word"" style=""font-size: 40px;"">catch</p>
          <p style=""font-size: 16px;"">F = YES &nbsp;&nbsp;&nbsp; J = NO</p>
        ","f","html-keyboard-response","353","2.1.0","468891","F=YES, J=NO","6qqxabsmnr","2","76","78","75","","","","","","","","","catch","farm1","unrelated","experimental","f","true","",""
"null","<p style=""font-size: 50px;"">+</p>","null","html-keyboard-response","354","2.1.0","469202","F=YES, J=NO","6qqxabsmnr","2","76","78","75","","","","","","","","","","","","","","","",""
"null","audio/beep-329314.mp3","null","audio-keyboard-response","355","2.1.0","470728","F=YES, J=NO","6qqxabsmnr","2","76","78","75","","","","","","","","","","","","","","","",""
"null","audio/arm.wav","null","audio-keyboard-response","356","2.1.0","471268","F=YES, J=NO","6qqxabsmnr","2","76","78","75","","","","","","","","","","","","","","","",""
"547","
          <p id=""word"" style=""font-size: 40px;"">pigne</p>
          <p style=""font-size: 16px;"">F = YES &nbsp;&nbsp;&nbsp; J = NO</p>
        ","j","html-keyboard-response","357","2.1.0","471816","F=YES, J=NO","6qqxabsmnr","2","76","78","75","","","","","","","","","pigne","arm","pseudoword","pseudoword","j","true","",""
"null","<p style=""font-size: 50px;"">+</p>","null","html-keyboard-response","358","2.1.0","472131","F=YES, J=NO","6qqxabsmnr","2","76","78","75","","","","","","","","","","","","","","","",""
"null","audio/beep-329314.mp3","null","audio-keyboard-response","359","2.1.0","473668","F=YES, J=NO","6qqxabsmnr","2","76","78","75","","","","","","","","","","","","","","","",""
"null","audio/mouth1.wav","null","audio-keyboard-response","360","2.1.0","474228","F=YES, J=NO","6qqxabsmnr","2","76","78","75","","","","","","","","","","","","","","","",""
"511","
          <p id=""word"" style=""font-size: 40px;"">close</p>
          <p style=""font-size: 16px;"">F = YES &nbsp;&nbsp;&nbsp; J = NO</p>
        ","f","html-keyboard-response","361","2.1.0","474740","F=YES, J=NO","6qqxabsmnr","2","76","78","75","","","","","","","","","close","mouth1","literal","experimental","f","true","",""
"880","<p>Excellent! You have finished block 3 of 8.</p>
                     <p>Feel free to take a 30 second break.</p>
                     <p>Press any key when you're ready to continue.</p>"," ","html-keyboard-response","362","2.1.0","475621","F=YES, J=NO","6qqxabsmnr","2","76","78","75","","","","","","","","","","","","","","","",""
"610","<p>Starting main block 4 of 8. Press any key to continue.</p>"," ","html-keyboard-response","363","2.1.0","476232","F=YES, J=NO","6qqxabsmnr","2","76","78","75","","","","","","","","","","","","","","","",""
"null","<p style=""font-size: 50px;"">+</p>","null","html-keyboard-response","364","2.1.0","476547","F=YES, J=NO","6qqxabsmnr","2","76","78","75","","","","","","","","","","","","","","","",""
"null","audio/beep-329314.mp3","null","audio-keyboard-response","365","2.1.0","478089","F=YES, J=NO","6qqxabsmnr","2","76","78","75","","","","","","","","","","","","","","","",""
"null","audio/vehicle1.wav","null","audio-keyboard-response","366","2.1.0","478908","F=YES, J=NO","6qqxabsmnr","2","76","78","75","","","","","","","","","","","","","","","",""
"372","
          <p id=""word"" style=""font-size: 40px;"">dropt</p>
          <p style=""font-size: 16px;"">F = YES &nbsp;&nbsp;&nbsp; J = NO</p>
        ","f","html-keyboard-response","367","2.1.0","479280","F=YES, J=NO","6qqxabsmnr","2","76","78","75","","","","","","","","","dropt","vehicle1","pseudoword","pseudoword","j","false","",""
"null","<p style=""font-size: 50px;"">+</p>","null","html-keyboard-response","368","2.1.0","479585","F=YES, J=NO","6qqxabsmnr","2","76","78","75","","","","","","","","","","","","","","","",""
"null","audio/beep-329314.mp3","null","audio-keyboard-response","369","2.1.0","481108","F=YES, J=NO","6qqxabsmnr","2","76","78","75","","","","","","","","","","","","","","","",""
"null","audio/foot1.wav","null","audio-keyboard-response","370","2.1.0","481688","F=YES, J=NO","6qqxabsmnr","2","76","78","75","","","","","","","","","","","","","","","",""
"599","
          <p id=""word"" style=""font-size: 40px;"">thrutt</p>
          <p style=""font-size: 16px;"">F = YES &nbsp;&nbsp;&nbsp; J = NO</p>
        ","j","html-keyboard-response","371","2.1.0","482288","F=YES, J=NO","6qqxabsmnr","2","76","78","75","","","","","","","","","thrutt","foot1","pseudoword","pseudoword","j","true","",""
"null","<p style=""font-size: 50px;"">+</p>","null","html-keyboard-response","372","2.1.0","482593","F=YES, J=NO","6qqxabsmnr","2","76","78","75","","","","","","","","","","","","","","","",""
"null","audio/beep-329314.mp3","null","audio-keyboard-response","373","2.1.0","484128","F=YES, J=NO","6qqxabsmnr","2","76","78","75","","","","","","","","","","","","","","","",""
"null","audio/topic.wav","null","audio-keyboard-response","374","2.1.0","484688","F=YES, J=NO","6qqxabsmnr","2","76","78","75","","","","","","","","","","","","","","","",""
"540","
          <p id=""word"" style=""font-size: 40px;"">approach</p>
          <p style=""font-size: 16px;"">F = YES &nbsp;&nbsp;&nbsp; J = NO</p>
        ","f","html-keyboard-response","375","2.1.0","485228","F=YES, J=NO","6qqxabsmnr","2","76","78","75","","","","","","","","","approach","topic","metaphor","experimental","f","true","",""
"null","<p style=""font-size: 50px;"">+</p>","null","html-keyboard-response","376","2.1.0","485537","F=YES, J=NO","6qqxabsmnr","2","76","78","75","","","","","","","","","","","","","","","",""
"null","audio/beep-329314.mp3","null","audio-keyboard-response","377","2.1.0","487068","F=YES, J=NO","6qqxabsmnr","2","76","78","75","","","","","","","","","","","","","","","",""
"null","audio/holiday1.wav","null","audio-keyboard-response","378","2.1.0","487868","F=YES, J=NO","6qqxabsmnr","2","76","78","75","","","","","","","","","","","","","","","",""
"584","
          <p id=""word"" style=""font-size: 40px;"">drivets</p>
          <p style=""font-size: 16px;"">F = YES &nbsp;&nbsp;&nbsp; J = NO</p>
        ","j","html-keyboard-response","379","2.1.0","488453","F=YES, J=NO","6qqxabsmnr","2","76","78","75","","","","","","","","","drivets","holiday1","pseudoword","pseudoword","j","true","",""
"null","<p style=""font-size: 50px;"">+</p>","null","html-keyboard-response","380","2.1.0","488755","F=YES, J=NO","6qqxabsmnr","2","76","78","75","","","","","","","","","","","","","","","",""
"null","audio/beep-329314.mp3","null","audio-keyboard-response","381","2.1.0","490288","F=YES, J=NO","6qqxabsmnr","2","76","78","75","","","","","","","","","","","","","","","",""
"null","audio/table1.wav","null","audio-keyboard-response","382","2.1.0","490768","F=YES, J=NO","6qqxabsmnr","2","76","78","75","","","","","","","","","","","","","","","",""
"407","
          <p id=""word"" style=""font-size: 40px;"">clear</p>
          <p style=""font-size: 16px;"">F = YES &nbsp;&nbsp;&nbsp; J = NO</p>
        ","f","html-keyboard-response","383","2.1.0","491176","F=YES, J=NO","6qqxabsmnr","2","76","78","75","","","","","","","","","clear","table1","literal","experimental","f","true","",""
"null","<p style=""font-size: 50px;"">+</p>","null","html-keyboard-response","384","2.1.0","491481","F=YES, J=NO","6qqxabsmnr","2","76","78","75","","","","","","","","","","","","","","","",""
"null","audio/beep-329314.mp3","null","audio-keyboard-response","385","2.1.0","493009","F=YES, J=NO","6qqxabsmnr","2","76","78","75","","","","","","","","","","","","","","","",""
"null","audio/prisoner.wav","null","audio-keyboard-response","386","2.1.0","493689","F=YES, J=NO","6qqxabsmnr","2","76","78","75","","","","","","","","","","","","","","","",""
"544","
          <p id=""word"" style=""font-size: 40px;"">egotian</p>
          <p style=""font-size: 16px;"">F = YES &nbsp;&nbsp;&nbsp; J = NO</p>
        ","j","html-keyboard-response","387","2.1.0","494234","F=YES, J=NO","6qqxabsmnr","2","76","78","75","","","","","","","","","egotian","prisoner","pseudoword","pseudoword","j","true","",""
"null","<p style=""font-size: 50px;"">+</p>","null","html-keyboard-response","388","2.1.0","494537","F=YES, J=NO","6qqxabsmnr","2","76","78","75","","","","","","","","","","","","","","","",""
"null","audio/beep-329314.mp3","null","audio-keyboard-response","389","2.1.0","496068","F=YES, J=NO","6qqxabsmnr","2","76","78","75","","","","","","","","","","","","","","","",""
"null","audio/fortune1.wav","null","audio-keyboard-response","390","2.1.0","497008","F=YES, J=NO","6qqxabsmnr","2","76","78","75","","","","","","","","","","","","","","","",""
"403","
          <p id=""word"" style=""font-size: 40px;"">spend</p>
          <p style=""font-size: 16px;"">F = YES &nbsp;&nbsp;&nbsp; J = NO</p>
