"rt","stimulus","response","trial_type","trial_index","plugin_version","time_elapsed","response_mapping","subject_id","list_index","lextale_score","lextale_word_score","lextale_nonword_score","success","timeout","failed_images","failed_audio","failed_video","task","isWord","isDummy","target","prime","prime_type","stimulus_type","correct_response","correct","section","question_order"
"4290","
    <div style=""max-width: 800px; margin: auto; text-align: left;"">
      <h2>STANFORD UNIVERSITY</h2>
      <h3>Research Information Sheet</h3>
      <p><strong>Protocol Director:</strong> Robert Hawkins<br>
      <strong>Protocol Title:</strong> Communication and social cognition in natural audiovisual contexts<br>
      <strong>IRB#:</strong> 77226</p>

      <p><strong>DESCRIPTION:</strong> You are invited to participate in a research study about language and communication. The purpose of the research is to understand how you interact and communicate with other people in naturalistic settings as a fluent English speaker. This research will be conducted through the Prolific platform, including participants from the US, UK, and Canada. If you decide to participate in this research, you will play a communication game in a group with one or more partners.</p>

      <p><strong>TIME INVOLVEMENT:</strong> The task will last the amount of time advertised on Prolific. You are free to withdraw from the study at any time.</p>

      <p><strong>RISKS AND BENEFITS:</strong> You may become frustrated if your partner gets distracted, or experience discomfort if other participants in your group send text that is inappropriate for the task. We ask you to please be respectful of other participants you might be interacting with to mitigate these risks. You may also experience discomfort when being asked to discuss or challenge emotionally salient political beliefs. Study data will be stored securely, in compliance with Stanford University standards, minimizing the risk of confidentiality breach. This study advances our scientific understanding of how people communicate and collaborate in naturalistic settings. This study may lead to further insights about what can go wrong in teamwork, suggest potential interventions to overcome these barriers, and help to develop assistive technologies that collaborate with human partners. We cannot and do not guarantee or promise that you will receive any benefits from this study.</p>

      <p><strong>PAYMENTS:</strong> You will receive payment in the amount advertised on Prolific. If you do not complete this study, you will receive prorated payment based on the time that you have spent. Additionally, you may be eligible for bonus payments as described in the instructions.</p>

      <p><strong>PARTICIPANT’S RIGHTS:</strong> If you have read this form and have decided to participate in this project, please understand your participation is voluntary and you have the right to withdraw your consent or discontinue participation at any time without penalty or loss of benefits to which you are otherwise entitled. The alternative is not to participate. You have the right to refuse to answer particular questions. The results of this research study may be presented at scientific or professional meetings or published in scientific journals. Your individual privacy will be maintained in all published and written data resulting from the study. In accordance with scientific norms, the data from this study may be used or shared with other researchers for future research (after removing personally identifying information) without additional consent from you.</p>

      <p><strong>CONTACT INFORMATION:</strong><br>
      Questions: If you have any questions, concerns or complaints about this research, its procedures, risks and benefits, contact the Protocol Director, Robert Hawkins (<a href=""mailto:rdhawkins@stanford.edu"">rdhawkins@stanford.edu</a>, 217-549-6923).<br>
      Independent Contact: If you are not satisfied with how this study is being conducted, or if you have any concerns, complaints, or general questions about the research or your rights as a participant, please contact the Stanford Institutional Review Board (IRB) to speak to someone independent of the research team at 650-723-2480 or toll free at 1-866-680-2906, or email at <a href=""mailto:irbnon-med@stanford.edu"">irbnon-med@stanford.edu</a>. You can also write to the Stanford IRB, Stanford University, 1705 El Camino Real, Palo Alto, CA 94306.</p>

      <p><strong>Please save or print a copy of this page for your records.</strong></p>
      <p>If you agree to participate in this research, click ""Continue"" below.</p>
    </div>
  ","0","html-button-response","0","2.1.0","4297","F=YES, J=NO","6vnjzfmpq8","0","55","75","35","","","","","","","","","","","","","","","",""
"3049","
    <div style=""max-width: 800px; margin: auto; text-align: left;"">
      <h2>Welcome!</h2>
      <p>Thank you for participating in this study. The experiment consists of three parts:</p>
      <ol>
        <li>An English vocabulary test</li>
        <li>A main task in which you will hear and see words, and decide whether the written word is a real English word</li>
        <li>A brief survey about your background</li>
      </ol>
      <p>Each part will be introduced before it begins.</p>
      <p>Please make sure you are in a quiet environment and can hear audio clearly for the final task.</p>
      <p style=""margin-top: 2em;"">Press any key to begin.</p>
    </div>
  ","Control","html-keyboard-response","1","2.1.0","7348","F=YES, J=NO","6vnjzfmpq8","0","55","75","35","","","","","","","","","","","","","","","",""
"","","","preload","2","2.1.0","9547","F=YES, J=NO","6vnjzfmpq8","0","55","75","35","true","false","[]","[]","[]","","","","","","","","","","",""
"46740","
    <div style=""max-width: 800px; margin: auto; text-align: left;"">
      <h2>Part 1: Vocabulary Test</h2>
      <p>You will now complete the first part of the study: a short English vocabulary test.</p>
      <p>This test is called <strong>LexTALE</strong> and helps us get a general sense of your English proficiency.</p>
      <p style=""margin-top: 2em;"">Press any key to continue.</p>
    </div>
  ","k","html-keyboard-response","3","2.1.0","56288","F=YES, J=NO","6vnjzfmpq8","0","55","75","35","","","","","","","","","","","","","","","",""
"11248","
    <div style=""max-width: 800px; margin: auto; text-align: left;"">
      <h2>LexTALE Vocabulary Test</h2>
      <p>In this test, you will see a series of letter strings—one at a time.</p>
      <p>Your task is to decide whether each string is a real English word.</p>
      <p><strong>Key responses:</strong></p>
      <ul>
        <li><strong>F</strong> = YES (real English word)</li>
        <li><strong>J</strong> = NO (not a real English word)</li>
      </ul>
      <p>There is no time limit, but please try to be accurate.</p>
      <p style=""margin-top: 2em;"">Press any key to begin.</p>
    </div>
  "," ","html-keyboard-response","4","2.1.0","67537","F=YES, J=NO","6vnjzfmpq8","0","55","75","35","","","","","","","","","","","","","","","",""
"2555","
  <p style=""font-size: 40px;"">platery</p>
  <p style=""font-size: 16px;"">F = YES &nbsp;&nbsp;&nbsp; J = NO</p>
","f","html-keyboard-response","5","2.1.0","70092","F=YES, J=NO","6vnjzfmpq8","0","55","75","35","","","","","","lextale","false","true","","","","","","","",""
"1233","
  <p style=""font-size: 40px;"">denial</p>
  <p style=""font-size: 16px;"">F = YES &nbsp;&nbsp;&nbsp; J = NO</p>
","f","html-keyboard-response","6","2.1.0","71326","F=YES, J=NO","6vnjzfmpq8","0","55","75","35","","","","","","lextale","true","true","","","","","","","",""
"2318","
  <p style=""font-size: 40px;"">marrit</p>
  <p style=""font-size: 16px;"">F = YES &nbsp;&nbsp;&nbsp; J = NO</p>
","j","html-keyboard-response","7","2.1.0","73646","F=YES, J=NO","6vnjzfmpq8","0","55","75","35","","","","","","lextale","false","true","","","","","","","",""
"3815","
  <p style=""font-size: 40px;"">bottle</p>
  <p style=""font-size: 16px;"">F = YES &nbsp;&nbsp;&nbsp; J = NO</p>
","f","html-keyboard-response","8","2.1.0","77462","F=YES, J=NO","6vnjzfmpq8","0","55","75","35","","","","","","lextale","true","false","","","","","","","",""
"2562","
  <p style=""font-size: 40px;"">birst</p>
  <p style=""font-size: 16px;"">F = YES &nbsp;&nbsp;&nbsp; J = NO</p>
","j","html-keyboard-response","9","2.1.0","80025","F=YES, J=NO","6vnjzfmpq8","0","55","75","35","","","","","","lextale","false","false","","","","","","","",""
"1381","
  <p style=""font-size: 40px;"">envy</p>
  <p style=""font-size: 16px;"">F = YES &nbsp;&nbsp;&nbsp; J = NO</p>
","j","html-keyboard-response","10","2.1.0","81407","F=YES, J=NO","6vnjzfmpq8","0","55","75","35","","","","","","lextale","true","false","","","","","","","",""
"2319","
  <p style=""font-size: 40px;"">brang</p>
  <p style=""font-size: 16px;"">F = YES &nbsp;&nbsp;&nbsp; J = NO</p>
","f","html-keyboard-response","11","2.1.0","83726","F=YES, J=NO","6vnjzfmpq8","0","55","75","35","","","","","","lextale","false","false","","","","","","","",""
"913","
  <p style=""font-size: 40px;"">huge</p>
  <p style=""font-size: 16px;"">F = YES &nbsp;&nbsp;&nbsp; J = NO</p>
","f","html-keyboard-response","12","2.1.0","84640","F=YES, J=NO","6vnjzfmpq8","0","55","75","35","","","","","","lextale","true","false","","","","","","","",""
"13308","
  <p style=""font-size: 40px;"">plove</p>
  <p style=""font-size: 16px;"">F = YES &nbsp;&nbsp;&nbsp; J = NO</p>
","f","html-keyboard-response","13","2.1.0","97949","F=YES, J=NO","6vnjzfmpq8","0","55","75","35","","","","","","lextale","false","false","","","","","","","",""
"762","
  <p style=""font-size: 40px;"">border</p>
  <p style=""font-size: 16px;"">F = YES &nbsp;&nbsp;&nbsp; J = NO</p>
","f","html-keyboard-response","14","2.1.0","98712","F=YES, J=NO","6vnjzfmpq8","0","55","75","35","","","","","","lextale","true","false","","","","","","","",""
"9763","
  <p style=""font-size: 40px;"">flimsy</p>
  <p style=""font-size: 16px;"">F = YES &nbsp;&nbsp;&nbsp; J = NO</p>
","f","html-keyboard-response","15","2.1.0","108476","F=YES, J=NO","6vnjzfmpq8","0","55","75","35","","","","","","lextale","true","false","","","","","","","",""
"665","
  <p style=""font-size: 40px;"">drain</p>
  <p style=""font-size: 16px;"">F = YES &nbsp;&nbsp;&nbsp; J = NO</p>
","f","html-keyboard-response","16","2.1.0","109141","F=YES, J=NO","6vnjzfmpq8","0","55","75","35","","","","","","lextale","true","false","","","","","","","",""
"2008","
  <p style=""font-size: 40px;"">twindle</p>
  <p style=""font-size: 16px;"">F = YES &nbsp;&nbsp;&nbsp; J = NO</p>
","f","html-keyboard-response","17","2.1.0","111150","F=YES, J=NO","6vnjzfmpq8","0","55","75","35","","","","","","lextale","false","false","","","","","","","",""
"664","
  <p style=""font-size: 40px;"">propose</p>
  <p style=""font-size: 16px;"">F = YES &nbsp;&nbsp;&nbsp; J = NO</p>
","f","html-keyboard-response","18","2.1.0","111815","F=YES, J=NO","6vnjzfmpq8","0","55","75","35","","","","","","lextale","true","false","","","","","","","",""
"3150","
  <p style=""font-size: 40px;"">forlay</p>
  <p style=""font-size: 16px;"">F = YES &nbsp;&nbsp;&nbsp; J = NO</p>
","j","html-keyboard-response","19","2.1.0","114967","F=YES, J=NO","6vnjzfmpq8","0","55","75","35","","","","","","lextale","false","false","","","","","","","",""
"16083","
  <p style=""font-size: 40px;"">tenant</p>
  <p style=""font-size: 16px;"">F = YES &nbsp;&nbsp;&nbsp; J = NO</p>
","f","html-keyboard-response","20","2.1.0","131051","F=YES, J=NO","6vnjzfmpq8","0","55","75","35","","","","","","lextale","true","false","","","","","","","",""
"701","
  <p style=""font-size: 40px;"">strain</p>
  <p style=""font-size: 16px;"">F = YES &nbsp;&nbsp;&nbsp; J = NO</p>
","f","html-keyboard-response","21","2.1.0","131753","F=YES, J=NO","6vnjzfmpq8","0","55","75","35","","","","","","lextale","true","false","","","","","","","",""
"2305","
  <p style=""font-size: 40px;"">holster</p>
  <p style=""font-size: 16px;"">F = YES &nbsp;&nbsp;&nbsp; J = NO</p>
","j","html-keyboard-response","22","2.1.0","134059","F=YES, J=NO","6vnjzfmpq8","0","55","75","35","","","","","","lextale","true","false","","","","","","","",""
"1014","
  <p style=""font-size: 40px;"">hinder</p>
  <p style=""font-size: 16px;"">F = YES &nbsp;&nbsp;&nbsp; J = NO</p>
","f","html-keyboard-response","23","2.1.0","135073","F=YES, J=NO","6vnjzfmpq8","0","55","75","35","","","","","","lextale","true","false","","","","","","","",""
"963","
  <p style=""font-size: 40px;"">swindle</p>
  <p style=""font-size: 16px;"">F = YES &nbsp;&nbsp;&nbsp; J = NO</p>
","f","html-keyboard-response","24","2.1.0","136037","F=YES, J=NO","6vnjzfmpq8","0","55","75","35","","","","","","lextale","true","false","","","","","","","",""
"807","
  <p style=""font-size: 40px;"">nuder</p>
  <p style=""font-size: 16px;"">F = YES &nbsp;&nbsp;&nbsp; J = NO</p>
","j","html-keyboard-response","25","2.1.0","136845","F=YES, J=NO","6vnjzfmpq8","0","55","75","35","","","","","","lextale","false","false","","","","","","","",""
"693","
  <p style=""font-size: 40px;"">pillow</p>
  <p style=""font-size: 16px;"">F = YES &nbsp;&nbsp;&nbsp; J = NO</p>
","f","html-keyboard-response","26","2.1.0","137538","F=YES, J=NO","6vnjzfmpq8","0","55","75","35","","","","","","lextale","true","false","","","","","","","",""
"1460","
  <p style=""font-size: 40px;"">shumble</p>
  <p style=""font-size: 16px;"">F = YES &nbsp;&nbsp;&nbsp; J = NO</p>
","f","html-keyboard-response","27","2.1.0","138998","F=YES, J=NO","6vnjzfmpq8","0","55","75","35","","","","","","lextale","false","false","","","","","","","",""
"627","
  <p style=""font-size: 40px;"">thirst</p>
  <p style=""font-size: 16px;"">F = YES &nbsp;&nbsp;&nbsp; J = NO</p>
","f","html-keyboard-response","28","2.1.0","139626","F=YES, J=NO","6vnjzfmpq8","0","55","75","35","","","","","","lextale","true","false","","","","","","","",""
"1145","
  <p style=""font-size: 40px;"">unsail</p>
  <p style=""font-size: 16px;"">F = YES &nbsp;&nbsp;&nbsp; J = NO</p>
","f","html-keyboard-response","29","2.1.0","140771","F=YES, J=NO","6vnjzfmpq8","0","55","75","35","","","","","","lextale","false","false","","","","","","","",""
"2243","
  <p style=""font-size: 40px;"">rifle</p>
  <p style=""font-size: 16px;"">F = YES &nbsp;&nbsp;&nbsp; J = NO</p>
","j","html-keyboard-response","30","2.1.0","143015","F=YES, J=NO","6vnjzfmpq8","0","55","75","35","","","","","","lextale","true","false","","","","","","","",""
"9550","
  <p style=""font-size: 40px;"">mush</p>
  <p style=""font-size: 16px;"">F = YES &nbsp;&nbsp;&nbsp; J = NO</p>
","f","html-keyboard-response","31","2.1.0","152566","F=YES, J=NO","6vnjzfmpq8","0","55","75","35","","","","","","lextale","false","false","","","","","","","",""
"861","
  <p style=""font-size: 40px;"">drench</p>
  <p style=""font-size: 16px;"">F = YES &nbsp;&nbsp;&nbsp; J = NO</p>
","f","html-keyboard-response","32","2.1.0","153428","F=YES, J=NO","6vnjzfmpq8","0","55","75","35","","","","","","lextale","true","false","","","","","","","",""
"1244","
  <p style=""font-size: 40px;"">snirt</p>
  <p style=""font-size: 16px;"">F = YES &nbsp;&nbsp;&nbsp; J = NO</p>
","j","html-keyboard-response","33","2.1.0","154673","F=YES, J=NO","6vnjzfmpq8","0","55","75","35","","","","","","lextale","false","false","","","","","","","",""
"662","
  <p style=""font-size: 40px;"">bitter</p>
  <p style=""font-size: 16px;"">F = YES &nbsp;&nbsp;&nbsp; J = NO</p>
","f","html-keyboard-response","34","2.1.0","155336","F=YES, J=NO","6vnjzfmpq8","0","55","75","35","","","","","","lextale","true","false","","","","","","","",""
"1133","
  <p style=""font-size: 40px;"">pliff</p>
  <p style=""font-size: 16px;"">F = YES &nbsp;&nbsp;&nbsp; J = NO</p>
","j","html-keyboard-response","35","2.1.0","156470","F=YES, J=NO","6vnjzfmpq8","0","55","75","35","","","","","","lextale","false","false","","","","","","","",""
"588","
  <p style=""font-size: 40px;"">tablet</p>
  <p style=""font-size: 16px;"">F = YES &nbsp;&nbsp;&nbsp; J = NO</p>
","f","html-keyboard-response","36","2.1.0","157058","F=YES, J=NO","6vnjzfmpq8","0","55","75","35","","","","","","lextale","true","false","","","","","","","",""
"802","
  <p style=""font-size: 40px;"">glimmer</p>
  <p style=""font-size: 16px;"">F = YES &nbsp;&nbsp;&nbsp; J = NO</p>
","f","html-keyboard-response","37","2.1.0","157861","F=YES, J=NO","6vnjzfmpq8","0","55","75","35","","","","","","lextale","true","false","","","","","","","",""
"878","
  <p style=""font-size: 40px;"">slink</p>
  <p style=""font-size: 16px;"">F = YES &nbsp;&nbsp;&nbsp; J = NO</p>
","f","html-keyboard-response","38","2.1.0","158740","F=YES, J=NO","6vnjzfmpq8","0","55","75","35","","","","","","lextale","true","false","","","","","","","",""
"2776","
  <p style=""font-size: 40px;"">clever</p>
  <p style=""font-size: 16px;"">F = YES &nbsp;&nbsp;&nbsp; J = NO</p>
","f","html-keyboard-response","39","2.1.0","161516","F=YES, J=NO","6vnjzfmpq8","0","55","75","35","","","","","","lextale","true","false","","","","","","","",""
"928","
  <p style=""font-size: 40px;"">grum</p>
  <p style=""font-size: 16px;"">F = YES &nbsp;&nbsp;&nbsp; J = NO</p>
","f","html-keyboard-response","40","2.1.0","162444","F=YES, J=NO","6vnjzfmpq8","0","55","75","35","","","","","","lextale","false","false","","","","","","","",""
"547","
  <p style=""font-size: 40px;"">string</p>
  <p style=""font-size: 16px;"">F = YES &nbsp;&nbsp;&nbsp; J = NO</p>
","f","html-keyboard-response","41","2.1.0","162992","F=YES, J=NO","6vnjzfmpq8","0","55","75","35","","","","","","lextale","true","false","","","","","","","",""
"723","
  <p style=""font-size: 40px;"">plim</p>
  <p style=""font-size: 16px;"">F = YES &nbsp;&nbsp;&nbsp; J = NO</p>
","f","html-keyboard-response","42","2.1.0","163715","F=YES, J=NO","6vnjzfmpq8","0","55","75","35","","","","","","lextale","false","false","","","","","","","",""
"587","
  <p style=""font-size: 40px;"">cable</p>
  <p style=""font-size: 16px;"">F = YES &nbsp;&nbsp;&nbsp; J = NO</p>
","f","html-keyboard-response","43","2.1.0","164303","F=YES, J=NO","6vnjzfmpq8","0","55","75","35","","","","","","lextale","true","false","","","","","","","",""
"928","
  <p style=""font-size: 40px;"">shrivel</p>
  <p style=""font-size: 16px;"">F = YES &nbsp;&nbsp;&nbsp; J = NO</p>
","f","html-keyboard-response","44","2.1.0","165232","F=YES, J=NO","6vnjzfmpq8","0","55","75","35","","","","","","lextale","true","false","","","","","","","",""
"778","
  <p style=""font-size: 40px;"">tarnish</p>
  <p style=""font-size: 16px;"">F = YES &nbsp;&nbsp;&nbsp; J = NO</p>
","j","html-keyboard-response","45","2.1.0","166011","F=YES, J=NO","6vnjzfmpq8","0","55","75","35","","","","","","lextale","true","false","","","","","","","",""
"702","
  <p style=""font-size: 40px;"">blim</p>
  <p style=""font-size: 16px;"">F = YES &nbsp;&nbsp;&nbsp; J = NO</p>
","f","html-keyboard-response","46","2.1.0","166713","F=YES, J=NO","6vnjzfmpq8","0","55","75","35","","","","","","lextale","false","false","","","","","","","",""
"1104","
  <p style=""font-size: 40px;"">stifle</p>
  <p style=""font-size: 16px;"">F = YES &nbsp;&nbsp;&nbsp; J = NO</p>
","f","html-keyboard-response","47","2.1.0","167818","F=YES, J=NO","6vnjzfmpq8","0","55","75","35","","","","","","lextale","true","false","","","","","","","",""
"902","
  <p style=""font-size: 40px;"">bint</p>
  <p style=""font-size: 16px;"">F = YES &nbsp;&nbsp;&nbsp; J = NO</p>
","j","html-keyboard-response","48","2.1.0","168721","F=YES, J=NO","6vnjzfmpq8","0","55","75","35","","","","","","lextale","false","false","","","","","","","",""
"718","
  <p style=""font-size: 40px;"">purple</p>
  <p style=""font-size: 16px;"">F = YES &nbsp;&nbsp;&nbsp; J = NO</p>
","f","html-keyboard-response","49","2.1.0","169440","F=YES, J=NO","6vnjzfmpq8","0","55","75","35","","","","","","lextale","true","false","","","","","","","",""
"848","
  <p style=""font-size: 40px;"">wriggle</p>
  <p style=""font-size: 16px;"">F = YES &nbsp;&nbsp;&nbsp; J = NO</p>
","f","html-keyboard-response","50","2.1.0","170288","F=YES, J=NO","6vnjzfmpq8","0","55","75","35","","","","","","lextale","true","false","","","","","","","",""
"1139","
  <p style=""font-size: 40px;"">mangle</p>
  <p style=""font-size: 16px;"">F = YES &nbsp;&nbsp;&nbsp; J = NO</p>
","f","html-keyboard-response","51","2.1.0","171428","F=YES, J=NO","6vnjzfmpq8","0","55","75","35","","","","","","lextale","true","false","","","","","","","",""
"798","
  <p style=""font-size: 40px;"">shramp</p>
  <p style=""font-size: 16px;"">F = YES &nbsp;&nbsp;&nbsp; J = NO</p>
","f","html-keyboard-response","52","2.1.0","172227","F=YES, J=NO","6vnjzfmpq8","0","55","75","35","","","","","","lextale","false","false","","","","","","","",""
"863","
  <p style=""font-size: 40px;"">flirt</p>
  <p style=""font-size: 16px;"">F = YES &nbsp;&nbsp;&nbsp; J = NO</p>
","f","html-keyboard-response","53","2.1.0","173090","F=YES, J=NO","6vnjzfmpq8","0","55","75","35","","","","","","lextale","true","false","","","","","","","",""
"1029","
  <p style=""font-size: 40px;"">frip</p>
  <p style=""font-size: 16px;"">F = YES &nbsp;&nbsp;&nbsp; J = NO</p>
","f","html-keyboard-response","54","2.1.0","174119","F=YES, J=NO","6vnjzfmpq8","0","55","75","35","","","","","","lextale","false","false","","","","","","","",""
"627","
  <p style=""font-size: 40px;"">tangle</p>
  <p style=""font-size: 16px;"">F = YES &nbsp;&nbsp;&nbsp; J = NO</p>
","f","html-keyboard-response","55","2.1.0","174747","F=YES, J=NO","6vnjzfmpq8","0","55","75","35","","","","","","lextale","true","false","","","","","","","",""
"788","
  <p style=""font-size: 40px;"">crumble</p>
  <p style=""font-size: 16px;"">F = YES &nbsp;&nbsp;&nbsp; J = NO</p>
","f","html-keyboard-response","56","2.1.0","175536","F=YES, J=NO","6vnjzfmpq8","0","55","75","35","","","","","","lextale","true","false","","","","","","","",""
"662","
  <p style=""font-size: 40px;"">wrinkle</p>
  <p style=""font-size: 16px;"">F = YES &nbsp;&nbsp;&nbsp; J = NO</p>
","f","html-keyboard-response","57","2.1.0","176198","F=YES, J=NO","6vnjzfmpq8","0","55","75","35","","","","","","lextale","true","false","","","","","","","",""
"803","
  <p style=""font-size: 40px;"">slumb</p>
  <p style=""font-size: 16px;"">F = YES &nbsp;&nbsp;&nbsp; J = NO</p>
","f","html-keyboard-response","58","2.1.0","177002","F=YES, J=NO","6vnjzfmpq8","0","55","75","35","","","","","","lextale","false","false","","","","","","","",""
"582","
  <p style=""font-size: 40px;"">jungle</p>
  <p style=""font-size: 16px;"">F = YES &nbsp;&nbsp;&nbsp; J = NO</p>
","f","html-keyboard-response","59","2.1.0","177584","F=YES, J=NO","6vnjzfmpq8","0","55","75","35","","","","","","lextale","true","false","","","","","","","",""
"1010","
  <p style=""font-size: 40px;"">frolick</p>
  <p style=""font-size: 16px;"">F = YES &nbsp;&nbsp;&nbsp; J = NO</p>
","j","html-keyboard-response","60","2.1.0","178594","F=YES, J=NO","6vnjzfmpq8","0","55","75","35","","","","","","lextale","false","false","","","","","","","",""
"2609","
      <h2>LexTALE Test Completed</h2>
      <p>Your LexTALE vocabulary score is: <strong>55%</strong></p>
      <p>Press any key to continue.</p>
    ","h","html-keyboard-response","61","2.1.0","181205","F=YES, J=NO","6vnjzfmpq8","0","55","75","35","","","","","","","","","","","","","","","",""
"78450","
    <div style=""max-width: 800px; margin: auto; text-align: left;"">
      <h2>Break Time</h2>
      <p>You have completed the first part of the study.</p>
      <p>You may take a short <strong>30-second break</strong> before continuing.</p>
      <p>When you’re ready, press any key to continue to the final task.</p>
    </div>
  ","h","html-keyboard-response","62","2.1.0","259655","F=YES, J=NO","6vnjzfmpq8","0","55","75","35","","","","","","","","","","","","","","","",""
"24956","
    <div style=""max-width: 800px; margin: auto; text-align: left;"">
      <h2>Part 2: Lexical Decision Task</h2>
      <p>You will now begin the second part of the study.</p>
      <p>Each trial will follow this sequence:</p>
      <ul>
        <li>A fixation cross (+) appears at the center of the screen.</li>
        <li>You will hear a short beep followed by a spoken word.</li>
        <li>A written word will appear briefly on the screen.</li>
      </ul>
      <p>Your task is to judge whether the <strong>written word</strong> is a real English word.</p>
      <p style=""margin-top: 1em;""><strong>Key responses:</strong></p>
      <ul>
        <li><strong>F</strong> = YES (real English word)</li>
        <li><strong>J</strong> = NO (not a real English word)</li>
      </ul>
      <p>Please respond as quickly and accurately as you can.</p>
      <p style=""margin-top: 2em;"">Press any key to continue.</p>
    </div>
  ","h","html-keyboard-response","63","2.1.0","284612","F=YES, J=NO","6vnjzfmpq8","0","55","75","35","","","","","","","","","","","","","","","",""
"5883","
    <div style=""max-width: 800px; margin: auto; text-align: left;"">
      <h2>Before You Begin</h2>
      <p>Make sure your sound is turned on.</p>
      <p>You will hear audio during each trial, but your decision should be based only on the <strong>written word</strong> you see on the screen.</p>
      <p><strong>Reminder:</strong></p>
      <ul>
        <li><strong>F</strong> = YES (real English word)</li>
        <li><strong>J</strong> = NO (not a real English word)</li>
      </ul>
      <p style=""margin-top: 2em;"">Press any key when you are ready to begin.</p>
    </div>
  ","f","html-keyboard-response","64","2.1.0","290496","F=YES, J=NO","6vnjzfmpq8","0","55","75","35","","","","","","","","","","","","","","","",""
"3783","
    <div style=""max-width: 800px; margin: auto; text-align: left;"">
      <h2>Part 2: Practice Trials</h2>
      <p>You will now complete a few <strong>practice trials</strong> to get familiar with the task.</p>
      <p>These trials are <strong>not scored</strong> and are only to help you get used to the format.</p>
      <p style=""margin-top: 2em;"">Press any key to begin.</p>
    </div>
  ","f","html-keyboard-response","65","2.1.0","294280","F=YES, J=NO","6vnjzfmpq8","0","55","75","35","","","","","","","","","","","","","","","",""
"1877","<p>Starting practice block 1 of 2. Press any key to continue.</p>","f","html-keyboard-response","66","2.1.0","296158","F=YES, J=NO","6vnjzfmpq8","0","55","75","35","","","","","","","","","","","","","","","",""
"null","<p style=""font-size: 50px;"">+</p>","null","html-keyboard-response","67","2.1.0","296460","F=YES, J=NO","6vnjzfmpq8","0","55","75","35","","","","","","","","","","","","","","","",""
"null","audio/beep-329314.mp3","null","audio-keyboard-response","68","2.1.0","298322","F=YES, J=NO","6vnjzfmpq8","0","55","75","35","","","","","","","","","","","","","","","",""
"null","audio/client1.wav","null","audio-keyboard-response","69","2.1.0","299133","F=YES, J=NO","6vnjzfmpq8","0","55","75","35","","","","","","","","","","","","","","","",""
"null","
          <p id=""word"" style=""font-size: 40px;"">droothe</p>
          <p style=""font-size: 16px;"">F = YES &nbsp;&nbsp;&nbsp; J = NO</p>
        ","null","html-keyboard-response","70","2.1.0","300640","F=YES, J=NO","6vnjzfmpq8","0","55","75","35","","","","","","","","","droothe","client1","pseudoword","pseudoword","j","false","",""
"null","<p style=""font-size: 50px;"">+</p>","null","html-keyboard-response","71","2.1.0","300953","F=YES, J=NO","6vnjzfmpq8","0","55","75","35","","","","","","","","","","","","","","","",""
"null","audio/beep-329314.mp3","null","audio-keyboard-response","72","2.1.0","302482","F=YES, J=NO","6vnjzfmpq8","0","55","75","35","","","","","","","","","","","","","","","",""
"null","audio/road.wav","null","audio-keyboard-response","73","2.1.0","302951","F=YES, J=NO","6vnjzfmpq8","0","55","75","35","","","","","","","","","","","","","","","",""
"1259","
          <p id=""word"" style=""font-size: 40px;"">wappings</p>
          <p style=""font-size: 16px;"">F = YES &nbsp;&nbsp;&nbsp; J = NO</p>
        ","j","html-keyboard-response","74","2.1.0","304211","F=YES, J=NO","6vnjzfmpq8","0","55","75","35","","","","","","","","","wappings","road","pseudoword","pseudoword","j","true","",""
"null","<p style=""font-size: 50px;"">+</p>","null","html-keyboard-response","75","2.1.0","304526","F=YES, J=NO","6vnjzfmpq8","0","55","75","35","","","","","","","","","","","","","","","",""
"null","audio/beep-329314.mp3","null","audio-keyboard-response","76","2.1.0","306045","F=YES, J=NO","6vnjzfmpq8","0","55","75","35","","","","","","","","","","","","","","","",""
"null","audio/baby.wav","null","audio-keyboard-response","77","2.1.0","306535","F=YES, J=NO","6vnjzfmpq8","0","55","75","35","","","","","","","","","","","","","","","",""
"961","
          <p id=""word"" style=""font-size: 40px;"">lift</p>
          <p style=""font-size: 16px;"">F = YES &nbsp;&nbsp;&nbsp; J = NO</p>
        ","f","html-keyboard-response","78","2.1.0","307498","F=YES, J=NO","6vnjzfmpq8","0","55","75","35","","","","","","","","","lift","baby","filler","filler","f","true","",""
"null","<p style=""font-size: 50px;"">+</p>","null","html-keyboard-response","79","2.1.0","307804","F=YES, J=NO","6vnjzfmpq8","0","55","75","35","","","","","","","","","","","","","","","",""
"null","audio/beep-329314.mp3","null","audio-keyboard-response","80","2.1.0","309330","F=YES, J=NO","6vnjzfmpq8","0","55","75","35","","","","","","","","","","","","","","","",""
"null","audio/trout1.wav","null","audio-keyboard-response","81","2.1.0","310056","F=YES, J=NO","6vnjzfmpq8","0","55","75","35","","","","","","","","","","","","","","","",""
"649","
          <p id=""word"" style=""font-size: 40px;"">spimt</p>
          <p style=""font-size: 16px;"">F = YES &nbsp;&nbsp;&nbsp; J = NO</p>
        ","f","html-keyboard-response","82","2.1.0","310706","F=YES, J=NO","6vnjzfmpq8","0","55","75","35","","","","","","","","","spimt","trout1","pseudoword","pseudoword","j","false","",""
"null","<p style=""font-size: 50px;"">+</p>","null","html-keyboard-response","83","2.1.0","311018","F=YES, J=NO","6vnjzfmpq8","0","55","75","35","","","","","","","","","","","","","","","",""
"null","audio/beep-329314.mp3","null","audio-keyboard-response","84","2.1.0","312552","F=YES, J=NO","6vnjzfmpq8","0","55","75","35","","","","","","","","","","","","","","","",""
"null","audio/weight1.wav","null","audio-keyboard-response","85","2.1.0","313127","F=YES, J=NO","6vnjzfmpq8","0","55","75","35","","","","","","","","","","","","","","","",""
"354","
          <p id=""word"" style=""font-size: 40px;"">crimsh</p>
          <p style=""font-size: 16px;"">F = YES &nbsp;&nbsp;&nbsp; J = NO</p>
        ","f","html-keyboard-response","86","2.1.0","313482","F=YES, J=NO","6vnjzfmpq8","0","55","75","35","","","","","","","","","crimsh","weight1","pseudoword","pseudoword","j","false","",""
"null","<p style=""font-size: 50px;"">+</p>","null","html-keyboard-response","87","2.1.0","313799","F=YES, J=NO","6vnjzfmpq8","0","55","75","35","","","","","","","","","","","","","","","",""
"null","audio/beep-329314.mp3","null","audio-keyboard-response","88","2.1.0","315325","F=YES, J=NO","6vnjzfmpq8","0","55","75","35","","","","","","","","","","","","","","","",""
"null","audio/brain.wav","null","audio-keyboard-response","89","2.1.0","315837","F=YES, J=NO","6vnjzfmpq8","0","55","75","35","","","","","","","","","","","","","","","",""
"752","
          <p id=""word"" style=""font-size: 40px;"">throw</p>
          <p style=""font-size: 16px;"">F = YES &nbsp;&nbsp;&nbsp; J = NO</p>
        ","f","html-keyboard-response","90","2.1.0","316590","F=YES, J=NO","6vnjzfmpq8","0","55","75","35","","","","","","","","","throw","brain","filler","filler","f","true","",""
"null","<p style=""font-size: 50px;"">+</p>","null","html-keyboard-response","91","2.1.0","316892","F=YES, J=NO","6vnjzfmpq8","0","55","75","35","","","","","","","","","","","","","","","",""
"null","audio/beep-329314.mp3","null","audio-keyboard-response","92","2.1.0","318419","F=YES, J=NO","6vnjzfmpq8","0","55","75","35","","","","","","","","","","","","","","","",""
"null","audio/haste1.wav","null","audio-keyboard-response","93","2.1.0","319016","F=YES, J=NO","6vnjzfmpq8","0","55","75","35","","","","","","","","","","","","","","","",""
"274","
          <p id=""word"" style=""font-size: 40px;"">coraconate</p>
          <p style=""font-size: 16px;"">F = YES &nbsp;&nbsp;&nbsp; J = NO</p>
        ","f","html-keyboard-response","94","2.1.0","319290","F=YES, J=NO","6vnjzfmpq8","0","55","75","35","","","","","","","","","coraconate","haste1","pseudoword","pseudoword","j","false","",""
"null","<p style=""font-size: 50px;"">+</p>","null","html-keyboard-response","95","2.1.0","319602","F=YES, J=NO","6vnjzfmpq8","0","55","75","35","","","","","","","","","","","","","","","",""
"null","audio/beep-329314.mp3","null","audio-keyboard-response","96","2.1.0","321128","F=YES, J=NO","6vnjzfmpq8","0","55","75","35","","","","","","","","","","","","","","","",""
"null","audio/radio1.wav","null","audio-keyboard-response","97","2.1.0","321768","F=YES, J=NO","6vnjzfmpq8","0","55","75","35","","","","","","","","","","","","","","","",""
"524","
          <p id=""word"" style=""font-size: 40px;"">blanter</p>
          <p style=""font-size: 16px;"">F = YES &nbsp;&nbsp;&nbsp; J = NO</p>
        ","j","html-keyboard-response","98","2.1.0","322293","F=YES, J=NO","6vnjzfmpq8","0","55","75","35","","","","","","","","","blanter","radio1","pseudoword","pseudoword","j","true","",""
"null","<p style=""font-size: 50px;"">+</p>","null","html-keyboard-response","99","2.1.0","322610","F=YES, J=NO","6vnjzfmpq8","0","55","75","35","","","","","","","","","","","","","","","",""
"null","audio/beep-329314.mp3","null","audio-keyboard-response","100","2.1.0","324136","F=YES, J=NO","6vnjzfmpq8","0","55","75","35","","","","","","","","","","","","","","","",""
"null","audio/golf1.wav","null","audio-keyboard-response","101","2.1.0","324733","F=YES, J=NO","6vnjzfmpq8","0","55","75","35","","","","","","","","","","","","","","","",""
"702","
          <p id=""word"" style=""font-size: 40px;"">drabble</p>
          <p style=""font-size: 16px;"">F = YES &nbsp;&nbsp;&nbsp; J = NO</p>
        ","f","html-keyboard-response","102","2.1.0","325436","F=YES, J=NO","6vnjzfmpq8","0","55","75","35","","","","","","","","","drabble","golf1","pseudoword","pseudoword","j","false","",""
"null","<p style=""font-size: 50px;"">+</p>","null","html-keyboard-response","103","2.1.0","325740","F=YES, J=NO","6vnjzfmpq8","0","55","75","35","","","","","","","","","","","","","","","",""
"null","audio/beep-329314.mp3","null","audio-keyboard-response","104","2.1.0","327272","F=YES, J=NO","6vnjzfmpq8","0","55","75","35","","","","","","","","","","","","","","","",""
"null","audio/menu.wav","null","audio-keyboard-response","105","2.1.0","327890","F=YES, J=NO","6vnjzfmpq8","0","55","75","35","","","","","","","","","","","","","","","",""
"503","
          <p id=""word"" style=""font-size: 40px;"">slice</p>
          <p style=""font-size: 16px;"">F = YES &nbsp;&nbsp;&nbsp; J = NO</p>
        ","f","html-keyboard-response","106","2.1.0","328394","F=YES, J=NO","6vnjzfmpq8","0","55","75","35","","","","","","","","","slice","menu","filler","filler","f","true","",""
"null","<p style=""font-size: 50px;"">+</p>","null","html-keyboard-response","107","2.1.0","328700","F=YES, J=NO","6vnjzfmpq8","0","55","75","35","","","","","","","","","","","","","","","",""
"null","audio/beep-329314.mp3","null","audio-keyboard-response","108","2.1.0","330216","F=YES, J=NO","6vnjzfmpq8","0","55","75","35","","","","","","","","","","","","","","","",""
"null","audio/breath.wav","null","audio-keyboard-response","109","2.1.0","330920","F=YES, J=NO","6vnjzfmpq8","0","55","75","35","","","","","","","","","","","","","","","",""
"771","
          <p id=""word"" style=""font-size: 40px;"">pack</p>
          <p style=""font-size: 16px;"">F = YES &nbsp;&nbsp;&nbsp; J = NO</p>
        ","f","html-keyboard-response","110","2.1.0","331692","F=YES, J=NO","6vnjzfmpq8","0","55","75","35","","","","","","","","","pack","breath","filler","filler","f","true","",""
"null","<p style=""font-size: 50px;"">+</p>","null","html-keyboard-response","111","2.1.0","332000","F=YES, J=NO","6vnjzfmpq8","0","55","75","35","","","","","","","","","","","","","","","",""
"null","audio/beep-329314.mp3","null","audio-keyboard-response","112","2.1.0","333523","F=YES, J=NO","6vnjzfmpq8","0","55","75","35","","","","","","","","","","","","","","","",""
"null","audio/kettle1.wav","null","audio-keyboard-response","113","2.1.0","334142","F=YES, J=NO","6vnjzfmpq8","0","55","75","35","","","","","","","","","","","","","","","",""
"687","
          <p id=""word"" style=""font-size: 40px;"">wrap</p>
          <p style=""font-size: 16px;"">F = YES &nbsp;&nbsp;&nbsp; J = NO</p>
        ","f","html-keyboard-response","114","2.1.0","334829","F=YES, J=NO","6vnjzfmpq8","0","55","75","35","","","","","","","","","wrap","kettle1","filler","filler","f","true","",""
"1536","<p>Starting practice block 2 of 2. Press any key to continue.</p>","f","html-keyboard-response","115","2.1.0","336366","F=YES, J=NO","6vnjzfmpq8","0","55","75","35","","","","","","","","","","","","","","","",""
"null","<p style=""font-size: 50px;"">+</p>","null","html-keyboard-response","116","2.1.0","336671","F=YES, J=NO","6vnjzfmpq8","0","55","75","35","","","","","","","","","","","","","","","",""
"null","audio/beep-329314.mp3","null","audio-keyboard-response","117","2.1.0","338195","F=YES, J=NO","6vnjzfmpq8","0","55","75","35","","","","","","","","","","","","","","","",""
"null","audio/purpose.wav","null","audio-keyboard-response","118","2.1.0","338899","F=YES, J=NO","6vnjzfmpq8","0","55","75","35","","","","","","","","","","","","","","","",""
"655","
          <p id=""word"" style=""font-size: 40px;"">whigm</p>
          <p style=""font-size: 16px;"">F = YES &nbsp;&nbsp;&nbsp; J = NO</p>
        ","f","html-keyboard-response","119","2.1.0","339555","F=YES, J=NO","6vnjzfmpq8","0","55","75","35","","","","","","","","","whigm","purpose","pseudoword","pseudoword","j","false","",""
"null","<p style=""font-size: 50px;"">+</p>","null","html-keyboard-response","120","2.1.0","339858","F=YES, J=NO","6vnjzfmpq8","0","55","75","35","","","","","","","","","","","","","","","",""
"null","audio/beep-329314.mp3","null","audio-keyboard-response","121","2.1.0","341395","F=YES, J=NO","6vnjzfmpq8","0","55","75","35","","","","","","","","","","","","","","","",""
"null","audio/foe1.wav","null","audio-keyboard-response","122","2.1.0","342056","F=YES, J=NO","6vnjzfmpq8","0","55","75","35","","","","","","","","","","","","","","","",""
"835","
          <p id=""word"" style=""font-size: 40px;"">creth</p>
          <p style=""font-size: 16px;"">F = YES &nbsp;&nbsp;&nbsp; J = NO</p>
        ","j","html-keyboard-response","123","2.1.0","342892","F=YES, J=NO","6vnjzfmpq8","0","55","75","35","","","","","","","","","creth","foe1","pseudoword","pseudoword","j","true","",""
"null","<p style=""font-size: 50px;"">+</p>","null","html-keyboard-response","124","2.1.0","343195","F=YES, J=NO","6vnjzfmpq8","0","55","75","35","","","","","","","","","","","","","","","",""
"null","audio/beep-329314.mp3","null","audio-keyboard-response","125","2.1.0","344723","F=YES, J=NO","6vnjzfmpq8","0","55","75","35","","","","","","","","","","","","","","","",""
"null","audio/bottle.wav","null","audio-keyboard-response","126","2.1.0","345342","F=YES, J=NO","6vnjzfmpq8","0","55","75","35","","","","","","","","","","","","","","","",""
"426","
          <p id=""word"" style=""font-size: 40px;"">watch</p>
          <p style=""font-size: 16px;"">F = YES &nbsp;&nbsp;&nbsp; J = NO</p>
        ","f","html-keyboard-response","127","2.1.0","345769","F=YES, J=NO","6vnjzfmpq8","0","55","75","35","","","","","","","","","watch","bottle","filler","filler","f","true","",""
"null","<p style=""font-size: 50px;"">+</p>","null","html-keyboard-response","128","2.1.0","346074","F=YES, J=NO","6vnjzfmpq8","0","55","75","35","","","","","","","","","","","","","","","",""
"null","audio/beep-329314.mp3","null","audio-keyboard-response","129","2.1.0","347603","F=YES, J=NO","6vnjzfmpq8","0","55","75","35","","","","","","","","","","","","","","","",""
"null","audio/pattern.wav","null","audio-keyboard-response","130","2.1.0","348158","F=YES, J=NO","6vnjzfmpq8","0","55","75","35","","","","","","","","","","","","","","","",""
"753","
          <p id=""word"" style=""font-size: 40px;"">tug</p>
          <p style=""font-size: 16px;"">F = YES &nbsp;&nbsp;&nbsp; J = NO</p>
        ","f","html-keyboard-response","131","2.1.0","348912","F=YES, J=NO","6vnjzfmpq8","0","55","75","35","","","","","","","","","tug","pattern","filler","filler","f","true","",""
"null","<p style=""font-size: 50px;"">+</p>","null","html-keyboard-response","132","2.1.0","349224","F=YES, J=NO","6vnjzfmpq8","0","55","75","35","","","","","","","","","","","","","","","",""
"null","audio/beep-329314.mp3","null","audio-keyboard-response","133","2.1.0","350761","F=YES, J=NO","6vnjzfmpq8","0","55","75","35","","","","","","","","","","","","","","","",""
"null","audio/bomb1.wav","null","audio-keyboard-response","134","2.1.0","351294","F=YES, J=NO","6vnjzfmpq8","0","55","75","35","","","","","","","","","","","","","","","",""
"375","
          <p id=""word"" style=""font-size: 40px;"">clean</p>
          <p style=""font-size: 16px;"">F = YES &nbsp;&nbsp;&nbsp; J = NO</p>
        ","f","html-keyboard-response","135","2.1.0","351669","F=YES, J=NO","6vnjzfmpq8","0","55","75","35","","","","","","","","","clean","bomb1","filler","filler","f","true","",""
"null","<p style=""font-size: 50px;"">+</p>","null","html-keyboard-response","136","2.1.0","351983","F=YES, J=NO","6vnjzfmpq8","0","55","75","35","","","","","","","","","","","","","","","",""
"null","audio/beep-329314.mp3","null","audio-keyboard-response","137","2.1.0","353513","F=YES, J=NO","6vnjzfmpq8","0","55","75","35","","","","","","","","","","","","","","","",""
"null","audio/plot1.wav","null","audio-keyboard-response","138","2.1.0","354089","F=YES, J=NO","6vnjzfmpq8","0","55","75","35","","","","","","","","","","","","","","","",""
"1459","
          <p id=""word"" style=""font-size: 40px;"">glenter</p>
          <p style=""font-size: 16px;"">F = YES &nbsp;&nbsp;&nbsp; J = NO</p>
        ","j","html-keyboard-response","139","2.1.0","355549","F=YES, J=NO","6vnjzfmpq8","0","55","75","35","","","","","","","","","glenter","plot1","pseudoword","pseudoword","j","true","",""
"null","<p style=""font-size: 50px;"">+</p>","null","html-keyboard-response","140","2.1.0","355853","F=YES, J=NO","6vnjzfmpq8","0","55","75","35","","","","","","","","","","","","","","","",""
"null","audio/beep-329314.mp3","null","audio-keyboard-response","141","2.1.0","357374","F=YES, J=NO","6vnjzfmpq8","0","55","75","35","","","","","","","","","","","","","","","",""
"null","audio/fence.wav","null","audio-keyboard-response","142","2.1.0","358164","F=YES, J=NO","6vnjzfmpq8","0","55","75","35","","","","","","","","","","","","","","","",""
"352","
          <p id=""word"" style=""font-size: 40px;"">trim</p>
          <p style=""font-size: 16px;"">F = YES &nbsp;&nbsp;&nbsp; J = NO</p>
        ","f","html-keyboard-response","143","2.1.0","358516","F=YES, J=NO","6vnjzfmpq8","0","55","75","35","","","","","","","","","trim","fence","filler","filler","f","true","",""
"null","<p style=""font-size: 50px;"">+</p>","null","html-keyboard-response","144","2.1.0","358831","F=YES, J=NO","6vnjzfmpq8","0","55","75","35","","","","","","","","","","","","","","","",""
"null","audio/beep-329314.mp3","null","audio-keyboard-response","145","2.1.0","360361","F=YES, J=NO","6vnjzfmpq8","0","55","75","35","","","","","","","","","","","","","","","",""
"null","audio/floor.wav","null","audio-keyboard-response","146","2.1.0","360937","F=YES, J=NO","6vnjzfmpq8","0","55","75","35","","","","","","","","","","","","","","","",""
"304","
          <p id=""word"" style=""font-size: 40px;"">mop</p>
          <p style=""font-size: 16px;"">F = YES &nbsp;&nbsp;&nbsp; J = NO</p>
        ","f","html-keyboard-response","147","2.1.0","361242","F=YES, J=NO","6vnjzfmpq8","0","55","75","35","","","","","","","","","mop","floor","filler","filler","f","true","",""
"null","<p style=""font-size: 50px;"">+</p>","null","html-keyboard-response","148","2.1.0","361555","F=YES, J=NO","6vnjzfmpq8","0","55","75","35","","","","","","","","","","","","","","","",""
"null","audio/beep-329314.mp3","null","audio-keyboard-response","149","2.1.0","363092","F=YES, J=NO","6vnjzfmpq8","0","55","75","35","","","","","","","","","","","","","","","",""
"null","audio/beach1.wav","null","audio-keyboard-response","150","2.1.0","363710","F=YES, J=NO","6vnjzfmpq8","0","55","75","35","","","","","","","","","","","","","","","",""
"308","
          <p id=""word"" style=""font-size: 40px;"">drive</p>
          <p style=""font-size: 16px;"">F = YES &nbsp;&nbsp;&nbsp; J = NO</p>
        ","f","html-keyboard-response","151","2.1.0","364018","F=YES, J=NO","6vnjzfmpq8","0","55","75","35","","","","","","","","","drive","beach1","filler","filler","f","true","",""
"null","<p style=""font-size: 50px;"">+</p>","null","html-keyboard-response","152","2.1.0","364331","F=YES, J=NO","6vnjzfmpq8","0","55","75","35","","","","","","","","","","","","","","","",""
"null","audio/beep-329314.mp3","null","audio-keyboard-response","153","2.1.0","365865","F=YES, J=NO","6vnjzfmpq8","0","55","75","35","","","","","","","","","","","","","","","",""
"null","audio/grass.wav","null","audio-keyboard-response","154","2.1.0","366548","F=YES, J=NO","6vnjzfmpq8","0","55","75","35","","","","","","","","","","","","","","","",""
"427","
          <p id=""word"" style=""font-size: 40px;"">milames</p>
          <p style=""font-size: 16px;"">F = YES &nbsp;&nbsp;&nbsp; J = NO</p>
        ","f","html-keyboard-response","155","2.1.0","366975","F=YES, J=NO","6vnjzfmpq8","0","55","75","35","","","","","","","","","milames","grass","pseudoword","pseudoword","j","false","",""
"null","<p style=""font-size: 50px;"">+</p>","null","html-keyboard-response","156","2.1.0","367277","F=YES, J=NO","6vnjzfmpq8","0","55","75","35","","","","","","","","","","","","","","","",""
"null","audio/beep-329314.mp3","null","audio-keyboard-response","157","2.1.0","368809","F=YES, J=NO","6vnjzfmpq8","0","55","75","35","","","","","","","","","","","","","","","",""
"null","audio/bishop1.wav","null","audio-keyboard-response","158","2.1.0","369428","F=YES, J=NO","6vnjzfmpq8","0","55","75","35","","","","","","","","","","","","","","","",""
"338","
          <p id=""word"" style=""font-size: 40px;"">play</p>
          <p style=""font-size: 16px;"">F = YES &nbsp;&nbsp;&nbsp; J = NO</p>
        ","f","html-keyboard-response","159","2.1.0","369767","F=YES, J=NO","6vnjzfmpq8","0","55","75","35","","","","","","","","","play","bishop1","filler","filler","f","true","",""
"null","<p style=""font-size: 50px;"">+</p>","null","html-keyboard-response","160","2.1.0","370069","F=YES, J=NO","6vnjzfmpq8","0","55","75","35","","","","","","","","","","","","","","","",""
"null","audio/beep-329314.mp3","null","audio-keyboard-response","161","2.1.0","371604","F=YES, J=NO","6vnjzfmpq8","0","55","75","35","","","","","","","","","","","","","","","",""
"null","audio/uncle1.wav","null","audio-keyboard-response","162","2.1.0","372116","F=YES, J=NO","6vnjzfmpq8","0","55","75","35","","","","","","","","","","","","","","","",""
"598","
          <p id=""word"" style=""font-size: 40px;"">dramble</p>
          <p style=""font-size: 16px;"">F = YES &nbsp;&nbsp;&nbsp; J = NO</p>
        ","f","html-keyboard-response","163","2.1.0","372714","F=YES, J=NO","6vnjzfmpq8","0","55","75","35","","","","","","","","","dramble","uncle1","pseudoword","pseudoword","j","false","",""
"9357","
    <div style=""max-width: 800px; margin: auto; text-align: left;"">
      <h2>Part 2: Main Trials</h2>
      <p>Great job on the practice trials!</p>
      <p>You will now begin the <strong>main set of trials</strong>.</p>
      <p>Remember your key assignments:</p>
      <ul>
        <li><strong>F</strong> = YES (real English word)</li>
        <li><strong>J</strong> = NO (not a real English word)</li>
      </ul>
      <p>Try to respond as <strong>quickly and accurately</strong> as possible.</p>
      <p style=""margin-top: 2em;"">Press any key to begin the main trials.</p>
    </div>
  "," ","html-keyboard-response","164","2.1.0","382072","F=YES, J=NO","6vnjzfmpq8","0","55","75","35","","","","","","","","","","","","","","","",""
"1706","<p>Starting main block 1 of 8. Press any key to continue.</p>"," ","html-keyboard-response","165","2.1.0","383778","F=YES, J=NO","6vnjzfmpq8","0","55","75","35","","","","","","","","","","","","","","","",""
"null","<p style=""font-size: 50px;"">+</p>","null","html-keyboard-response","166","2.1.0","384094","F=YES, J=NO","6vnjzfmpq8","0","55","75","35","","","","","","","","","","","","","","","",""
"null","audio/beep-329314.mp3","null","audio-keyboard-response","167","2.1.0","385580","F=YES, J=NO","6vnjzfmpq8","0","55","75","35","","","","","","","","","","","","","","","",""
"null","audio/gift1.wav","null","audio-keyboard-response","168","2.1.0","386060","F=YES, J=NO","6vnjzfmpq8","0","55","75","35","","","","","","","","","","","","","","","",""
"359","
          <p id=""word"" style=""font-size: 40px;"">give</p>
          <p style=""font-size: 16px;"">F = YES &nbsp;&nbsp;&nbsp; J = NO</p>
        ","f","html-keyboard-response","169","2.1.0","386419","F=YES, J=NO","6vnjzfmpq8","0","55","75","35","","","","","","","","","give","gift1","literal","experimental","f","true","",""
"null","<p style=""font-size: 50px;"">+</p>","null","html-keyboard-response","170","2.1.0","386721","F=YES, J=NO","6vnjzfmpq8","0","55","75","35","","","","","","","","","","","","","","","",""
"null","audio/beep-329314.mp3","null","audio-keyboard-response","171","2.1.0","388247","F=YES, J=NO","6vnjzfmpq8","0","55","75","35","","","","","","","","","","","","","","","",""
"null","audio/burden.wav","null","audio-keyboard-response","172","2.1.0","388791","F=YES, J=NO","6vnjzfmpq8","0","55","75","35","","","","","","","","","","","","","","","",""
"961","
          <p id=""word"" style=""font-size: 40px;"">whotth</p>
          <p style=""font-size: 16px;"">F = YES &nbsp;&nbsp;&nbsp; J = NO</p>
        ","j","html-keyboard-response","173","2.1.0","389752","F=YES, J=NO","6vnjzfmpq8","0","55","75","35","","","","","","","","","whotth","burden","pseudoword","pseudoword","j","true","",""
"null","<p style=""font-size: 50px;"">+</p>","null","html-keyboard-response","174","2.1.0","390066","F=YES, J=NO","6vnjzfmpq8","0","55","75","35","","","","","","","","","","","","","","","",""
"null","audio/beep-329314.mp3","null","audio-keyboard-response","175","2.1.0","391596","F=YES, J=NO","6vnjzfmpq8","0","55","75","35","","","","","","","","","","","","","","","",""
"null","audio/enemy1.wav","null","audio-keyboard-response","176","2.1.0","392097","F=YES, J=NO","6vnjzfmpq8","0","55","75","35","","","","","","","","","","","","","","","",""
"524","
          <p id=""word"" style=""font-size: 40px;"">defeat</p>
          <p style=""font-size: 16px;"">F = YES &nbsp;&nbsp;&nbsp; J = NO</p>
        ","f","html-keyboard-response","177","2.1.0","392622","F=YES, J=NO","6vnjzfmpq8","0","55","75","35","","","","","","","","","defeat","enemy1","literal","experimental","f","true","",""
"null","<p style=""font-size: 50px;"">+</p>","null","html-keyboard-response","178","2.1.0","392925","F=YES, J=NO","6vnjzfmpq8","0","55","75","35","","","","","","","","","","","","","","","",""
"null","audio/beep-329314.mp3","null","audio-keyboard-response","179","2.1.0","394455","F=YES, J=NO","6vnjzfmpq8","0","55","75","35","","","","","","","","","","","","","","","",""
"null","audio/trust.wav","null","audio-keyboard-response","180","2.1.0","395105","F=YES, J=NO","6vnjzfmpq8","0","55","75","35","","","","","","","","","","","","","","","",""
"354","
          <p id=""word"" style=""font-size: 40px;"">swint</p>
          <p style=""font-size: 16px;"">F = YES &nbsp;&nbsp;&nbsp; J = NO</p>
        ","f","html-keyboard-response","181","2.1.0","395461","F=YES, J=NO","6vnjzfmpq8","0","55","75","35","","","","","","","","","swint","trust","pseudoword","pseudoword","j","false","",""
"null","<p style=""font-size: 50px;"">+</p>","null","html-keyboard-response","182","2.1.0","395768","F=YES, J=NO","6vnjzfmpq8","0","55","75","35","","","","","","","","","","","","","","","",""
"null","audio/beep-329314.mp3","null","audio-keyboard-response","183","2.1.0","397292","F=YES, J=NO","6vnjzfmpq8","0","55","75","35","","","","","","","","","","","","","","","",""
"null","audio/bush1.wav","null","audio-keyboard-response","184","2.1.0","397794","F=YES, J=NO","6vnjzfmpq8","0","55","75","35","","","","","","","","","","","","","","","",""
"506","
          <p id=""word"" style=""font-size: 40px;"">platined</p>
          <p style=""font-size: 16px;"">F = YES &nbsp;&nbsp;&nbsp; J = NO</p>
        ","j","html-keyboard-response","185","2.1.0","398300","F=YES, J=NO","6vnjzfmpq8","0","55","75","35","","","","","","","","","platined","bush1","pseudoword","pseudoword","j","true","",""
"null","<p style=""font-size: 50px;"">+</p>","null","html-keyboard-response","186","2.1.0","398611","F=YES, J=NO","6vnjzfmpq8","0","55","75","35","","","","","","","","","","","","","","","",""
"null","audio/beep-329314.mp3","null","audio-keyboard-response","187","2.1.0","400129","F=YES, J=NO","6vnjzfmpq8","0","55","75","35","","","","","","","","","","","","","","","",""
"null","audio/battle1.wav","null","audio-keyboard-response","188","2.1.0","400610","F=YES, J=NO","6vnjzfmpq8","0","55","75","35","","","","","","","","","","","","","","","",""
"354","
          <p id=""word"" style=""font-size: 40px;"">boil</p>
          <p style=""font-size: 16px;"">F = YES &nbsp;&nbsp;&nbsp; J = NO</p>
        ","f","html-keyboard-response","189","2.1.0","400964","F=YES, J=NO","6vnjzfmpq8","0","55","75","35","","","","","","","","","boil","battle1","filler","filler","f","true","",""
"null","<p style=""font-size: 50px;"">+</p>","null","html-keyboard-response","190","2.1.0","401265","F=YES, J=NO","6vnjzfmpq8","0","55","75","35","","","","","","","","","","","","","","","",""
"null","audio/beep-329314.mp3","null","audio-keyboard-response","191","2.1.0","402796","F=YES, J=NO","6vnjzfmpq8","0","55","75","35","","","","","","","","","","","","","","","",""
"null","audio/window1.wav","null","audio-keyboard-response","192","2.1.0","403447","F=YES, J=NO","6vnjzfmpq8","0","55","75","35","","","","","","","","","","","","","","","",""
"289","
          <p id=""word"" style=""font-size: 40px;"">toss</p>
          <p style=""font-size: 16px;"">F = YES &nbsp;&nbsp;&nbsp; J = NO</p>
        ","f","html-keyboard-response","193","2.1.0","403736","F=YES, J=NO","6vnjzfmpq8","0","55","75","35","","","","","","","","","toss","window1","filler","filler","f","true","",""
"null","<p style=""font-size: 50px;"">+</p>","null","html-keyboard-response","194","2.1.0","404038","F=YES, J=NO","6vnjzfmpq8","0","55","75","35","","","","","","","","","","","","","","","",""
"null","audio/beep-329314.mp3","null","audio-keyboard-response","195","2.1.0","405570","F=YES, J=NO","6vnjzfmpq8","0","55","75","35","","","","","","","","","","","","","","","",""
"null","audio/smirk1.wav","null","audio-keyboard-response","196","2.1.0","406327","F=YES, J=NO","6vnjzfmpq8","0","55","75","35","","","","","","","","","","","","","","","",""
"270","
          <p id=""word"" style=""font-size: 40px;"">wipe</p>
          <p style=""font-size: 16px;"">F = YES &nbsp;&nbsp;&nbsp; J = NO</p>
        ","f","html-keyboard-response","197","2.1.0","406597","F=YES, J=NO","6vnjzfmpq8","0","55","75","35","","","","","","","","","wipe","smirk1","metaphor","experimental","f","true","",""
"null","<p style=""font-size: 50px;"">+</p>","null","html-keyboard-response","198","2.1.0","406907","F=YES, J=NO","6vnjzfmpq8","0","55","75","35","","","","","","","","","","","","","","","",""
"null","audio/beep-329314.mp3","null","audio-keyboard-response","199","2.1.0","408428","F=YES, J=NO","6vnjzfmpq8","0","55","75","35","","","","","","","","","","","","","","","",""
"null","audio/test1.wav","null","audio-keyboard-response","200","2.1.0","409015","F=YES, J=NO","6vnjzfmpq8","0","55","75","35","","","","","","","","","","","","","","","",""
"267","
          <p id=""word"" style=""font-size: 40px;"">twopch</p>
          <p style=""font-size: 16px;"">F = YES &nbsp;&nbsp;&nbsp; J = NO</p>
        ","f","html-keyboard-response","201","2.1.0","409283","F=YES, J=NO","6vnjzfmpq8","0","55","75","35","","","","","","","","","twopch","test1","pseudoword","pseudoword","j","false","",""
"null","<p style=""font-size: 50px;"">+</p>","null","html-keyboard-response","202","2.1.0","409590","F=YES, J=NO","6vnjzfmpq8","0","55","75","35","","","","","","","","","","","","","","","",""
"null","audio/beep-329314.mp3","null","audio-keyboard-response","203","2.1.0","411116","F=YES, J=NO","6vnjzfmpq8","0","55","75","35","","","","","","","","","","","","","","","",""
"null","audio/wealth1.wav","null","audio-keyboard-response","204","2.1.0","411703","F=YES, J=NO","6vnjzfmpq8","0","55","75","35","","","","","","","","","","","","","","","",""
"366","
          <p id=""word"" style=""font-size: 40px;"">possess</p>
          <p style=""font-size: 16px;"">F = YES &nbsp;&nbsp;&nbsp; J = NO</p>
        ","f","html-keyboard-response","205","2.1.0","412070","F=YES, J=NO","6vnjzfmpq8","0","55","75","35","","","","","","","","","possess","wealth1","literal","experimental","f","true","",""
"null","<p style=""font-size: 50px;"">+</p>","null","html-keyboard-response","206","2.1.0","412385","F=YES, J=NO","6vnjzfmpq8","0","55","75","35","","","","","","","","","","","","","","","",""
"null","audio/beep-329314.mp3","null","audio-keyboard-response","207","2.1.0","413911","F=YES, J=NO","6vnjzfmpq8","0","55","75","35","","","","","","","","","","","","","","","",""
"null","audio/camp.wav","null","audio-keyboard-response","208","2.1.0","414455","F=YES, J=NO","6vnjzfmpq8","0","55","75","35","","","","","","","","","","","","","","","",""
"366","
          <p id=""word"" style=""font-size: 40px;"">touch</p>
          <p style=""font-size: 16px;"">F = YES &nbsp;&nbsp;&nbsp; J = NO</p>
        ","f","html-keyboard-response","209","2.1.0","414822","F=YES, J=NO","6vnjzfmpq8","0","55","75","35","","","","","","","","","touch","camp","unrelated","experimental","f","true","",""
"null","<p style=""font-size: 50px;"">+</p>","null","html-keyboard-response","210","2.1.0","415137","F=YES, J=NO","6vnjzfmpq8","0","55","75","35","","","","","","","","","","","","","","","",""
"null","audio/beep-329314.mp3","null","audio-keyboard-response","211","2.1.0","416664","F=YES, J=NO","6vnjzfmpq8","0","55","75","35","","","","","","","","","","","","","","","",""
"null","audio/baby.wav","null","audio-keyboard-response","212","2.1.0","417122","F=YES, J=NO","6vnjzfmpq8","0","55","75","35","","","","","","","","","","","","","","","",""
"284","
          <p id=""word"" style=""font-size: 40px;"">hold</p>
          <p style=""font-size: 16px;"">F = YES &nbsp;&nbsp;&nbsp; J = NO</p>
        ","f","html-keyboard-response","213","2.1.0","417407","F=YES, J=NO","6vnjzfmpq8","0","55","75","35","","","","","","","","","hold","baby","literal","experimental","f","true","",""
"null","<p style=""font-size: 50px;"">+</p>","null","html-keyboard-response","214","2.1.0","417713","F=YES, J=NO","6vnjzfmpq8","0","55","75","35","","","","","","","","","","","","","","","",""
"null","audio/beep-329314.mp3","null","audio-keyboard-response","215","2.1.0","419245","F=YES, J=NO","6vnjzfmpq8","0","55","75","35","","","","","","","","","","","","","","","",""
"null","audio/relief.wav","null","audio-keyboard-response","216","2.1.0","419917","F=YES, J=NO","6vnjzfmpq8","0","55","75","35","","","","","","","","","","","","","","","",""
"492","
          <p id=""word"" style=""font-size: 40px;"">grigg</p>
          <p style=""font-size: 16px;"">F = YES &nbsp;&nbsp;&nbsp; J = NO</p>
        ","f","html-keyboard-response","217","2.1.0","420409","F=YES, J=NO","6vnjzfmpq8","0","55","75","35","","","","","","","","","grigg","relief","pseudoword","pseudoword","j","false","",""
"null","<p style=""font-size: 50px;"">+</p>","null","html-keyboard-response","218","2.1.0","420713","F=YES, J=NO","6vnjzfmpq8","0","55","75","35","","","","","","","","","","","","","","","",""
"null","audio/beep-329314.mp3","null","audio-keyboard-response","219","2.1.0","422232","F=YES, J=NO","6vnjzfmpq8","0","55","75","35","","","","","","","","","","","","","","","",""
"null","audio/noise1.wav","null","audio-keyboard-response","220","2.1.0","422861","F=YES, J=NO","6vnjzfmpq8","0","55","75","35","","","","","","","","","","","","","","","",""
"515","
          <p id=""word"" style=""font-size: 40px;"">slintered</p>
          <p style=""font-size: 16px;"">F = YES &nbsp;&nbsp;&nbsp; J = NO</p>
        ","f","html-keyboard-response","221","2.1.0","423377","F=YES, J=NO","6vnjzfmpq8","0","55","75","35","","","","","","","","","slintered","noise1","pseudoword","pseudoword","j","false","",""
"null","<p style=""font-size: 50px;"">+</p>","null","html-keyboard-response","222","2.1.0","423694","F=YES, J=NO","6vnjzfmpq8","0","55","75","35","","","","","","","","","","","","","","","",""
"null","audio/beep-329314.mp3","null","audio-keyboard-response","223","2.1.0","425218","F=YES, J=NO","6vnjzfmpq8","0","55","75","35","","","","","","","","","","","","","","","",""
"null","audio/arm.wav","null","audio-keyboard-response","224","2.1.0","425762","F=YES, J=NO","6vnjzfmpq8","0","55","75","35","","","","","","","","","","","","","","","",""
"416","
          <p id=""word"" style=""font-size: 40px;"">fold</p>
          <p style=""font-size: 16px;"">F = YES &nbsp;&nbsp;&nbsp; J = NO</p>
        ","f","html-keyboard-response","225","2.1.0","426179","F=YES, J=NO","6vnjzfmpq8","0","55","75","35","","","","","","","","","fold","arm","filler","filler","f","true","",""
"null","<p style=""font-size: 50px;"">+</p>","null","html-keyboard-response","226","2.1.0","426480","F=YES, J=NO","6vnjzfmpq8","0","55","75","35","","","","","","","","","","","","","","","",""
"null","audio/beep-329314.mp3","null","audio-keyboard-response","227","2.1.0","428013","F=YES, J=NO","6vnjzfmpq8","0","55","75","35","","","","","","","","","","","","","","","",""
"null","audio/fox.wav","null","audio-keyboard-response","228","2.1.0","428941","F=YES, J=NO","6vnjzfmpq8","0","55","75","35","","","","","","","","","","","","","","","",""
"494","
          <p id=""word"" style=""font-size: 40px;"">conquer</p>
          <p style=""font-size: 16px;"">F = YES &nbsp;&nbsp;&nbsp; J = NO</p>
        ","f","html-keyboard-response","229","2.1.0","429436","F=YES, J=NO","6vnjzfmpq8","0","55","75","35","","","","","","","","","conquer","fox","unrelated","experimental","f","true","",""
"3323","<p>Excellent! You have finished block 1 of 8.</p>
                     <p>Feel free to take a 30 second break.</p>
                     <p>Press any key when you're ready to continue.</p>"," ","html-keyboard-response","230","2.1.0","432760","F=YES, J=NO","6vnjzfmpq8","0","55","75","35","","","","","","","","","","","","","","","",""
"818","<p>Starting main block 2 of 8. Press any key to continue.</p>"," ","html-keyboard-response","231","2.1.0","433579","F=YES, J=NO","6vnjzfmpq8","0","55","75","35","","","","","","","","","","","","","","","",""
"null","<p style=""font-size: 50px;"">+</p>","null","html-keyboard-response","232","2.1.0","433895","F=YES, J=NO","6vnjzfmpq8","0","55","75","35","","","","","","","","","","","","","","","",""
"null","audio/beep-329314.mp3","null","audio-keyboard-response","233","2.1.0","435416","F=YES, J=NO","6vnjzfmpq8","0","55","75","35","","","","","","","","","","","","","","","",""
"null","audio/pine.wav","null","audio-keyboard-response","234","2.1.0","435917","F=YES, J=NO","6vnjzfmpq8","0","55","75","35","","","","","","","","","","","","","","","",""
"1025","
          <p id=""word"" style=""font-size: 40px;"">crebble</p>
          <p style=""font-size: 16px;"">F = YES &nbsp;&nbsp;&nbsp; J = NO</p>
        ","j","html-keyboard-response","235","2.1.0","436943","F=YES, J=NO","6vnjzfmpq8","0","55","75","35","","","","","","","","","crebble","pine","pseudoword","pseudoword","j","true","",""
"null","<p style=""font-size: 50px;"">+</p>","null","html-keyboard-response","236","2.1.0","437245","F=YES, J=NO","6vnjzfmpq8","0","55","75","35","","","","","","","","","","","","","","","",""
"null","audio/beep-329314.mp3","null","audio-keyboard-response","237","2.1.0","438765","F=YES, J=NO","6vnjzfmpq8","0","55","75","35","","","","","","","","","","","","","","","",""
"null","audio/lion1.wav","null","audio-keyboard-response","238","2.1.0","439352","F=YES, J=NO","6vnjzfmpq8","0","55","75","35","","","","","","","","","","","","","","","",""
"557","
          <p id=""word"" style=""font-size: 40px;"">wrestle</p>
          <p style=""font-size: 16px;"">F = YES &nbsp;&nbsp;&nbsp; J = NO</p>
        ","f","html-keyboard-response","239","2.1.0","439910","F=YES, J=NO","6vnjzfmpq8","0","55","75","35","","","","","","","","","wrestle","lion1","literal","experimental","f","true","",""
"null","<p style=""font-size: 50px;"">+</p>","null","html-keyboard-response","240","2.1.0","440211","F=YES, J=NO","6vnjzfmpq8","0","55","75","35","","","","","","","","","","","","","","","",""
"null","audio/beep-329314.mp3","null","audio-keyboard-response","241","2.1.0","441731","F=YES, J=NO","6vnjzfmpq8","0","55","75","35","","","","","","","","","","","","","","","",""
"null","audio/empire.wav","null","audio-keyboard-response","242","2.1.0","442382","F=YES, J=NO","6vnjzfmpq8","0","55","75","35","","","","","","","","","","","","","","","",""
"395","
          <p id=""word"" style=""font-size: 40px;"">slorby</p>
          <p style=""font-size: 16px;"">F = YES &nbsp;&nbsp;&nbsp; J = NO</p>
        ","f","html-keyboard-response","243","2.1.0","442777","F=YES, J=NO","6vnjzfmpq8","0","55","75","35","","","","","","","","","slorby","empire","pseudoword","pseudoword","j","false","",""
"null","<p style=""font-size: 50px;"">+</p>","null","html-keyboard-response","244","2.1.0","443094","F=YES, J=NO","6vnjzfmpq8","0","55","75","35","","","","","","","","","","","","","","","",""
"null","audio/beep-329314.mp3","null","audio-keyboard-response","245","2.1.0","444611","F=YES, J=NO","6vnjzfmpq8","0","55","75","35","","","","","","","","","","","","","","","",""
"null","audio/hotel1.wav","null","audio-keyboard-response","246","2.1.0","445240","F=YES, J=NO","6vnjzfmpq8","0","55","75","35","","","","","","","","","","","","","","","",""
"604","
          <p id=""word"" style=""font-size: 40px;"">spread</p>
          <p style=""font-size: 16px;"">F = YES &nbsp;&nbsp;&nbsp; J = NO</p>
        ","j","html-keyboard-response","247","2.1.0","445844","F=YES, J=NO","6vnjzfmpq8","0","55","75","35","","","","","","","","","spread","hotel1","unrelated","experimental","f","false","",""
"null","<p style=""font-size: 50px;"">+</p>","null","html-keyboard-response","248","2.1.0","446151","F=YES, J=NO","6vnjzfmpq8","0","55","75","35","","","","","","","","","","","","","","","",""
"null","audio/beep-329314.mp3","null","audio-keyboard-response","249","2.1.0","447683","F=YES, J=NO","6vnjzfmpq8","0","55","75","35","","","","","","","","","","","","","","","",""
"null","audio/topic.wav","null","audio-keyboard-response","250","2.1.0","448291","F=YES, J=NO","6vnjzfmpq8","0","55","75","35","","","","","","","","","","","","","","","",""
"290","
          <p id=""word"" style=""font-size: 40px;"">infortuitist</p>
          <p style=""font-size: 16px;"">F = YES &nbsp;&nbsp;&nbsp; J = NO</p>
        ","f","html-keyboard-response","251","2.1.0","448581","F=YES, J=NO","6vnjzfmpq8","0","55","75","35","","","","","","","","","infortuitist","topic","pseudoword","pseudoword","j","false","",""
"null","<p style=""font-size: 50px;"">+</p>","null","html-keyboard-response","252","2.1.0","448887","F=YES, J=NO","6vnjzfmpq8","0","55","75","35","","","","","","","","","","","","","","","",""
"null","audio/beep-329314.mp3","null","audio-keyboard-response","253","2.1.0","450414","F=YES, J=NO","6vnjzfmpq8","0","55","75","35","","","","","","","","","","","","","","","",""
"null","audio/butter1.wav","null","audio-keyboard-response","254","2.1.0","451000","F=YES, J=NO","6vnjzfmpq8","0","55","75","35","","","","","","","","","","","","","","","",""
"291","
          <p id=""word"" style=""font-size: 40px;"">chew</p>
          <p style=""font-size: 16px;"">F = YES &nbsp;&nbsp;&nbsp; J = NO</p>
        ","f","html-keyboard-response","255","2.1.0","451292","F=YES, J=NO","6vnjzfmpq8","0","55","75","35","","","","","","","","","chew","butter1","filler","filler","f","true","",""
"null","<p style=""font-size: 50px;"">+</p>","null","html-keyboard-response","256","2.1.0","451602","F=YES, J=NO","6vnjzfmpq8","0","55","75","35","","","","","","","","","","","","","","","",""
"null","audio/beep-329314.mp3","null","audio-keyboard-response","257","2.1.0","453123","F=YES, J=NO","6vnjzfmpq8","0","55","75","35","","","","","","","","","","","","","","","",""
"null","audio/terrain.wav","null","audio-keyboard-response","258","2.1.0","453710","F=YES, J=NO","6vnjzfmpq8","0","55","75","35","","","","","","","","","","","","","","","",""
"398","
          <p id=""word"" style=""font-size: 40px;"">twist</p>
          <p style=""font-size: 16px;"">F = YES &nbsp;&nbsp;&nbsp; J = NO</p>
        ","f","html-keyboard-response","259","2.1.0","454109","F=YES, J=NO","6vnjzfmpq8","0","55","75","35","","","","","","","","","twist","terrain","filler","filler","f","true","",""
"null","<p style=""font-size: 50px;"">+</p>","null","html-keyboard-response","260","2.1.0","454411","F=YES, J=NO","6vnjzfmpq8","0","55","75","35","","","","","","","","","","","","","","","",""
"null","audio/beep-329314.mp3","null","audio-keyboard-response","261","2.1.0","455939","F=YES, J=NO","6vnjzfmpq8","0","55","75","35","","","","","","","","","","","","","","","",""
"null","audio/gossip1.wav","null","audio-keyboard-response","262","2.1.0","456568","F=YES, J=NO","6vnjzfmpq8","0","55","75","35","","","","","","","","","","","","","","","",""
"296","
          <p id=""word"" style=""font-size: 40px;"">camerish</p>
          <p style=""font-size: 16px;"">F = YES &nbsp;&nbsp;&nbsp; J = NO</p>
        ","f","html-keyboard-response","263","2.1.0","456865","F=YES, J=NO","6vnjzfmpq8","0","55","75","35","","","","","","","","","camerish","gossip1","pseudoword","pseudoword","j","false","",""
"null","<p style=""font-size: 50px;"">+</p>","null","html-keyboard-response","264","2.1.0","457171","F=YES, J=NO","6vnjzfmpq8","0","55","75","35","","","","","","","","","","","","","","","",""
"null","audio/beep-329314.mp3","null","audio-keyboard-response","265","2.1.0","458691","F=YES, J=NO","6vnjzfmpq8","0","55","75","35","","","","","","","","","","","","","","","",""
"null","audio/cave1.wav","null","audio-keyboard-response","266","2.1.0","459278","F=YES, J=NO","6vnjzfmpq8","0","55","75","35","","","","","","","","","","","","","","","",""
"313","
          <p id=""word"" style=""font-size: 40px;"">blacket</p>
          <p style=""font-size: 16px;"">F = YES &nbsp;&nbsp;&nbsp; J = NO</p>
        ","f","html-keyboard-response","267","2.1.0","459592","F=YES, J=NO","6vnjzfmpq8","0","55","75","35","","","","","","","","","blacket","cave1","pseudoword","pseudoword","j","false","",""
"null","<p style=""font-size: 50px;"">+</p>","null","html-keyboard-response","268","2.1.0","459907","F=YES, J=NO","6vnjzfmpq8","0","55","75","35","","","","","","","","","","","","","","","",""
"null","audio/beep-329314.mp3","null","audio-keyboard-response","269","2.1.0","461443","F=YES, J=NO","6vnjzfmpq8","0","55","75","35","","","","","","","","","","","","","","","",""
"null","audio/holiday1.wav","null","audio-keyboard-response","270","2.1.0","462073","F=YES, J=NO","6vnjzfmpq8","0","55","75","35","","","","","","","","","","","","","","","",""
"531","
          <p id=""word"" style=""font-size: 40px;"">drivets</p>
          <p style=""font-size: 16px;"">F = YES &nbsp;&nbsp;&nbsp; J = NO</p>
        ","f","html-keyboard-response","271","2.1.0","462604","F=YES, J=NO","6vnjzfmpq8","0","55","75","35","","","","","","","","","drivets","holiday1","pseudoword","pseudoword","j","false","",""
"null","<p style=""font-size: 50px;"">+</p>","null","html-keyboard-response","272","2.1.0","462905","F=YES, J=NO","6vnjzfmpq8","0","55","75","35","","","","","","","","","","","","","","","",""
"null","audio/beep-329314.mp3","null","audio-keyboard-response","273","2.1.0","464430","F=YES, J=NO","6vnjzfmpq8","0","55","75","35","","","","","","","","","","","","","","","",""
"null","audio/emotion.wav","null","audio-keyboard-response","274","2.1.0","465209","F=YES, J=NO","6vnjzfmpq8","0","55","75","35","","","","","","","","","","","","","","","",""
"799","
          <p id=""word"" style=""font-size: 40px;"">devering</p>
          <p style=""font-size: 16px;"">F = YES &nbsp;&nbsp;&nbsp; J = NO</p>
        ","f","html-keyboard-response","275","2.1.0","466008","F=YES, J=NO","6vnjzfmpq8","0","55","75","35","","","","","","","","","devering","emotion","pseudoword","pseudoword","j","false","",""
"null","<p style=""font-size: 50px;"">+</p>","null","html-keyboard-response","276","2.1.0","466311","F=YES, J=NO","6vnjzfmpq8","0","55","75","35","","","","","","","","","","","","","","","",""
"null","audio/beep-329314.mp3","null","audio-keyboard-response","277","2.1.0","467844","F=YES, J=NO","6vnjzfmpq8","0","55","75","35","","","","","","","","","","","","","","","",""
"null","audio/alarm1.wav","null","audio-keyboard-response","278","2.1.0","468451","F=YES, J=NO","6vnjzfmpq8","0","55","75","35","","","","","","","","","","","","","","","",""
"538","
          <p id=""word"" style=""font-size: 40px;"">swetp</p>
          <p style=""font-size: 16px;"">F = YES &nbsp;&nbsp;&nbsp; J = NO</p>
        ","j","html-keyboard-response","279","2.1.0","468990","F=YES, J=NO","6vnjzfmpq8","0","55","75","35","","","","","","","","","swetp","alarm1","pseudoword","pseudoword","j","true","",""
"null","<p style=""font-size: 50px;"">+</p>","null","html-keyboard-response","280","2.1.0","469296","F=YES, J=NO","6vnjzfmpq8","0","55","75","35","","","","","","","","","","","","","","","",""
"null","audio/beep-329314.mp3","null","audio-keyboard-response","281","2.1.0","470830","F=YES, J=NO","6vnjzfmpq8","0","55","75","35","","","","","","","","","","","","","","","",""
"null","audio/mind.wav","null","audio-keyboard-response","282","2.1.0","471438","F=YES, J=NO","6vnjzfmpq8","0","55","75","35","","","","","","","","","","","","","","","",""
"900","
          <p id=""word"" style=""font-size: 40px;"">crainate</p>
          <p style=""font-size: 16px;"">F = YES &nbsp;&nbsp;&nbsp; J = NO</p>
        ","j","html-keyboard-response","283","2.1.0","472339","F=YES, J=NO","6vnjzfmpq8","0","55","75","35","","","","","","","","","crainate","mind","pseudoword","pseudoword","j","true","",""
"null","<p style=""font-size: 50px;"">+</p>","null","html-keyboard-response","284","2.1.0","472653","F=YES, J=NO","6vnjzfmpq8","0","55","75","35","","","","","","","","","","","","","","","",""
"null","audio/beep-329314.mp3","null","audio-keyboard-response","285","2.1.0","474180","F=YES, J=NO","6vnjzfmpq8","0","55","75","35","","","","","","","","","","","","","","","",""
"null","audio/battle1.wav","null","audio-keyboard-response","286","2.1.0","474617","F=YES, J=NO","6vnjzfmpq8","0","55","75","35","","","","","","","","","","","","","","","",""
"809","
          <p id=""word"" style=""font-size: 40px;"">fight</p>
          <p style=""font-size: 16px;"">F = YES &nbsp;&nbsp;&nbsp; J = NO</p>
        ","f","html-keyboard-response","287","2.1.0","475427","F=YES, J=NO","6vnjzfmpq8","0","55","75","35","","","","","","","","","fight","battle1","literal","experimental","f","true","",""
"null","<p style=""font-size: 50px;"">+</p>","null","html-keyboard-response","288","2.1.0","475742","F=YES, J=NO","6vnjzfmpq8","0","55","75","35","","","","","","","","","","","","","","","",""
"null","audio/beep-329314.mp3","null","audio-keyboard-response","289","2.1.0","477273","F=YES, J=NO","6vnjzfmpq8","0","55","75","35","","","","","","","","","","","","","","","",""
"null","audio/voice.wav","null","audio-keyboard-response","290","2.1.0","477902","F=YES, J=NO","6vnjzfmpq8","0","55","75","35","","","","","","","","","","","","","","","",""
"426","
          <p id=""word"" style=""font-size: 40px;"">grintle</p>
          <p style=""font-size: 16px;"">F = YES &nbsp;&nbsp;&nbsp; J = NO</p>
        ","f","html-keyboard-response","291","2.1.0","478329","F=YES, J=NO","6vnjzfmpq8","0","55","75","35","","","","","","","","","grintle","voice","pseudoword","pseudoword","j","false","",""
"null","<p style=""font-size: 50px;"">+</p>","null","html-keyboard-response","292","2.1.0","478633","F=YES, J=NO","6vnjzfmpq8","0","55","75","35","","","","","","","","","","","","","","","",""
"null","audio/beep-329314.mp3","null","audio-keyboard-response","293","2.1.0","480153","F=YES, J=NO","6vnjzfmpq8","0","55","75","35","","","","","","","","","","","","","","","",""
"null","audio/birth1.wav","null","audio-keyboard-response","294","2.1.0","480846","F=YES, J=NO","6vnjzfmpq8","0","55","75","35","","","","","","","","","","","","","","","",""
"474","
          <p id=""word"" style=""font-size: 40px;"">drop</p>
          <p style=""font-size: 16px;"">F = YES &nbsp;&nbsp;&nbsp; J = NO</p>
        ","f","html-keyboard-response","295","2.1.0","481321","F=YES, J=NO","6vnjzfmpq8","0","55","75","35","","","","","","","","","drop","birth1","unrelated","experimental","f","true","",""
"2335","<p>Excellent! You have finished block 2 of 8.</p>
                     <p>Feel free to take a 30 second break.</p>
                     <p>Press any key when you're ready to continue.</p>","f","html-keyboard-response","296","2.1.0","483657","F=YES, J=NO","6vnjzfmpq8","0","55","75","35","","","","","","","","","","","","","","","",""
"852","<p>Starting main block 3 of 8. Press any key to continue.</p>","f","html-keyboard-response","297","2.1.0","484509","F=YES, J=NO","6vnjzfmpq8","0","55","75","35","","","","","","","","","","","","","","","",""
"null","<p style=""font-size: 50px;"">+</p>","null","html-keyboard-response","298","2.1.0","484817","F=YES, J=NO","6vnjzfmpq8","0","55","75","35","","","","","","","","","","","","","","","",""
"null","audio/beep-329314.mp3","null","audio-keyboard-response","299","2.1.0","486340","F=YES, J=NO","6vnjzfmpq8","0","55","75","35","","","","","","","","","","","","","","","",""
"null","audio/survey1.wav","null","audio-keyboard-response","300","2.1.0","487097","F=YES, J=NO","6vnjzfmpq8","0","55","75","35","","","","","","","","","","","","","","","",""
"539","
          <p id=""word"" style=""font-size: 40px;"">release</p>
          <p style=""font-size: 16px;"">F = YES &nbsp;&nbsp;&nbsp; J = NO</p>
        ","f","html-keyboard-response","301","2.1.0","487637","F=YES, J=NO","6vnjzfmpq8","0","55","75","35","","","","","","","","","release","survey1","metaphor","experimental","f","true","",""
"null","<p style=""font-size: 50px;"">+</p>","null","html-keyboard-response","302","2.1.0","487944","F=YES, J=NO","6vnjzfmpq8","0","55","75","35","","","","","","","","","","","","","","","",""
"null","audio/beep-329314.mp3","null","audio-keyboard-response","303","2.1.0","489476","F=YES, J=NO","6vnjzfmpq8","0","55","75","35","","","","","","","","","","","","","","","",""
"null","audio/pain1.wav","null","audio-keyboard-response","304","2.1.0","489935","F=YES, J=NO","6vnjzfmpq8","0","55","75","35","","","","","","","","","","","","","","","",""
"317","
          <p id=""word"" style=""font-size: 40px;"">tritted</p>
          <p style=""font-size: 16px;"">F = YES &nbsp;&nbsp;&nbsp; J = NO</p>
        ","f","html-keyboard-response","305","2.1.0","490253","F=YES, J=NO","6vnjzfmpq8","0","55","75","35","","","","","","","","","tritted","pain1","pseudoword","pseudoword","j","false","",""
"null","<p style=""font-size: 50px;"">+</p>","null","html-keyboard-response","306","2.1.0","490558","F=YES, J=NO","6vnjzfmpq8","0","55","75","35","","","","","","","","","","","","","","","",""
"null","audio/beep-329314.mp3","null","audio-keyboard-response","307","2.1.0","492079","F=YES, J=NO","6vnjzfmpq8","0","55","75","35","","","","","","","","","","","","","","","",""
"null","audio/devil1.wav","null","audio-keyboard-response","308","2.1.0","492516","F=YES, J=NO","6vnjzfmpq8","0","55","75","35","","","","","","","","","","","","","","","",""
"331","
          <p id=""word"" style=""font-size: 40px;"">carry</p>
          <p style=""font-size: 16px;"">F = YES &nbsp;&nbsp;&nbsp; J = NO</p>
        ","f","html-keyboard-response","309","2.1.0","492848","F=YES, J=NO","6vnjzfmpq8","0","55","75","35","","","","","","","","","carry","devil1","unrelated","experimental","f","true","",""
"null","<p style=""font-size: 50px;"">+</p>","null","html-keyboard-response","310","2.1.0","493160","F=YES, J=NO","6vnjzfmpq8","0","55","75","35","","","","","","","","","","","","","","","",""
"null","audio/beep-329314.mp3","null","audio-keyboard-response","311","2.1.0","494682","F=YES, J=NO","6vnjzfmpq8","0","55","75","35","","","","","","","","","","","","","","","",""
"null","audio/flaw.wav","null","audio-keyboard-response","312","2.1.0","495353","F=YES, J=NO","6vnjzfmpq8","0","55","75","35","","","","","","","","","","","","","","","",""
"277","
          <p id=""word"" style=""font-size: 40px;"">thwool</p>
          <p style=""font-size: 16px;"">F = YES &nbsp;&nbsp;&nbsp; J = NO</p>
        ","f","html-keyboard-response","313","2.1.0","495631","F=YES, J=NO","6vnjzfmpq8","0","55","75","35","","","","","","","","","thwool","flaw","pseudoword","pseudoword","j","false","",""
"null","<p style=""font-size: 50px;"">+</p>","null","html-keyboard-response","314","2.1.0","495942","F=YES, J=NO","6vnjzfmpq8","0","55","75","35","","","","","","","","","","","","","","","",""
"null","audio/beep-329314.mp3","null","audio-keyboard-response","315","2.1.0","497477","F=YES, J=NO","6vnjzfmpq8","0","55","75","35","","","","","","","","","","","","","","","",""
"null","audio/fence.wav","null","audio-keyboard-response","316","2.1.0","498106","F=YES, J=NO","6vnjzfmpq8","0","55","75","35","","","","","","","","","","","","","","","",""
"446","
          <p id=""word"" style=""font-size: 40px;"">climb</p>
          <p style=""font-size: 16px;"">F = YES &nbsp;&nbsp;&nbsp; J = NO</p>
        ","f","html-keyboard-response","317","2.1.0","498553","F=YES, J=NO","6vnjzfmpq8","0","55","75","35","","","","","","","","","climb","fence","literal","experimental","f","true","",""
"null","<p style=""font-size: 50px;"">+</p>","null","html-keyboard-response","318","2.1.0","498859","F=YES, J=NO","6vnjzfmpq8","0","55","75","35","","","","","","","","","","","","","","","",""
"null","audio/beep-329314.mp3","null","audio-keyboard-response","319","2.1.0","500377","F=YES, J=NO","6vnjzfmpq8","0","55","75","35","","","","","","","","","","","","","","","",""
"null","audio/desire.wav","null","audio-keyboard-response","320","2.1.0","501028","F=YES, J=NO","6vnjzfmpq8","0","55","75","35","","","","","","","","","","","","","","","",""
"807","
          <p id=""word"" style=""font-size: 40px;"">nophed</p>
          <p style=""font-size: 16px;"">F = YES &nbsp;&nbsp;&nbsp; J = NO</p>
        ","j","html-keyboard-response","321","2.1.0","501836","F=YES, J=NO","6vnjzfmpq8","0","55","75","35","","","","","","","","","nophed","desire","pseudoword","pseudoword","j","true","",""
"null","<p style=""font-size: 50px;"">+</p>","null","html-keyboard-response","322","2.1.0","502145","F=YES, J=NO","6vnjzfmpq8","0","55","75","35","","","","","","","","","","","","","","","",""
"null","audio/beep-329314.mp3","null","audio-keyboard-response","323","2.1.0","503663","F=YES, J=NO","6vnjzfmpq8","0","55","75","35","","","","","","","","","","","","","","","",""
"null","audio/ego.wav","null","audio-keyboard-response","324","2.1.0","504250","F=YES, J=NO","6vnjzfmpq8","0","55","75","35","","","","","","","","","","","","","","","",""
"572","
          <p id=""word"" style=""font-size: 40px;"">bruite</p>
          <p style=""font-size: 16px;"">F = YES &nbsp;&nbsp;&nbsp; J = NO</p>
        ","f","html-keyboard-response","325","2.1.0","504823","F=YES, J=NO","6vnjzfmpq8","0","55","75","35","","","","","","","","","bruite","ego","pseudoword","pseudoword","j","false","",""
"null","<p style=""font-size: 50px;"">+</p>","null","html-keyboard-response","326","2.1.0","505138","F=YES, J=NO","6vnjzfmpq8","0","55","75","35","","","","","","","","","","","","","","","",""
"null","audio/beep-329314.mp3","null","audio-keyboard-response","327","2.1.0","506671","F=YES, J=NO","6vnjzfmpq8","0","55","75","35","","","","","","","","","","","","","","","",""
"null","audio/breath.wav","null","audio-keyboard-response","328","2.1.0","507215","F=YES, J=NO","6vnjzfmpq8","0","55","75","35","","","","","","","","","","","","","","","",""
"394","
          <p id=""word"" style=""font-size: 40px;"">twets</p>
          <p style=""font-size: 16px;"">F = YES &nbsp;&nbsp;&nbsp; J = NO</p>
        ","f","html-keyboard-response","329","2.1.0","507610","F=YES, J=NO","6vnjzfmpq8","0","55","75","35","","","","","","","","","twets","breath","pseudoword","pseudoword","j","false","",""
"null","<p style=""font-size: 50px;"">+</p>","null","html-keyboard-response","330","2.1.0","507915","F=YES, J=NO","6vnjzfmpq8","0","55","75","35","","","","","","","","","","","","","","","",""
"null","audio/beep-329314.mp3","null","audio-keyboard-response","331","2.1.0","509445","F=YES, J=NO","6vnjzfmpq8","0","55","75","35","","","","","","","","","","","","","","","",""
"null","audio/hawk1.wav","null","audio-keyboard-response","332","2.1.0","510074","F=YES, J=NO","6vnjzfmpq8","0","55","75","35","","","","","","","","","","","","","","","",""
"910","
          <p id=""word"" style=""font-size: 40px;"">ostach</p>
          <p style=""font-size: 16px;"">F = YES &nbsp;&nbsp;&nbsp; J = NO</p>
        ","j","html-keyboard-response","333","2.1.0","510984","F=YES, J=NO","6vnjzfmpq8","0","55","75","35","","","","","","","","","ostach","hawk1","pseudoword","pseudoword","j","true","",""
"null","<p style=""font-size: 50px;"">+</p>","null","html-keyboard-response","334","2.1.0","511292","F=YES, J=NO","6vnjzfmpq8","0","55","75","35","","","","","","","","","","","","","","","",""
"null","audio/beep-329314.mp3","null","audio-keyboard-response","335","2.1.0","512815","F=YES, J=NO","6vnjzfmpq8","0","55","75","35","","","","","","","","","","","","","","","",""
"null","audio/topic.wav","null","audio-keyboard-response","336","2.1.0","513381","F=YES, J=NO","6vnjzfmpq8","0","55","75","35","","","","","","","","","","","","","","","",""
"425","
          <p id=""word"" style=""font-size: 40px;"">approach</p>
          <p style=""font-size: 16px;"">F = YES &nbsp;&nbsp;&nbsp; J = NO</p>
        ","f","html-keyboard-response","337","2.1.0","513806","F=YES, J=NO","6vnjzfmpq8","0","55","75","35","","","","","","","","","approach","topic","metaphor","experimental","f","true","",""
"null","<p style=""font-size: 50px;"">+</p>","null","html-keyboard-response","338","2.1.0","514110","F=YES, J=NO","6vnjzfmpq8","0","55","75","35","","","","","","","","","","","","","","","",""
"null","audio/beep-329314.mp3","null","audio-keyboard-response","339","2.1.0","515631","F=YES, J=NO","6vnjzfmpq8","0","55","75","35","","","","","","","","","","","","","","","",""
"null","audio/ankle1.wav","null","audio-keyboard-response","340","2.1.0","516175","F=YES, J=NO","6vnjzfmpq8","0","55","75","35","","","","","","","","","","","","","","","",""
"587","
          <p id=""word"" style=""font-size: 40px;"">switm</p>
          <p style=""font-size: 16px;"">F = YES &nbsp;&nbsp;&nbsp; J = NO</p>
        ","f","html-keyboard-response","341","2.1.0","516763","F=YES, J=NO","6vnjzfmpq8","0","55","75","35","","","","","","","","","switm","ankle1","pseudoword","pseudoword","j","false","",""
"null","<p style=""font-size: 50px;"">+</p>","null","html-keyboard-response","342","2.1.0","517069","F=YES, J=NO","6vnjzfmpq8","0","55","75","35","","","","","","","","","","","","","","","",""
"null","audio/beep-329314.mp3","null","audio-keyboard-response","343","2.1.0","518597","F=YES, J=NO","6vnjzfmpq8","0","55","75","35","","","","","","","","","","","","","","","",""
"null","audio/corpse1.wav","null","audio-keyboard-response","344","2.1.0","519247","F=YES, J=NO","6vnjzfmpq8","0","55","75","35","","","","","","","","","","","","","","","",""
"535","
          <p id=""word"" style=""font-size: 40px;"">glonet</p>
          <p style=""font-size: 16px;"">F = YES &nbsp;&nbsp;&nbsp; J = NO</p>
        ","f","html-keyboard-response","345","2.1.0","519783","F=YES, J=NO","6vnjzfmpq8","0","55","75","35","","","","","","","","","glonet","corpse1","pseudoword","pseudoword","j","false","",""
"null","<p style=""font-size: 50px;"">+</p>","null","html-keyboard-response","346","2.1.0","520089","F=YES, J=NO","6vnjzfmpq8","0","55","75","35","","","","","","","","","","","","","","","",""
"null","audio/beep-329314.mp3","null","audio-keyboard-response","347","2.1.0","521626","F=YES, J=NO","6vnjzfmpq8","0","55","75","35","","","","","","","","","","","","","","","",""
"null","audio/tunnel.wav","null","audio-keyboard-response","348","2.1.0","522064","F=YES, J=NO","6vnjzfmpq8","0","55","75","35","","","","","","","","","","","","","","","",""
"479","
          <p id=""word"" style=""font-size: 40px;"">gred</p>
          <p style=""font-size: 16px;"">F = YES &nbsp;&nbsp;&nbsp; J = NO</p>
        ","f","html-keyboard-response","349","2.1.0","522543","F=YES, J=NO","6vnjzfmpq8","0","55","75","35","","","","","","","","","gred","tunnel","pseudoword","pseudoword","j","false","",""
"null","<p style=""font-size: 50px;"">+</p>","null","html-keyboard-response","350","2.1.0","522846","F=YES, J=NO","6vnjzfmpq8","0","55","75","35","","","","","","","","","","","","","","","",""
"null","audio/beep-329314.mp3","null","audio-keyboard-response","351","2.1.0","524379","F=YES, J=NO","6vnjzfmpq8","0","55","75","35","","","","","","","","","","","","","","","",""
"null","audio/handle.wav","null","audio-keyboard-response","352","2.1.0","525029","F=YES, J=NO","6vnjzfmpq8","0","55","75","35","","","","","","","","","","","","","","","",""
"1146","
          <p id=""word"" style=""font-size: 40px;"">moutes</p>
          <p style=""font-size: 16px;"">F = YES &nbsp;&nbsp;&nbsp; J = NO</p>
        ","f","html-keyboard-response","353","2.1.0","526176","F=YES, J=NO","6vnjzfmpq8","0","55","75","35","","","","","","","","","moutes","handle","pseudoword","pseudoword","j","false","",""
"null","<p style=""font-size: 50px;"">+</p>","null","html-keyboard-response","354","2.1.0","526493","F=YES, J=NO","6vnjzfmpq8","0","55","75","35","","","","","","","","","","","","","","","",""
"null","audio/beep-329314.mp3","null","audio-keyboard-response","355","2.1.0","528026","F=YES, J=NO","6vnjzfmpq8","0","55","75","35","","","","","","","","","","","","","","","",""
"null","audio/life1.wav","null","audio-keyboard-response","356","2.1.0","528592","F=YES, J=NO","6vnjzfmpq8","0","55","75","35","","","","","","","","","","","","","","","",""
"970","
          <p id=""word"" style=""font-size: 40px;"">flimch</p>
          <p style=""font-size: 16px;"">F = YES &nbsp;&nbsp;&nbsp; J = NO</p>
        ","j","html-keyboard-response","357","2.1.0","529562","F=YES, J=NO","6vnjzfmpq8","0","55","75","35","","","","","","","","","flimch","life1","pseudoword","pseudoword","j","true","",""
"null","<p style=""font-size: 50px;"">+</p>","null","html-keyboard-response","358","2.1.0","529867","F=YES, J=NO","6vnjzfmpq8","0","55","75","35","","","","","","","","","","","","","","","",""
"null","audio/beep-329314.mp3","null","audio-keyboard-response","359","2.1.0","531397","F=YES, J=NO","6vnjzfmpq8","0","55","75","35","","","","","","","","","","","","","","","",""
"null","audio/table1.wav","null","audio-keyboard-response","360","2.1.0","531898","F=YES, J=NO","6vnjzfmpq8","0","55","75","35","","","","","","","","","","","","","","","",""
"475","
          <p id=""word"" style=""font-size: 40px;"">stimb</p>
          <p style=""font-size: 16px;"">F = YES &nbsp;&nbsp;&nbsp; J = NO</p>
        ","f","html-keyboard-response","361","2.1.0","532374","F=YES, J=NO","6vnjzfmpq8","0","55","75","35","","","","","","","","","stimb","table1","pseudoword","pseudoword","j","false","",""
"3649","<p>Excellent! You have finished block 3 of 8.</p>
                     <p>Feel free to take a 30 second break.</p>
                     <p>Press any key when you're ready to continue.</p>","j","html-keyboard-response","362","2.1.0","536024","F=YES, J=NO","6vnjzfmpq8","0","55","75","35","","","","","","","","","","","","","","","",""
"1355","<p>Starting main block 4 of 8. Press any key to continue.</p>","f","html-keyboard-response","363","2.1.0","537380","F=YES, J=NO","6vnjzfmpq8","0","55","75","35","","","","","","","","","","","","","","","",""
"null","<p style=""font-size: 50px;"">+</p>","null","html-keyboard-response","364","2.1.0","537690","F=YES, J=NO","6vnjzfmpq8","0","55","75","35","","","","","","","","","","","","","","","",""
"null","audio/beep-329314.mp3","null","audio-keyboard-response","365","2.1.0","539227","F=YES, J=NO","6vnjzfmpq8","0","55","75","35","","","","","","","","","","","","","","","",""
"null","audio/client1.wav","null","audio-keyboard-response","366","2.1.0","539878","F=YES, J=NO","6vnjzfmpq8","0","55","75","35","","","","","","","","","","","","","","","",""
"609","
          <p id=""word"" style=""font-size: 40px;"">land</p>
          <p style=""font-size: 16px;"">F = YES &nbsp;&nbsp;&nbsp; J = NO</p>
        ","f","html-keyboard-response","367","2.1.0","540487","F=YES, J=NO","6vnjzfmpq8","0","55","75","35","","","","","","","","","land","client1","metaphor","experimental","f","true","",""
"null","<p style=""font-size: 50px;"">+</p>","null","html-keyboard-response","368","2.1.0","540799","F=YES, J=NO","6vnjzfmpq8","0","55","75","35","","","","","","","","","","","","","","","",""
"null","audio/beep-329314.mp3","null","audio-keyboard-response","369","2.1.0","542320","F=YES, J=NO","6vnjzfmpq8","0","55","75","35","","","","","","","","","","","","","","","",""
"null","audio/tax1.wav","null","audio-keyboard-response","370","2.1.0","543078","F=YES, J=NO","6vnjzfmpq8","0","55","75","35","","","","","","","","","","","","","","","",""
"458","
          <p id=""word"" style=""font-size: 40px;"">snate</p>
          <p style=""font-size: 16px;"">F = YES &nbsp;&nbsp;&nbsp; J = NO</p>
        ","f","html-keyboard-response","371","2.1.0","543536","F=YES, J=NO","6vnjzfmpq8","0","55","75","35","","","","","","","","","snate","tax1","pseudoword","pseudoword","j","false","",""
"null","<p style=""font-size: 50px;"">+</p>","null","html-keyboard-response","372","2.1.0","543845","F=YES, J=NO","6vnjzfmpq8","0","55","75","35","","","","","","","","","","","","","","","",""
"null","audio/beep-329314.mp3","null","audio-keyboard-response","373","2.1.0","545371","F=YES, J=NO","6vnjzfmpq8","0","55","75","35","","","","","","","","","","","","","","","",""
"null","audio/strength.wav","null","audio-keyboard-response","374","2.1.0","546150","F=YES, J=NO","6vnjzfmpq8","0","55","75","35","","","","","","","","","","","","","","","",""
"864","
          <p id=""word"" style=""font-size: 40px;"">plabet</p>
          <p style=""font-size: 16px;"">F = YES &nbsp;&nbsp;&nbsp; J = NO</p>
        ","j","html-keyboard-response","375","2.1.0","547014","F=YES, J=NO","6vnjzfmpq8","0","55","75","35","","","","","","","","","plabet","strength","pseudoword","pseudoword","j","true","",""
"null","<p style=""font-size: 50px;"">+</p>","null","html-keyboard-response","376","2.1.0","547317","F=YES, J=NO","6vnjzfmpq8","0","55","75","35","","","","","","","","","","","","","","","",""
"null","audio/beep-329314.mp3","null","audio-keyboard-response","377","2.1.0","548849","F=YES, J=NO","6vnjzfmpq8","0","55","75","35","","","","","","","","","","","","","","","",""
"null","audio/effort.wav","null","audio-keyboard-response","378","2.1.0","549435","F=YES, J=NO","6vnjzfmpq8","0","55","75","35","","","","","","","","","","","","","","","",""
"521","
          <p id=""word"" style=""font-size: 40px;"">whonk</p>
          <p style=""font-size: 16px;"">F = YES &nbsp;&nbsp;&nbsp; J = NO</p>
        ","f","html-keyboard-response","379","2.1.0","549957","F=YES, J=NO","6vnjzfmpq8","0","55","75","35","","","","","","","","","whonk","effort","pseudoword","pseudoword","j","false","",""
"null","<p style=""font-size: 50px;"">+</p>","null","html-keyboard-response","380","2.1.0","550262","F=YES, J=NO","6vnjzfmpq8","0","55","75","35","","","","","","","","","","","","","","","",""
"null","audio/beep-329314.mp3","null","audio-keyboard-response","381","2.1.0","551792","F=YES, J=NO","6vnjzfmpq8","0","55","75","35","","","","","","","","","","","","","","","",""
"null","audio/terrain.wav","null","audio-keyboard-response","382","2.1.0","552358","F=YES, J=NO","6vnjzfmpq8","0","55","75","35","","","","","","","","","","","","","","","",""
"571","
          <p id=""word"" style=""font-size: 40px;"">navigate</p>
          <p style=""font-size: 16px;"">F = YES &nbsp;&nbsp;&nbsp; J = NO</p>
        ","f","html-keyboard-response","383","2.1.0","552930","F=YES, J=NO","6vnjzfmpq8","0","55","75","35","","","","","","","","","navigate","terrain","literal","experimental","f","true","",""
"null","<p style=""font-size: 50px;"">+</p>","null","html-keyboard-response","384","2.1.0","553234","F=YES, J=NO","6vnjzfmpq8","0","55","75","35","","","","","","","","","","","","","","","",""
"null","audio/beep-329314.mp3","null","audio-keyboard-response","385","2.1.0","554758","F=YES, J=NO","6vnjzfmpq8","0","55","75","35","","","","","","","","","","","","","","","",""
"null","audio/bridge.wav","null","audio-keyboard-response","386","2.1.0","555344","F=YES, J=NO","6vnjzfmpq8","0","55","75","35","","","","","","","","","","","","","","","",""
"534","
          <p id=""word"" style=""font-size: 40px;"">crack</p>
          <p style=""font-size: 16px;"">F = YES &nbsp;&nbsp;&nbsp; J = NO</p>
        ","f","html-keyboard-response","387","2.1.0","555878","F=YES, J=NO","6vnjzfmpq8","0","55","75","35","","","","","","","","","crack","bridge","filler","filler","f","true","",""
"null","<p style=""font-size: 50px;"">+</p>","null","html-keyboard-response","388","2.1.0","556193","F=YES, J=NO","6vnjzfmpq8","0","55","75","35","","","","","","","","","","","","","","","",""
"null","audio/beep-329314.mp3","null","audio-keyboard-response","389","2.1.0","557723","F=YES, J=NO","6vnjzfmpq8","0","55","75","35","","","","","","","","","","","","","","","",""
"null","audio/pine.wav","null","audio-keyboard-response","390","2.1.0","558203","F=YES, J=NO","6vnjzfmpq8","0","55","75","35","","","","","","","","","","","","","","","",""
"685","
          <p id=""word"" style=""font-size: 40px;"">weave</p>
          <p style=""font-size: 16px;"">F = YES &nbsp;&nbsp;&nbsp; J = NO</p>
