"rt","stimulus","response","trial_type","trial_index","plugin_version","time_elapsed","response_mapping","subject_id","list_index","lextale_score","lextale_word_score","lextale_nonword_score","success","timeout","failed_images","failed_audio","failed_video","task","isWord","isDummy","target","prime","prime_type","stimulus_type","correct_response","correct","section","question_order"
"5264","
    <div style=""max-width: 800px; margin: auto; text-align: left;"">
      <h2>STANFORD UNIVERSITY</h2>
      <h3>Research Information Sheet</h3>
      <p><strong>Protocol Director:</strong> Robert Hawkins<br>
      <strong>Protocol Title:</strong> Communication and social cognition in natural audiovisual contexts<br>
      <strong>IRB#:</strong> 77226</p>

      <p><strong>DESCRIPTION:</strong> You are invited to participate in a research study about language and communication. The purpose of the research is to understand how you interact and communicate with other people in naturalistic settings as a fluent English speaker. This research will be conducted through the Prolific platform, including participants from the US, UK, and Canada. If you decide to participate in this research, you will play a communication game in a group with one or more partners.</p>

      <p><strong>TIME INVOLVEMENT:</strong> The task will last the amount of time advertised on Prolific. You are free to withdraw from the study at any time.</p>

      <p><strong>RISKS AND BENEFITS:</strong> You may become frustrated if your partner gets distracted, or experience discomfort if other participants in your group send text that is inappropriate for the task. We ask you to please be respectful of other participants you might be interacting with to mitigate these risks. You may also experience discomfort when being asked to discuss or challenge emotionally salient political beliefs. Study data will be stored securely, in compliance with Stanford University standards, minimizing the risk of confidentiality breach. This study advances our scientific understanding of how people communicate and collaborate in naturalistic settings. This study may lead to further insights about what can go wrong in teamwork, suggest potential interventions to overcome these barriers, and help to develop assistive technologies that collaborate with human partners. We cannot and do not guarantee or promise that you will receive any benefits from this study.</p>

      <p><strong>PAYMENTS:</strong> You will receive payment in the amount advertised on Prolific. If you do not complete this study, you will receive prorated payment based on the time that you have spent. Additionally, you may be eligible for bonus payments as described in the instructions.</p>

      <p><strong>PARTICIPANT’S RIGHTS:</strong> If you have read this form and have decided to participate in this project, please understand your participation is voluntary and you have the right to withdraw your consent or discontinue participation at any time without penalty or loss of benefits to which you are otherwise entitled. The alternative is not to participate. You have the right to refuse to answer particular questions. The results of this research study may be presented at scientific or professional meetings or published in scientific journals. Your individual privacy will be maintained in all published and written data resulting from the study. In accordance with scientific norms, the data from this study may be used or shared with other researchers for future research (after removing personally identifying information) without additional consent from you.</p>

      <p><strong>CONTACT INFORMATION:</strong><br>
      Questions: If you have any questions, concerns or complaints about this research, its procedures, risks and benefits, contact the Protocol Director, Robert Hawkins (<a href=""mailto:rdhawkins@stanford.edu"">rdhawkins@stanford.edu</a>, 217-549-6923).<br>
      Independent Contact: If you are not satisfied with how this study is being conducted, or if you have any concerns, complaints, or general questions about the research or your rights as a participant, please contact the Stanford Institutional Review Board (IRB) to speak to someone independent of the research team at 650-723-2480 or toll free at 1-866-680-2906, or email at <a href=""mailto:irbnon-med@stanford.edu"">irbnon-med@stanford.edu</a>. You can also write to the Stanford IRB, Stanford University, 1705 El Camino Real, Palo Alto, CA 94306.</p>

      <p><strong>Please save or print a copy of this page for your records.</strong></p>
      <p>If you agree to participate in this research, click ""Continue"" below.</p>
    </div>
  ","0","html-button-response","0","2.1.0","5288","J=YES, F=NO","6ydtvaamcq","2","56","73","40","","","","","","","","","","","","","","","",""
"18931","
    <div style=""max-width: 800px; margin: auto; text-align: left;"">
      <h2>Welcome!</h2>
      <p>Thank you for participating in this study. The experiment consists of three parts:</p>
      <ol>
        <li>An English vocabulary test</li>
        <li>A main task in which you will hear and see words, and decide whether the written word is a real English word</li>
        <li>A brief survey about your background</li>
      </ol>
      <p>Each part will be introduced before it begins.</p>
      <p>Please make sure you are in a quiet environment and can hear audio clearly for the final task.</p>
      <p style=""margin-top: 2em;"">Press any key to begin.</p>
    </div>
  ","h","html-keyboard-response","1","2.1.0","24230","J=YES, F=NO","6ydtvaamcq","2","56","73","40","","","","","","","","","","","","","","","",""
"","","","preload","2","2.1.0","26374","J=YES, F=NO","6ydtvaamcq","2","56","73","40","true","false","[]","[]","[]","","","","","","","","","","",""
"7665","
    <div style=""max-width: 800px; margin: auto; text-align: left;"">
      <h2>Part 1: Vocabulary Test</h2>
      <p>You will now complete the first part of the study: a short English vocabulary test.</p>
      <p>This test is called <strong>LexTALE</strong> and helps us get a general sense of your English proficiency.</p>
      <p style=""margin-top: 2em;"">Press any key to continue.</p>
    </div>
  ","j","html-keyboard-response","3","2.1.0","34045","J=YES, F=NO","6ydtvaamcq","2","56","73","40","","","","","","","","","","","","","","","",""
"14723","
    <div style=""max-width: 800px; margin: auto; text-align: left;"">
      <h2>LexTALE Vocabulary Test</h2>
      <p>In this test, you will see a series of letter strings—one at a time.</p>
      <p>Your task is to decide whether each string is a real English word.</p>
      <p><strong>Key responses:</strong></p>
      <ul>
        <li><strong>J</strong> = YES (real English word)</li>
        <li><strong>F</strong> = NO (not a real English word)</li>
      </ul>
      <p>There is no time limit, but please try to be accurate.</p>
      <p style=""margin-top: 2em;"">Press any key to begin.</p>
    </div>
  ","j","html-keyboard-response","4","2.1.0","48771","J=YES, F=NO","6ydtvaamcq","2","56","73","40","","","","","","","","","","","","","","","",""
"4763","
  <p style=""font-size: 40px;"">platery</p>
  <p style=""font-size: 16px;"">J = YES &nbsp;&nbsp;&nbsp; F = NO</p>
","j","html-keyboard-response","5","2.1.0","53536","J=YES, F=NO","6ydtvaamcq","2","56","73","40","","","","","","lextale","false","true","","","","","","","",""
"1212","
  <p style=""font-size: 40px;"">denial</p>
  <p style=""font-size: 16px;"">J = YES &nbsp;&nbsp;&nbsp; F = NO</p>
","j","html-keyboard-response","6","2.1.0","54751","J=YES, F=NO","6ydtvaamcq","2","56","73","40","","","","","","lextale","true","true","","","","","","","",""
"2853","
  <p style=""font-size: 40px;"">marrit</p>
  <p style=""font-size: 16px;"">J = YES &nbsp;&nbsp;&nbsp; F = NO</p>
","j","html-keyboard-response","7","2.1.0","57608","J=YES, F=NO","6ydtvaamcq","2","56","73","40","","","","","","lextale","false","true","","","","","","","",""
"1010","
  <p style=""font-size: 40px;"">bottle</p>
  <p style=""font-size: 16px;"">J = YES &nbsp;&nbsp;&nbsp; F = NO</p>
","j","html-keyboard-response","8","2.1.0","58621","J=YES, F=NO","6ydtvaamcq","2","56","73","40","","","","","","lextale","true","false","","","","","","","",""
"2919","
  <p style=""font-size: 40px;"">birst</p>
  <p style=""font-size: 16px;"">J = YES &nbsp;&nbsp;&nbsp; F = NO</p>
","f","html-keyboard-response","9","2.1.0","61543","J=YES, F=NO","6ydtvaamcq","2","56","73","40","","","","","","lextale","false","false","","","","","","","",""
"1231","
  <p style=""font-size: 40px;"">envy</p>
  <p style=""font-size: 16px;"">J = YES &nbsp;&nbsp;&nbsp; F = NO</p>
","j","html-keyboard-response","10","2.1.0","62776","J=YES, F=NO","6ydtvaamcq","2","56","73","40","","","","","","lextale","true","false","","","","","","","",""
"2036","
  <p style=""font-size: 40px;"">brang</p>
  <p style=""font-size: 16px;"">J = YES &nbsp;&nbsp;&nbsp; F = NO</p>
","j","html-keyboard-response","11","2.1.0","64816","J=YES, F=NO","6ydtvaamcq","2","56","73","40","","","","","","lextale","false","false","","","","","","","",""
"1137","
  <p style=""font-size: 40px;"">huge</p>
  <p style=""font-size: 16px;"">J = YES &nbsp;&nbsp;&nbsp; F = NO</p>
","j","html-keyboard-response","12","2.1.0","65956","J=YES, F=NO","6ydtvaamcq","2","56","73","40","","","","","","lextale","true","false","","","","","","","",""
"2682","
  <p style=""font-size: 40px;"">plove</p>
  <p style=""font-size: 16px;"">J = YES &nbsp;&nbsp;&nbsp; F = NO</p>
","j","html-keyboard-response","13","2.1.0","68641","J=YES, F=NO","6ydtvaamcq","2","56","73","40","","","","","","lextale","false","false","","","","","","","",""
"1188","
  <p style=""font-size: 40px;"">border</p>
  <p style=""font-size: 16px;"">J = YES &nbsp;&nbsp;&nbsp; F = NO</p>
","j","html-keyboard-response","14","2.1.0","69833","J=YES, F=NO","6ydtvaamcq","2","56","73","40","","","","","","lextale","true","false","","","","","","","",""
"2801","
  <p style=""font-size: 40px;"">flimsy</p>
  <p style=""font-size: 16px;"">J = YES &nbsp;&nbsp;&nbsp; F = NO</p>
","j","html-keyboard-response","15","2.1.0","72636","J=YES, F=NO","6ydtvaamcq","2","56","73","40","","","","","","lextale","true","false","","","","","","","",""
"855","
  <p style=""font-size: 40px;"">drain</p>
  <p style=""font-size: 16px;"">J = YES &nbsp;&nbsp;&nbsp; F = NO</p>
","j","html-keyboard-response","16","2.1.0","73493","J=YES, F=NO","6ydtvaamcq","2","56","73","40","","","","","","lextale","true","false","","","","","","","",""
"1226","
  <p style=""font-size: 40px;"">twindle</p>
  <p style=""font-size: 16px;"">J = YES &nbsp;&nbsp;&nbsp; F = NO</p>
","j","html-keyboard-response","17","2.1.0","74723","J=YES, F=NO","6ydtvaamcq","2","56","73","40","","","","","","lextale","false","false","","","","","","","",""
"672","
  <p style=""font-size: 40px;"">propose</p>
  <p style=""font-size: 16px;"">J = YES &nbsp;&nbsp;&nbsp; F = NO</p>
","j","html-keyboard-response","18","2.1.0","75398","J=YES, F=NO","6ydtvaamcq","2","56","73","40","","","","","","lextale","true","false","","","","","","","",""
"2689","
  <p style=""font-size: 40px;"">forlay</p>
  <p style=""font-size: 16px;"">J = YES &nbsp;&nbsp;&nbsp; F = NO</p>
","j","html-keyboard-response","19","2.1.0","78091","J=YES, F=NO","6ydtvaamcq","2","56","73","40","","","","","","lextale","false","false","","","","","","","",""
"1587","
  <p style=""font-size: 40px;"">tenant</p>
  <p style=""font-size: 16px;"">J = YES &nbsp;&nbsp;&nbsp; F = NO</p>
","j","html-keyboard-response","20","2.1.0","79681","J=YES, F=NO","6ydtvaamcq","2","56","73","40","","","","","","lextale","true","false","","","","","","","",""
"1129","
  <p style=""font-size: 40px;"">strain</p>
  <p style=""font-size: 16px;"">J = YES &nbsp;&nbsp;&nbsp; F = NO</p>
","j","html-keyboard-response","21","2.1.0","80813","J=YES, F=NO","6ydtvaamcq","2","56","73","40","","","","","","lextale","true","false","","","","","","","",""
"2496","
  <p style=""font-size: 40px;"">holster</p>
  <p style=""font-size: 16px;"">J = YES &nbsp;&nbsp;&nbsp; F = NO</p>
","j","html-keyboard-response","22","2.1.0","83312","J=YES, F=NO","6ydtvaamcq","2","56","73","40","","","","","","lextale","true","false","","","","","","","",""
"1810","
  <p style=""font-size: 40px;"">hinder</p>
  <p style=""font-size: 16px;"">J = YES &nbsp;&nbsp;&nbsp; F = NO</p>
","f","html-keyboard-response","23","2.1.0","85126","J=YES, F=NO","6ydtvaamcq","2","56","73","40","","","","","","lextale","true","false","","","","","","","",""
"2256","
  <p style=""font-size: 40px;"">swindle</p>
  <p style=""font-size: 16px;"">J = YES &nbsp;&nbsp;&nbsp; F = NO</p>
","f","html-keyboard-response","24","2.1.0","87384","J=YES, F=NO","6ydtvaamcq","2","56","73","40","","","","","","lextale","true","false","","","","","","","",""
"3837","
  <p style=""font-size: 40px;"">nuder</p>
  <p style=""font-size: 16px;"">J = YES &nbsp;&nbsp;&nbsp; F = NO</p>
","j","html-keyboard-response","25","2.1.0","91224","J=YES, F=NO","6ydtvaamcq","2","56","73","40","","","","","","lextale","false","false","","","","","","","",""
"619","
  <p style=""font-size: 40px;"">pillow</p>
  <p style=""font-size: 16px;"">J = YES &nbsp;&nbsp;&nbsp; F = NO</p>
","j","html-keyboard-response","26","2.1.0","91846","J=YES, F=NO","6ydtvaamcq","2","56","73","40","","","","","","lextale","true","false","","","","","","","",""
"3105","
  <p style=""font-size: 40px;"">shumble</p>
  <p style=""font-size: 16px;"">J = YES &nbsp;&nbsp;&nbsp; F = NO</p>
","j","html-keyboard-response","27","2.1.0","94954","J=YES, F=NO","6ydtvaamcq","2","56","73","40","","","","","","lextale","false","false","","","","","","","",""
"1391","
  <p style=""font-size: 40px;"">thirst</p>
  <p style=""font-size: 16px;"">J = YES &nbsp;&nbsp;&nbsp; F = NO</p>
","j","html-keyboard-response","28","2.1.0","96347","J=YES, F=NO","6ydtvaamcq","2","56","73","40","","","","","","lextale","true","false","","","","","","","",""
"1407","
  <p style=""font-size: 40px;"">unsail</p>
  <p style=""font-size: 16px;"">J = YES &nbsp;&nbsp;&nbsp; F = NO</p>
","j","html-keyboard-response","29","2.1.0","97757","J=YES, F=NO","6ydtvaamcq","2","56","73","40","","","","","","lextale","false","false","","","","","","","",""
"852","
  <p style=""font-size: 40px;"">rifle</p>
  <p style=""font-size: 16px;"">J = YES &nbsp;&nbsp;&nbsp; F = NO</p>
","j","html-keyboard-response","30","2.1.0","98612","J=YES, F=NO","6ydtvaamcq","2","56","73","40","","","","","","lextale","true","false","","","","","","","",""
"762","
  <p style=""font-size: 40px;"">mush</p>
  <p style=""font-size: 16px;"">J = YES &nbsp;&nbsp;&nbsp; F = NO</p>
","j","html-keyboard-response","31","2.1.0","99377","J=YES, F=NO","6ydtvaamcq","2","56","73","40","","","","","","lextale","false","false","","","","","","","",""
"1054","
  <p style=""font-size: 40px;"">drench</p>
  <p style=""font-size: 16px;"">J = YES &nbsp;&nbsp;&nbsp; F = NO</p>
","j","html-keyboard-response","32","2.1.0","100434","J=YES, F=NO","6ydtvaamcq","2","56","73","40","","","","","","lextale","true","false","","","","","","","",""
"1654","
  <p style=""font-size: 40px;"">snirt</p>
  <p style=""font-size: 16px;"">J = YES &nbsp;&nbsp;&nbsp; F = NO</p>
","j","html-keyboard-response","33","2.1.0","102092","J=YES, F=NO","6ydtvaamcq","2","56","73","40","","","","","","lextale","false","false","","","","","","","",""
"1399","
  <p style=""font-size: 40px;"">bitter</p>
  <p style=""font-size: 16px;"">J = YES &nbsp;&nbsp;&nbsp; F = NO</p>
","j","html-keyboard-response","34","2.1.0","103494","J=YES, F=NO","6ydtvaamcq","2","56","73","40","","","","","","lextale","true","false","","","","","","","",""
"3063","
  <p style=""font-size: 40px;"">pliff</p>
  <p style=""font-size: 16px;"">J = YES &nbsp;&nbsp;&nbsp; F = NO</p>
","f","html-keyboard-response","35","2.1.0","106559","J=YES, F=NO","6ydtvaamcq","2","56","73","40","","","","","","lextale","false","false","","","","","","","",""
"684","
  <p style=""font-size: 40px;"">tablet</p>
  <p style=""font-size: 16px;"">J = YES &nbsp;&nbsp;&nbsp; F = NO</p>
","j","html-keyboard-response","36","2.1.0","107244","J=YES, F=NO","6ydtvaamcq","2","56","73","40","","","","","","lextale","true","false","","","","","","","",""
"2525","
  <p style=""font-size: 40px;"">glimmer</p>
  <p style=""font-size: 16px;"">J = YES &nbsp;&nbsp;&nbsp; F = NO</p>
","j","html-keyboard-response","37","2.1.0","109772","J=YES, F=NO","6ydtvaamcq","2","56","73","40","","","","","","lextale","true","false","","","","","","","",""
"799","
  <p style=""font-size: 40px;"">slink</p>
  <p style=""font-size: 16px;"">J = YES &nbsp;&nbsp;&nbsp; F = NO</p>
","j","html-keyboard-response","38","2.1.0","110574","J=YES, F=NO","6ydtvaamcq","2","56","73","40","","","","","","lextale","true","false","","","","","","","",""
"800","
  <p style=""font-size: 40px;"">clever</p>
  <p style=""font-size: 16px;"">J = YES &nbsp;&nbsp;&nbsp; F = NO</p>
","j","html-keyboard-response","39","2.1.0","111377","J=YES, F=NO","6ydtvaamcq","2","56","73","40","","","","","","lextale","true","false","","","","","","","",""
"3630","
  <p style=""font-size: 40px;"">grum</p>
  <p style=""font-size: 16px;"">J = YES &nbsp;&nbsp;&nbsp; F = NO</p>
","f","html-keyboard-response","40","2.1.0","115010","J=YES, F=NO","6ydtvaamcq","2","56","73","40","","","","","","lextale","false","false","","","","","","","",""
"603","
  <p style=""font-size: 40px;"">string</p>
  <p style=""font-size: 16px;"">J = YES &nbsp;&nbsp;&nbsp; F = NO</p>
","j","html-keyboard-response","41","2.1.0","115614","J=YES, F=NO","6ydtvaamcq","2","56","73","40","","","","","","lextale","true","false","","","","","","","",""
"5431","
  <p style=""font-size: 40px;"">plim</p>
  <p style=""font-size: 16px;"">J = YES &nbsp;&nbsp;&nbsp; F = NO</p>
","f","html-keyboard-response","42","2.1.0","121048","J=YES, F=NO","6ydtvaamcq","2","56","73","40","","","","","","lextale","false","false","","","","","","","",""
"1239","
  <p style=""font-size: 40px;"">cable</p>
  <p style=""font-size: 16px;"">J = YES &nbsp;&nbsp;&nbsp; F = NO</p>
","j","html-keyboard-response","43","2.1.0","122290","J=YES, F=NO","6ydtvaamcq","2","56","73","40","","","","","","lextale","true","false","","","","","","","",""
"2127","
  <p style=""font-size: 40px;"">shrivel</p>
  <p style=""font-size: 16px;"">J = YES &nbsp;&nbsp;&nbsp; F = NO</p>
","f","html-keyboard-response","44","2.1.0","124419","J=YES, F=NO","6ydtvaamcq","2","56","73","40","","","","","","lextale","true","false","","","","","","","",""
"2607","
  <p style=""font-size: 40px;"">tarnish</p>
  <p style=""font-size: 16px;"">J = YES &nbsp;&nbsp;&nbsp; F = NO</p>
","f","html-keyboard-response","45","2.1.0","127028","J=YES, F=NO","6ydtvaamcq","2","56","73","40","","","","","","lextale","true","false","","","","","","","",""
"2715","
  <p style=""font-size: 40px;"">blim</p>
  <p style=""font-size: 16px;"">J = YES &nbsp;&nbsp;&nbsp; F = NO</p>
","f","html-keyboard-response","46","2.1.0","129745","J=YES, F=NO","6ydtvaamcq","2","56","73","40","","","","","","lextale","false","false","","","","","","","",""
"2135","
  <p style=""font-size: 40px;"">stifle</p>
  <p style=""font-size: 16px;"">J = YES &nbsp;&nbsp;&nbsp; F = NO</p>
","f","html-keyboard-response","47","2.1.0","131883","J=YES, F=NO","6ydtvaamcq","2","56","73","40","","","","","","lextale","true","false","","","","","","","",""
"4519","
  <p style=""font-size: 40px;"">bint</p>
  <p style=""font-size: 16px;"">J = YES &nbsp;&nbsp;&nbsp; F = NO</p>
","j","html-keyboard-response","48","2.1.0","136406","J=YES, F=NO","6ydtvaamcq","2","56","73","40","","","","","","lextale","false","false","","","","","","","",""
"1025","
  <p style=""font-size: 40px;"">purple</p>
  <p style=""font-size: 16px;"">J = YES &nbsp;&nbsp;&nbsp; F = NO</p>
","j","html-keyboard-response","49","2.1.0","137432","J=YES, F=NO","6ydtvaamcq","2","56","73","40","","","","","","lextale","true","false","","","","","","","",""
"1812","
  <p style=""font-size: 40px;"">wriggle</p>
  <p style=""font-size: 16px;"">J = YES &nbsp;&nbsp;&nbsp; F = NO</p>
","j","html-keyboard-response","50","2.1.0","139247","J=YES, F=NO","6ydtvaamcq","2","56","73","40","","","","","","lextale","true","false","","","","","","","",""
"1271","
  <p style=""font-size: 40px;"">mangle</p>
  <p style=""font-size: 16px;"">J = YES &nbsp;&nbsp;&nbsp; F = NO</p>
","j","html-keyboard-response","51","2.1.0","140521","J=YES, F=NO","6ydtvaamcq","2","56","73","40","","","","","","lextale","true","false","","","","","","","",""
"1714","
  <p style=""font-size: 40px;"">shramp</p>
  <p style=""font-size: 16px;"">J = YES &nbsp;&nbsp;&nbsp; F = NO</p>
","j","html-keyboard-response","52","2.1.0","142237","J=YES, F=NO","6ydtvaamcq","2","56","73","40","","","","","","lextale","false","false","","","","","","","",""
"3992","
  <p style=""font-size: 40px;"">flirt</p>
  <p style=""font-size: 16px;"">J = YES &nbsp;&nbsp;&nbsp; F = NO</p>
","j","html-keyboard-response","53","2.1.0","146230","J=YES, F=NO","6ydtvaamcq","2","56","73","40","","","","","","lextale","true","false","","","","","","","",""
"3928","
  <p style=""font-size: 40px;"">frip</p>
  <p style=""font-size: 16px;"">J = YES &nbsp;&nbsp;&nbsp; F = NO</p>
","f","html-keyboard-response","54","2.1.0","150161","J=YES, F=NO","6ydtvaamcq","2","56","73","40","","","","","","lextale","false","false","","","","","","","",""
"1895","
  <p style=""font-size: 40px;"">tangle</p>
  <p style=""font-size: 16px;"">J = YES &nbsp;&nbsp;&nbsp; F = NO</p>
","j","html-keyboard-response","55","2.1.0","152058","J=YES, F=NO","6ydtvaamcq","2","56","73","40","","","","","","lextale","true","false","","","","","","","",""
"5387","
  <p style=""font-size: 40px;"">crumble</p>
  <p style=""font-size: 16px;"">J = YES &nbsp;&nbsp;&nbsp; F = NO</p>
","j","html-keyboard-response","56","2.1.0","157447","J=YES, F=NO","6ydtvaamcq","2","56","73","40","","","","","","lextale","true","false","","","","","","","",""
"1570","
  <p style=""font-size: 40px;"">wrinkle</p>
  <p style=""font-size: 16px;"">J = YES &nbsp;&nbsp;&nbsp; F = NO</p>
","j","html-keyboard-response","57","2.1.0","159019","J=YES, F=NO","6ydtvaamcq","2","56","73","40","","","","","","lextale","true","false","","","","","","","",""
"3207","
  <p style=""font-size: 40px;"">slumb</p>
  <p style=""font-size: 16px;"">J = YES &nbsp;&nbsp;&nbsp; F = NO</p>
","f","html-keyboard-response","58","2.1.0","162229","J=YES, F=NO","6ydtvaamcq","2","56","73","40","","","","","","lextale","false","false","","","","","","","",""
"919","
  <p style=""font-size: 40px;"">jungle</p>
  <p style=""font-size: 16px;"">J = YES &nbsp;&nbsp;&nbsp; F = NO</p>
","j","html-keyboard-response","59","2.1.0","163151","J=YES, F=NO","6ydtvaamcq","2","56","73","40","","","","","","lextale","true","false","","","","","","","",""
"1047","
  <p style=""font-size: 40px;"">frolick</p>
  <p style=""font-size: 16px;"">J = YES &nbsp;&nbsp;&nbsp; F = NO</p>
","f","html-keyboard-response","60","2.1.0","164201","J=YES, F=NO","6ydtvaamcq","2","56","73","40","","","","","","lextale","false","false","","","","","","","",""
"3751","
      <h2>LexTALE Test Completed</h2>
      <p>Your LexTALE vocabulary score is: <strong>56%</strong></p>
      <p>Press any key to continue.</p>
    "," ","html-keyboard-response","61","2.1.0","167955","J=YES, F=NO","6ydtvaamcq","2","56","73","40","","","","","","","","","","","","","","","",""
"16704","
    <div style=""max-width: 800px; margin: auto; text-align: left;"">
      <h2>Break Time</h2>
      <p>You have completed the first part of the study.</p>
      <p>You may take a short <strong>30-second break</strong> before continuing.</p>
      <p>When you’re ready, press any key to continue to the final task.</p>
    </div>
  ","j","html-keyboard-response","62","2.1.0","184661","J=YES, F=NO","6ydtvaamcq","2","56","73","40","","","","","","","","","","","","","","","",""
"35086","
    <div style=""max-width: 800px; margin: auto; text-align: left;"">
      <h2>Part 2: Lexical Decision Task</h2>
      <p>You will now begin the second part of the study.</p>
      <p>Each trial will follow this sequence:</p>
      <ul>
        <li>A fixation cross (+) appears at the center of the screen.</li>
        <li>You will hear a short beep followed by a spoken word.</li>
        <li>A written word will appear briefly on the screen.</li>
      </ul>
      <p>Your task is to judge whether the <strong>written word</strong> is a real English word.</p>
      <p style=""margin-top: 1em;""><strong>Key responses:</strong></p>
      <ul>
        <li><strong>J</strong> = YES (real English word)</li>
        <li><strong>F</strong> = NO (not a real English word)</li>
      </ul>
      <p>Please respond as quickly and accurately as you can.</p>
      <p style=""margin-top: 2em;"">Press any key to continue.</p>
    </div>
  ","j","html-keyboard-response","63","2.1.0","219750","J=YES, F=NO","6ydtvaamcq","2","56","73","40","","","","","","","","","","","","","","","",""
"6866","
    <div style=""max-width: 800px; margin: auto; text-align: left;"">
      <h2>Before You Begin</h2>
      <p>Make sure your sound is turned on.</p>
      <p>You will hear audio during each trial, but your decision should be based only on the <strong>written word</strong> you see on the screen.</p>
      <p><strong>Reminder:</strong></p>
      <ul>
        <li><strong>J</strong> = YES (real English word)</li>
        <li><strong>F</strong> = NO (not a real English word)</li>
      </ul>
      <p style=""margin-top: 2em;"">Press any key when you are ready to begin.</p>
    </div>
  ","j","html-keyboard-response","64","2.1.0","226619","J=YES, F=NO","6ydtvaamcq","2","56","73","40","","","","","","","","","","","","","","","",""
"5356","
    <div style=""max-width: 800px; margin: auto; text-align: left;"">
      <h2>Part 2: Practice Trials</h2>
      <p>You will now complete a few <strong>practice trials</strong> to get familiar with the task.</p>
      <p>These trials are <strong>not scored</strong> and are only to help you get used to the format.</p>
      <p style=""margin-top: 2em;"">Press any key to begin.</p>
    </div>
  ","j","html-keyboard-response","65","2.1.0","231977","J=YES, F=NO","6ydtvaamcq","2","56","73","40","","","","","","","","","","","","","","","",""
"3279","<p>Starting practice block 1 of 2. Press any key to continue.</p>","j","html-keyboard-response","66","2.1.0","235258","J=YES, F=NO","6ydtvaamcq","2","56","73","40","","","","","","","","","","","","","","","",""
"null","<p style=""font-size: 50px;"">+</p>","null","html-keyboard-response","67","2.1.0","235563","J=YES, F=NO","6ydtvaamcq","2","56","73","40","","","","","","","","","","","","","","","",""
"null","audio/beep-329314.mp3","null","audio-keyboard-response","68","2.1.0","237342","J=YES, F=NO","6ydtvaamcq","2","56","73","40","","","","","","","","","","","","","","","",""
"null","audio/pig.wav","null","audio-keyboard-response","69","2.1.0","237938","J=YES, F=NO","6ydtvaamcq","2","56","73","40","","","","","","","","","","","","","","","",""
"1171","
          <p id=""word"" style=""font-size: 40px;"">tirlike</p>
          <p style=""font-size: 16px;"">J = YES &nbsp;&nbsp;&nbsp; F = NO</p>
        ","f","html-keyboard-response","70","2.1.0","239113","J=YES, F=NO","6ydtvaamcq","2","56","73","40","","","","","","","","","tirlike","pig","pseudoword","pseudoword","f","true","",""
"null","<p style=""font-size: 50px;"">+</p>","null","html-keyboard-response","71","2.1.0","239417","J=YES, F=NO","6ydtvaamcq","2","56","73","40","","","","","","","","","","","","","","","",""
"null","audio/beep-329314.mp3","null","audio-keyboard-response","72","2.1.0","240968","J=YES, F=NO","6ydtvaamcq","2","56","73","40","","","","","","","","","","","","","","","",""
"null","audio/hawk1.wav","null","audio-keyboard-response","73","2.1.0","241607","J=YES, F=NO","6ydtvaamcq","2","56","73","40","","","","","","","","","","","","","","","",""
"804","
          <p id=""word"" style=""font-size: 40px;"">ostach</p>
          <p style=""font-size: 16px;"">J = YES &nbsp;&nbsp;&nbsp; F = NO</p>
        ","f","html-keyboard-response","74","2.1.0","242414","J=YES, F=NO","6ydtvaamcq","2","56","73","40","","","","","","","","","ostach","hawk1","pseudoword","pseudoword","f","true","",""
"null","<p style=""font-size: 50px;"">+</p>","null","html-keyboard-response","75","2.1.0","242717","J=YES, F=NO","6ydtvaamcq","2","56","73","40","","","","","","","","","","","","","","","",""
"null","audio/beep-329314.mp3","null","audio-keyboard-response","76","2.1.0","244274","J=YES, F=NO","6ydtvaamcq","2","56","73","40","","","","","","","","","","","","","","","",""
"null","audio/cancer1.wav","null","audio-keyboard-response","77","2.1.0","245063","J=YES, F=NO","6ydtvaamcq","2","56","73","40","","","","","","","","","","","","","","","",""
"947","
          <p id=""word"" style=""font-size: 40px;"">draw</p>
          <p style=""font-size: 16px;"">J = YES &nbsp;&nbsp;&nbsp; F = NO</p>
        ","f","html-keyboard-response","78","2.1.0","246013","J=YES, F=NO","6ydtvaamcq","2","56","73","40","","","","","","","","","draw","cancer1","filler","filler","j","false","",""
"null","<p style=""font-size: 50px;"">+</p>","null","html-keyboard-response","79","2.1.0","246316","J=YES, F=NO","6ydtvaamcq","2","56","73","40","","","","","","","","","","","","","","","",""
"null","audio/beep-329314.mp3","null","audio-keyboard-response","80","2.1.0","247858","J=YES, F=NO","6ydtvaamcq","2","56","73","40","","","","","","","","","","","","","","","",""
"null","audio/haste1.wav","null","audio-keyboard-response","81","2.1.0","248583","J=YES, F=NO","6ydtvaamcq","2","56","73","40","","","","","","","","","","","","","","","",""
"922","
          <p id=""word"" style=""font-size: 40px;"">coraconate</p>
          <p style=""font-size: 16px;"">J = YES &nbsp;&nbsp;&nbsp; F = NO</p>
        ","f","html-keyboard-response","82","2.1.0","249508","J=YES, F=NO","6ydtvaamcq","2","56","73","40","","","","","","","","","coraconate","haste1","pseudoword","pseudoword","f","true","",""
"null","<p style=""font-size: 50px;"">+</p>","null","html-keyboard-response","83","2.1.0","249811","J=YES, F=NO","6ydtvaamcq","2","56","73","40","","","","","","","","","","","","","","","",""
"null","audio/beep-329314.mp3","null","audio-keyboard-response","84","2.1.0","251357","J=YES, F=NO","6ydtvaamcq","2","56","73","40","","","","","","","","","","","","","","","",""
"null","audio/belief.wav","null","audio-keyboard-response","85","2.1.0","251997","J=YES, F=NO","6ydtvaamcq","2","56","73","40","","","","","","","","","","","","","","","",""
"772","
          <p id=""word"" style=""font-size: 40px;"">read</p>
          <p style=""font-size: 16px;"">J = YES &nbsp;&nbsp;&nbsp; F = NO</p>
        ","j","html-keyboard-response","86","2.1.0","252772","J=YES, F=NO","6ydtvaamcq","2","56","73","40","","","","","","","","","read","belief","filler","filler","j","true","",""
"null","<p style=""font-size: 50px;"">+</p>","null","html-keyboard-response","87","2.1.0","253075","J=YES, F=NO","6ydtvaamcq","2","56","73","40","","","","","","","","","","","","","","","",""
"null","audio/beep-329314.mp3","null","audio-keyboard-response","88","2.1.0","254621","J=YES, F=NO","6ydtvaamcq","2","56","73","40","","","","","","","","","","","","","","","",""
"null","audio/bishop1.wav","null","audio-keyboard-response","89","2.1.0","255389","J=YES, F=NO","6ydtvaamcq","2","56","73","40","","","","","","","","","","","","","","","",""
"821","
          <p id=""word"" style=""font-size: 40px;"">play</p>
          <p style=""font-size: 16px;"">J = YES &nbsp;&nbsp;&nbsp; F = NO</p>
        ","j","html-keyboard-response","90","2.1.0","256214","J=YES, F=NO","6ydtvaamcq","2","56","73","40","","","","","","","","","play","bishop1","filler","filler","j","true","",""
"null","<p style=""font-size: 50px;"">+</p>","null","html-keyboard-response","91","2.1.0","256517","J=YES, F=NO","6ydtvaamcq","2","56","73","40","","","","","","","","","","","","","","","",""
"null","audio/beep-329314.mp3","null","audio-keyboard-response","92","2.1.0","258077","J=YES, F=NO","6ydtvaamcq","2","56","73","40","","","","","","","","","","","","","","","",""
"null","audio/prisoner.wav","null","audio-keyboard-response","93","2.1.0","258909","J=YES, F=NO","6ydtvaamcq","2","56","73","40","","","","","","","","","","","","","","","",""
"1089","
          <p id=""word"" style=""font-size: 40px;"">egotian</p>
          <p style=""font-size: 16px;"">J = YES &nbsp;&nbsp;&nbsp; F = NO</p>
        ","f","html-keyboard-response","94","2.1.0","260001","J=YES, F=NO","6ydtvaamcq","2","56","73","40","","","","","","","","","egotian","prisoner","pseudoword","pseudoword","f","true","",""
"null","<p style=""font-size: 50px;"">+</p>","null","html-keyboard-response","95","2.1.0","260304","J=YES, F=NO","6ydtvaamcq","2","56","73","40","","","","","","","","","","","","","","","",""
"null","audio/beep-329314.mp3","null","audio-keyboard-response","96","2.1.0","261853","J=YES, F=NO","6ydtvaamcq","2","56","73","40","","","","","","","","","","","","","","","",""
"null","audio/baby.wav","null","audio-keyboard-response","97","2.1.0","262557","J=YES, F=NO","6ydtvaamcq","2","56","73","40","","","","","","","","","","","","","","","",""
"1160","
          <p id=""word"" style=""font-size: 40px;"">lift</p>
          <p style=""font-size: 16px;"">J = YES &nbsp;&nbsp;&nbsp; F = NO</p>
        ","j","html-keyboard-response","98","2.1.0","263719","J=YES, F=NO","6ydtvaamcq","2","56","73","40","","","","","","","","","lift","baby","filler","filler","j","true","",""
"null","<p style=""font-size: 50px;"">+</p>","null","html-keyboard-response","99","2.1.0","264021","J=YES, F=NO","6ydtvaamcq","2","56","73","40","","","","","","","","","","","","","","","",""
"null","audio/beep-329314.mp3","null","audio-keyboard-response","100","2.1.0","265565","J=YES, F=NO","6ydtvaamcq","2","56","73","40","","","","","","","","","","","","","","","",""
"null","audio/window1.wav","null","audio-keyboard-response","101","2.1.0","266418","J=YES, F=NO","6ydtvaamcq","2","56","73","40","","","","","","","","","","","","","","","",""
"690","
          <p id=""word"" style=""font-size: 40px;"">toss</p>
          <p style=""font-size: 16px;"">J = YES &nbsp;&nbsp;&nbsp; F = NO</p>
        ","j","html-keyboard-response","102","2.1.0","267112","J=YES, F=NO","6ydtvaamcq","2","56","73","40","","","","","","","","","toss","window1","filler","filler","j","true","",""
"null","<p style=""font-size: 50px;"">+</p>","null","html-keyboard-response","103","2.1.0","267415","J=YES, F=NO","6ydtvaamcq","2","56","73","40","","","","","","","","","","","","","","","",""
"null","audio/beep-329314.mp3","null","audio-keyboard-response","104","2.1.0","268957","J=YES, F=NO","6ydtvaamcq","2","56","73","40","","","","","","","","","","","","","","","",""
"null","audio/alarm1.wav","null","audio-keyboard-response","105","2.1.0","269576","J=YES, F=NO","6ydtvaamcq","2","56","73","40","","","","","","","","","","","","","","","",""
"592","
          <p id=""word"" style=""font-size: 40px;"">lock</p>
          <p style=""font-size: 16px;"">J = YES &nbsp;&nbsp;&nbsp; F = NO</p>
        ","j","html-keyboard-response","106","2.1.0","270172","J=YES, F=NO","6ydtvaamcq","2","56","73","40","","","","","","","","","lock","alarm1","filler","filler","j","true","",""
"null","<p style=""font-size: 50px;"">+</p>","null","html-keyboard-response","107","2.1.0","270475","J=YES, F=NO","6ydtvaamcq","2","56","73","40","","","","","","","","","","","","","","","",""
"null","audio/beep-329314.mp3","null","audio-keyboard-response","108","2.1.0","272029","J=YES, F=NO","6ydtvaamcq","2","56","73","40","","","","","","","","","","","","","","","",""
"null","audio/trout1.wav","null","audio-keyboard-response","109","2.1.0","272669","J=YES, F=NO","6ydtvaamcq","2","56","73","40","","","","","","","","","","","","","","","",""
"650","
          <p id=""word"" style=""font-size: 40px;"">spimt</p>
          <p style=""font-size: 16px;"">J = YES &nbsp;&nbsp;&nbsp; F = NO</p>
        ","f","html-keyboard-response","110","2.1.0","273322","J=YES, F=NO","6ydtvaamcq","2","56","73","40","","","","","","","","","spimt","trout1","pseudoword","pseudoword","f","true","",""
"null","<p style=""font-size: 50px;"">+</p>","null","html-keyboard-response","111","2.1.0","273625","J=YES, F=NO","6ydtvaamcq","2","56","73","40","","","","","","","","","","","","","","","",""
"null","audio/beep-329314.mp3","null","audio-keyboard-response","112","2.1.0","275187","J=YES, F=NO","6ydtvaamcq","2","56","73","40","","","","","","","","","","","","","","","",""
"null","audio/winter.wav","null","audio-keyboard-response","113","2.1.0","275805","J=YES, F=NO","6ydtvaamcq","2","56","73","40","","","","","","","","","","","","","","","",""
"859","
          <p id=""word"" style=""font-size: 40px;"">straven</p>
          <p style=""font-size: 16px;"">J = YES &nbsp;&nbsp;&nbsp; F = NO</p>
        ","j","html-keyboard-response","114","2.1.0","276667","J=YES, F=NO","6ydtvaamcq","2","56","73","40","","","","","","","","","straven","winter","pseudoword","pseudoword","f","false","",""
"2208","<p>Starting practice block 2 of 2. Press any key to continue.</p>","j","html-keyboard-response","115","2.1.0","278878","J=YES, F=NO","6ydtvaamcq","2","56","73","40","","","","","","","","","","","","","","","",""
"null","<p style=""font-size: 50px;"">+</p>","null","html-keyboard-response","116","2.1.0","279180","J=YES, F=NO","6ydtvaamcq","2","56","73","40","","","","","","","","","","","","","","","",""
"null","audio/beep-329314.mp3","null","audio-keyboard-response","117","2.1.0","280733","J=YES, F=NO","6ydtvaamcq","2","56","73","40","","","","","","","","","","","","","","","",""
"null","audio/ankle1.wav","null","audio-keyboard-response","118","2.1.0","281309","J=YES, F=NO","6ydtvaamcq","2","56","73","40","","","","","","","","","","","","","","","",""
"756","
          <p id=""word"" style=""font-size: 40px;"">switm</p>
          <p style=""font-size: 16px;"">J = YES &nbsp;&nbsp;&nbsp; F = NO</p>
        ","f","html-keyboard-response","119","2.1.0","282068","J=YES, F=NO","6ydtvaamcq","2","56","73","40","","","","","","","","","switm","ankle1","pseudoword","pseudoword","f","true","",""
"null","<p style=""font-size: 50px;"">+</p>","null","html-keyboard-response","120","2.1.0","282371","J=YES, F=NO","6ydtvaamcq","2","56","73","40","","","","","","","","","","","","","","","",""
"null","audio/beep-329314.mp3","null","audio-keyboard-response","121","2.1.0","283912","J=YES, F=NO","6ydtvaamcq","2","56","73","40","","","","","","","","","","","","","","","",""
"null","audio/key1.wav","null","audio-keyboard-response","122","2.1.0","284296","J=YES, F=NO","6ydtvaamcq","2","56","73","40","","","","","","","","","","","","","","","",""
"634","
          <p id=""word"" style=""font-size: 40px;"">sminsh</p>
          <p style=""font-size: 16px;"">J = YES &nbsp;&nbsp;&nbsp; F = NO</p>
        ","f","html-keyboard-response","123","2.1.0","284933","J=YES, F=NO","6ydtvaamcq","2","56","73","40","","","","","","","","","sminsh","key1","pseudoword","pseudoword","f","true","",""
"null","<p style=""font-size: 50px;"">+</p>","null","html-keyboard-response","124","2.1.0","285236","J=YES, F=NO","6ydtvaamcq","2","56","73","40","","","","","","","","","","","","","","","",""
"null","audio/beep-329314.mp3","null","audio-keyboard-response","125","2.1.0","286792","J=YES, F=NO","6ydtvaamcq","2","56","73","40","","","","","","","","","","","","","","","",""
"null","audio/heart1.wav","null","audio-keyboard-response","126","2.1.0","287432","J=YES, F=NO","6ydtvaamcq","2","56","73","40","","","","","","","","","","","","","","","",""
"580","
          <p id=""word"" style=""font-size: 40px;"">dralm</p>
          <p style=""font-size: 16px;"">J = YES &nbsp;&nbsp;&nbsp; F = NO</p>
        ","f","html-keyboard-response","127","2.1.0","288015","J=YES, F=NO","6ydtvaamcq","2","56","73","40","","","","","","","","","dralm","heart1","pseudoword","pseudoword","f","true","",""
"null","<p style=""font-size: 50px;"">+</p>","null","html-keyboard-response","128","2.1.0","288319","J=YES, F=NO","6ydtvaamcq","2","56","73","40","","","","","","","","","","","","","","","",""
"null","audio/beep-329314.mp3","null","audio-keyboard-response","129","2.1.0","289864","J=YES, F=NO","6ydtvaamcq","2","56","73","40","","","","","","","","","","","","","","","",""
"null","audio/bottle.wav","null","audio-keyboard-response","130","2.1.0","290355","J=YES, F=NO","6ydtvaamcq","2","56","73","40","","","","","","","","","","","","","","","",""
"560","
          <p id=""word"" style=""font-size: 40px;"">watch</p>
          <p style=""font-size: 16px;"">J = YES &nbsp;&nbsp;&nbsp; F = NO</p>
        ","j","html-keyboard-response","131","2.1.0","290918","J=YES, F=NO","6ydtvaamcq","2","56","73","40","","","","","","","","","watch","bottle","filler","filler","j","true","",""
"null","<p style=""font-size: 50px;"">+</p>","null","html-keyboard-response","132","2.1.0","291221","J=YES, F=NO","6ydtvaamcq","2","56","73","40","","","","","","","","","","","","","","","",""
"null","audio/beep-329314.mp3","null","audio-keyboard-response","133","2.1.0","292766","J=YES, F=NO","6ydtvaamcq","2","56","73","40","","","","","","","","","","","","","","","",""
"null","audio/show.wav","null","audio-keyboard-response","134","2.1.0","293490","J=YES, F=NO","6ydtvaamcq","2","56","73","40","","","","","","","","","","","","","","","",""
"828","
          <p id=""word"" style=""font-size: 40px;"">smark</p>
          <p style=""font-size: 16px;"">J = YES &nbsp;&nbsp;&nbsp; F = NO</p>
        ","j","html-keyboard-response","135","2.1.0","294322","J=YES, F=NO","6ydtvaamcq","2","56","73","40","","","","","","","","","smark","show","pseudoword","pseudoword","f","false","",""
"null","<p style=""font-size: 50px;"">+</p>","null","html-keyboard-response","136","2.1.0","294626","J=YES, F=NO","6ydtvaamcq","2","56","73","40","","","","","","","","","","","","","","","",""
"null","audio/beep-329314.mp3","null","audio-keyboard-response","137","2.1.0","296179","J=YES, F=NO","6ydtvaamcq","2","56","73","40","","","","","","","","","","","","","","","",""
"null","audio/fence.wav","null","audio-keyboard-response","138","2.1.0","297053","J=YES, F=NO","6ydtvaamcq","2","56","73","40","","","","","","","","","","","","","","","",""
"656","
          <p id=""word"" style=""font-size: 40px;"">trim</p>
          <p style=""font-size: 16px;"">J = YES &nbsp;&nbsp;&nbsp; F = NO</p>
        ","j","html-keyboard-response","139","2.1.0","297713","J=YES, F=NO","6ydtvaamcq","2","56","73","40","","","","","","","","","trim","fence","filler","filler","j","true","",""
"null","<p style=""font-size: 50px;"">+</p>","null","html-keyboard-response","140","2.1.0","298016","J=YES, F=NO","6ydtvaamcq","2","56","73","40","","","","","","","","","","","","","","","",""
"null","audio/beep-329314.mp3","null","audio-keyboard-response","141","2.1.0","299571","J=YES, F=NO","6ydtvaamcq","2","56","73","40","","","","","","","","","","","","","","","",""
"null","audio/pine.wav","null","audio-keyboard-response","142","2.1.0","300104","J=YES, F=NO","6ydtvaamcq","2","56","73","40","","","","","","","","","","","","","","","",""
"724","
          <p id=""word"" style=""font-size: 40px;"">crebble</p>
          <p style=""font-size: 16px;"">J = YES &nbsp;&nbsp;&nbsp; F = NO</p>
        ","j","html-keyboard-response","143","2.1.0","300831","J=YES, F=NO","6ydtvaamcq","2","56","73","40","","","","","","","","","crebble","pine","pseudoword","pseudoword","f","false","",""
"null","<p style=""font-size: 50px;"">+</p>","null","html-keyboard-response","144","2.1.0","301133","J=YES, F=NO","6ydtvaamcq","2","56","73","40","","","","","","","","","","","","","","","",""
"null","audio/beep-329314.mp3","null","audio-keyboard-response","145","2.1.0","302686","J=YES, F=NO","6ydtvaamcq","2","56","73","40","","","","","","","","","","","","","","","",""
"null","audio/bridge.wav","null","audio-keyboard-response","146","2.1.0","303410","J=YES, F=NO","6ydtvaamcq","2","56","73","40","","","","","","","","","","","","","","","",""
"584","
          <p id=""word"" style=""font-size: 40px;"">crack</p>
          <p style=""font-size: 16px;"">J = YES &nbsp;&nbsp;&nbsp; F = NO</p>
        ","j","html-keyboard-response","147","2.1.0","303998","J=YES, F=NO","6ydtvaamcq","2","56","73","40","","","","","","","","","crack","bridge","filler","filler","j","true","",""
"null","<p style=""font-size: 50px;"">+</p>","null","html-keyboard-response","148","2.1.0","304301","J=YES, F=NO","6ydtvaamcq","2","56","73","40","","","","","","","","","","","","","","","",""
"null","audio/beep-329314.mp3","null","audio-keyboard-response","149","2.1.0","305843","J=YES, F=NO","6ydtvaamcq","2","56","73","40","","","","","","","","","","","","","","","",""
"null","audio/client1.wav","null","audio-keyboard-response","150","2.1.0","306653","J=YES, F=NO","6ydtvaamcq","2","56","73","40","","","","","","","","","","","","","","","",""
"589","
          <p id=""word"" style=""font-size: 40px;"">droothe</p>
          <p style=""font-size: 16px;"">J = YES &nbsp;&nbsp;&nbsp; F = NO</p>
        ","f","html-keyboard-response","151","2.1.0","307246","J=YES, F=NO","6ydtvaamcq","2","56","73","40","","","","","","","","","droothe","client1","pseudoword","pseudoword","f","true","",""
"null","<p style=""font-size: 50px;"">+</p>","null","html-keyboard-response","152","2.1.0","307549","J=YES, F=NO","6ydtvaamcq","2","56","73","40","","","","","","","","","","","","","","","",""
"null","audio/beep-329314.mp3","null","audio-keyboard-response","153","2.1.0","309107","J=YES, F=NO","6ydtvaamcq","2","56","73","40","","","","","","","","","","","","","","","",""
"null","audio/menu.wav","null","audio-keyboard-response","154","2.1.0","309725","J=YES, F=NO","6ydtvaamcq","2","56","73","40","","","","","","","","","","","","","","","",""
"697","
          <p id=""word"" style=""font-size: 40px;"">slice</p>
          <p style=""font-size: 16px;"">J = YES &nbsp;&nbsp;&nbsp; F = NO</p>
        ","j","html-keyboard-response","155","2.1.0","310426","J=YES, F=NO","6ydtvaamcq","2","56","73","40","","","","","","","","","slice","menu","filler","filler","j","true","",""
"null","<p style=""font-size: 50px;"">+</p>","null","html-keyboard-response","156","2.1.0","310729","J=YES, F=NO","6ydtvaamcq","2","56","73","40","","","","","","","","","","","","","","","",""
"null","audio/beep-329314.mp3","null","audio-keyboard-response","157","2.1.0","312286","J=YES, F=NO","6ydtvaamcq","2","56","73","40","","","","","","","","","","","","","","","",""
"null","audio/breath.wav","null","audio-keyboard-response","158","2.1.0","312882","J=YES, F=NO","6ydtvaamcq","2","56","73","40","","","","","","","","","","","","","","","",""
"518","
          <p id=""word"" style=""font-size: 40px;"">pack</p>
          <p style=""font-size: 16px;"">J = YES &nbsp;&nbsp;&nbsp; F = NO</p>
        ","j","html-keyboard-response","159","2.1.0","313404","J=YES, F=NO","6ydtvaamcq","2","56","73","40","","","","","","","","","pack","breath","filler","filler","j","true","",""
"null","<p style=""font-size: 50px;"">+</p>","null","html-keyboard-response","160","2.1.0","313707","J=YES, F=NO","6ydtvaamcq","2","56","73","40","","","","","","","","","","","","","","","",""
"null","audio/beep-329314.mp3","null","audio-keyboard-response","161","2.1.0","315251","J=YES, F=NO","6ydtvaamcq","2","56","73","40","","","","","","","","","","","","","","","",""
"null","audio/brain.wav","null","audio-keyboard-response","162","2.1.0","315805","J=YES, F=NO","6ydtvaamcq","2","56","73","40","","","","","","","","","","","","","","","",""
"601","
          <p id=""word"" style=""font-size: 40px;"">throw</p>
          <p style=""font-size: 16px;"">J = YES &nbsp;&nbsp;&nbsp; F = NO</p>
        ","j","html-keyboard-response","163","2.1.0","316411","J=YES, F=NO","6ydtvaamcq","2","56","73","40","","","","","","","","","throw","brain","filler","filler","j","true","",""
"7941","
    <div style=""max-width: 800px; margin: auto; text-align: left;"">
      <h2>Part 2: Main Trials</h2>
      <p>Great job on the practice trials!</p>
      <p>You will now begin the <strong>main set of trials</strong>.</p>
      <p>Remember your key assignments:</p>
      <ul>
        <li><strong>J</strong> = YES (real English word)</li>
        <li><strong>F</strong> = NO (not a real English word)</li>
      </ul>
      <p>Try to respond as <strong>quickly and accurately</strong> as possible.</p>
      <p style=""margin-top: 2em;"">Press any key to begin the main trials.</p>
    </div>
  ","j","html-keyboard-response","164","2.1.0","324355","J=YES, F=NO","6ydtvaamcq","2","56","73","40","","","","","","","","","","","","","","","",""
"1377","<p>Starting main block 1 of 8. Press any key to continue.</p>","j","html-keyboard-response","165","2.1.0","325734","J=YES, F=NO","6ydtvaamcq","2","56","73","40","","","","","","","","","","","","","","","",""
"null","<p style=""font-size: 50px;"">+</p>","null","html-keyboard-response","166","2.1.0","326037","J=YES, F=NO","6ydtvaamcq","2","56","73","40","","","","","","","","","","","","","","","",""
"null","audio/beep-329314.mp3","null","audio-keyboard-response","167","2.1.0","327603","J=YES, F=NO","6ydtvaamcq","2","56","73","40","","","","","","","","","","","","","","","",""
"null","audio/mouth1.wav","null","audio-keyboard-response","168","2.1.0","328158","J=YES, F=NO","6ydtvaamcq","2","56","73","40","","","","","","","","","","","","","","","",""
"1015","
          <p id=""word"" style=""font-size: 40px;"">close</p>
          <p style=""font-size: 16px;"">J = YES &nbsp;&nbsp;&nbsp; F = NO</p>
        ","j","html-keyboard-response","169","2.1.0","329176","J=YES, F=NO","6ydtvaamcq","2","56","73","40","","","","","","","","","close","mouth1","literal","experimental","j","true","",""
"null","<p style=""font-size: 50px;"">+</p>","null","html-keyboard-response","170","2.1.0","329479","J=YES, F=NO","6ydtvaamcq","2","56","73","40","","","","","","","","","","","","","","","",""
"null","audio/beep-329314.mp3","null","audio-keyboard-response","171","2.1.0","331081","J=YES, F=NO","6ydtvaamcq","2","56","73","40","","","","","","","","","","","","","","","",""
"null","audio/flaw.wav","null","audio-keyboard-response","172","2.1.0","331763","J=YES, F=NO","6ydtvaamcq","2","56","73","40","","","","","","","","","","","","","","","",""
"740","
          <p id=""word"" style=""font-size: 40px;"">thwool</p>
          <p style=""font-size: 16px;"">J = YES &nbsp;&nbsp;&nbsp; F = NO</p>
        ","f","html-keyboard-response","173","2.1.0","332506","J=YES, F=NO","6ydtvaamcq","2","56","73","40","","","","","","","","","thwool","flaw","pseudoword","pseudoword","f","true","",""
"null","<p style=""font-size: 50px;"">+</p>","null","html-keyboard-response","174","2.1.0","332809","J=YES, F=NO","6ydtvaamcq","2","56","73","40","","","","","","","","","","","","","","","",""
"null","audio/beep-329314.mp3","null","audio-keyboard-response","175","2.1.0","334387","J=YES, F=NO","6ydtvaamcq","2","56","73","40","","","","","","","","","","","","","","","",""
"null","audio/empire.wav","null","audio-keyboard-response","176","2.1.0","335070","J=YES, F=NO","6ydtvaamcq","2","56","73","40","","","","","","","","","","","","","","","",""
"940","
          <p id=""word"" style=""font-size: 40px;"">slorby</p>
          <p style=""font-size: 16px;"">J = YES &nbsp;&nbsp;&nbsp; F = NO</p>
        ","f","html-keyboard-response","177","2.1.0","336012","J=YES, F=NO","6ydtvaamcq","2","56","73","40","","","","","","","","","slorby","empire","pseudoword","pseudoword","f","true","",""
"null","<p style=""font-size: 50px;"">+</p>","null","html-keyboard-response","178","2.1.0","336315","J=YES, F=NO","6ydtvaamcq","2","56","73","40","","","","","","","","","","","","","","","",""
"null","audio/beep-329314.mp3","null","audio-keyboard-response","179","2.1.0","337886","J=YES, F=NO","6ydtvaamcq","2","56","73","40","","","","","","","","","","","","","","","",""
"null","audio/grass.wav","null","audio-keyboard-response","180","2.1.0","338547","J=YES, F=NO","6ydtvaamcq","2","56","73","40","","","","","","","","","","","","","","","",""
"977","
          <p id=""word"" style=""font-size: 40px;"">milames</p>
          <p style=""font-size: 16px;"">J = YES &nbsp;&nbsp;&nbsp; F = NO</p>
        ","f","html-keyboard-response","181","2.1.0","339527","J=YES, F=NO","6ydtvaamcq","2","56","73","40","","","","","","","","","milames","grass","pseudoword","pseudoword","f","true","",""
"null","<p style=""font-size: 50px;"">+</p>","null","html-keyboard-response","182","2.1.0","339831","J=YES, F=NO","6ydtvaamcq","2","56","73","40","","","","","","","","","","","","","","","",""
"null","audio/beep-329314.mp3","null","audio-keyboard-response","183","2.1.0","341384","J=YES, F=NO","6ydtvaamcq","2","56","73","40","","","","","","","","","","","","","","","",""
"null","audio/gossip1.wav","null","audio-keyboard-response","184","2.1.0","342024","J=YES, F=NO","6ydtvaamcq","2","56","73","40","","","","","","","","","","","","","","","",""
"807","
          <p id=""word"" style=""font-size: 40px;"">camerish</p>
          <p style=""font-size: 16px;"">J = YES &nbsp;&nbsp;&nbsp; F = NO</p>
        ","j","html-keyboard-response","185","2.1.0","342835","J=YES, F=NO","6ydtvaamcq","2","56","73","40","","","","","","","","","camerish","gossip1","pseudoword","pseudoword","f","false","",""
"null","<p style=""font-size: 50px;"">+</p>","null","html-keyboard-response","186","2.1.0","343138","J=YES, F=NO","6ydtvaamcq","2","56","73","40","","","","","","","","","","","","","","","",""
"null","audio/beep-329314.mp3","null","audio-keyboard-response","187","2.1.0","344691","J=YES, F=NO","6ydtvaamcq","2","56","73","40","","","","","","","","","","","","","","","",""
"null","audio/planet1.wav","null","audio-keyboard-response","188","2.1.0","345309","J=YES, F=NO","6ydtvaamcq","2","56","73","40","","","","","","","","","","","","","","","",""
"1159","
          <p id=""word"" style=""font-size: 40px;"">cratched</p>
          <p style=""font-size: 16px;"">J = YES &nbsp;&nbsp;&nbsp; F = NO</p>
        ","j","html-keyboard-response","189","2.1.0","346472","J=YES, F=NO","6ydtvaamcq","2","56","73","40","","","","","","","","","cratched","planet1","pseudoword","pseudoword","f","false","",""
"null","<p style=""font-size: 50px;"">+</p>","null","html-keyboard-response","190","2.1.0","346775","J=YES, F=NO","6ydtvaamcq","2","56","73","40","","","","","","","","","","","","","","","",""
"null","audio/beep-329314.mp3","null","audio-keyboard-response","191","2.1.0","348318","J=YES, F=NO","6ydtvaamcq","2","56","73","40","","","","","","","","","","","","","","","",""
"null","audio/sugar1.wav","null","audio-keyboard-response","192","2.1.0","348828","J=YES, F=NO","6ydtvaamcq","2","56","73","40","","","","","","","","","","","","","","","",""
"785","
          <p id=""word"" style=""font-size: 40px;"">glung</p>
          <p style=""font-size: 16px;"">J = YES &nbsp;&nbsp;&nbsp; F = NO</p>
        ","j","html-keyboard-response","193","2.1.0","349615","J=YES, F=NO","6ydtvaamcq","2","56","73","40","","","","","","","","","glung","sugar1","pseudoword","pseudoword","f","false","",""
"null","<p style=""font-size: 50px;"">+</p>","null","html-keyboard-response","194","2.1.0","349918","J=YES, F=NO","6ydtvaamcq","2","56","73","40","","","","","","","","","","","","","","","",""
"null","audio/beep-329314.mp3","null","audio-keyboard-response","195","2.1.0","351475","J=YES, F=NO","6ydtvaamcq","2","56","73","40","","","","","","","","","","","","","","","",""
"null","audio/birth1.wav","null","audio-keyboard-response","196","2.1.0","352029","J=YES, F=NO","6ydtvaamcq","2","56","73","40","","","","","","","","","","","","","","","",""
"589","
          <p id=""word"" style=""font-size: 40px;"">peel</p>
          <p style=""font-size: 16px;"">J = YES &nbsp;&nbsp;&nbsp; F = NO</p>
        ","j","html-keyboard-response","197","2.1.0","352622","J=YES, F=NO","6ydtvaamcq","2","56","73","40","","","","","","","","","peel","birth1","filler","filler","j","true","",""
"null","<p style=""font-size: 50px;"">+</p>","null","html-keyboard-response","198","2.1.0","352925","J=YES, F=NO","6ydtvaamcq","2","56","73","40","","","","","","","","","","","","","","","",""
"null","audio/beep-329314.mp3","null","audio-keyboard-response","199","2.1.0","354483","J=YES, F=NO","6ydtvaamcq","2","56","73","40","","","","","","","","","","","","","","","",""
"null","audio/promise1.wav","null","audio-keyboard-response","200","2.1.0","355294","J=YES, F=NO","6ydtvaamcq","2","56","73","40","","","","","","","","","","","","","","","",""
"565","
          <p id=""word"" style=""font-size: 40px;"">break</p>
          <p style=""font-size: 16px;"">J = YES &nbsp;&nbsp;&nbsp; F = NO</p>
        ","j","html-keyboard-response","201","2.1.0","355862","J=YES, F=NO","6ydtvaamcq","2","56","73","40","","","","","","","","","break","promise1","metaphor","experimental","j","true","",""
"null","<p style=""font-size: 50px;"">+</p>","null","html-keyboard-response","202","2.1.0","356165","J=YES, F=NO","6ydtvaamcq","2","56","73","40","","","","","","","","","","","","","","","",""
"null","audio/beep-329314.mp3","null","audio-keyboard-response","203","2.1.0","357726","J=YES, F=NO","6ydtvaamcq","2","56","73","40","","","","","","","","","","","","","","","",""
"null","audio/alarm1.wav","null","audio-keyboard-response","204","2.1.0","358323","J=YES, F=NO","6ydtvaamcq","2","56","73","40","","","","","","","","","","","","","","","",""
"598","
          <p id=""word"" style=""font-size: 40px;"">swetp</p>
          <p style=""font-size: 16px;"">J = YES &nbsp;&nbsp;&nbsp; F = NO</p>
        ","f","html-keyboard-response","205","2.1.0","358924","J=YES, F=NO","6ydtvaamcq","2","56","73","40","","","","","","","","","swetp","alarm1","pseudoword","pseudoword","f","true","",""
"null","<p style=""font-size: 50px;"">+</p>","null","html-keyboard-response","206","2.1.0","359227","J=YES, F=NO","6ydtvaamcq","2","56","73","40","","","","","","","","","","","","","","","",""
"null","audio/beep-329314.mp3","null","audio-keyboard-response","207","2.1.0","360777","J=YES, F=NO","6ydtvaamcq","2","56","73","40","","","","","","","","","","","","","","","",""
"null","audio/arm.wav","null","audio-keyboard-response","208","2.1.0","361352","J=YES, F=NO","6ydtvaamcq","2","56","73","40","","","","","","","","","","","","","","","",""
"597","
          <p id=""word"" style=""font-size: 40px;"">fold</p>
          <p style=""font-size: 16px;"">J = YES &nbsp;&nbsp;&nbsp; F = NO</p>
        ","j","html-keyboard-response","209","2.1.0","361952","J=YES, F=NO","6ydtvaamcq","2","56","73","40","","","","","","","","","fold","arm","filler","filler","j","true","",""
"null","<p style=""font-size: 50px;"">+</p>","null","html-keyboard-response","210","2.1.0","362255","J=YES, F=NO","6ydtvaamcq","2","56","73","40","","","","","","","","","","","","","","","",""
"null","audio/beep-329314.mp3","null","audio-keyboard-response","211","2.1.0","363806","J=YES, F=NO","6ydtvaamcq","2","56","73","40","","","","","","","","","","","","","","","",""
"null","audio/cloud1.wav","null","audio-keyboard-response","212","2.1.0","364403","J=YES, F=NO","6ydtvaamcq","2","56","73","40","","","","","","","","","","","","","","","",""
"606","
          <p id=""word"" style=""font-size: 40px;"">brotant</p>
          <p style=""font-size: 16px;"">J = YES &nbsp;&nbsp;&nbsp; F = NO</p>
        ","f","html-keyboard-response","213","2.1.0","365012","J=YES, F=NO","6ydtvaamcq","2","56","73","40","","","","","","","","","brotant","cloud1","pseudoword","pseudoword","f","true","",""
"null","<p style=""font-size: 50px;"">+</p>","null","html-keyboard-response","214","2.1.0","365315","J=YES, F=NO","6ydtvaamcq","2","56","73","40","","","","","","","","","","","","","","","",""
"null","audio/beep-329314.mp3","null","audio-keyboard-response","215","2.1.0","366857","J=YES, F=NO","6ydtvaamcq","2","56","73","40","","","","","","","","","","","","","","","",""
"null","audio/holiday1.wav","null","audio-keyboard-response","216","2.1.0","367518","J=YES, F=NO","6ydtvaamcq","2","56","73","40","","","","","","","","","","","","","","","",""
"904","
          <p id=""word"" style=""font-size: 40px;"">drivets</p>
          <p style=""font-size: 16px;"">J = YES &nbsp;&nbsp;&nbsp; F = NO</p>
        ","f","html-keyboard-response","217","2.1.0","368425","J=YES, F=NO","6ydtvaamcq","2","56","73","40","","","","","","","","","drivets","holiday1","pseudoword","pseudoword","f","true","",""
"null","<p style=""font-size: 50px;"">+</p>","null","html-keyboard-response","218","2.1.0","368729","J=YES, F=NO","6ydtvaamcq","2","56","73","40","","","","","","","","","","","","","","","",""
"null","audio/beep-329314.mp3","null","audio-keyboard-response","219","2.1.0","370268","J=YES, F=NO","6ydtvaamcq","2","56","73","40","","","","","","","","","","","","","","","",""
"null","audio/beach1.wav","null","audio-keyboard-response","220","2.1.0","370888","J=YES, F=NO","6ydtvaamcq","2","56","73","40","","","","","","","","","","","","","","","",""
"565","
          <p id=""word"" style=""font-size: 40px;"">drive</p>
          <p style=""font-size: 16px;"">J = YES &nbsp;&nbsp;&nbsp; F = NO</p>
        ","j","html-keyboard-response","221","2.1.0","371456","J=YES, F=NO","6ydtvaamcq","2","56","73","40","","","","","","","","","drive","beach1","filler","filler","j","true","",""
"null","<p style=""font-size: 50px;"">+</p>","null","html-keyboard-response","222","2.1.0","371759","J=YES, F=NO","6ydtvaamcq","2","56","73","40","","","","","","","","","","","","","","","",""
"null","audio/beep-329314.mp3","null","audio-keyboard-response","223","2.1.0","373321","J=YES, F=NO","6ydtvaamcq","2","56","73","40","","","","","","","","","","","","","","","",""
"null","audio/uncle1.wav","null","audio-keyboard-response","224","2.1.0","373939","J=YES, F=NO","6ydtvaamcq","2","56","73","40","","","","","","","","","","","","","","","",""
"1196","
          <p id=""word"" style=""font-size: 40px;"">dramble</p>
          <p style=""font-size: 16px;"">J = YES &nbsp;&nbsp;&nbsp; F = NO</p>
        ","f","html-keyboard-response","225","2.1.0","375138","J=YES, F=NO","6ydtvaamcq","2","56","73","40","","","","","","","","","dramble","uncle1","pseudoword","pseudoword","f","true","",""
"null","<p style=""font-size: 50px;"">+</p>","null","html-keyboard-response","226","2.1.0","375441","J=YES, F=NO","6ydtvaamcq","2","56","73","40","","","","","","","","","","","","","","","",""
"null","audio/beep-329314.mp3","null","audio-keyboard-response","227","2.1.0","376990","J=YES, F=NO","6ydtvaamcq","2","56","73","40","","","","","","","","","","","","","","","",""
"null","audio/breath.wav","null","audio-keyboard-response","228","2.1.0","377565","J=YES, F=NO","6ydtvaamcq","2","56","73","40","","","","","","","","","","","","","","","",""
"555","
          <p id=""word"" style=""font-size: 40px;"">construct</p>
          <p style=""font-size: 16px;"">J = YES &nbsp;&nbsp;&nbsp; F = NO</p>
        ","j","html-keyboard-response","229","2.1.0","378123","J=YES, F=NO","6ydtvaamcq","2","56","73","40","","","","","","","","","construct","breath","unrelated","experimental","j","true","",""
"8360","<p>Excellent! You have finished block 1 of 8.</p>
                     <p>Feel free to take a 30 second break.</p>
                     <p>Press any key when you're ready to continue.</p>"," ","html-keyboard-response","230","2.1.0","386486","J=YES, F=NO","6ydtvaamcq","2","56","73","40","","","","","","","","","","","","","","","",""
"1197","<p>Starting main block 2 of 8. Press any key to continue.</p>","j","html-keyboard-response","231","2.1.0","387686","J=YES, F=NO","6ydtvaamcq","2","56","73","40","","","","","","","","","","","","","","","",""
"null","<p style=""font-size: 50px;"">+</p>","null","html-keyboard-response","232","2.1.0","387990","J=YES, F=NO","6ydtvaamcq","2","56","73","40","","","","","","","","","","","","","","","",""
"null","audio/beep-329314.mp3","null","audio-keyboard-response","233","2.1.0","389534","J=YES, F=NO","6ydtvaamcq","2","56","73","40","","","","","","","","","","","","","","","",""
"null","audio/bush1.wav","null","audio-keyboard-response","234","2.1.0","390024","J=YES, F=NO","6ydtvaamcq","2","56","73","40","","","","","","","","","","","","","","","",""
"846","
          <p id=""word"" style=""font-size: 40px;"">platined</p>
          <p style=""font-size: 16px;"">J = YES &nbsp;&nbsp;&nbsp; F = NO</p>
        ","f","html-keyboard-response","235","2.1.0","390873","J=YES, F=NO","6ydtvaamcq","2","56","73","40","","","","","","","","","platined","bush1","pseudoword","pseudoword","f","true","",""
"null","<p style=""font-size: 50px;"">+</p>","null","html-keyboard-response","236","2.1.0","391177","J=YES, F=NO","6ydtvaamcq","2","56","73","40","","","","","","","","","","","","","","","",""
"null","audio/beep-329314.mp3","null","audio-keyboard-response","237","2.1.0","392777","J=YES, F=NO","6ydtvaamcq","2","56","73","40","","","","","","","","","","","","","","","",""
"null","audio/radio1.wav","null","audio-keyboard-response","238","2.1.0","393438","J=YES, F=NO","6ydtvaamcq","2","56","73","40","","","","","","","","","","","","","","","",""
"725","
          <p id=""word"" style=""font-size: 40px;"">blanter</p>
          <p style=""font-size: 16px;"">J = YES &nbsp;&nbsp;&nbsp; F = NO</p>
        ","j","html-keyboard-response","239","2.1.0","394166","J=YES, F=NO","6ydtvaamcq","2","56","73","40","","","","","","","","","blanter","radio1","pseudoword","pseudoword","f","false","",""
"null","<p style=""font-size: 50px;"">+</p>","null","html-keyboard-response","240","2.1.0","394469","J=YES, F=NO","6ydtvaamcq","2","56","73","40","","","","","","","","","","","","","","","",""
"null","audio/beep-329314.mp3","null","audio-keyboard-response","241","2.1.0","396041","J=YES, F=NO","6ydtvaamcq","2","56","73","40","","","","","","","","","","","","","","","",""
"null","audio/fortune1.wav","null","audio-keyboard-response","242","2.1.0","396829","J=YES, F=NO","6ydtvaamcq","2","56","73","40","","","","","","","","","","","","","","","",""
"589","
          <p id=""word"" style=""font-size: 40px;"">spend</p>
          <p style=""font-size: 16px;"">J = YES &nbsp;&nbsp;&nbsp; F = NO</p>
        ","j","html-keyboard-response","243","2.1.0","397419","J=YES, F=NO","6ydtvaamcq","2","56","73","40","","","","","","","","","spend","fortune1","literal","experimental","j","true","",""
"null","<p style=""font-size: 50px;"">+</p>","null","html-keyboard-response","244","2.1.0","397721","J=YES, F=NO","6ydtvaamcq","2","56","73","40","","","","","","","","","","","","","","","",""
"null","audio/beep-329314.mp3","null","audio-keyboard-response","245","2.1.0","399282","J=YES, F=NO","6ydtvaamcq","2","56","73","40","","","","","","","","","","","","","","","",""
"null","audio/floor.wav","null","audio-keyboard-response","246","2.1.0","399859","J=YES, F=NO","6ydtvaamcq","2","56","73","40","","","","","","","","","","","","","","","",""
"807","
          <p id=""word"" style=""font-size: 40px;"">mop</p>
          <p style=""font-size: 16px;"">J = YES &nbsp;&nbsp;&nbsp; F = NO</p>
        ","j","html-keyboard-response","247","2.1.0","400669","J=YES, F=NO","6ydtvaamcq","2","56","73","40","","","","","","","","","mop","floor","filler","filler","j","true","",""
"null","<p style=""font-size: 50px;"">+</p>","null","html-keyboard-response","248","2.1.0","400972","J=YES, F=NO","6ydtvaamcq","2","56","73","40","","","","","","","","","","","","","","","",""
"null","audio/beep-329314.mp3","null","audio-keyboard-response","249","2.1.0","402526","J=YES, F=NO","6ydtvaamcq","2","56","73","40","","","","","","","","","","","","","","","",""
"null","audio/survey1.wav","null","audio-keyboard-response","250","2.1.0","403273","J=YES, F=NO","6ydtvaamcq","2","56","73","40","","","","","","","","","","","","","","","",""
"679","
          <p id=""word"" style=""font-size: 40px;"">release</p>
          <p style=""font-size: 16px;"">J = YES &nbsp;&nbsp;&nbsp; F = NO</p>
        ","j","html-keyboard-response","251","2.1.0","403954","J=YES, F=NO","6ydtvaamcq","2","56","73","40","","","","","","","","","release","survey1","metaphor","experimental","j","true","",""
"null","<p style=""font-size: 50px;"">+</p>","null","html-keyboard-response","252","2.1.0","404257","J=YES, F=NO","6ydtvaamcq","2","56","73","40","","","","","","","","","","","","","","","",""
"null","audio/beep-329314.mp3","null","audio-keyboard-response","253","2.1.0","405812","J=YES, F=NO","6ydtvaamcq","2","56","73","40","","","","","","","","","","","","","","","",""
"null","audio/bottle.wav","null","audio-keyboard-response","254","2.1.0","406302","J=YES, F=NO","6ydtvaamcq","2","56","73","40","","","","","","","","","","","","","","","",""
"790","
          <p id=""word"" style=""font-size: 40px;"">open</p>
          <p style=""font-size: 16px;"">J = YES &nbsp;&nbsp;&nbsp; F = NO</p>
        ","j","html-keyboard-response","255","2.1.0","407096","J=YES, F=NO","6ydtvaamcq","2","56","73","40","","","","","","","","","open","bottle","literal","experimental","j","true","",""
"null","<p style=""font-size: 50px;"">+</p>","null","html-keyboard-response","256","2.1.0","407400","J=YES, F=NO","6ydtvaamcq","2","56","73","40","","","","","","","","","","","","","","","",""
"null","audio/beep-329314.mp3","null","audio-keyboard-response","257","2.1.0","408948","J=YES, F=NO","6ydtvaamcq","2","56","73","40","","","","","","","","","","","","","","","",""
"null","audio/relief.wav","null","audio-keyboard-response","258","2.1.0","409630","J=YES, F=NO","6ydtvaamcq","2","56","73","40","","","","","","","","","","","","","","","",""
"861","
          <p id=""word"" style=""font-size: 40px;"">grigg</p>
          <p style=""font-size: 16px;"">J = YES &nbsp;&nbsp;&nbsp; F = NO</p>
        ","j","html-keyboard-response","259","2.1.0","410494","J=YES, F=NO","6ydtvaamcq","2","56","73","40","","","","","","","","","grigg","relief","pseudoword","pseudoword","f","false","",""
"null","<p style=""font-size: 50px;"">+</p>","null","html-keyboard-response","260","2.1.0","410797","J=YES, F=NO","6ydtvaamcq","2","56","73","40","","","","","","","","","","","","","","","",""
"null","audio/beep-329314.mp3","null","audio-keyboard-response","261","2.1.0","412340","J=YES, F=NO","6ydtvaamcq","2","56","73","40","","","","","","","","","","","","","","","",""
"null","audio/seat.wav","null","audio-keyboard-response","262","2.1.0","413001","J=YES, F=NO","6ydtvaamcq","2","56","73","40","","","","","","","","","","","","","","","",""
"964","
          <p id=""word"" style=""font-size: 40px;"">digest</p>
          <p style=""font-size: 16px;"">J = YES &nbsp;&nbsp;&nbsp; F = NO</p>
        ","f","html-keyboard-response","263","2.1.0","413968","J=YES, F=NO","6ydtvaamcq","2","56","73","40","","","","","","","","","digest","seat","unrelated","experimental","j","false","",""
"null","<p style=""font-size: 50px;"">+</p>","null","html-keyboard-response","264","2.1.0","414270","J=YES, F=NO","6ydtvaamcq","2","56","73","40","","","","","","","","","","","","","","","",""
"null","audio/beep-329314.mp3","null","audio-keyboard-response","265","2.1.0","415817","J=YES, F=NO","6ydtvaamcq","2","56","73","40","","","","","","","","","","","","","","","",""
"null","audio/budget1.wav","null","audio-keyboard-response","266","2.1.0","416435","J=YES, F=NO","6ydtvaamcq","2","56","73","40","","","","","","","","","","","","","","","",""
"1272","
          <p id=""word"" style=""font-size: 40px;"">sulist</p>
          <p style=""font-size: 16px;"">J = YES &nbsp;&nbsp;&nbsp; F = NO</p>
        ","f","html-keyboard-response","267","2.1.0","417710","J=YES, F=NO","6ydtvaamcq","2","56","73","40","","","","","","","","","sulist","budget1","pseudoword","pseudoword","f","true","",""
"null","<p style=""font-size: 50px;"">+</p>","null","html-keyboard-response","268","2.1.0","418013","J=YES, F=NO","6ydtvaamcq","2","56","73","40","","","","","","","","","","","","","","","",""
"null","audio/beep-329314.mp3","null","audio-keyboard-response","269","2.1.0","419572","J=YES, F=NO","6ydtvaamcq","2","56","73","40","","","","","","","","","","","","","","","",""
"null","audio/ego.wav","null","audio-keyboard-response","270","2.1.0","420169","J=YES, F=NO","6ydtvaamcq","2","56","73","40","","","","","","","","","","","","","","","",""
"606","
          <p id=""word"" style=""font-size: 40px;"">feed</p>
          <p style=""font-size: 16px;"">J = YES &nbsp;&nbsp;&nbsp; F = NO</p>
        ","j","html-keyboard-response","271","2.1.0","420778","J=YES, F=NO","6ydtvaamcq","2","56","73","40","","","","","","","","","feed","ego","metaphor","experimental","j","true","",""
"null","<p style=""font-size: 50px;"">+</p>","null","html-keyboard-response","272","2.1.0","421081","J=YES, F=NO","6ydtvaamcq","2","56","73","40","","","","","","","","","","","","","","","",""
"null","audio/beep-329314.mp3","null","audio-keyboard-response","273","2.1.0","422622","J=YES, F=NO","6ydtvaamcq","2","56","73","40","","","","","","","","","","","","","","","",""
"null","audio/breath.wav","null","audio-keyboard-response","274","2.1.0","423198","J=YES, F=NO","6ydtvaamcq","2","56","73","40","","","","","","","","","","","","","","","",""
"966","
          <p id=""word"" style=""font-size: 40px;"">twets</p>
          <p style=""font-size: 16px;"">J = YES &nbsp;&nbsp;&nbsp; F = NO</p>
        ","j","html-keyboard-response","275","2.1.0","424167","J=YES, F=NO","6ydtvaamcq","2","56","73","40","","","","","","","","","twets","breath","pseudoword","pseudoword","f","false","",""
"null","<p style=""font-size: 50px;"">+</p>","null","html-keyboard-response","276","2.1.0","424470","J=YES, F=NO","6ydtvaamcq","2","56","73","40","","","","","","","","","","","","","","","",""
"null","audio/beep-329314.mp3","null","audio-keyboard-response","277","2.1.0","426014","J=YES, F=NO","6ydtvaamcq","2","56","73","40","","","","","","","","","","","","","","","",""
"null","audio/van1.wav","null","audio-keyboard-response","278","2.1.0","426526","J=YES, F=NO","6ydtvaamcq","2","56","73","40","","","","","","","","","","","","","","","",""
"578","
          <p id=""word"" style=""font-size: 40px;"">push</p>
          <p style=""font-size: 16px;"">J = YES &nbsp;&nbsp;&nbsp; F = NO</p>
        ","j","html-keyboard-response","279","2.1.0","427108","J=YES, F=NO","6ydtvaamcq","2","56","73","40","","","","","","","","","push","van1","filler","filler","j","true","",""
"null","<p style=""font-size: 50px;"">+</p>","null","html-keyboard-response","280","2.1.0","427411","J=YES, F=NO","6ydtvaamcq","2","56","73","40","","","","","","","","","","","","","","","",""
"null","audio/beep-329314.mp3","null","audio-keyboard-response","281","2.1.0","428958","J=YES, F=NO","6ydtvaamcq","2","56","73","40","","","","","","","","","","","","","","","",""
"null","audio/chance.wav","null","audio-keyboard-response","282","2.1.0","429641","J=YES, F=NO","6ydtvaamcq","2","56","73","40","","","","","","","","","","","","","","","",""
"802","
          <p id=""word"" style=""font-size: 40px;"">seize</p>
          <p style=""font-size: 16px;"">J = YES &nbsp;&nbsp;&nbsp; F = NO</p>
        ","j","html-keyboard-response","283","2.1.0","430445","J=YES, F=NO","6ydtvaamcq","2","56","73","40","","","","","","","","","seize","chance","metaphor","experimental","j","true","",""
"null","<p style=""font-size: 50px;"">+</p>","null","html-keyboard-response","284","2.1.0","430748","J=YES, F=NO","6ydtvaamcq","2","56","73","40","","","","","","","","","","","","","","","",""
"null","audio/beep-329314.mp3","null","audio-keyboard-response","285","2.1.0","432308","J=YES, F=NO","6ydtvaamcq","2","56","73","40","","","","","","","","","","","","","","","",""
"null","audio/foe1.wav","null","audio-keyboard-response","286","2.1.0","432840","J=YES, F=NO","6ydtvaamcq","2","56","73","40","","","","","","","","","","","","","","","",""
"1144","
          <p id=""word"" style=""font-size: 40px;"">creth</p>
          <p style=""font-size: 16px;"">J = YES &nbsp;&nbsp;&nbsp; F = NO</p>
        ","f","html-keyboard-response","287","2.1.0","433986","J=YES, F=NO","6ydtvaamcq","2","56","73","40","","","","","","","","","creth","foe1","pseudoword","pseudoword","f","true","",""
"null","<p style=""font-size: 50px;"">+</p>","null","html-keyboard-response","288","2.1.0","434289","J=YES, F=NO","6ydtvaamcq","2","56","73","40","","","","","","","","","","","","","","","",""
"null","audio/beep-329314.mp3","null","audio-keyboard-response","289","2.1.0","435849","J=YES, F=NO","6ydtvaamcq","2","56","73","40","","","","","","","","","","","","","","","",""
"null","audio/belief.wav","null","audio-keyboard-response","290","2.1.0","436489","J=YES, F=NO","6ydtvaamcq","2","56","73","40","","","","","","","","","","","","","","","",""
"569","
          <p id=""word"" style=""font-size: 40px;"">share</p>
          <p style=""font-size: 16px;"">J = YES &nbsp;&nbsp;&nbsp; F = NO</p>
        ","j","html-keyboard-response","291","2.1.0","437061","J=YES, F=NO","6ydtvaamcq","2","56","73","40","","","","","","","","","share","belief","metaphor","experimental","j","true","",""
"null","<p style=""font-size: 50px;"">+</p>","null","html-keyboard-response","292","2.1.0","437363","J=YES, F=NO","6ydtvaamcq","2","56","73","40","","","","","","","","","","","","","","","",""
"null","audio/beep-329314.mp3","null","audio-keyboard-response","293","2.1.0","438922","J=YES, F=NO","6ydtvaamcq","2","56","73","40","","","","","","","","","","","","","","","",""
"null","audio/tunnel.wav","null","audio-keyboard-response","294","2.1.0","439369","J=YES, F=NO","6ydtvaamcq","2","56","73","40","","","","","","","","","","","","","","","",""
"830","
          <p id=""word"" style=""font-size: 40px;"">gred</p>
          <p style=""font-size: 16px;"">J = YES &nbsp;&nbsp;&nbsp; F = NO</p>
        ","j","html-keyboard-response","295","2.1.0","440203","J=YES, F=NO","6ydtvaamcq","2","56","73","40","","","","","","","","","gred","tunnel","pseudoword","pseudoword","f","false","",""
"1266","<p>Excellent! You have finished block 2 of 8.</p>
                     <p>Feel free to take a 30 second break.</p>
                     <p>Press any key when you're ready to continue.</p>"," ","html-keyboard-response","296","2.1.0","441471","J=YES, F=NO","6ydtvaamcq","2","56","73","40","","","","","","","","","","","","","","","",""
"2269","<p>Starting main block 3 of 8. Press any key to continue.</p>","j","html-keyboard-response","297","2.1.0","443743","J=YES, F=NO","6ydtvaamcq","2","56","73","40","","","","","","","","","","","","","","","",""
"null","<p style=""font-size: 50px;"">+</p>","null","html-keyboard-response","298","2.1.0","444046","J=YES, F=NO","6ydtvaamcq","2","56","73","40","","","","","","","","","","","","","","","",""
"null","audio/beep-329314.mp3","null","audio-keyboard-response","299","2.1.0","445598","J=YES, F=NO","6ydtvaamcq","2","56","73","40","","","","","","","","","","","","","","","",""
"null","audio/card1.wav","null","audio-keyboard-response","300","2.1.0","446153","J=YES, F=NO","6ydtvaamcq","2","56","73","40","","","","","","","","","","","","","","","",""
"505","
          <p id=""word"" style=""font-size: 40px;"">land</p>
          <p style=""font-size: 16px;"">J = YES &nbsp;&nbsp;&nbsp; F = NO</p>
        ","j","html-keyboard-response","301","2.1.0","446661","J=YES, F=NO","6ydtvaamcq","2","56","73","40","","","","","","","","","land","card1","unrelated","experimental","j","true","",""
"null","<p style=""font-size: 50px;"">+</p>","null","html-keyboard-response","302","2.1.0","446964","J=YES, F=NO","6ydtvaamcq","2","56","73","40","","","","","","","","","","","","","","","",""
"null","audio/beep-329314.mp3","null","audio-keyboard-response","303","2.1.0","448521","J=YES, F=NO","6ydtvaamcq","2","56","73","40","","","","","","","","","","","","","","","",""
"null","audio/goal.wav","null","audio-keyboard-response","304","2.1.0","448948","J=YES, F=NO","6ydtvaamcq","2","56","73","40","","","","","","","","","","","","","","","",""
"537","
          <p id=""word"" style=""font-size: 40px;"">support</p>
          <p style=""font-size: 16px;"">J = YES &nbsp;&nbsp;&nbsp; F = NO</p>
        ","j","html-keyboard-response","305","2.1.0","449488","J=YES, F=NO","6ydtvaamcq","2","56","73","40","","","","","","","","","support","goal","metaphor","experimental","j","true","",""
"null","<p style=""font-size: 50px;"">+</p>","null","html-keyboard-response","306","2.1.0","449791","J=YES, F=NO","6ydtvaamcq","2","56","73","40","","","","","","","","","","","","","","","",""
"null","audio/beep-329314.mp3","null","audio-keyboard-response","307","2.1.0","451337","J=YES, F=NO","6ydtvaamcq","2","56","73","40","","","","","","","","","","","","","","","",""
"null","audio/cash1.wav","null","audio-keyboard-response","308","2.1.0","451913","J=YES, F=NO","6ydtvaamcq","2","56","73","40","","","","","","","","","","","","","","","",""
"767","
          <p id=""word"" style=""font-size: 40px;"">splear</p>
          <p style=""font-size: 16px;"">J = YES &nbsp;&nbsp;&nbsp; F = NO</p>
        ","f","html-keyboard-response","309","2.1.0","452683","J=YES, F=NO","6ydtvaamcq","2","56","73","40","","","","","","","","","splear","cash1","pseudoword","pseudoword","f","true","",""
"null","<p style=""font-size: 50px;"">+</p>","null","html-keyboard-response","310","2.1.0","452986","J=YES, F=NO","6ydtvaamcq","2","56","73","40","","","","","","","","","","","","","","","",""
"null","audio/beep-329314.mp3","null","audio-keyboard-response","311","2.1.0","454537","J=YES, F=NO","6ydtvaamcq","2","56","73","40","","","","","","","","","","","","","","","",""
"null","audio/desire.wav","null","audio-keyboard-response","312","2.1.0","455177","J=YES, F=NO","6ydtvaamcq","2","56","73","40","","","","","","","","","","","","","","","",""
"832","
          <p id=""word"" style=""font-size: 40px;"">nophed</p>
          <p style=""font-size: 16px;"">J = YES &nbsp;&nbsp;&nbsp; F = NO</p>
        ","f","html-keyboard-response","313","2.1.0","456012","J=YES, F=NO","6ydtvaamcq","2","56","73","40","","","","","","","","","nophed","desire","pseudoword","pseudoword","f","true","",""
"null","<p style=""font-size: 50px;"">+</p>","null","html-keyboard-response","314","2.1.0","456315","J=YES, F=NO","6ydtvaamcq","2","56","73","40","","","","","","","","","","","","","","","",""
"null","audio/beep-329314.mp3","null","audio-keyboard-response","315","2.1.0","457865","J=YES, F=NO","6ydtvaamcq","2","56","73","40","","","","","","","","","","","","","","","",""
"null","audio/mouth1.wav","null","audio-keyboard-response","316","2.1.0","458462","J=YES, F=NO","6ydtvaamcq","2","56","73","40","","","","","","","","","","","","","","","",""
"947","
          <p id=""word"" style=""font-size: 40px;"">spolial</p>
          <p style=""font-size: 16px;"">J = YES &nbsp;&nbsp;&nbsp; F = NO</p>
        ","f","html-keyboard-response","317","2.1.0","459412","J=YES, F=NO","6ydtvaamcq","2","56","73","40","","","","","","","","","spolial","mouth1","pseudoword","pseudoword","f","true","",""
"null","<p style=""font-size: 50px;"">+</p>","null","html-keyboard-response","318","2.1.0","459714","J=YES, F=NO","6ydtvaamcq","2","56","73","40","","","","","","","","","","","","","","","",""
"null","audio/beep-329314.mp3","null","audio-keyboard-response","319","2.1.0","461257","J=YES, F=NO","6ydtvaamcq","2","56","73","40","","","","","","","","","","","","","","","",""
"null","audio/budget1.wav","null","audio-keyboard-response","320","2.1.0","461876","J=YES, F=NO","6ydtvaamcq","2","56","73","40","","","","","","","","","","","","","","","",""
"540","
          <p id=""word"" style=""font-size: 40px;"">cut</p>
          <p style=""font-size: 16px;"">J = YES &nbsp;&nbsp;&nbsp; F = NO</p>
        ","j","html-keyboard-response","321","2.1.0","462419","J=YES, F=NO","6ydtvaamcq","2","56","73","40","","","","","","","","","cut","budget1","metaphor","experimental","j","true","",""
"null","<p style=""font-size: 50px;"">+</p>","null","html-keyboard-response","322","2.1.0","462722","J=YES, F=NO","6ydtvaamcq","2","56","73","40","","","","","","","","","","","","","","","",""
"null","audio/beep-329314.mp3","null","audio-keyboard-response","323","2.1.0","464265","J=YES, F=NO","6ydtvaamcq","2","56","73","40","","","","","","","","","","","","","","","",""
"null","audio/garden1.wav","null","audio-keyboard-response","324","2.1.0","464926","J=YES, F=NO","6ydtvaamcq","2","56","73","40","","","","","","","","","","","","","","","",""
"527","
          <p id=""word"" style=""font-size: 40px;"">invest</p>
          <p style=""font-size: 16px;"">J = YES &nbsp;&nbsp;&nbsp; F = NO</p>
        ","j","html-keyboard-response","325","2.1.0","465456","J=YES, F=NO","6ydtvaamcq","2","56","73","40","","","","","","","","","invest","garden1","unrelated","experimental","j","true","",""
"null","<p style=""font-size: 50px;"">+</p>","null","html-keyboard-response","326","2.1.0","465759","J=YES, F=NO","6ydtvaamcq","2","56","73","40","","","","","","","","","","","","","","","",""
"null","audio/beep-329314.mp3","null","audio-keyboard-response","327","2.1.0","467316","J=YES, F=NO","6ydtvaamcq","2","56","73","40","","","","","","","","","","","","","","","",""
"null","audio/winter.wav","null","audio-keyboard-response","328","2.1.0","467913","J=YES, F=NO","6ydtvaamcq","2","56","73","40","","","","","","","","","","","","","","","",""
"563","
          <p id=""word"" style=""font-size: 40px;"">expose</p>
          <p style=""font-size: 16px;"">J = YES &nbsp;&nbsp;&nbsp; F = NO</p>
        ","j","html-keyboard-response","329","2.1.0","468479","J=YES, F=NO","6ydtvaamcq","2","56","73","40","","","","","","","","","expose","winter","unrelated","experimental","j","true","",""
"null","<p style=""font-size: 50px;"">+</p>","null","html-keyboard-response","330","2.1.0","468782","J=YES, F=NO","6ydtvaamcq","2","56","73","40","","","","","","","","","","","","","","","",""
"null","audio/beep-329314.mp3","null","audio-keyboard-response","331","2.1.0","470325","J=YES, F=NO","6ydtvaamcq","2","56","73","40","","","","","","","","","","","","","","","",""
"null","audio/pine.wav","null","audio-keyboard-response","332","2.1.0","470835","J=YES, F=NO","6ydtvaamcq","2","56","73","40","","","","","","","","","","","","","","","",""
"545","
          <p id=""word"" style=""font-size: 40px;"">weave</p>
          <p style=""font-size: 16px;"">J = YES &nbsp;&nbsp;&nbsp; F = NO</p>
        ","j","html-keyboard-response","333","2.1.0","471382","J=YES, F=NO","6ydtvaamcq","2","56","73","40","","","","","","","","","weave","pine","unrelated","experimental","j","true","",""
"null","<p style=""font-size: 50px;"">+</p>","null","html-keyboard-response","334","2.1.0","471685","J=YES, F=NO","6ydtvaamcq","2","56","73","40","","","","","","","","","","","","","","","",""
"null","audio/beep-329314.mp3","null","audio-keyboard-response","335","2.1.0","473246","J=YES, F=NO","6ydtvaamcq","2","56","73","40","","","","","","","","","","","","","","","",""
"null","audio/stain.wav","null","audio-keyboard-response","336","2.1.0","473908","J=YES, F=NO","6ydtvaamcq","2","56","73","40","","","","","","","","","","","","","","","",""
"1378","
          <p id=""word"" style=""font-size: 40px;"">rumpsied</p>
          <p style=""font-size: 16px;"">J = YES &nbsp;&nbsp;&nbsp; F = NO</p>
        ","j","html-keyboard-response","337","2.1.0","475289","J=YES, F=NO","6ydtvaamcq","2","56","73","40","","","","","","","","","rumpsied","stain","pseudoword","pseudoword","f","false","",""
"null","<p style=""font-size: 50px;"">+</p>","null","html-keyboard-response","338","2.1.0","475592","J=YES, F=NO","6ydtvaamcq","2","56","73","40","","","","","","","","","","","","","","","",""
"null","audio/beep-329314.mp3","null","audio-keyboard-response","339","2.1.0","477151","J=YES, F=NO","6ydtvaamcq","2","56","73","40","","","","","","","","","","","","","","","",""
"null","audio/pizza1.wav","null","audio-keyboard-response","340","2.1.0","477769","J=YES, F=NO","6ydtvaamcq","2","56","73","40","","","","","","","","","","","","","","","",""
"1296","
          <p id=""word"" style=""font-size: 40px;"">devour</p>
          <p style=""font-size: 16px;"">J = YES &nbsp;&nbsp;&nbsp; F = NO</p>
        ","j","html-keyboard-response","341","2.1.0","479069","J=YES, F=NO","6ydtvaamcq","2","56","73","40","","","","","","","","","devour","pizza1","literal","experimental","j","true","",""
"null","<p style=""font-size: 50px;"">+</p>","null","html-keyboard-response","342","2.1.0","479372","J=YES, F=NO","6ydtvaamcq","2","56","73","40","","","","","","","","","","","","","","","",""
"null","audio/beep-329314.mp3","null","audio-keyboard-response","343","2.1.0","480927","J=YES, F=NO","6ydtvaamcq","2","56","73","40","","","","","","","","","","","","","","","",""
"null","audio/camera1.wav","null","audio-keyboard-response","344","2.1.0","481460","J=YES, F=NO","6ydtvaamcq","2","56","73","40","","","","","","","","","","","","","","","",""
"668","
          <p id=""word"" style=""font-size: 40px;"">bring</p>
          <p style=""font-size: 16px;"">J = YES &nbsp;&nbsp;&nbsp; F = NO</p>
        ","j","html-keyboard-response","345","2.1.0","482130","J=YES, F=NO","6ydtvaamcq","2","56","73","40","","","","","","","","","bring","camera1","literal","experimental","j","true","",""
"null","<p style=""font-size: 50px;"">+</p>","null","html-keyboard-response","346","2.1.0","482433","J=YES, F=NO","6ydtvaamcq","2","56","73","40","","","","","","","","","","","","","","","",""
"null","audio/beep-329314.mp3","null","audio-keyboard-response","347","2.1.0","483977","J=YES, F=NO","6ydtvaamcq","2","56","73","40","","","","","","","","","","","","","","","",""
"null","audio/demon1.wav","null","audio-keyboard-response","348","2.1.0","484510","J=YES, F=NO","6ydtvaamcq","2","56","73","40","","","","","","","","","","","","","","","",""
"512","
          <p id=""word"" style=""font-size: 40px;"">wrestle</p>
          <p style=""font-size: 16px;"">J = YES &nbsp;&nbsp;&nbsp; F = NO</p>
        ","j","html-keyboard-response","349","2.1.0","485025","J=YES, F=NO","6ydtvaamcq","2","56","73","40","","","","","","","","","wrestle","demon1","metaphor","experimental","j","true","",""
"null","<p style=""font-size: 50px;"">+</p>","null","html-keyboard-response","350","2.1.0","485328","J=YES, F=NO","6ydtvaamcq","2","56","73","40","","","","","","","","","","","","","","","",""
"null","audio/beep-329314.mp3","null","audio-keyboard-response","351","2.1.0","486879","J=YES, F=NO","6ydtvaamcq","2","56","73","40","","","","","","","","","","","","","","","",""
"null","audio/truth1.wav","null","audio-keyboard-response","352","2.1.0","487476","J=YES, F=NO","6ydtvaamcq","2","56","73","40","","","","","","","","","","","","","","","",""
"711","
          <p id=""word"" style=""font-size: 40px;"">calitom</p>
          <p style=""font-size: 16px;"">J = YES &nbsp;&nbsp;&nbsp; F = NO</p>
        ","f","html-keyboard-response","353","2.1.0","488190","J=YES, F=NO","6ydtvaamcq","2","56","73","40","","","","","","","","","calitom","truth1","pseudoword","pseudoword","f","true","",""
"null","<p style=""font-size: 50px;"">+</p>","null","html-keyboard-response","354","2.1.0","488493","J=YES, F=NO","6ydtvaamcq","2","56","73","40","","","","","","","","","","","","","","","",""
"null","audio/beep-329314.mp3","null","audio-keyboard-response","355","2.1.0","490036","J=YES, F=NO","6ydtvaamcq","2","56","73","40","","","","","","","","","","","","","","","",""
"null","audio/foot1.wav","null","audio-keyboard-response","356","2.1.0","490633","J=YES, F=NO","6ydtvaamcq","2","56","73","40","","","","","","","","","","","","","","","",""
"757","
          <p id=""word"" style=""font-size: 40px;"">thrutt</p>
          <p style=""font-size: 16px;"">J = YES &nbsp;&nbsp;&nbsp; F = NO</p>
        ","f","html-keyboard-response","357","2.1.0","491393","J=YES, F=NO","6ydtvaamcq","2","56","73","40","","","","","","","","","thrutt","foot1","pseudoword","pseudoword","f","true","",""
"null","<p style=""font-size: 50px;"">+</p>","null","html-keyboard-response","358","2.1.0","491696","J=YES, F=NO","6ydtvaamcq","2","56","73","40","","","","","","","","","","","","","","","",""
"null","audio/beep-329314.mp3","null","audio-keyboard-response","359","2.1.0","493258","J=YES, F=NO","6ydtvaamcq","2","56","73","40","","","","","","","","","","","","","","","",""
"null","audio/age1.wav","null","audio-keyboard-response","360","2.1.0","493832","J=YES, F=NO","6ydtvaamcq","2","56","73","40","","","","","","","","","","","","","","","",""
"1001","
          <p id=""word"" style=""font-size: 40px;"">lachry</p>
          <p style=""font-size: 16px;"">J = YES &nbsp;&nbsp;&nbsp; F = NO</p>
        ","f","html-keyboard-response","361","2.1.0","494836","J=YES, F=NO","6ydtvaamcq","2","56","73","40","","","","","","","","","lachry","age1","pseudoword","pseudoword","f","true","",""
"8952","<p>Excellent! You have finished block 3 of 8.</p>
                     <p>Feel free to take a 30 second break.</p>
                     <p>Press any key when you're ready to continue.</p>","j","html-keyboard-response","362","2.1.0","503790","J=YES, F=NO","6ydtvaamcq","2","56","73","40","","","","","","","","","","","","","","","",""
"898","<p>Starting main block 4 of 8. Press any key to continue.</p>","j","html-keyboard-response","363","2.1.0","504690","J=YES, F=NO","6ydtvaamcq","2","56","73","40","","","","","","","","","","","","","","","",""
"null","<p style=""font-size: 50px;"">+</p>","null","html-keyboard-response","364","2.1.0","504993","J=YES, F=NO","6ydtvaamcq","2","56","73","40","","","","","","","","","","","","","","","",""
"null","audio/beep-329314.mp3","null","audio-keyboard-response","365","2.1.0","506527","J=YES, F=NO","6ydtvaamcq","2","56","73","40","","","","","","","","","","","","","","","",""
"null","audio/gift1.wav","null","audio-keyboard-response","366","2.1.0","506974","J=YES, F=NO","6ydtvaamcq","2","56","73","40","","","","","","","","","","","","","","","",""
"451","
          <p id=""word"" style=""font-size: 40px;"">give</p>
          <p style=""font-size: 16px;"">J = YES &nbsp;&nbsp;&nbsp; F = NO</p>
        ","j","html-keyboard-response","367","2.1.0","507429","J=YES, F=NO","6ydtvaamcq","2","56","73","40","","","","","","","","","give","gift1","literal","experimental","j","true","",""
"null","<p style=""font-size: 50px;"">+</p>","null","html-keyboard-response","368","2.1.0","507731","J=YES, F=NO","6ydtvaamcq","2","56","73","40","","","","","","","","","","","","","","","",""
"null","audio/beep-329314.mp3","null","audio-keyboard-response","369","2.1.0","509300","J=YES, F=NO","6ydtvaamcq","2","56","73","40","","","","","","","","","","","","","","","",""
"null","audio/sugar1.wav","null","audio-keyboard-response","370","2.1.0","509812","J=YES, F=NO","6ydtvaamcq","2","56","73","40","","","","","","","","","","","","","","","",""
"583","
          <p id=""word"" style=""font-size: 40px;"">approach</p>
          <p style=""font-size: 16px;"">J = YES &nbsp;&nbsp;&nbsp; F = NO</p>
        ","j","html-keyboard-response","371","2.1.0","510398","J=YES, F=NO","6ydtvaamcq","2","56","73","40","","","","","","","","","approach","sugar1","unrelated","experimental","j","true","",""
"null","<p style=""font-size: 50px;"">+</p>","null","html-keyboard-response","372","2.1.0","510701","J=YES, F=NO","6ydtvaamcq","2","56","73","40","","","","","","","","","","","","","","","",""
"null","audio/beep-329314.mp3","null","audio-keyboard-response","373","2.1.0","512266","J=YES, F=NO","6ydtvaamcq","2","56","73","40","","","","","","","","","","","","","","","",""
"null","audio/purpose.wav","null","audio-keyboard-response","374","2.1.0","512969","J=YES, F=NO","6ydtvaamcq","2","56","73","40","","","","","","","","","","","","","","","",""
"613","
          <p id=""word"" style=""font-size: 40px;"">defeat</p>
          <p style=""font-size: 16px;"">J = YES &nbsp;&nbsp;&nbsp; F = NO</p>
        ","j","html-keyboard-response","375","2.1.0","513585","J=YES, F=NO","6ydtvaamcq","2","56","73","40","","","","","","","","","defeat","purpose","metaphor","experimental","j","true","",""
"null","<p style=""font-size: 50px;"">+</p>","null","html-keyboard-response","376","2.1.0","513888","J=YES, F=NO","6ydtvaamcq","2","56","73","40","","","","","","","","","","","","","","","",""
"null","audio/beep-329314.mp3","null","audio-keyboard-response","377","2.1.0","515444","J=YES, F=NO","6ydtvaamcq","2","56","73","40","","","","","","","","","","","","","","","",""
"null","audio/battle1.wav","null","audio-keyboard-response","378","2.1.0","515956","J=YES, F=NO","6ydtvaamcq","2","56","73","40","","","","","","","","","","","","","","","",""
"566","
          <p id=""word"" style=""font-size: 40px;"">fight</p>
          <p style=""font-size: 16px;"">J = YES &nbsp;&nbsp;&nbsp; F = NO</p>
        ","j","html-keyboard-response","379","2.1.0","516525","J=YES, F=NO","6ydtvaamcq","2","56","73","40","","","","","","","","","fight","battle1","literal","experimental","j","true","",""
"null","<p style=""font-size: 50px;"">+</p>","null","html-keyboard-response","380","2.1.0","516827","J=YES, F=NO","6ydtvaamcq","2","56","73","40","","","","","","","","","","","","","","","",""
"null","audio/beep-329314.mp3","null","audio-keyboard-response","381","2.1.0","518367","J=YES, F=NO","6ydtvaamcq","2","56","73","40","","","","","","","","","","","","","","","",""
"null","audio/sand.wav","null","audio-keyboard-response","382","2.1.0","519028","J=YES, F=NO","6ydtvaamcq","2","56","73","40","","","","","","","","","","","","","","","",""
"1049","
          <p id=""word"" style=""font-size: 40px;"">proted</p>
          <p style=""font-size: 16px;"">J = YES &nbsp;&nbsp;&nbsp; F = NO</p>
        ","f","html-keyboard-response","383","2.1.0","520081","J=YES, F=NO","6ydtvaamcq","2","56","73","40","","","","","","","","","proted","sand","pseudoword","pseudoword","f","true","",""
"null","<p style=""font-size: 50px;"">+</p>","null","html-keyboard-response","384","2.1.0","520384","J=YES, F=NO","6ydtvaamcq","2","56","73","40","","","","","","","","","","","","","","","",""
"null","audio/beep-329314.mp3","null","audio-keyboard-response","385","2.1.0","521930","J=YES, F=NO","6ydtvaamcq","2","56","73","40","","","","","","","","","","","","","","","",""
"null","audio/ankle1.wav","null","audio-keyboard-response","386","2.1.0","522484","J=YES, F=NO","6ydtvaamcq","2","56","73","40","","","","","","","","","","","","","","","",""
"736","
          <p id=""word"" style=""font-size: 40px;"">hurt</p>
          <p style=""font-size: 16px;"">J = YES &nbsp;&nbsp;&nbsp; F = NO</p>
        ","j","html-keyboard-response","387","2.1.0","523224","J=YES, F=NO","6ydtvaamcq","2","56","73","40","","","","","","","","","hurt","ankle1","literal","experimental","j","true","",""
"null","<p style=""font-size: 50px;"">+</p>","null","html-keyboard-response","388","2.1.0","523526","J=YES, F=NO","6ydtvaamcq","2","56","73","40","","","","","","","","","","","","","","","",""
"null","audio/beep-329314.mp3","null","audio-keyboard-response","389","2.1.0","525087","J=YES, F=NO","6ydtvaamcq","2","56","73","40","","","","","","","","","","","","","","","",""
"null","audio/table1.wav","null","audio-keyboard-response","390","2.1.0","525599","J=YES, F=NO","6ydtvaamcq","2","56","73","40","","","","","","","","","","","","","","","",""
"1325","
          <p id=""word"" style=""font-size: 40px;"">stimb</p>
          <p style=""font-size: 16px;"">J = YES &nbsp;&nbsp;&nbsp; F = NO</p>
