"rt","stimulus","response","trial_type","trial_index","plugin_version","time_elapsed","response_mapping","subject_id","list_index","lextale_score","lextale_word_score","lextale_nonword_score","success","timeout","failed_images","failed_audio","failed_video","task","isWord","isDummy","target","prime","prime_type","stimulus_type","correct_response","correct","section","question_order"
"2005","
    <div style=""max-width: 800px; margin: auto; text-align: left;"">
      <h2>STANFORD UNIVERSITY</h2>
      <h3>Research Information Sheet</h3>
      <p><strong>Protocol Director:</strong> Robert Hawkins<br>
      <strong>Protocol Title:</strong> Communication and social cognition in natural audiovisual contexts<br>
      <strong>IRB#:</strong> 77226</p>

      <p><strong>DESCRIPTION:</strong> You are invited to participate in a research study about language and communication. The purpose of the research is to understand how you interact and communicate with other people in naturalistic settings as a fluent English speaker. This research will be conducted through the Prolific platform, including participants from the US, UK, and Canada. If you decide to participate in this research, you will play a communication game in a group with one or more partners.</p>

      <p><strong>TIME INVOLVEMENT:</strong> The task will last the amount of time advertised on Prolific. You are free to withdraw from the study at any time.</p>

      <p><strong>RISKS AND BENEFITS:</strong> You may become frustrated if your partner gets distracted, or experience discomfort if other participants in your group send text that is inappropriate for the task. We ask you to please be respectful of other participants you might be interacting with to mitigate these risks. You may also experience discomfort when being asked to discuss or challenge emotionally salient political beliefs. Study data will be stored securely, in compliance with Stanford University standards, minimizing the risk of confidentiality breach. This study advances our scientific understanding of how people communicate and collaborate in naturalistic settings. This study may lead to further insights about what can go wrong in teamwork, suggest potential interventions to overcome these barriers, and help to develop assistive technologies that collaborate with human partners. We cannot and do not guarantee or promise that you will receive any benefits from this study.</p>

      <p><strong>PAYMENTS:</strong> You will receive payment in the amount advertised on Prolific. If you do not complete this study, you will receive prorated payment based on the time that you have spent. Additionally, you may be eligible for bonus payments as described in the instructions.</p>

      <p><strong>PARTICIPANT’S RIGHTS:</strong> If you have read this form and have decided to participate in this project, please understand your participation is voluntary and you have the right to withdraw your consent or discontinue participation at any time without penalty or loss of benefits to which you are otherwise entitled. The alternative is not to participate. You have the right to refuse to answer particular questions. The results of this research study may be presented at scientific or professional meetings or published in scientific journals. Your individual privacy will be maintained in all published and written data resulting from the study. In accordance with scientific norms, the data from this study may be used or shared with other researchers for future research (after removing personally identifying information) without additional consent from you.</p>

      <p><strong>CONTACT INFORMATION:</strong><br>
      Questions: If you have any questions, concerns or complaints about this research, its procedures, risks and benefits, contact the Protocol Director, Robert Hawkins (<a href=""mailto:rdhawkins@stanford.edu"">rdhawkins@stanford.edu</a>, 217-549-6923).<br>
      Independent Contact: If you are not satisfied with how this study is being conducted, or if you have any concerns, complaints, or general questions about the research or your rights as a participant, please contact the Stanford Institutional Review Board (IRB) to speak to someone independent of the research team at 650-723-2480 or toll free at 1-866-680-2906, or email at <a href=""mailto:irbnon-med@stanford.edu"">irbnon-med@stanford.edu</a>. You can also write to the Stanford IRB, Stanford University, 1705 El Camino Real, Palo Alto, CA 94306.</p>

      <p><strong>Please save or print a copy of this page for your records.</strong></p>
      <p>If you agree to participate in this research, click ""Continue"" below.</p>
    </div>
  ","0","html-button-response","0","2.1.0","2029","J=YES, F=NO","71rrb7d00g","1","65","60","70","","","","","","","","","","","","","","","",""
"2002","
    <div style=""max-width: 800px; margin: auto; text-align: left;"">
      <h2>Welcome!</h2>
      <p>Thank you for participating in this study. The experiment consists of three parts:</p>
      <ol>
        <li>An English vocabulary test</li>
        <li>A main task in which you will hear and see words, and decide whether the written word is a real English word</li>
        <li>A brief survey about your background</li>
      </ol>
      <p>Each part will be introduced before it begins.</p>
      <p>Please make sure you are in a quiet environment and can hear audio clearly for the final task.</p>
      <p style=""margin-top: 2em;"">Press any key to begin.</p>
    </div>
  ","Enter","html-keyboard-response","1","2.1.0","4034","J=YES, F=NO","71rrb7d00g","1","65","60","70","","","","","","","","","","","","","","","",""
"","","","preload","2","2.1.0","5085","J=YES, F=NO","71rrb7d00g","1","65","60","70","true","false","[]","[]","[]","","","","","","","","","","",""
"2437","
    <div style=""max-width: 800px; margin: auto; text-align: left;"">
      <h2>Part 1: Vocabulary Test</h2>
      <p>You will now complete the first part of the study: a short English vocabulary test.</p>
      <p>This test is called <strong>LexTALE</strong> and helps us get a general sense of your English proficiency.</p>
      <p style=""margin-top: 2em;"">Press any key to continue.</p>
    </div>
  ","Enter","html-keyboard-response","3","2.1.0","7525","J=YES, F=NO","71rrb7d00g","1","65","60","70","","","","","","","","","","","","","","","",""
"1826","
    <div style=""max-width: 800px; margin: auto; text-align: left;"">
      <h2>LexTALE Vocabulary Test</h2>
      <p>In this test, you will see a series of letter strings—one at a time.</p>
      <p>Your task is to decide whether each string is a real English word.</p>
      <p><strong>Key responses:</strong></p>
      <ul>
        <li><strong>J</strong> = YES (real English word)</li>
        <li><strong>F</strong> = NO (not a real English word)</li>
      </ul>
      <p>There is no time limit, but please try to be accurate.</p>
      <p style=""margin-top: 2em;"">Press any key to begin.</p>
    </div>
  ","j","html-keyboard-response","4","2.1.0","9355","J=YES, F=NO","71rrb7d00g","1","65","60","70","","","","","","","","","","","","","","","",""
"934","
  <p style=""font-size: 40px;"">platery</p>
  <p style=""font-size: 16px;"">J = YES &nbsp;&nbsp;&nbsp; F = NO</p>
","j","html-keyboard-response","5","2.1.0","10296","J=YES, F=NO","71rrb7d00g","1","65","60","70","","","","","","lextale","false","true","","","","","","","",""
"642","
  <p style=""font-size: 40px;"">denial</p>
  <p style=""font-size: 16px;"">J = YES &nbsp;&nbsp;&nbsp; F = NO</p>
","j","html-keyboard-response","6","2.1.0","10944","J=YES, F=NO","71rrb7d00g","1","65","60","70","","","","","","lextale","true","true","","","","","","","",""
"638","
  <p style=""font-size: 40px;"">marrit</p>
  <p style=""font-size: 16px;"">J = YES &nbsp;&nbsp;&nbsp; F = NO</p>
","f","html-keyboard-response","7","2.1.0","11585","J=YES, F=NO","71rrb7d00g","1","65","60","70","","","","","","lextale","false","true","","","","","","","",""
"803","
  <p style=""font-size: 40px;"">bottle</p>
  <p style=""font-size: 16px;"">J = YES &nbsp;&nbsp;&nbsp; F = NO</p>
","f","html-keyboard-response","8","2.1.0","12390","J=YES, F=NO","71rrb7d00g","1","65","60","70","","","","","","lextale","true","false","","","","","","","",""
"613","
  <p style=""font-size: 40px;"">birst</p>
  <p style=""font-size: 16px;"">J = YES &nbsp;&nbsp;&nbsp; F = NO</p>
","f","html-keyboard-response","9","2.1.0","13007","J=YES, F=NO","71rrb7d00g","1","65","60","70","","","","","","lextale","false","false","","","","","","","",""
"603","
  <p style=""font-size: 40px;"">envy</p>
  <p style=""font-size: 16px;"">J = YES &nbsp;&nbsp;&nbsp; F = NO</p>
","j","html-keyboard-response","10","2.1.0","13615","J=YES, F=NO","71rrb7d00g","1","65","60","70","","","","","","lextale","true","false","","","","","","","",""
"543","
  <p style=""font-size: 40px;"">brang</p>
  <p style=""font-size: 16px;"">J = YES &nbsp;&nbsp;&nbsp; F = NO</p>
","f","html-keyboard-response","11","2.1.0","14163","J=YES, F=NO","71rrb7d00g","1","65","60","70","","","","","","lextale","false","false","","","","","","","",""
"636","
  <p style=""font-size: 40px;"">huge</p>
  <p style=""font-size: 16px;"">J = YES &nbsp;&nbsp;&nbsp; F = NO</p>
","j","html-keyboard-response","12","2.1.0","14801","J=YES, F=NO","71rrb7d00g","1","65","60","70","","","","","","lextale","true","false","","","","","","","",""
"493","
  <p style=""font-size: 40px;"">plove</p>
  <p style=""font-size: 16px;"">J = YES &nbsp;&nbsp;&nbsp; F = NO</p>
","f","html-keyboard-response","13","2.1.0","15298","J=YES, F=NO","71rrb7d00g","1","65","60","70","","","","","","lextale","false","false","","","","","","","",""
"577","
  <p style=""font-size: 40px;"">border</p>
  <p style=""font-size: 16px;"">J = YES &nbsp;&nbsp;&nbsp; F = NO</p>
","j","html-keyboard-response","14","2.1.0","15878","J=YES, F=NO","71rrb7d00g","1","65","60","70","","","","","","lextale","true","false","","","","","","","",""
"554","
  <p style=""font-size: 40px;"">flimsy</p>
  <p style=""font-size: 16px;"">J = YES &nbsp;&nbsp;&nbsp; F = NO</p>
","f","html-keyboard-response","15","2.1.0","16436","J=YES, F=NO","71rrb7d00g","1","65","60","70","","","","","","lextale","true","false","","","","","","","",""
"840","
  <p style=""font-size: 40px;"">drain</p>
  <p style=""font-size: 16px;"">J = YES &nbsp;&nbsp;&nbsp; F = NO</p>
","j","html-keyboard-response","16","2.1.0","17277","J=YES, F=NO","71rrb7d00g","1","65","60","70","","","","","","lextale","true","false","","","","","","","",""
"737","
  <p style=""font-size: 40px;"">twindle</p>
  <p style=""font-size: 16px;"">J = YES &nbsp;&nbsp;&nbsp; F = NO</p>
","f","html-keyboard-response","17","2.1.0","18017","J=YES, F=NO","71rrb7d00g","1","65","60","70","","","","","","lextale","false","false","","","","","","","",""
"536","
  <p style=""font-size: 40px;"">propose</p>
  <p style=""font-size: 16px;"">J = YES &nbsp;&nbsp;&nbsp; F = NO</p>
","f","html-keyboard-response","18","2.1.0","18556","J=YES, F=NO","71rrb7d00g","1","65","60","70","","","","","","lextale","true","false","","","","","","","",""
"1095","
  <p style=""font-size: 40px;"">forlay</p>
  <p style=""font-size: 16px;"">J = YES &nbsp;&nbsp;&nbsp; F = NO</p>
","f","html-keyboard-response","19","2.1.0","19654","J=YES, F=NO","71rrb7d00g","1","65","60","70","","","","","","lextale","false","false","","","","","","","",""
"1082","
  <p style=""font-size: 40px;"">tenant</p>
  <p style=""font-size: 16px;"">J = YES &nbsp;&nbsp;&nbsp; F = NO</p>
","j","html-keyboard-response","20","2.1.0","20738","J=YES, F=NO","71rrb7d00g","1","65","60","70","","","","","","lextale","true","false","","","","","","","",""
"607","
  <p style=""font-size: 40px;"">strain</p>
  <p style=""font-size: 16px;"">J = YES &nbsp;&nbsp;&nbsp; F = NO</p>
","j","html-keyboard-response","21","2.1.0","21346","J=YES, F=NO","71rrb7d00g","1","65","60","70","","","","","","lextale","true","false","","","","","","","",""
"748","
  <p style=""font-size: 40px;"">holster</p>
  <p style=""font-size: 16px;"">J = YES &nbsp;&nbsp;&nbsp; F = NO</p>
","f","html-keyboard-response","22","2.1.0","22096","J=YES, F=NO","71rrb7d00g","1","65","60","70","","","","","","lextale","true","false","","","","","","","",""
"1167","
  <p style=""font-size: 40px;"">hinder</p>
  <p style=""font-size: 16px;"">J = YES &nbsp;&nbsp;&nbsp; F = NO</p>
","f","html-keyboard-response","23","2.1.0","23265","J=YES, F=NO","71rrb7d00g","1","65","60","70","","","","","","lextale","true","false","","","","","","","",""
"890","
  <p style=""font-size: 40px;"">swindle</p>
  <p style=""font-size: 16px;"">J = YES &nbsp;&nbsp;&nbsp; F = NO</p>
","f","html-keyboard-response","24","2.1.0","24157","J=YES, F=NO","71rrb7d00g","1","65","60","70","","","","","","lextale","true","false","","","","","","","",""
"1449","
  <p style=""font-size: 40px;"">nuder</p>
  <p style=""font-size: 16px;"">J = YES &nbsp;&nbsp;&nbsp; F = NO</p>
","j","html-keyboard-response","25","2.1.0","25609","J=YES, F=NO","71rrb7d00g","1","65","60","70","","","","","","lextale","false","false","","","","","","","",""
"597","
  <p style=""font-size: 40px;"">pillow</p>
  <p style=""font-size: 16px;"">J = YES &nbsp;&nbsp;&nbsp; F = NO</p>
","j","html-keyboard-response","26","2.1.0","26208","J=YES, F=NO","71rrb7d00g","1","65","60","70","","","","","","lextale","true","false","","","","","","","",""
"1003","
  <p style=""font-size: 40px;"">shumble</p>
  <p style=""font-size: 16px;"">J = YES &nbsp;&nbsp;&nbsp; F = NO</p>
","j","html-keyboard-response","27","2.1.0","27212","J=YES, F=NO","71rrb7d00g","1","65","60","70","","","","","","lextale","false","false","","","","","","","",""
"633","
  <p style=""font-size: 40px;"">thirst</p>
  <p style=""font-size: 16px;"">J = YES &nbsp;&nbsp;&nbsp; F = NO</p>
","j","html-keyboard-response","28","2.1.0","27848","J=YES, F=NO","71rrb7d00g","1","65","60","70","","","","","","lextale","true","false","","","","","","","",""
"924","
  <p style=""font-size: 40px;"">unsail</p>
  <p style=""font-size: 16px;"">J = YES &nbsp;&nbsp;&nbsp; F = NO</p>
","f","html-keyboard-response","29","2.1.0","28775","J=YES, F=NO","71rrb7d00g","1","65","60","70","","","","","","lextale","false","false","","","","","","","",""
"669","
  <p style=""font-size: 40px;"">rifle</p>
  <p style=""font-size: 16px;"">J = YES &nbsp;&nbsp;&nbsp; F = NO</p>
","f","html-keyboard-response","30","2.1.0","29445","J=YES, F=NO","71rrb7d00g","1","65","60","70","","","","","","lextale","true","false","","","","","","","",""
"575","
  <p style=""font-size: 40px;"">mush</p>
  <p style=""font-size: 16px;"">J = YES &nbsp;&nbsp;&nbsp; F = NO</p>
","j","html-keyboard-response","31","2.1.0","30022","J=YES, F=NO","71rrb7d00g","1","65","60","70","","","","","","lextale","false","false","","","","","","","",""
"810","
  <p style=""font-size: 40px;"">drench</p>
  <p style=""font-size: 16px;"">J = YES &nbsp;&nbsp;&nbsp; F = NO</p>
","j","html-keyboard-response","32","2.1.0","30834","J=YES, F=NO","71rrb7d00g","1","65","60","70","","","","","","lextale","true","false","","","","","","","",""
"1113","
  <p style=""font-size: 40px;"">snirt</p>
  <p style=""font-size: 16px;"">J = YES &nbsp;&nbsp;&nbsp; F = NO</p>
","f","html-keyboard-response","33","2.1.0","31950","J=YES, F=NO","71rrb7d00g","1","65","60","70","","","","","","lextale","false","false","","","","","","","",""
"617","
  <p style=""font-size: 40px;"">bitter</p>
  <p style=""font-size: 16px;"">J = YES &nbsp;&nbsp;&nbsp; F = NO</p>
","j","html-keyboard-response","34","2.1.0","32568","J=YES, F=NO","71rrb7d00g","1","65","60","70","","","","","","lextale","true","false","","","","","","","",""
"576","
  <p style=""font-size: 40px;"">pliff</p>
  <p style=""font-size: 16px;"">J = YES &nbsp;&nbsp;&nbsp; F = NO</p>
","f","html-keyboard-response","35","2.1.0","33147","J=YES, F=NO","71rrb7d00g","1","65","60","70","","","","","","lextale","false","false","","","","","","","",""
"566","
  <p style=""font-size: 40px;"">tablet</p>
  <p style=""font-size: 16px;"">J = YES &nbsp;&nbsp;&nbsp; F = NO</p>
","j","html-keyboard-response","36","2.1.0","33715","J=YES, F=NO","71rrb7d00g","1","65","60","70","","","","","","lextale","true","false","","","","","","","",""
"841","
  <p style=""font-size: 40px;"">glimmer</p>
  <p style=""font-size: 16px;"">J = YES &nbsp;&nbsp;&nbsp; F = NO</p>
","j","html-keyboard-response","37","2.1.0","34557","J=YES, F=NO","71rrb7d00g","1","65","60","70","","","","","","lextale","true","false","","","","","","","",""
"1103","
  <p style=""font-size: 40px;"">slink</p>
  <p style=""font-size: 16px;"">J = YES &nbsp;&nbsp;&nbsp; F = NO</p>
","j","html-keyboard-response","38","2.1.0","35663","J=YES, F=NO","71rrb7d00g","1","65","60","70","","","","","","lextale","true","false","","","","","","","",""
"535","
  <p style=""font-size: 40px;"">clever</p>
  <p style=""font-size: 16px;"">J = YES &nbsp;&nbsp;&nbsp; F = NO</p>
","j","html-keyboard-response","39","2.1.0","36200","J=YES, F=NO","71rrb7d00g","1","65","60","70","","","","","","lextale","true","false","","","","","","","",""
"1053","
  <p style=""font-size: 40px;"">grum</p>
  <p style=""font-size: 16px;"">J = YES &nbsp;&nbsp;&nbsp; F = NO</p>
","f","html-keyboard-response","40","2.1.0","37256","J=YES, F=NO","71rrb7d00g","1","65","60","70","","","","","","lextale","false","false","","","","","","","",""
"536","
  <p style=""font-size: 40px;"">string</p>
  <p style=""font-size: 16px;"">J = YES &nbsp;&nbsp;&nbsp; F = NO</p>
","j","html-keyboard-response","41","2.1.0","37793","J=YES, F=NO","71rrb7d00g","1","65","60","70","","","","","","lextale","true","false","","","","","","","",""
"921","
  <p style=""font-size: 40px;"">plim</p>
  <p style=""font-size: 16px;"">J = YES &nbsp;&nbsp;&nbsp; F = NO</p>
","f","html-keyboard-response","42","2.1.0","38718","J=YES, F=NO","71rrb7d00g","1","65","60","70","","","","","","lextale","false","false","","","","","","","",""
"555","
  <p style=""font-size: 40px;"">cable</p>
  <p style=""font-size: 16px;"">J = YES &nbsp;&nbsp;&nbsp; F = NO</p>
","j","html-keyboard-response","43","2.1.0","39274","J=YES, F=NO","71rrb7d00g","1","65","60","70","","","","","","lextale","true","false","","","","","","","",""
"831","
  <p style=""font-size: 40px;"">shrivel</p>
  <p style=""font-size: 16px;"">J = YES &nbsp;&nbsp;&nbsp; F = NO</p>
","f","html-keyboard-response","44","2.1.0","40107","J=YES, F=NO","71rrb7d00g","1","65","60","70","","","","","","lextale","true","false","","","","","","","",""
"1043","
  <p style=""font-size: 40px;"">tarnish</p>
  <p style=""font-size: 16px;"">J = YES &nbsp;&nbsp;&nbsp; F = NO</p>
","j","html-keyboard-response","45","2.1.0","41152","J=YES, F=NO","71rrb7d00g","1","65","60","70","","","","","","lextale","true","false","","","","","","","",""
"647","
  <p style=""font-size: 40px;"">blim</p>
  <p style=""font-size: 16px;"">J = YES &nbsp;&nbsp;&nbsp; F = NO</p>
","f","html-keyboard-response","46","2.1.0","41801","J=YES, F=NO","71rrb7d00g","1","65","60","70","","","","","","lextale","false","false","","","","","","","",""
"740","
  <p style=""font-size: 40px;"">stifle</p>
  <p style=""font-size: 16px;"">J = YES &nbsp;&nbsp;&nbsp; F = NO</p>
","f","html-keyboard-response","47","2.1.0","42544","J=YES, F=NO","71rrb7d00g","1","65","60","70","","","","","","lextale","true","false","","","","","","","",""
"838","
  <p style=""font-size: 40px;"">bint</p>
  <p style=""font-size: 16px;"">J = YES &nbsp;&nbsp;&nbsp; F = NO</p>
","f","html-keyboard-response","48","2.1.0","43383","J=YES, F=NO","71rrb7d00g","1","65","60","70","","","","","","lextale","false","false","","","","","","","",""
"520","
  <p style=""font-size: 40px;"">purple</p>
  <p style=""font-size: 16px;"">J = YES &nbsp;&nbsp;&nbsp; F = NO</p>
","j","html-keyboard-response","49","2.1.0","43904","J=YES, F=NO","71rrb7d00g","1","65","60","70","","","","","","lextale","true","false","","","","","","","",""
"1529","
  <p style=""font-size: 40px;"">wriggle</p>
  <p style=""font-size: 16px;"">J = YES &nbsp;&nbsp;&nbsp; F = NO</p>
","j","html-keyboard-response","50","2.1.0","45436","J=YES, F=NO","71rrb7d00g","1","65","60","70","","","","","","lextale","true","false","","","","","","","",""
"780","
  <p style=""font-size: 40px;"">mangle</p>
  <p style=""font-size: 16px;"">J = YES &nbsp;&nbsp;&nbsp; F = NO</p>
","f","html-keyboard-response","51","2.1.0","46217","J=YES, F=NO","71rrb7d00g","1","65","60","70","","","","","","lextale","true","false","","","","","","","",""
"820","
  <p style=""font-size: 40px;"">shramp</p>
  <p style=""font-size: 16px;"">J = YES &nbsp;&nbsp;&nbsp; F = NO</p>
","j","html-keyboard-response","52","2.1.0","47040","J=YES, F=NO","71rrb7d00g","1","65","60","70","","","","","","lextale","false","false","","","","","","","",""
"688","
  <p style=""font-size: 40px;"">flirt</p>
  <p style=""font-size: 16px;"">J = YES &nbsp;&nbsp;&nbsp; F = NO</p>
","j","html-keyboard-response","53","2.1.0","47730","J=YES, F=NO","71rrb7d00g","1","65","60","70","","","","","","lextale","true","false","","","","","","","",""
"657","
  <p style=""font-size: 40px;"">frip</p>
  <p style=""font-size: 16px;"">J = YES &nbsp;&nbsp;&nbsp; F = NO</p>
","f","html-keyboard-response","54","2.1.0","48389","J=YES, F=NO","71rrb7d00g","1","65","60","70","","","","","","lextale","false","false","","","","","","","",""
"587","
  <p style=""font-size: 40px;"">tangle</p>
  <p style=""font-size: 16px;"">J = YES &nbsp;&nbsp;&nbsp; F = NO</p>
","j","html-keyboard-response","55","2.1.0","48978","J=YES, F=NO","71rrb7d00g","1","65","60","70","","","","","","lextale","true","false","","","","","","","",""
"729","
  <p style=""font-size: 40px;"">crumble</p>
  <p style=""font-size: 16px;"">J = YES &nbsp;&nbsp;&nbsp; F = NO</p>
","j","html-keyboard-response","56","2.1.0","49709","J=YES, F=NO","71rrb7d00g","1","65","60","70","","","","","","lextale","true","false","","","","","","","",""
"615","
  <p style=""font-size: 40px;"">wrinkle</p>
  <p style=""font-size: 16px;"">J = YES &nbsp;&nbsp;&nbsp; F = NO</p>
","j","html-keyboard-response","57","2.1.0","50327","J=YES, F=NO","71rrb7d00g","1","65","60","70","","","","","","lextale","true","false","","","","","","","",""
"1278","
  <p style=""font-size: 40px;"">slumb</p>
  <p style=""font-size: 16px;"">J = YES &nbsp;&nbsp;&nbsp; F = NO</p>
","j","html-keyboard-response","58","2.1.0","51608","J=YES, F=NO","71rrb7d00g","1","65","60","70","","","","","","lextale","false","false","","","","","","","",""
"555","
  <p style=""font-size: 40px;"">jungle</p>
  <p style=""font-size: 16px;"">J = YES &nbsp;&nbsp;&nbsp; F = NO</p>
","j","html-keyboard-response","59","2.1.0","52164","J=YES, F=NO","71rrb7d00g","1","65","60","70","","","","","","lextale","true","false","","","","","","","",""
"627","
  <p style=""font-size: 40px;"">frolick</p>
  <p style=""font-size: 16px;"">J = YES &nbsp;&nbsp;&nbsp; F = NO</p>
","f","html-keyboard-response","60","2.1.0","52792","J=YES, F=NO","71rrb7d00g","1","65","60","70","","","","","","lextale","false","false","","","","","","","",""
"1511","
      <h2>LexTALE Test Completed</h2>
      <p>Your LexTALE vocabulary score is: <strong>65%</strong></p>
      <p>Press any key to continue.</p>
    "," ","html-keyboard-response","61","2.1.0","54305","J=YES, F=NO","71rrb7d00g","1","65","60","70","","","","","","","","","","","","","","","",""
"1775","
    <div style=""max-width: 800px; margin: auto; text-align: left;"">
      <h2>Break Time</h2>
      <p>You have completed the first part of the study.</p>
      <p>You may take a short <strong>30-second break</strong> before continuing.</p>
      <p>When you’re ready, press any key to continue to the final task.</p>
    </div>
  ","j","html-keyboard-response","62","2.1.0","56081","J=YES, F=NO","71rrb7d00g","1","65","60","70","","","","","","","","","","","","","","","",""
"57765","
    <div style=""max-width: 800px; margin: auto; text-align: left;"">
      <h2>Part 2: Lexical Decision Task</h2>
      <p>You will now begin the second part of the study.</p>
      <p>Each trial will follow this sequence:</p>
      <ul>
        <li>A fixation cross (+) appears at the center of the screen.</li>
        <li>You will hear a short beep followed by a spoken word.</li>
        <li>A written word will appear briefly on the screen.</li>
      </ul>
      <p>Your task is to judge whether the <strong>written word</strong> is a real English word.</p>
      <p style=""margin-top: 1em;""><strong>Key responses:</strong></p>
      <ul>
        <li><strong>J</strong> = YES (real English word)</li>
        <li><strong>F</strong> = NO (not a real English word)</li>
      </ul>
      <p>Please respond as quickly and accurately as you can.</p>
      <p style=""margin-top: 2em;"">Press any key to continue.</p>
    </div>
  ","j","html-keyboard-response","63","2.1.0","113852","J=YES, F=NO","71rrb7d00g","1","65","60","70","","","","","","","","","","","","","","","",""
"2404","
    <div style=""max-width: 800px; margin: auto; text-align: left;"">
      <h2>Before You Begin</h2>
      <p>Make sure your sound is turned on.</p>
      <p>You will hear audio during each trial, but your decision should be based only on the <strong>written word</strong> you see on the screen.</p>
      <p><strong>Reminder:</strong></p>
      <ul>
        <li><strong>J</strong> = YES (real English word)</li>
        <li><strong>F</strong> = NO (not a real English word)</li>
      </ul>
      <p style=""margin-top: 2em;"">Press any key when you are ready to begin.</p>
    </div>
  "," ","html-keyboard-response","64","2.1.0","116263","J=YES, F=NO","71rrb7d00g","1","65","60","70","","","","","","","","","","","","","","","",""
"898","
    <div style=""max-width: 800px; margin: auto; text-align: left;"">
      <h2>Part 2: Practice Trials</h2>
      <p>You will now complete a few <strong>practice trials</strong> to get familiar with the task.</p>
      <p>These trials are <strong>not scored</strong> and are only to help you get used to the format.</p>
      <p style=""margin-top: 2em;"">Press any key to begin.</p>
    </div>
  "," ","html-keyboard-response","65","2.1.0","117165","J=YES, F=NO","71rrb7d00g","1","65","60","70","","","","","","","","","","","","","","","",""
"3641","<p>Starting practice block 1 of 2. Press any key to continue.</p>"," ","html-keyboard-response","66","2.1.0","120807","J=YES, F=NO","71rrb7d00g","1","65","60","70","","","","","","","","","","","","","","","",""
"null","<p style=""font-size: 50px;"">+</p>","null","html-keyboard-response","67","2.1.0","121123","J=YES, F=NO","71rrb7d00g","1","65","60","70","","","","","","","","","","","","","","","",""
"null","audio/beep-329314.mp3","null","audio-keyboard-response","68","2.1.0","122658","J=YES, F=NO","71rrb7d00g","1","65","60","70","","","","","","","","","","","","","","","",""
"null","audio/battle1.wav","null","audio-keyboard-response","69","2.1.0","123159","J=YES, F=NO","71rrb7d00g","1","65","60","70","","","","","","","","","","","","","","","",""
"740","
          <p id=""word"" style=""font-size: 40px;"">boil</p>
          <p style=""font-size: 16px;"">J = YES &nbsp;&nbsp;&nbsp; F = NO</p>
        ","f","html-keyboard-response","70","2.1.0","123902","J=YES, F=NO","71rrb7d00g","1","65","60","70","","","","","","","","","boil","battle1","filler","filler","j","false","",""
"null","<p style=""font-size: 50px;"">+</p>","null","html-keyboard-response","71","2.1.0","124213","J=YES, F=NO","71rrb7d00g","1","65","60","70","","","","","","","","","","","","","","","",""
"null","audio/beep-329314.mp3","null","audio-keyboard-response","72","2.1.0","125748","J=YES, F=NO","71rrb7d00g","1","65","60","70","","","","","","","","","","","","","","","",""
"null","audio/golf1.wav","null","audio-keyboard-response","73","2.1.0","126587","J=YES, F=NO","71rrb7d00g","1","65","60","70","","","","","","","","","","","","","","","",""
"781","
          <p id=""word"" style=""font-size: 40px;"">drabble</p>
          <p style=""font-size: 16px;"">J = YES &nbsp;&nbsp;&nbsp; F = NO</p>
        ","f","html-keyboard-response","74","2.1.0","127372","J=YES, F=NO","71rrb7d00g","1","65","60","70","","","","","","","","","drabble","golf1","pseudoword","pseudoword","f","true","",""
"null","<p style=""font-size: 50px;"">+</p>","null","html-keyboard-response","75","2.1.0","127680","J=YES, F=NO","71rrb7d00g","1","65","60","70","","","","","","","","","","","","","","","",""
"null","audio/beep-329314.mp3","null","audio-keyboard-response","76","2.1.0","129214","J=YES, F=NO","71rrb7d00g","1","65","60","70","","","","","","","","","","","","","","","",""
"null","audio/butter1.wav","null","audio-keyboard-response","77","2.1.0","129704","J=YES, F=NO","71rrb7d00g","1","65","60","70","","","","","","","","","","","","","","","",""
"535","
          <p id=""word"" style=""font-size: 40px;"">chew</p>
          <p style=""font-size: 16px;"">J = YES &nbsp;&nbsp;&nbsp; F = NO</p>
        ","f","html-keyboard-response","78","2.1.0","130242","J=YES, F=NO","71rrb7d00g","1","65","60","70","","","","","","","","","chew","butter1","filler","filler","j","false","",""
"null","<p style=""font-size: 50px;"">+</p>","null","html-keyboard-response","79","2.1.0","130557","J=YES, F=NO","71rrb7d00g","1","65","60","70","","","","","","","","","","","","","","","",""
"null","audio/beep-329314.mp3","null","audio-keyboard-response","80","2.1.0","132084","J=YES, F=NO","71rrb7d00g","1","65","60","70","","","","","","","","","","","","","","","",""
"null","audio/trout1.wav","null","audio-keyboard-response","81","2.1.0","132739","J=YES, F=NO","71rrb7d00g","1","65","60","70","","","","","","","","","","","","","","","",""
"595","
          <p id=""word"" style=""font-size: 40px;"">spimt</p>
          <p style=""font-size: 16px;"">J = YES &nbsp;&nbsp;&nbsp; F = NO</p>
        ","f","html-keyboard-response","82","2.1.0","133336","J=YES, F=NO","71rrb7d00g","1","65","60","70","","","","","","","","","spimt","trout1","pseudoword","pseudoword","f","true","",""
"null","<p style=""font-size: 50px;"">+</p>","null","html-keyboard-response","83","2.1.0","133647","J=YES, F=NO","71rrb7d00g","1","65","60","70","","","","","","","","","","","","","","","",""
"null","audio/beep-329314.mp3","null","audio-keyboard-response","84","2.1.0","135174","J=YES, F=NO","71rrb7d00g","1","65","60","70","","","","","","","","","","","","","","","",""
"null","audio/cancer1.wav","null","audio-keyboard-response","85","2.1.0","135724","J=YES, F=NO","71rrb7d00g","1","65","60","70","","","","","","","","","","","","","","","",""
"554","
          <p id=""word"" style=""font-size: 40px;"">draw</p>
          <p style=""font-size: 16px;"">J = YES &nbsp;&nbsp;&nbsp; F = NO</p>
        ","j","html-keyboard-response","86","2.1.0","136279","J=YES, F=NO","71rrb7d00g","1","65","60","70","","","","","","","","","draw","cancer1","filler","filler","j","true","",""
"null","<p style=""font-size: 50px;"">+</p>","null","html-keyboard-response","87","2.1.0","136589","J=YES, F=NO","71rrb7d00g","1","65","60","70","","","","","","","","","","","","","","","",""
"null","audio/beep-329314.mp3","null","audio-keyboard-response","88","2.1.0","138117","J=YES, F=NO","71rrb7d00g","1","65","60","70","","","","","","","","","","","","","","","",""
"null","audio/kettle1.wav","null","audio-keyboard-response","89","2.1.0","138617","J=YES, F=NO","71rrb7d00g","1","65","60","70","","","","","","","","","","","","","","","",""
"624","
          <p id=""word"" style=""font-size: 40px;"">wrap</p>
          <p style=""font-size: 16px;"">J = YES &nbsp;&nbsp;&nbsp; F = NO</p>
        ","j","html-keyboard-response","90","2.1.0","139244","J=YES, F=NO","71rrb7d00g","1","65","60","70","","","","","","","","","wrap","kettle1","filler","filler","j","true","",""
"null","<p style=""font-size: 50px;"">+</p>","null","html-keyboard-response","91","2.1.0","139553","J=YES, F=NO","71rrb7d00g","1","65","60","70","","","","","","","","","","","","","","","",""
"null","audio/beep-329314.mp3","null","audio-keyboard-response","92","2.1.0","141077","J=YES, F=NO","71rrb7d00g","1","65","60","70","","","","","","","","","","","","","","","",""
"null","audio/breath.wav","null","audio-keyboard-response","93","2.1.0","141629","J=YES, F=NO","71rrb7d00g","1","65","60","70","","","","","","","","","","","","","","","",""
"607","
          <p id=""word"" style=""font-size: 40px;"">pack</p>
          <p style=""font-size: 16px;"">J = YES &nbsp;&nbsp;&nbsp; F = NO</p>
        ","j","html-keyboard-response","94","2.1.0","142239","J=YES, F=NO","71rrb7d00g","1","65","60","70","","","","","","","","","pack","breath","filler","filler","j","true","",""
"null","<p style=""font-size: 50px;"">+</p>","null","html-keyboard-response","95","2.1.0","142551","J=YES, F=NO","71rrb7d00g","1","65","60","70","","","","","","","","","","","","","","","",""
"null","audio/beep-329314.mp3","null","audio-keyboard-response","96","2.1.0","144075","J=YES, F=NO","71rrb7d00g","1","65","60","70","","","","","","","","","","","","","","","",""
"null","audio/weight1.wav","null","audio-keyboard-response","97","2.1.0","144657","J=YES, F=NO","71rrb7d00g","1","65","60","70","","","","","","","","","","","","","","","",""
"724","
          <p id=""word"" style=""font-size: 40px;"">crimsh</p>
          <p style=""font-size: 16px;"">J = YES &nbsp;&nbsp;&nbsp; F = NO</p>
        ","f","html-keyboard-response","98","2.1.0","145383","J=YES, F=NO","71rrb7d00g","1","65","60","70","","","","","","","","","crimsh","weight1","pseudoword","pseudoword","f","true","",""
"null","<p style=""font-size: 50px;"">+</p>","null","html-keyboard-response","99","2.1.0","145685","J=YES, F=NO","71rrb7d00g","1","65","60","70","","","","","","","","","","","","","","","",""
"null","audio/beep-329314.mp3","null","audio-keyboard-response","100","2.1.0","147211","J=YES, F=NO","71rrb7d00g","1","65","60","70","","","","","","","","","","","","","","","",""
"null","audio/tomato.wav","null","audio-keyboard-response","101","2.1.0","147921","J=YES, F=NO","71rrb7d00g","1","65","60","70","","","","","","","","","","","","","","","",""
"1052","
          <p id=""word"" style=""font-size: 40px;"">gladies</p>
          <p style=""font-size: 16px;"">J = YES &nbsp;&nbsp;&nbsp; F = NO</p>
        ","f","html-keyboard-response","102","2.1.0","148973","J=YES, F=NO","71rrb7d00g","1","65","60","70","","","","","","","","","gladies","tomato","pseudoword","pseudoword","f","true","",""
"null","<p style=""font-size: 50px;"">+</p>","null","html-keyboard-response","103","2.1.0","149289","J=YES, F=NO","71rrb7d00g","1","65","60","70","","","","","","","","","","","","","","","",""
"null","audio/beep-329314.mp3","null","audio-keyboard-response","104","2.1.0","150828","J=YES, F=NO","71rrb7d00g","1","65","60","70","","","","","","","","","","","","","","","",""
"null","audio/relief.wav","null","audio-keyboard-response","105","2.1.0","151522","J=YES, F=NO","71rrb7d00g","1","65","60","70","","","","","","","","","","","","","","","",""
"637","
          <p id=""word"" style=""font-size: 40px;"">grigg</p>
          <p style=""font-size: 16px;"">J = YES &nbsp;&nbsp;&nbsp; F = NO</p>
        ","f","html-keyboard-response","106","2.1.0","152160","J=YES, F=NO","71rrb7d00g","1","65","60","70","","","","","","","","","grigg","relief","pseudoword","pseudoword","f","true","",""
"null","<p style=""font-size: 50px;"">+</p>","null","html-keyboard-response","107","2.1.0","152467","J=YES, F=NO","71rrb7d00g","1","65","60","70","","","","","","","","","","","","","","","",""
"null","audio/beep-329314.mp3","null","audio-keyboard-response","108","2.1.0","153976","J=YES, F=NO","71rrb7d00g","1","65","60","70","","","","","","","","","","","","","","","",""
"null","audio/budget1.wav","null","audio-keyboard-response","109","2.1.0","154636","J=YES, F=NO","71rrb7d00g","1","65","60","70","","","","","","","","","","","","","","","",""
"594","
          <p id=""word"" style=""font-size: 40px;"">sulist</p>
          <p style=""font-size: 16px;"">J = YES &nbsp;&nbsp;&nbsp; F = NO</p>
        ","f","html-keyboard-response","110","2.1.0","155234","J=YES, F=NO","71rrb7d00g","1","65","60","70","","","","","","","","","sulist","budget1","pseudoword","pseudoword","f","true","",""
"null","<p style=""font-size: 50px;"">+</p>","null","html-keyboard-response","111","2.1.0","155543","J=YES, F=NO","71rrb7d00g","1","65","60","70","","","","","","","","","","","","","","","",""
"null","audio/beep-329314.mp3","null","audio-keyboard-response","112","2.1.0","157077","J=YES, F=NO","71rrb7d00g","1","65","60","70","","","","","","","","","","","","","","","",""
"null","audio/brain.wav","null","audio-keyboard-response","113","2.1.0","157596","J=YES, F=NO","71rrb7d00g","1","65","60","70","","","","","","","","","","","","","","","",""
"618","
          <p id=""word"" style=""font-size: 40px;"">throw</p>
          <p style=""font-size: 16px;"">J = YES &nbsp;&nbsp;&nbsp; F = NO</p>
        ","j","html-keyboard-response","114","2.1.0","158217","J=YES, F=NO","71rrb7d00g","1","65","60","70","","","","","","","","","throw","brain","filler","filler","j","true","",""
"1043","<p>Starting practice block 2 of 2. Press any key to continue.</p>"," ","html-keyboard-response","115","2.1.0","159260","J=YES, F=NO","71rrb7d00g","1","65","60","70","","","","","","","","","","","","","","","",""
"null","<p style=""font-size: 50px;"">+</p>","null","html-keyboard-response","116","2.1.0","159563","J=YES, F=NO","71rrb7d00g","1","65","60","70","","","","","","","","","","","","","","","",""
"null","audio/beep-329314.mp3","null","audio-keyboard-response","117","2.1.0","161105","J=YES, F=NO","71rrb7d00g","1","65","60","70","","","","","","","","","","","","","","","",""
"null","audio/van1.wav","null","audio-keyboard-response","118","2.1.0","161581","J=YES, F=NO","71rrb7d00g","1","65","60","70","","","","","","","","","","","","","","","",""
"639","
          <p id=""word"" style=""font-size: 40px;"">push</p>
          <p style=""font-size: 16px;"">J = YES &nbsp;&nbsp;&nbsp; F = NO</p>
        ","j","html-keyboard-response","119","2.1.0","162222","J=YES, F=NO","71rrb7d00g","1","65","60","70","","","","","","","","","push","van1","filler","filler","j","true","",""
"null","<p style=""font-size: 50px;"">+</p>","null","html-keyboard-response","120","2.1.0","162531","J=YES, F=NO","71rrb7d00g","1","65","60","70","","","","","","","","","","","","","","","",""
"null","audio/beep-329314.mp3","null","audio-keyboard-response","121","2.1.0","164063","J=YES, F=NO","71rrb7d00g","1","65","60","70","","","","","","","","","","","","","","","",""
"null","audio/purpose.wav","null","audio-keyboard-response","122","2.1.0","164726","J=YES, F=NO","71rrb7d00g","1","65","60","70","","","","","","","","","","","","","","","",""
"567","
          <p id=""word"" style=""font-size: 40px;"">whigm</p>
          <p style=""font-size: 16px;"">J = YES &nbsp;&nbsp;&nbsp; F = NO</p>
        ","f","html-keyboard-response","123","2.1.0","165295","J=YES, F=NO","71rrb7d00g","1","65","60","70","","","","","","","","","whigm","purpose","pseudoword","pseudoword","f","true","",""
"null","<p style=""font-size: 50px;"">+</p>","null","html-keyboard-response","124","2.1.0","165597","J=YES, F=NO","71rrb7d00g","1","65","60","70","","","","","","","","","","","","","","","",""
"null","audio/beep-329314.mp3","null","audio-keyboard-response","125","2.1.0","167136","J=YES, F=NO","71rrb7d00g","1","65","60","70","","","","","","","","","","","","","","","",""
"null","audio/tax1.wav","null","audio-keyboard-response","126","2.1.0","167763","J=YES, F=NO","71rrb7d00g","1","65","60","70","","","","","","","","","","","","","","","",""
"807","
          <p id=""word"" style=""font-size: 40px;"">snate</p>
          <p style=""font-size: 16px;"">J = YES &nbsp;&nbsp;&nbsp; F = NO</p>
        ","f","html-keyboard-response","127","2.1.0","168571","J=YES, F=NO","71rrb7d00g","1","65","60","70","","","","","","","","","snate","tax1","pseudoword","pseudoword","f","true","",""
"null","<p style=""font-size: 50px;"">+</p>","null","html-keyboard-response","128","2.1.0","168879","J=YES, F=NO","71rrb7d00g","1","65","60","70","","","","","","","","","","","","","","","",""
"null","audio/beep-329314.mp3","null","audio-keyboard-response","129","2.1.0","170415","J=YES, F=NO","71rrb7d00g","1","65","60","70","","","","","","","","","","","","","","","",""
"null","audio/arm.wav","null","audio-keyboard-response","130","2.1.0","170949","J=YES, F=NO","71rrb7d00g","1","65","60","70","","","","","","","","","","","","","","","",""
"592","
          <p id=""word"" style=""font-size: 40px;"">fold</p>
          <p style=""font-size: 16px;"">J = YES &nbsp;&nbsp;&nbsp; F = NO</p>
        ","j","html-keyboard-response","131","2.1.0","171544","J=YES, F=NO","71rrb7d00g","1","65","60","70","","","","","","","","","fold","arm","filler","filler","j","true","",""
"null","<p style=""font-size: 50px;"">+</p>","null","html-keyboard-response","132","2.1.0","171850","J=YES, F=NO","71rrb7d00g","1","65","60","70","","","","","","","","","","","","","","","",""
"null","audio/beep-329314.mp3","null","audio-keyboard-response","133","2.1.0","173389","J=YES, F=NO","71rrb7d00g","1","65","60","70","","","","","","","","","","","","","","","",""
"null","audio/belief.wav","null","audio-keyboard-response","134","2.1.0","174031","J=YES, F=NO","71rrb7d00g","1","65","60","70","","","","","","","","","","","","","","","",""
"513","
          <p id=""word"" style=""font-size: 40px;"">read</p>
          <p style=""font-size: 16px;"">J = YES &nbsp;&nbsp;&nbsp; F = NO</p>
        ","j","html-keyboard-response","135","2.1.0","174545","J=YES, F=NO","71rrb7d00g","1","65","60","70","","","","","","","","","read","belief","filler","filler","j","true","",""
"null","<p style=""font-size: 50px;"">+</p>","null","html-keyboard-response","136","2.1.0","174848","J=YES, F=NO","71rrb7d00g","1","65","60","70","","","","","","","","","","","","","","","",""
"null","audio/beep-329314.mp3","null","audio-keyboard-response","137","2.1.0","176382","J=YES, F=NO","71rrb7d00g","1","65","60","70","","","","","","","","","","","","","","","",""
"null","audio/mouth1.wav","null","audio-keyboard-response","138","2.1.0","176949","J=YES, F=NO","71rrb7d00g","1","65","60","70","","","","","","","","","","","","","","","",""
"669","
          <p id=""word"" style=""font-size: 40px;"">spolial</p>
          <p style=""font-size: 16px;"">J = YES &nbsp;&nbsp;&nbsp; F = NO</p>
        ","f","html-keyboard-response","139","2.1.0","177619","J=YES, F=NO","71rrb7d00g","1","65","60","70","","","","","","","","","spolial","mouth1","pseudoword","pseudoword","f","true","",""
"null","<p style=""font-size: 50px;"">+</p>","null","html-keyboard-response","140","2.1.0","177922","J=YES, F=NO","71rrb7d00g","1","65","60","70","","","","","","","","","","","","","","","",""
"null","audio/beep-329314.mp3","null","audio-keyboard-response","141","2.1.0","179459","J=YES, F=NO","71rrb7d00g","1","65","60","70","","","","","","","","","","","","","","","",""
"null","audio/terrain.wav","null","audio-keyboard-response","142","2.1.0","180089","J=YES, F=NO","71rrb7d00g","1","65","60","70","","","","","","","","","","","","","","","",""
"552","
          <p id=""word"" style=""font-size: 40px;"">twist</p>
          <p style=""font-size: 16px;"">J = YES &nbsp;&nbsp;&nbsp; F = NO</p>
        ","j","html-keyboard-response","143","2.1.0","180642","J=YES, F=NO","71rrb7d00g","1","65","60","70","","","","","","","","","twist","terrain","filler","filler","j","true","",""
"null","<p style=""font-size: 50px;"">+</p>","null","html-keyboard-response","144","2.1.0","180957","J=YES, F=NO","71rrb7d00g","1","65","60","70","","","","","","","","","","","","","","","",""
"null","audio/beep-329314.mp3","null","audio-keyboard-response","145","2.1.0","182477","J=YES, F=NO","71rrb7d00g","1","65","60","70","","","","","","","","","","","","","","","",""
"null","audio/empire.wav","null","audio-keyboard-response","146","2.1.0","183093","J=YES, F=NO","71rrb7d00g","1","65","60","70","","","","","","","","","","","","","","","",""
"550","
          <p id=""word"" style=""font-size: 40px;"">slorby</p>
          <p style=""font-size: 16px;"">J = YES &nbsp;&nbsp;&nbsp; F = NO</p>
        ","f","html-keyboard-response","147","2.1.0","183644","J=YES, F=NO","71rrb7d00g","1","65","60","70","","","","","","","","","slorby","empire","pseudoword","pseudoword","f","true","",""
"null","<p style=""font-size: 50px;"">+</p>","null","html-keyboard-response","148","2.1.0","183951","J=YES, F=NO","71rrb7d00g","1","65","60","70","","","","","","","","","","","","","","","",""
"null","audio/beep-329314.mp3","null","audio-keyboard-response","149","2.1.0","185495","J=YES, F=NO","71rrb7d00g","1","65","60","70","","","","","","","","","","","","","","","",""
"null","audio/window1.wav","null","audio-keyboard-response","150","2.1.0","186095","J=YES, F=NO","71rrb7d00g","1","65","60","70","","","","","","","","","","","","","","","",""
"589","
          <p id=""word"" style=""font-size: 40px;"">toss</p>
          <p style=""font-size: 16px;"">J = YES &nbsp;&nbsp;&nbsp; F = NO</p>
        ","f","html-keyboard-response","151","2.1.0","186686","J=YES, F=NO","71rrb7d00g","1","65","60","70","","","","","","","","","toss","window1","filler","filler","j","false","",""
"null","<p style=""font-size: 50px;"">+</p>","null","html-keyboard-response","152","2.1.0","186990","J=YES, F=NO","71rrb7d00g","1","65","60","70","","","","","","","","","","","","","","","",""
"null","audio/beep-329314.mp3","null","audio-keyboard-response","153","2.1.0","188514","J=YES, F=NO","71rrb7d00g","1","65","60","70","","","","","","","","","","","","","","","",""
"null","audio/key1.wav","null","audio-keyboard-response","154","2.1.0","188950","J=YES, F=NO","71rrb7d00g","1","65","60","70","","","","","","","","","","","","","","","",""
"596","
          <p id=""word"" style=""font-size: 40px;"">sminsh</p>
          <p style=""font-size: 16px;"">J = YES &nbsp;&nbsp;&nbsp; F = NO</p>
        ","f","html-keyboard-response","155","2.1.0","189548","J=YES, F=NO","71rrb7d00g","1","65","60","70","","","","","","","","","sminsh","key1","pseudoword","pseudoword","f","true","",""
"null","<p style=""font-size: 50px;"">+</p>","null","html-keyboard-response","156","2.1.0","189853","J=YES, F=NO","71rrb7d00g","1","65","60","70","","","","","","","","","","","","","","","",""
"null","audio/beep-329314.mp3","null","audio-keyboard-response","157","2.1.0","191377","J=YES, F=NO","71rrb7d00g","1","65","60","70","","","","","","","","","","","","","","","",""
"null","audio/corpse1.wav","null","audio-keyboard-response","158","2.1.0","192004","J=YES, F=NO","71rrb7d00g","1","65","60","70","","","","","","","","","","","","","","","",""
"565","
          <p id=""word"" style=""font-size: 40px;"">glonet</p>
          <p style=""font-size: 16px;"">J = YES &nbsp;&nbsp;&nbsp; F = NO</p>
        ","f","html-keyboard-response","159","2.1.0","192571","J=YES, F=NO","71rrb7d00g","1","65","60","70","","","","","","","","","glonet","corpse1","pseudoword","pseudoword","f","true","",""
"null","<p style=""font-size: 50px;"">+</p>","null","html-keyboard-response","160","2.1.0","192884","J=YES, F=NO","71rrb7d00g","1","65","60","70","","","","","","","","","","","","","","","",""
"null","audio/beep-329314.mp3","null","audio-keyboard-response","161","2.1.0","194413","J=YES, F=NO","71rrb7d00g","1","65","60","70","","","","","","","","","","","","","","","",""
"null","audio/menu.wav","null","audio-keyboard-response","162","2.1.0","194977","J=YES, F=NO","71rrb7d00g","1","65","60","70","","","","","","","","","","","","","","","",""
"810","
          <p id=""word"" style=""font-size: 40px;"">slice</p>
          <p style=""font-size: 16px;"">J = YES &nbsp;&nbsp;&nbsp; F = NO</p>
        ","j","html-keyboard-response","163","2.1.0","195790","J=YES, F=NO","71rrb7d00g","1","65","60","70","","","","","","","","","slice","menu","filler","filler","j","true","",""
"3104","
    <div style=""max-width: 800px; margin: auto; text-align: left;"">
      <h2>Part 2: Main Trials</h2>
      <p>Great job on the practice trials!</p>
      <p>You will now begin the <strong>main set of trials</strong>.</p>
      <p>Remember your key assignments:</p>
      <ul>
        <li><strong>J</strong> = YES (real English word)</li>
        <li><strong>F</strong> = NO (not a real English word)</li>
      </ul>
      <p>Try to respond as <strong>quickly and accurately</strong> as possible.</p>
      <p style=""margin-top: 2em;"">Press any key to begin the main trials.</p>
    </div>
  "," ","html-keyboard-response","164","2.1.0","198897","J=YES, F=NO","71rrb7d00g","1","65","60","70","","","","","","","","","","","","","","","",""
"829","<p>Starting main block 1 of 8. Press any key to continue.</p>"," ","html-keyboard-response","165","2.1.0","199729","J=YES, F=NO","71rrb7d00g","1","65","60","70","","","","","","","","","","","","","","","",""
"null","<p style=""font-size: 50px;"">+</p>","null","html-keyboard-response","166","2.1.0","200038","J=YES, F=NO","71rrb7d00g","1","65","60","70","","","","","","","","","","","","","","","",""
"null","audio/beep-329314.mp3","null","audio-keyboard-response","167","2.1.0","201587","J=YES, F=NO","71rrb7d00g","1","65","60","70","","","","","","","","","","","","","","","",""
"null","audio/alarm1.wav","null","audio-keyboard-response","168","2.1.0","202152","J=YES, F=NO","71rrb7d00g","1","65","60","70","","","","","","","","","","","","","","","",""
"527","
          <p id=""word"" style=""font-size: 40px;"">lock</p>
          <p style=""font-size: 16px;"">J = YES &nbsp;&nbsp;&nbsp; F = NO</p>
        ","j","html-keyboard-response","169","2.1.0","202681","J=YES, F=NO","71rrb7d00g","1","65","60","70","","","","","","","","","lock","alarm1","filler","filler","j","true","",""
"null","<p style=""font-size: 50px;"">+</p>","null","html-keyboard-response","170","2.1.0","202991","J=YES, F=NO","71rrb7d00g","1","65","60","70","","","","","","","","","","","","","","","",""
"null","audio/beep-329314.mp3","null","audio-keyboard-response","171","2.1.0","204522","J=YES, F=NO","71rrb7d00g","1","65","60","70","","","","","","","","","","","","","","","",""
"null","audio/life1.wav","null","audio-keyboard-response","172","2.1.0","205047","J=YES, F=NO","71rrb7d00g","1","65","60","70","","","","","","","","","","","","","","","",""
"728","
          <p id=""word"" style=""font-size: 40px;"">flimch</p>
          <p style=""font-size: 16px;"">J = YES &nbsp;&nbsp;&nbsp; F = NO</p>
        ","f","html-keyboard-response","173","2.1.0","205775","J=YES, F=NO","71rrb7d00g","1","65","60","70","","","","","","","","","flimch","life1","pseudoword","pseudoword","f","true","",""
"null","<p style=""font-size: 50px;"">+</p>","null","html-keyboard-response","174","2.1.0","206092","J=YES, F=NO","71rrb7d00g","1","65","60","70","","","","","","","","","","","","","","","",""
"null","audio/beep-329314.mp3","null","audio-keyboard-response","175","2.1.0","207626","J=YES, F=NO","71rrb7d00g","1","65","60","70","","","","","","","","","","","","","","","",""
"null","audio/table1.wav","null","audio-keyboard-response","176","2.1.0","208114","J=YES, F=NO","71rrb7d00g","1","65","60","70","","","","","","","","","","","","","","","",""
"520","
          <p id=""word"" style=""font-size: 40px;"">clear</p>
          <p style=""font-size: 16px;"">J = YES &nbsp;&nbsp;&nbsp; F = NO</p>
        ","j","html-keyboard-response","177","2.1.0","208637","J=YES, F=NO","71rrb7d00g","1","65","60","70","","","","","","","","","clear","table1","literal","experimental","j","true","",""
"null","<p style=""font-size: 50px;"">+</p>","null","html-keyboard-response","178","2.1.0","208949","J=YES, F=NO","71rrb7d00g","1","65","60","70","","","","","","","","","","","","","","","",""
"null","audio/beep-329314.mp3","null","audio-keyboard-response","179","2.1.0","210472","J=YES, F=NO","71rrb7d00g","1","65","60","70","","","","","","","","","","","","","","","",""
"null","audio/gossip1.wav","null","audio-keyboard-response","180","2.1.0","211088","J=YES, F=NO","71rrb7d00g","1","65","60","70","","","","","","","","","","","","","","","",""
"884","
          <p id=""word"" style=""font-size: 40px;"">camerish</p>
          <p style=""font-size: 16px;"">J = YES &nbsp;&nbsp;&nbsp; F = NO</p>
        ","f","html-keyboard-response","181","2.1.0","211975","J=YES, F=NO","71rrb7d00g","1","65","60","70","","","","","","","","","camerish","gossip1","pseudoword","pseudoword","f","true","",""
"null","<p style=""font-size: 50px;"">+</p>","null","html-keyboard-response","182","2.1.0","212278","J=YES, F=NO","71rrb7d00g","1","65","60","70","","","","","","","","","","","","","","","",""
"null","audio/beep-329314.mp3","null","audio-keyboard-response","183","2.1.0","213806","J=YES, F=NO","71rrb7d00g","1","65","60","70","","","","","","","","","","","","","","","",""
"null","audio/ankle1.wav","null","audio-keyboard-response","184","2.1.0","214333","J=YES, F=NO","71rrb7d00g","1","65","60","70","","","","","","","","","","","","","","","",""
"653","
          <p id=""word"" style=""font-size: 40px;"">kick</p>
          <p style=""font-size: 16px;"">J = YES &nbsp;&nbsp;&nbsp; F = NO</p>
        ","j","html-keyboard-response","185","2.1.0","214988","J=YES, F=NO","71rrb7d00g","1","65","60","70","","","","","","","","","kick","ankle1","filler","filler","j","true","",""
"null","<p style=""font-size: 50px;"">+</p>","null","html-keyboard-response","186","2.1.0","215290","J=YES, F=NO","71rrb7d00g","1","65","60","70","","","","","","","","","","","","","","","",""
"null","audio/beep-329314.mp3","null","audio-keyboard-response","187","2.1.0","216828","J=YES, F=NO","71rrb7d00g","1","65","60","70","","","","","","","","","","","","","","","",""
"null","audio/breath.wav","null","audio-keyboard-response","188","2.1.0","217384","J=YES, F=NO","71rrb7d00g","1","65","60","70","","","","","","","","","","","","","","","",""
"765","
          <p id=""word"" style=""font-size: 40px;"">twets</p>
          <p style=""font-size: 16px;"">J = YES &nbsp;&nbsp;&nbsp; F = NO</p>
        ","f","html-keyboard-response","189","2.1.0","218150","J=YES, F=NO","71rrb7d00g","1","65","60","70","","","","","","","","","twets","breath","pseudoword","pseudoword","f","true","",""
"null","<p style=""font-size: 50px;"">+</p>","null","html-keyboard-response","190","2.1.0","218459","J=YES, F=NO","71rrb7d00g","1","65","60","70","","","","","","","","","","","","","","","",""
"null","audio/beep-329314.mp3","null","audio-keyboard-response","191","2.1.0","220015","J=YES, F=NO","71rrb7d00g","1","65","60","70","","","","","","","","","","","","","","","",""
"null","audio/bomb1.wav","null","audio-keyboard-response","192","2.1.0","220389","J=YES, F=NO","71rrb7d00g","1","65","60","70","","","","","","","","","","","","","","","",""
"550","
          <p id=""word"" style=""font-size: 40px;"">clean</p>
          <p style=""font-size: 16px;"">J = YES &nbsp;&nbsp;&nbsp; F = NO</p>
        ","j","html-keyboard-response","193","2.1.0","220941","J=YES, F=NO","71rrb7d00g","1","65","60","70","","","","","","","","","clean","bomb1","filler","filler","j","true","",""
"null","<p style=""font-size: 50px;"">+</p>","null","html-keyboard-response","194","2.1.0","221250","J=YES, F=NO","71rrb7d00g","1","65","60","70","","","","","","","","","","","","","","","",""
"null","audio/beep-329314.mp3","null","audio-keyboard-response","195","2.1.0","222769","J=YES, F=NO","71rrb7d00g","1","65","60","70","","","","","","","","","","","","","","","",""
"null","audio/birth1.wav","null","audio-keyboard-response","196","2.1.0","223292","J=YES, F=NO","71rrb7d00g","1","65","60","70","","","","","","","","","","","","","","","",""
"607","
          <p id=""word"" style=""font-size: 40px;"">drop</p>
          <p style=""font-size: 16px;"">J = YES &nbsp;&nbsp;&nbsp; F = NO</p>
        ","j","html-keyboard-response","197","2.1.0","223902","J=YES, F=NO","71rrb7d00g","1","65","60","70","","","","","","","","","drop","birth1","unrelated","experimental","j","true","",""
"null","<p style=""font-size: 50px;"">+</p>","null","html-keyboard-response","198","2.1.0","224217","J=YES, F=NO","71rrb7d00g","1","65","60","70","","","","","","","","","","","","","","","",""
"null","audio/beep-329314.mp3","null","audio-keyboard-response","199","2.1.0","225762","J=YES, F=NO","71rrb7d00g","1","65","60","70","","","","","","","","","","","","","","","",""
"null","audio/mood1.wav","null","audio-keyboard-response","200","2.1.0","226225","J=YES, F=NO","71rrb7d00g","1","65","60","70","","","","","","","","","","","","","","","",""
"577","
          <p id=""word"" style=""font-size: 40px;"">give</p>
          <p style=""font-size: 16px;"">J = YES &nbsp;&nbsp;&nbsp; F = NO</p>
        ","j","html-keyboard-response","201","2.1.0","226805","J=YES, F=NO","71rrb7d00g","1","65","60","70","","","","","","","","","give","mood1","unrelated","experimental","j","true","",""
"null","<p style=""font-size: 50px;"">+</p>","null","html-keyboard-response","202","2.1.0","227120","J=YES, F=NO","71rrb7d00g","1","65","60","70","","","","","","","","","","","","","","","",""
"null","audio/beep-329314.mp3","null","audio-keyboard-response","203","2.1.0","228653","J=YES, F=NO","71rrb7d00g","1","65","60","70","","","","","","","","","","","","","","","",""
"null","audio/hawk1.wav","null","audio-keyboard-response","204","2.1.0","229229","J=YES, F=NO","71rrb7d00g","1","65","60","70","","","","","","","","","","","","","","","",""
"762","
          <p id=""word"" style=""font-size: 40px;"">wipe</p>
          <p style=""font-size: 16px;"">J = YES &nbsp;&nbsp;&nbsp; F = NO</p>
        ","j","html-keyboard-response","205","2.1.0","229992","J=YES, F=NO","71rrb7d00g","1","65","60","70","","","","","","","","","wipe","hawk1","unrelated","experimental","j","true","",""
"null","<p style=""font-size: 50px;"">+</p>","null","html-keyboard-response","206","2.1.0","230297","J=YES, F=NO","71rrb7d00g","1","65","60","70","","","","","","","","","","","","","","","",""
"null","audio/beep-329314.mp3","null","audio-keyboard-response","207","2.1.0","231838","J=YES, F=NO","71rrb7d00g","1","65","60","70","","","","","","","","","","","","","","","",""
"null","audio/noise1.wav","null","audio-keyboard-response","208","2.1.0","232434","J=YES, F=NO","71rrb7d00g","1","65","60","70","","","","","","","","","","","","","","","",""
"700","
          <p id=""word"" style=""font-size: 40px;"">slintered</p>
          <p style=""font-size: 16px;"">J = YES &nbsp;&nbsp;&nbsp; F = NO</p>
        ","f","html-keyboard-response","209","2.1.0","233136","J=YES, F=NO","71rrb7d00g","1","65","60","70","","","","","","","","","slintered","noise1","pseudoword","pseudoword","f","true","",""
"null","<p style=""font-size: 50px;"">+</p>","null","html-keyboard-response","210","2.1.0","233443","J=YES, F=NO","71rrb7d00g","1","65","60","70","","","","","","","","","","","","","","","",""
"null","audio/beep-329314.mp3","null","audio-keyboard-response","211","2.1.0","234989","J=YES, F=NO","71rrb7d00g","1","65","60","70","","","","","","","","","","","","","","","",""
"null","audio/fence.wav","null","audio-keyboard-response","212","2.1.0","235638","J=YES, F=NO","71rrb7d00g","1","65","60","70","","","","","","","","","","","","","","","",""
"660","
          <p id=""word"" style=""font-size: 40px;"">trim</p>
          <p style=""font-size: 16px;"">J = YES &nbsp;&nbsp;&nbsp; F = NO</p>
        ","j","html-keyboard-response","213","2.1.0","236301","J=YES, F=NO","71rrb7d00g","1","65","60","70","","","","","","","","","trim","fence","filler","filler","j","true","",""
"null","<p style=""font-size: 50px;"">+</p>","null","html-keyboard-response","214","2.1.0","236613","J=YES, F=NO","71rrb7d00g","1","65","60","70","","","","","","","","","","","","","","","",""
"null","audio/beep-329314.mp3","null","audio-keyboard-response","215","2.1.0","238140","J=YES, F=NO","71rrb7d00g","1","65","60","70","","","","","","","","","","","","","","","",""
"null","audio/dome.wav","null","audio-keyboard-response","216","2.1.0","238565","J=YES, F=NO","71rrb7d00g","1","65","60","70","","","","","","","","","","","","","","","",""
"675","
          <p id=""word"" style=""font-size: 40px;"">scrupliness</p>
          <p style=""font-size: 16px;"">J = YES &nbsp;&nbsp;&nbsp; F = NO</p>
        ","f","html-keyboard-response","217","2.1.0","239243","J=YES, F=NO","71rrb7d00g","1","65","60","70","","","","","","","","","scrupliness","dome","pseudoword","pseudoword","f","true","",""
"null","<p style=""font-size: 50px;"">+</p>","null","html-keyboard-response","218","2.1.0","239560","J=YES, F=NO","71rrb7d00g","1","65","60","70","","","","","","","","","","","","","","","",""
"null","audio/beep-329314.mp3","null","audio-keyboard-response","219","2.1.0","241099","J=YES, F=NO","71rrb7d00g","1","65","60","70","","","","","","","","","","","","","","","",""
"null","audio/pine.wav","null","audio-keyboard-response","220","2.1.0","241585","J=YES, F=NO","71rrb7d00g","1","65","60","70","","","","","","","","","","","","","","","",""
"699","
          <p id=""word"" style=""font-size: 40px;"">crebble</p>
          <p style=""font-size: 16px;"">J = YES &nbsp;&nbsp;&nbsp; F = NO</p>
        ","f","html-keyboard-response","221","2.1.0","242286","J=YES, F=NO","71rrb7d00g","1","65","60","70","","","","","","","","","crebble","pine","pseudoword","pseudoword","f","true","",""
"null","<p style=""font-size: 50px;"">+</p>","null","html-keyboard-response","222","2.1.0","242602","J=YES, F=NO","71rrb7d00g","1","65","60","70","","","","","","","","","","","","","","","",""
"null","audio/beep-329314.mp3","null","audio-keyboard-response","223","2.1.0","244136","J=YES, F=NO","71rrb7d00g","1","65","60","70","","","","","","","","","","","","","","","",""
"null","audio/cinema1.wav","null","audio-keyboard-response","224","2.1.0","244736","J=YES, F=NO","71rrb7d00g","1","65","60","70","","","","","","","","","","","","","","","",""
"682","
          <p id=""word"" style=""font-size: 40px;"">murple</p>
          <p style=""font-size: 16px;"">J = YES &nbsp;&nbsp;&nbsp; F = NO</p>
        ","f","html-keyboard-response","225","2.1.0","245420","J=YES, F=NO","71rrb7d00g","1","65","60","70","","","","","","","","","murple","cinema1","pseudoword","pseudoword","f","true","",""
"null","<p style=""font-size: 50px;"">+</p>","null","html-keyboard-response","226","2.1.0","245730","J=YES, F=NO","71rrb7d00g","1","65","60","70","","","","","","","","","","","","","","","",""
"null","audio/beep-329314.mp3","null","audio-keyboard-response","227","2.1.0","247257","J=YES, F=NO","71rrb7d00g","1","65","60","70","","","","","","","","","","","","","","","",""
"null","audio/plot1.wav","null","audio-keyboard-response","228","2.1.0","247770","J=YES, F=NO","71rrb7d00g","1","65","60","70","","","","","","","","","","","","","","","",""
"599","
          <p id=""word"" style=""font-size: 40px;"">glenter</p>
          <p style=""font-size: 16px;"">J = YES &nbsp;&nbsp;&nbsp; F = NO</p>
        ","f","html-keyboard-response","229","2.1.0","248372","J=YES, F=NO","71rrb7d00g","1","65","60","70","","","","","","","","","glenter","plot1","pseudoword","pseudoword","f","true","",""
"2068","<p>Excellent! You have finished block 1 of 8.</p>
                     <p>Feel free to take a 30 second break.</p>
                     <p>Press any key when you're ready to continue.</p>"," ","html-keyboard-response","230","2.1.0","250441","J=YES, F=NO","71rrb7d00g","1","65","60","70","","","","","","","","","","","","","","","",""
"881","<p>Starting main block 2 of 8. Press any key to continue.</p>"," ","html-keyboard-response","231","2.1.0","251323","J=YES, F=NO","71rrb7d00g","1","65","60","70","","","","","","","","","","","","","","","",""
"null","<p style=""font-size: 50px;"">+</p>","null","html-keyboard-response","232","2.1.0","251639","J=YES, F=NO","71rrb7d00g","1","65","60","70","","","","","","","","","","","","","","","",""
"null","audio/beep-329314.mp3","null","audio-keyboard-response","233","2.1.0","253166","J=YES, F=NO","71rrb7d00g","1","65","60","70","","","","","","","","","","","","","","","",""
"null","audio/trust.wav","null","audio-keyboard-response","234","2.1.0","253783","J=YES, F=NO","71rrb7d00g","1","65","60","70","","","","","","","","","","","","","","","",""
"644","
          <p id=""word"" style=""font-size: 40px;"">swint</p>
          <p style=""font-size: 16px;"">J = YES &nbsp;&nbsp;&nbsp; F = NO</p>
        ","f","html-keyboard-response","235","2.1.0","254429","J=YES, F=NO","71rrb7d00g","1","65","60","70","","","","","","","","","swint","trust","pseudoword","pseudoword","f","true","",""
"null","<p style=""font-size: 50px;"">+</p>","null","html-keyboard-response","236","2.1.0","254742","J=YES, F=NO","71rrb7d00g","1","65","60","70","","","","","","","","","","","","","","","",""
"null","audio/beep-329314.mp3","null","audio-keyboard-response","237","2.1.0","256285","J=YES, F=NO","71rrb7d00g","1","65","60","70","","","","","","","","","","","","","","","",""
"null","audio/survey1.wav","null","audio-keyboard-response","238","2.1.0","257006","J=YES, F=NO","71rrb7d00g","1","65","60","70","","","","","","","","","","","","","","","",""
"738","
          <p id=""word"" style=""font-size: 40px;"">release</p>
          <p style=""font-size: 16px;"">J = YES &nbsp;&nbsp;&nbsp; F = NO</p>
        ","j","html-keyboard-response","239","2.1.0","257744","J=YES, F=NO","71rrb7d00g","1","65","60","70","","","","","","","","","release","survey1","metaphor","experimental","j","true","",""
"null","<p style=""font-size: 50px;"">+</p>","null","html-keyboard-response","240","2.1.0","258050","J=YES, F=NO","71rrb7d00g","1","65","60","70","","","","","","","","","","","","","","","",""
"null","audio/beep-329314.mp3","null","audio-keyboard-response","241","2.1.0","259593","J=YES, F=NO","71rrb7d00g","1","65","60","70","","","","","","","","","","","","","","","",""
"null","audio/flaw.wav","null","audio-keyboard-response","242","2.1.0","260219","J=YES, F=NO","71rrb7d00g","1","65","60","70","","","","","","","","","","","","","","","",""
"631","
          <p id=""word"" style=""font-size: 40px;"">thwool</p>
          <p style=""font-size: 16px;"">J = YES &nbsp;&nbsp;&nbsp; F = NO</p>
        ","f","html-keyboard-response","243","2.1.0","260852","J=YES, F=NO","71rrb7d00g","1","65","60","70","","","","","","","","","thwool","flaw","pseudoword","pseudoword","f","true","",""
"null","<p style=""font-size: 50px;"">+</p>","null","html-keyboard-response","244","2.1.0","261167","J=YES, F=NO","71rrb7d00g","1","65","60","70","","","","","","","","","","","","","","","",""
"null","audio/beep-329314.mp3","null","audio-keyboard-response","245","2.1.0","262709","J=YES, F=NO","71rrb7d00g","1","65","60","70","","","","","","","","","","","","","","","",""
"null","audio/menu.wav","null","audio-keyboard-response","246","2.1.0","263278","J=YES, F=NO","71rrb7d00g","1","65","60","70","","","","","","","","","","","","","","","",""
"614","
          <p id=""word"" style=""font-size: 40px;"">navigate</p>
          <p style=""font-size: 16px;"">J = YES &nbsp;&nbsp;&nbsp; F = NO</p>
        ","j","html-keyboard-response","247","2.1.0","263895","J=YES, F=NO","71rrb7d00g","1","65","60","70","","","","","","","","","navigate","menu","metaphor","experimental","j","true","",""
"null","<p style=""font-size: 50px;"">+</p>","null","html-keyboard-response","248","2.1.0","264213","J=YES, F=NO","71rrb7d00g","1","65","60","70","","","","","","","","","","","","","","","",""
"null","audio/beep-329314.mp3","null","audio-keyboard-response","249","2.1.0","265748","J=YES, F=NO","71rrb7d00g","1","65","60","70","","","","","","","","","","","","","","","",""
"null","audio/smirk1.wav","null","audio-keyboard-response","250","2.1.0","266456","J=YES, F=NO","71rrb7d00g","1","65","60","70","","","","","","","","","","","","","","","",""
"533","
          <p id=""word"" style=""font-size: 40px;"">snopt</p>
          <p style=""font-size: 16px;"">J = YES &nbsp;&nbsp;&nbsp; F = NO</p>
        ","f","html-keyboard-response","251","2.1.0","266990","J=YES, F=NO","71rrb7d00g","1","65","60","70","","","","","","","","","snopt","smirk1","pseudoword","pseudoword","f","true","",""
"null","<p style=""font-size: 50px;"">+</p>","null","html-keyboard-response","252","2.1.0","267300","J=YES, F=NO","71rrb7d00g","1","65","60","70","","","","","","","","","","","","","","","",""
"null","audio/beep-329314.mp3","null","audio-keyboard-response","253","2.1.0","268840","J=YES, F=NO","71rrb7d00g","1","65","60","70","","","","","","","","","","","","","","","",""
"null","audio/pig.wav","null","audio-keyboard-response","254","2.1.0","269212","J=YES, F=NO","71rrb7d00g","1","65","60","70","","","","","","","","","","","","","","","",""
"747","
          <p id=""word"" style=""font-size: 40px;"">tirlike</p>
          <p style=""font-size: 16px;"">J = YES &nbsp;&nbsp;&nbsp; F = NO</p>
        ","f","html-keyboard-response","255","2.1.0","269961","J=YES, F=NO","71rrb7d00g","1","65","60","70","","","","","","","","","tirlike","pig","pseudoword","pseudoword","f","true","",""
"null","<p style=""font-size: 50px;"">+</p>","null","html-keyboard-response","256","2.1.0","270268","J=YES, F=NO","71rrb7d00g","1","65","60","70","","","","","","","","","","","","","","","",""
"null","audio/beep-329314.mp3","null","audio-keyboard-response","257","2.1.0","271808","J=YES, F=NO","71rrb7d00g","1","65","60","70","","","","","","","","","","","","","","","",""
"null","audio/burden.wav","null","audio-keyboard-response","258","2.1.0","272304","J=YES, F=NO","71rrb7d00g","1","65","60","70","","","","","","","","","","","","","","","",""
"569","
          <p id=""word"" style=""font-size: 40px;"">carry</p>
          <p style=""font-size: 16px;"">J = YES &nbsp;&nbsp;&nbsp; F = NO</p>
        ","j","html-keyboard-response","259","2.1.0","272874","J=YES, F=NO","71rrb7d00g","1","65","60","70","","","","","","","","","carry","burden","metaphor","experimental","j","true","",""
"null","<p style=""font-size: 50px;"">+</p>","null","html-keyboard-response","260","2.1.0","273183","J=YES, F=NO","71rrb7d00g","1","65","60","70","","","","","","","","","","","","","","","",""
"null","audio/beep-329314.mp3","null","audio-keyboard-response","261","2.1.0","274712","J=YES, F=NO","71rrb7d00g","1","65","60","70","","","","","","","","","","","","","","","",""
"null","audio/meal.wav","null","audio-keyboard-response","262","2.1.0","275153","J=YES, F=NO","71rrb7d00g","1","65","60","70","","","","","","","","","","","","","","","",""
"712","
          <p id=""word"" style=""font-size: 40px;"">share</p>
          <p style=""font-size: 16px;"">J = YES &nbsp;&nbsp;&nbsp; F = NO</p>
        ","j","html-keyboard-response","263","2.1.0","275866","J=YES, F=NO","71rrb7d00g","1","65","60","70","","","","","","","","","share","meal","literal","experimental","j","true","",""
"null","<p style=""font-size: 50px;"">+</p>","null","html-keyboard-response","264","2.1.0","276169","J=YES, F=NO","71rrb7d00g","1","65","60","70","","","","","","","","","","","","","","","",""
"null","audio/beep-329314.mp3","null","audio-keyboard-response","265","2.1.0","277708","J=YES, F=NO","71rrb7d00g","1","65","60","70","","","","","","","","","","","","","","","",""
"null","audio/ego.wav","null","audio-keyboard-response","266","2.1.0","278254","J=YES, F=NO","71rrb7d00g","1","65","60","70","","","","","","","","","","","","","","","",""
"878","
          <p id=""word"" style=""font-size: 40px;"">bruite</p>
          <p style=""font-size: 16px;"">J = YES &nbsp;&nbsp;&nbsp; F = NO</p>
        ","f","html-keyboard-response","267","2.1.0","279134","J=YES, F=NO","71rrb7d00g","1","65","60","70","","","","","","","","","bruite","ego","pseudoword","pseudoword","f","true","",""
"null","<p style=""font-size: 50px;"">+</p>","null","html-keyboard-response","268","2.1.0","279441","J=YES, F=NO","71rrb7d00g","1","65","60","70","","","","","","","","","","","","","","","",""
"null","audio/beep-329314.mp3","null","audio-keyboard-response","269","2.1.0","280963","J=YES, F=NO","71rrb7d00g","1","65","60","70","","","","","","","","","","","","","","","",""
"null","audio/sand.wav","null","audio-keyboard-response","270","2.1.0","281599","J=YES, F=NO","71rrb7d00g","1","65","60","70","","","","","","","","","","","","","","","",""
"728","
          <p id=""word"" style=""font-size: 40px;"">possess</p>
          <p style=""font-size: 16px;"">J = YES &nbsp;&nbsp;&nbsp; F = NO</p>
        ","j","html-keyboard-response","271","2.1.0","282329","J=YES, F=NO","71rrb7d00g","1","65","60","70","","","","","","","","","possess","sand","unrelated","experimental","j","true","",""
"null","<p style=""font-size: 50px;"">+</p>","null","html-keyboard-response","272","2.1.0","282637","J=YES, F=NO","71rrb7d00g","1","65","60","70","","","","","","","","","","","","","","","",""
"null","audio/beep-329314.mp3","null","audio-keyboard-response","273","2.1.0","284173","J=YES, F=NO","71rrb7d00g","1","65","60","70","","","","","","","","","","","","","","","",""
"null","audio/window1.wav","null","audio-keyboard-response","274","2.1.0","284771","J=YES, F=NO","71rrb7d00g","1","65","60","70","","","","","","","","","","","","","","","",""
"569","
          <p id=""word"" style=""font-size: 40px;"">break</p>
          <p style=""font-size: 16px;"">J = YES &nbsp;&nbsp;&nbsp; F = NO</p>
        ","j","html-keyboard-response","275","2.1.0","285341","J=YES, F=NO","71rrb7d00g","1","65","60","70","","","","","","","","","break","window1","literal","experimental","j","true","",""
"null","<p style=""font-size: 50px;"">+</p>","null","html-keyboard-response","276","2.1.0","285648","J=YES, F=NO","71rrb7d00g","1","65","60","70","","","","","","","","","","","","","","","",""
"null","audio/beep-329314.mp3","null","audio-keyboard-response","277","2.1.0","287173","J=YES, F=NO","71rrb7d00g","1","65","60","70","","","","","","","","","","","","","","","",""
"null","audio/emotion.wav","null","audio-keyboard-response","278","2.1.0","287820","J=YES, F=NO","71rrb7d00g","1","65","60","70","","","","","","","","","","","","","","","",""
"674","
          <p id=""word"" style=""font-size: 40px;"">devering</p>
          <p style=""font-size: 16px;"">J = YES &nbsp;&nbsp;&nbsp; F = NO</p>
        ","f","html-keyboard-response","279","2.1.0","288495","J=YES, F=NO","71rrb7d00g","1","65","60","70","","","","","","","","","devering","emotion","pseudoword","pseudoword","f","true","",""
"null","<p style=""font-size: 50px;"">+</p>","null","html-keyboard-response","280","2.1.0","288811","J=YES, F=NO","71rrb7d00g","1","65","60","70","","","","","","","","","","","","","","","",""
"null","audio/beep-329314.mp3","null","audio-keyboard-response","281","2.1.0","290362","J=YES, F=NO","71rrb7d00g","1","65","60","70","","","","","","","","","","","","","","","",""
"null","audio/haste1.wav","null","audio-keyboard-response","282","2.1.0","290920","J=YES, F=NO","71rrb7d00g","1","65","60","70","","","","","","","","","","","","","","","",""
"771","
          <p id=""word"" style=""font-size: 40px;"">coraconate</p>
          <p style=""font-size: 16px;"">J = YES &nbsp;&nbsp;&nbsp; F = NO</p>
        ","f","html-keyboard-response","283","2.1.0","291693","J=YES, F=NO","71rrb7d00g","1","65","60","70","","","","","","","","","coraconate","haste1","pseudoword","pseudoword","f","true","",""
"null","<p style=""font-size: 50px;"">+</p>","null","html-keyboard-response","284","2.1.0","291994","J=YES, F=NO","71rrb7d00g","1","65","60","70","","","","","","","","","","","","","","","",""
"null","audio/beep-329314.mp3","null","audio-keyboard-response","285","2.1.0","293518","J=YES, F=NO","71rrb7d00g","1","65","60","70","","","","","","","","","","","","","","","",""
"null","audio/hotel1.wav","null","audio-keyboard-response","286","2.1.0","294103","J=YES, F=NO","71rrb7d00g","1","65","60","70","","","","","","","","","","","","","","","",""
"711","
          <p id=""word"" style=""font-size: 40px;"">spread</p>
          <p style=""font-size: 16px;"">J = YES &nbsp;&nbsp;&nbsp; F = NO</p>
        ","j","html-keyboard-response","287","2.1.0","294817","J=YES, F=NO","71rrb7d00g","1","65","60","70","","","","","","","","","spread","hotel1","unrelated","experimental","j","true","",""
"null","<p style=""font-size: 50px;"">+</p>","null","html-keyboard-response","288","2.1.0","295131","J=YES, F=NO","71rrb7d00g","1","65","60","70","","","","","","","","","","","","","","","",""
"null","audio/beep-329314.mp3","null","audio-keyboard-response","289","2.1.0","296679","J=YES, F=NO","71rrb7d00g","1","65","60","70","","","","","","","","","","","","","","","",""
"null","audio/stain.wav","null","audio-keyboard-response","290","2.1.0","297325","J=YES, F=NO","71rrb7d00g","1","65","60","70","","","","","","","","","","","","","","","",""
"644","
          <p id=""word"" style=""font-size: 40px;"">rumpsied</p>
          <p style=""font-size: 16px;"">J = YES &nbsp;&nbsp;&nbsp; F = NO</p>
        ","f","html-keyboard-response","291","2.1.0","297970","J=YES, F=NO","71rrb7d00g","1","65","60","70","","","","","","","","","rumpsied","stain","pseudoword","pseudoword","f","true","",""
"null","<p style=""font-size: 50px;"">+</p>","null","html-keyboard-response","292","2.1.0","298279","J=YES, F=NO","71rrb7d00g","1","65","60","70","","","","","","","","","","","","","","","",""
"null","audio/beep-329314.mp3","null","audio-keyboard-response","293","2.1.0","299807","J=YES, F=NO","71rrb7d00g","1","65","60","70","","","","","","","","","","","","","","","",""
"null","audio/truth1.wav","null","audio-keyboard-response","294","2.1.0","300344","J=YES, F=NO","71rrb7d00g","1","65","60","70","","","","","","","","","","","","","","","",""
"728","
          <p id=""word"" style=""font-size: 40px;"">calitom</p>
          <p style=""font-size: 16px;"">J = YES &nbsp;&nbsp;&nbsp; F = NO</p>
        ","f","html-keyboard-response","295","2.1.0","301075","J=YES, F=NO","71rrb7d00g","1","65","60","70","","","","","","","","","calitom","truth1","pseudoword","pseudoword","f","true","",""
"963","<p>Excellent! You have finished block 2 of 8.</p>
                     <p>Feel free to take a 30 second break.</p>
                     <p>Press any key when you're ready to continue.</p>"," ","html-keyboard-response","296","2.1.0","302038","J=YES, F=NO","71rrb7d00g","1","65","60","70","","","","","","","","","","","","","","","",""
"871","<p>Starting main block 3 of 8. Press any key to continue.</p>"," ","html-keyboard-response","297","2.1.0","302911","J=YES, F=NO","71rrb7d00g","1","65","60","70","","","","","","","","","","","","","","","",""
"null","<p style=""font-size: 50px;"">+</p>","null","html-keyboard-response","298","2.1.0","303219","J=YES, F=NO","71rrb7d00g","1","65","60","70","","","","","","","","","","","","","","","",""
"null","audio/beep-329314.mp3","null","audio-keyboard-response","299","2.1.0","304768","J=YES, F=NO","71rrb7d00g","1","65","60","70","","","","","","","","","","","","","","","",""
"null","audio/essence1.wav","null","audio-keyboard-response","300","2.1.0","305450","J=YES, F=NO","71rrb7d00g","1","65","60","70","","","","","","","","","","","","","","","",""
"796","
          <p id=""word"" style=""font-size: 40px;"">grasp</p>
          <p style=""font-size: 16px;"">J = YES &nbsp;&nbsp;&nbsp; F = NO</p>
        ","f","html-keyboard-response","301","2.1.0","306248","J=YES, F=NO","71rrb7d00g","1","65","60","70","","","","","","","","","grasp","essence1","metaphor","experimental","j","false","",""
"null","<p style=""font-size: 50px;"">+</p>","null","html-keyboard-response","302","2.1.0","306559","J=YES, F=NO","71rrb7d00g","1","65","60","70","","","","","","","","","","","","","","","",""
"null","audio/beep-329314.mp3","null","audio-keyboard-response","303","2.1.0","308095","J=YES, F=NO","71rrb7d00g","1","65","60","70","","","","","","","","","","","","","","","",""
"null","audio/neck.wav","null","audio-keyboard-response","304","2.1.0","308622","J=YES, F=NO","71rrb7d00g","1","65","60","70","","","","","","","","","","","","","","","",""
"637","
          <p id=""word"" style=""font-size: 40px;"">werling</p>
          <p style=""font-size: 16px;"">J = YES &nbsp;&nbsp;&nbsp; F = NO</p>
        ","f","html-keyboard-response","305","2.1.0","309261","J=YES, F=NO","71rrb7d00g","1","65","60","70","","","","","","","","","werling","neck","pseudoword","pseudoword","f","true","",""
"null","<p style=""font-size: 50px;"">+</p>","null","html-keyboard-response","306","2.1.0","309569","J=YES, F=NO","71rrb7d00g","1","65","60","70","","","","","","","","","","","","","","","",""
"null","audio/beep-329314.mp3","null","audio-keyboard-response","307","2.1.0","311099","J=YES, F=NO","71rrb7d00g","1","65","60","70","","","","","","","","","","","","","","","",""
"null","audio/beach1.wav","null","audio-keyboard-response","308","2.1.0","311692","J=YES, F=NO","71rrb7d00g","1","65","60","70","","","","","","","","","","","","","","","",""
"590","
          <p id=""word"" style=""font-size: 40px;"">drive</p>
          <p style=""font-size: 16px;"">J = YES &nbsp;&nbsp;&nbsp; F = NO</p>
        ","j","html-keyboard-response","309","2.1.0","312284","J=YES, F=NO","71rrb7d00g","1","65","60","70","","","","","","","","","drive","beach1","filler","filler","j","true","",""
"null","<p style=""font-size: 50px;"">+</p>","null","html-keyboard-response","310","2.1.0","312595","J=YES, F=NO","71rrb7d00g","1","65","60","70","","","","","","","","","","","","","","","",""
"null","audio/beep-329314.mp3","null","audio-keyboard-response","311","2.1.0","314129","J=YES, F=NO","71rrb7d00g","1","65","60","70","","","","","","","","","","","","","","","",""
"null","audio/sugar1.wav","null","audio-keyboard-response","312","2.1.0","314590","J=YES, F=NO","71rrb7d00g","1","65","60","70","","","","","","","","","","","","","","","",""
"595","
          <p id=""word"" style=""font-size: 40px;"">glung</p>
          <p style=""font-size: 16px;"">J = YES &nbsp;&nbsp;&nbsp; F = NO</p>
        ","f","html-keyboard-response","313","2.1.0","315187","J=YES, F=NO","71rrb7d00g","1","65","60","70","","","","","","","","","glung","sugar1","pseudoword","pseudoword","f","true","",""
"null","<p style=""font-size: 50px;"">+</p>","null","html-keyboard-response","314","2.1.0","315498","J=YES, F=NO","71rrb7d00g","1","65","60","70","","","","","","","","","","","","","","","",""
"null","audio/beep-329314.mp3","null","audio-keyboard-response","315","2.1.0","317030","J=YES, F=NO","71rrb7d00g","1","65","60","70","","","","","","","","","","","","","","","",""
"null","audio/theory1.wav","null","audio-keyboard-response","316","2.1.0","317662","J=YES, F=NO","71rrb7d00g","1","65","60","70","","","","","","","","","","","","","","","",""
"647","
          <p id=""word"" style=""font-size: 40px;"">scolve</p>
          <p style=""font-size: 16px;"">J = YES &nbsp;&nbsp;&nbsp; F = NO</p>
        ","f","html-keyboard-response","317","2.1.0","318311","J=YES, F=NO","71rrb7d00g","1","65","60","70","","","","","","","","","scolve","theory1","pseudoword","pseudoword","f","true","",""
"null","<p style=""font-size: 50px;"">+</p>","null","html-keyboard-response","318","2.1.0","318626","J=YES, F=NO","71rrb7d00g","1","65","60","70","","","","","","","","","","","","","","","",""
"null","audio/beep-329314.mp3","null","audio-keyboard-response","319","2.1.0","320172","J=YES, F=NO","71rrb7d00g","1","65","60","70","","","","","","","","","","","","","","","",""
"null","audio/tunnel.wav","null","audio-keyboard-response","320","2.1.0","320577","J=YES, F=NO","71rrb7d00g","1","65","60","70","","","","","","","","","","","","","","","",""
"616","
          <p id=""word"" style=""font-size: 40px;"">gred</p>
          <p style=""font-size: 16px;"">J = YES &nbsp;&nbsp;&nbsp; F = NO</p>
        ","f","html-keyboard-response","321","2.1.0","321194","J=YES, F=NO","71rrb7d00g","1","65","60","70","","","","","","","","","gred","tunnel","pseudoword","pseudoword","f","true","",""
"null","<p style=""font-size: 50px;"">+</p>","null","html-keyboard-response","322","2.1.0","321505","J=YES, F=NO","71rrb7d00g","1","65","60","70","","","","","","","","","","","","","","","",""
"null","audio/beep-329314.mp3","null","audio-keyboard-response","323","2.1.0","323045","J=YES, F=NO","71rrb7d00g","1","65","60","70","","","","","","","","","","","","","","","",""
"null","audio/camp.wav","null","audio-keyboard-response","324","2.1.0","323572","J=YES, F=NO","71rrb7d00g","1","65","60","70","","","","","","","","","","","","","","","",""
"755","
          <p id=""word"" style=""font-size: 40px;"">touch</p>
          <p style=""font-size: 16px;"">J = YES &nbsp;&nbsp;&nbsp; F = NO</p>
        ","j","html-keyboard-response","325","2.1.0","324328","J=YES, F=NO","71rrb7d00g","1","65","60","70","","","","","","","","","touch","camp","unrelated","experimental","j","true","",""
"null","<p style=""font-size: 50px;"">+</p>","null","html-keyboard-response","326","2.1.0","324636","J=YES, F=NO","71rrb7d00g","1","65","60","70","","","","","","","","","","","","","","","",""
"null","audio/beep-329314.mp3","null","audio-keyboard-response","327","2.1.0","326164","J=YES, F=NO","71rrb7d00g","1","65","60","70","","","","","","","","","","","","","","","",""
"null","audio/mind.wav","null","audio-keyboard-response","328","2.1.0","326730","J=YES, F=NO","71rrb7d00g","1","65","60","70","","","","","","","","","","","","","","","",""
"701","
          <p id=""word"" style=""font-size: 40px;"">crainate</p>
          <p style=""font-size: 16px;"">J = YES &nbsp;&nbsp;&nbsp; F = NO</p>
        ","f","html-keyboard-response","329","2.1.0","327432","J=YES, F=NO","71rrb7d00g","1","65","60","70","","","","","","","","","crainate","mind","pseudoword","pseudoword","f","true","",""
"null","<p style=""font-size: 50px;"">+</p>","null","html-keyboard-response","330","2.1.0","327748","J=YES, F=NO","71rrb7d00g","1","65","60","70","","","","","","","","","","","","","","","",""
"null","audio/beep-329314.mp3","null","audio-keyboard-response","331","2.1.0","329285","J=YES, F=NO","71rrb7d00g","1","65","60","70","","","","","","","","","","","","","","","",""
"null","audio/holiday1.wav","null","audio-keyboard-response","332","2.1.0","329903","J=YES, F=NO","71rrb7d00g","1","65","60","70","","","","","","","","","","","","","","","",""
"683","
          <p id=""word"" style=""font-size: 40px;"">spend</p>
          <p style=""font-size: 16px;"">J = YES &nbsp;&nbsp;&nbsp; F = NO</p>
        ","j","html-keyboard-response","333","2.1.0","330587","J=YES, F=NO","71rrb7d00g","1","65","60","70","","","","","","","","","spend","holiday1","metaphor","experimental","j","true","",""
"null","<p style=""font-size: 50px;"">+</p>","null","html-keyboard-response","334","2.1.0","330908","J=YES, F=NO","71rrb7d00g","1","65","60","70","","","","","","","","","","","","","","","",""
"null","audio/beep-329314.mp3","null","audio-keyboard-response","335","2.1.0","332441","J=YES, F=NO","71rrb7d00g","1","65","60","70","","","","","","","","","","","","","","","",""
"null","audio/baby.wav","null","audio-keyboard-response","336","2.1.0","332889","J=YES, F=NO","71rrb7d00g","1","65","60","70","","","","","","","","","","","","","","","",""
"619","
          <p id=""word"" style=""font-size: 40px;"">hold</p>
          <p style=""font-size: 16px;"">J = YES &nbsp;&nbsp;&nbsp; F = NO</p>
        ","j","html-keyboard-response","337","2.1.0","333510","J=YES, F=NO","71rrb7d00g","1","65","60","70","","","","","","","","","hold","baby","literal","experimental","j","true","",""
"null","<p style=""font-size: 50px;"">+</p>","null","html-keyboard-response","338","2.1.0","333816","J=YES, F=NO","71rrb7d00g","1","65","60","70","","","","","","","","","","","","","","","",""
"null","audio/beep-329314.mp3","null","audio-keyboard-response","339","2.1.0","335340","J=YES, F=NO","71rrb7d00g","1","65","60","70","","","","","","","","","","","","","","","",""
"null","audio/grass.wav","null","audio-keyboard-response","340","2.1.0","335975","J=YES, F=NO","71rrb7d00g","1","65","60","70","","","","","","","","","","","","","","","",""
"708","
          <p id=""word"" style=""font-size: 40px;"">milames</p>
          <p style=""font-size: 16px;"">J = YES &nbsp;&nbsp;&nbsp; F = NO</p>
        ","j","html-keyboard-response","341","2.1.0","336686","J=YES, F=NO","71rrb7d00g","1","65","60","70","","","","","","","","","milames","grass","pseudoword","pseudoword","f","false","",""
"null","<p style=""font-size: 50px;"">+</p>","null","html-keyboard-response","342","2.1.0","336990","J=YES, F=NO","71rrb7d00g","1","65","60","70","","","","","","","","","","","","","","","",""
"null","audio/beep-329314.mp3","null","audio-keyboard-response","343","2.1.0","338528","J=YES, F=NO","71rrb7d00g","1","65","60","70","","","","","","","","","","","","","","","",""
"null","audio/purpose.wav","null","audio-keyboard-response","344","2.1.0","339192","J=YES, F=NO","71rrb7d00g","1","65","60","70","","","","","","","","","","","","","","","",""
"659","
          <p id=""word"" style=""font-size: 40px;"">defeat</p>
          <p style=""font-size: 16px;"">J = YES &nbsp;&nbsp;&nbsp; F = NO</p>
        ","j","html-keyboard-response","345","2.1.0","339852","J=YES, F=NO","71rrb7d00g","1","65","60","70","","","","","","","","","defeat","purpose","metaphor","experimental","j","true","",""
"null","<p style=""font-size: 50px;"">+</p>","null","html-keyboard-response","346","2.1.0","340156","J=YES, F=NO","71rrb7d00g","1","65","60","70","","","","","","","","","","","","","","","",""
"null","audio/beep-329314.mp3","null","audio-keyboard-response","347","2.1.0","341692","J=YES, F=NO","71rrb7d00g","1","65","60","70","","","","","","","","","","","","","","","",""
"null","audio/age1.wav","null","audio-keyboard-response","348","2.1.0","342224","J=YES, F=NO","71rrb7d00g","1","65","60","70","","","","","","","","","","","","","","","",""
"780","
          <p id=""word"" style=""font-size: 40px;"">seize</p>
          <p style=""font-size: 16px;"">J = YES &nbsp;&nbsp;&nbsp; F = NO</p>
        ","f","html-keyboard-response","349","2.1.0","343007","J=YES, F=NO","71rrb7d00g","1","65","60","70","","","","","","","","","seize","age1","unrelated","experimental","j","false","",""
"null","<p style=""font-size: 50px;"">+</p>","null","html-keyboard-response","350","2.1.0","343319","J=YES, F=NO","71rrb7d00g","1","65","60","70","","","","","","","","","","","","","","","",""
"null","audio/beep-329314.mp3","null","audio-keyboard-response","351","2.1.0","344864","J=YES, F=NO","71rrb7d00g","1","65","60","70","","","","","","","","","","","","","","","",""
"null","audio/scar.wav","null","audio-keyboard-response","352","2.1.0","345452","J=YES, F=NO","71rrb7d00g","1","65","60","70","","","","","","","","","","","","","","","",""
"874","
          <p id=""word"" style=""font-size: 40px;"">adelineate</p>
          <p style=""font-size: 16px;"">J = YES &nbsp;&nbsp;&nbsp; F = NO</p>
        ","f","html-keyboard-response","353","2.1.0","346327","J=YES, F=NO","71rrb7d00g","1","65","60","70","","","","","","","","","adelineate","scar","pseudoword","pseudoword","f","true","",""
"null","<p style=""font-size: 50px;"">+</p>","null","html-keyboard-response","354","2.1.0","346640","J=YES, F=NO","71rrb7d00g","1","65","60","70","","","","","","","","","","","","","","","",""
"null","audio/beep-329314.mp3","null","audio-keyboard-response","355","2.1.0","348169","J=YES, F=NO","71rrb7d00g","1","65","60","70","","","","","","","","","","","","","","","",""
"null","audio/alarm1.wav","null","audio-keyboard-response","356","2.1.0","348735","J=YES, F=NO","71rrb7d00g","1","65","60","70","","","","","","","","","","","","","","","",""
"653","
          <p id=""word"" style=""font-size: 40px;"">swetp</p>
          <p style=""font-size: 16px;"">J = YES &nbsp;&nbsp;&nbsp; F = NO</p>
        ","f","html-keyboard-response","357","2.1.0","349391","J=YES, F=NO","71rrb7d00g","1","65","60","70","","","","","","","","","swetp","alarm1","pseudoword","pseudoword","f","true","",""
"null","<p style=""font-size: 50px;"">+</p>","null","html-keyboard-response","358","2.1.0","349706","J=YES, F=NO","71rrb7d00g","1","65","60","70","","","","","","","","","","","","","","","",""
"null","audio/beep-329314.mp3","null","audio-keyboard-response","359","2.1.0","351228","J=YES, F=NO","71rrb7d00g","1","65","60","70","","","","","","","","","","","","","","","",""
"null","audio/show.wav","null","audio-keyboard-response","360","2.1.0","351753","J=YES, F=NO","71rrb7d00g","1","65","60","70","","","","","","","","","","","","","","","",""
"742","
          <p id=""word"" style=""font-size: 40px;"">smark</p>
          <p style=""font-size: 16px;"">J = YES &nbsp;&nbsp;&nbsp; F = NO</p>
        ","f","html-keyboard-response","361","2.1.0","352497","J=YES, F=NO","71rrb7d00g","1","65","60","70","","","","","","","","","smark","show","pseudoword","pseudoword","f","true","",""
"1164","<p>Excellent! You have finished block 3 of 8.</p>
                     <p>Feel free to take a 30 second break.</p>
                     <p>Press any key when you're ready to continue.</p>"," ","html-keyboard-response","362","2.1.0","353663","J=YES, F=NO","71rrb7d00g","1","65","60","70","","","","","","","","","","","","","","","",""
"932","<p>Starting main block 4 of 8. Press any key to continue.</p>","j","html-keyboard-response","363","2.1.0","354597","J=YES, F=NO","71rrb7d00g","1","65","60","70","","","","","","","","","","","","","","","",""
"null","<p style=""font-size: 50px;"">+</p>","null","html-keyboard-response","364","2.1.0","354916","J=YES, F=NO","71rrb7d00g","1","65","60","70","","","","","","","","","","","","","","","",""
"null","audio/beep-329314.mp3","null","audio-keyboard-response","365","2.1.0","356449","J=YES, F=NO","71rrb7d00g","1","65","60","70","","","","","","","","","","","","","","","",""
"null","audio/train.wav","null","audio-keyboard-response","366","2.1.0","356956","J=YES, F=NO","71rrb7d00g","1","65","60","70","","","","","","","","","","","","","","","",""
"681","
          <p id=""word"" style=""font-size: 40px;"">catch</p>
          <p style=""font-size: 16px;"">J = YES &nbsp;&nbsp;&nbsp; F = NO</p>
        ","j","html-keyboard-response","367","2.1.0","357640","J=YES, F=NO","71rrb7d00g","1","65","60","70","","","","","","","","","catch","train","metaphor","experimental","j","true","",""
"null","<p style=""font-size: 50px;"">+</p>","null","html-keyboard-response","368","2.1.0","357955","J=YES, F=NO","71rrb7d00g","1","65","60","70","","","","","","","","","","","","","","","",""
"null","audio/beep-329314.mp3","null","audio-keyboard-response","369","2.1.0","359491","J=YES, F=NO","71rrb7d00g","1","65","60","70","","","","","","","","","","","","","","","",""
"null","audio/hotel1.wav","null","audio-keyboard-response","370","2.1.0","360095","J=YES, F=NO","71rrb7d00g","1","65","60","70","","","","","","","","","","","","","","","",""
"679","
          <p id=""word"" style=""font-size: 40px;"">flanter</p>
          <p style=""font-size: 16px;"">J = YES &nbsp;&nbsp;&nbsp; F = NO</p>
        ","f","html-keyboard-response","371","2.1.0","360777","J=YES, F=NO","71rrb7d00g","1","65","60","70","","","","","","","","","flanter","hotel1","pseudoword","pseudoword","f","true","",""
"null","<p style=""font-size: 50px;"">+</p>","null","html-keyboard-response","372","2.1.0","361081","J=YES, F=NO","71rrb7d00g","1","65","60","70","","","","","","","","","","","","","","","",""
"null","audio/beep-329314.mp3","null","audio-keyboard-response","373","2.1.0","362608","J=YES, F=NO","71rrb7d00g","1","65","60","70","","","","","","","","","","","","","","","",""
"null","audio/prisoner.wav","null","audio-keyboard-response","374","2.1.0","363104","J=YES, F=NO","71rrb7d00g","1","65","60","70","","","","","","","","","","","","","","","",""
"656","
          <p id=""word"" style=""font-size: 40px;"">egotian</p>
          <p style=""font-size: 16px;"">J = YES &nbsp;&nbsp;&nbsp; F = NO</p>
        ","f","html-keyboard-response","375","2.1.0","363761","J=YES, F=NO","71rrb7d00g","1","65","60","70","","","","","","","","","egotian","prisoner","pseudoword","pseudoword","f","true","",""
"null","<p style=""font-size: 50px;"">+</p>","null","html-keyboard-response","376","2.1.0","364082","J=YES, F=NO","71rrb7d00g","1","65","60","70","","","","","","","","","","","","","","","",""
"null","audio/beep-329314.mp3","null","audio-keyboard-response","377","2.1.0","365610","J=YES, F=NO","71rrb7d00g","1","65","60","70","","","","","","","","","","","","","","","",""
"null","audio/heart1.wav","null","audio-keyboard-response","378","2.1.0","366216","J=YES, F=NO","71rrb7d00g","1","65","60","70","","","","","","","","","","","","","","","",""
"554","
          <p id=""word"" style=""font-size: 40px;"">dralm</p>
          <p style=""font-size: 16px;"">J = YES &nbsp;&nbsp;&nbsp; F = NO</p>
        ","f","html-keyboard-response","379","2.1.0","366772","J=YES, F=NO","71rrb7d00g","1","65","60","70","","","","","","","","","dralm","heart1","pseudoword","pseudoword","f","true","",""
"null","<p style=""font-size: 50px;"">+</p>","null","html-keyboard-response","380","2.1.0","367083","J=YES, F=NO","71rrb7d00g","1","65","60","70","","","","","","","","","","","","","","","",""
"null","audio/beep-329314.mp3","null","audio-keyboard-response","381","2.1.0","368613","J=YES, F=NO","71rrb7d00g","1","65","60","70","","","","","","","","","","","","","","","",""
"null","audio/camera1.wav","null","audio-keyboard-response","382","2.1.0","369089","J=YES, F=NO","71rrb7d00g","1","65","60","70","","","","","","","","","","","","","","","",""
"604","
          <p id=""word"" style=""font-size: 40px;"">stir</p>
          <p style=""font-size: 16px;"">J = YES &nbsp;&nbsp;&nbsp; F = NO</p>
        ","f","html-keyboard-response","383","2.1.0","369695","J=YES, F=NO","71rrb7d00g","1","65","60","70","","","","","","","","","stir","camera1","filler","filler","j","false","",""
"null","<p style=""font-size: 50px;"">+</p>","null","html-keyboard-response","384","2.1.0","370002","J=YES, F=NO","71rrb7d00g","1","65","60","70","","","","","","","","","","","","","","","",""
"null","audio/beep-329314.mp3","null","audio-keyboard-response","385","2.1.0","371516","J=YES, F=NO","71rrb7d00g","1","65","60","70","","","","","","","","","","","","","","","",""
"null","audio/age1.wav","null","audio-keyboard-response","386","2.1.0","372028","J=YES, F=NO","71rrb7d00g","1","65","60","70","","","","","","","","","","","","","","","",""
"667","
          <p id=""word"" style=""font-size: 40px;"">bake</p>
          <p style=""font-size: 16px;"">J = YES &nbsp;&nbsp;&nbsp; F = NO</p>
        ","j","html-keyboard-response","387","2.1.0","372697","J=YES, F=NO","71rrb7d00g","1","65","60","70","","","","","","","","","bake","age1","filler","filler","j","true","",""
"null","<p style=""font-size: 50px;"">+</p>","null","html-keyboard-response","388","2.1.0","373014","J=YES, F=NO","71rrb7d00g","1","65","60","70","","","","","","","","","","","","","","","",""
"null","audio/beep-329314.mp3","null","audio-keyboard-response","389","2.1.0","374551","J=YES, F=NO","71rrb7d00g","1","65","60","70","","","","","","","","","","","","","","","",""
"null","audio/gift1.wav","null","audio-keyboard-response","390","2.1.0","374993","J=YES, F=NO","71rrb7d00g","1","65","60","70","","","","","","","","","","","","","","","",""
"734","
          <p id=""word"" style=""font-size: 40px;"">protsh</p>
          <p style=""font-size: 16px;"">J = YES &nbsp;&nbsp;&nbsp; F = NO</p>
        ","f","html-keyboard-response","391","2.1.0","375730","J=YES, F=NO","71rrb7d00g","1","65","60","70","","","","","","","","","protsh","gift1","pseudoword","pseudoword","f","true","",""
