"rt","stimulus","response","trial_type","trial_index","plugin_version","time_elapsed","response_mapping","subject_id","list_index","lextale_score","lextale_word_score","lextale_nonword_score","success","timeout","failed_images","failed_audio","failed_video","task","isWord","isDummy","target","prime","prime_type","stimulus_type","correct_response","correct","section","question_order"
"3710","
    <div style=""max-width: 800px; margin: auto; text-align: left;"">
      <h2>STANFORD UNIVERSITY</h2>
      <h3>Research Information Sheet</h3>
      <p><strong>Protocol Director:</strong> Robert Hawkins<br>
      <strong>Protocol Title:</strong> Communication and social cognition in natural audiovisual contexts<br>
      <strong>IRB#:</strong> 77226</p>

      <p><strong>DESCRIPTION:</strong> You are invited to participate in a research study about language and communication. The purpose of the research is to understand how you interact and communicate with other people in naturalistic settings as a fluent English speaker. This research will be conducted through the Prolific platform, including participants from the US, UK, and Canada. If you decide to participate in this research, you will play a communication game in a group with one or more partners.</p>

      <p><strong>TIME INVOLVEMENT:</strong> The task will last the amount of time advertised on Prolific. You are free to withdraw from the study at any time.</p>

      <p><strong>RISKS AND BENEFITS:</strong> You may become frustrated if your partner gets distracted, or experience discomfort if other participants in your group send text that is inappropriate for the task. We ask you to please be respectful of other participants you might be interacting with to mitigate these risks. You may also experience discomfort when being asked to discuss or challenge emotionally salient political beliefs. Study data will be stored securely, in compliance with Stanford University standards, minimizing the risk of confidentiality breach. This study advances our scientific understanding of how people communicate and collaborate in naturalistic settings. This study may lead to further insights about what can go wrong in teamwork, suggest potential interventions to overcome these barriers, and help to develop assistive technologies that collaborate with human partners. We cannot and do not guarantee or promise that you will receive any benefits from this study.</p>

      <p><strong>PAYMENTS:</strong> You will receive payment in the amount advertised on Prolific. If you do not complete this study, you will receive prorated payment based on the time that you have spent. Additionally, you may be eligible for bonus payments as described in the instructions.</p>

      <p><strong>PARTICIPANT’S RIGHTS:</strong> If you have read this form and have decided to participate in this project, please understand your participation is voluntary and you have the right to withdraw your consent or discontinue participation at any time without penalty or loss of benefits to which you are otherwise entitled. The alternative is not to participate. You have the right to refuse to answer particular questions. The results of this research study may be presented at scientific or professional meetings or published in scientific journals. Your individual privacy will be maintained in all published and written data resulting from the study. In accordance with scientific norms, the data from this study may be used or shared with other researchers for future research (after removing personally identifying information) without additional consent from you.</p>

      <p><strong>CONTACT INFORMATION:</strong><br>
      Questions: If you have any questions, concerns or complaints about this research, its procedures, risks and benefits, contact the Protocol Director, Robert Hawkins (<a href=""mailto:rdhawkins@stanford.edu"">rdhawkins@stanford.edu</a>, 217-549-6923).<br>
      Independent Contact: If you are not satisfied with how this study is being conducted, or if you have any concerns, complaints, or general questions about the research or your rights as a participant, please contact the Stanford Institutional Review Board (IRB) to speak to someone independent of the research team at 650-723-2480 or toll free at 1-866-680-2906, or email at <a href=""mailto:irbnon-med@stanford.edu"">irbnon-med@stanford.edu</a>. You can also write to the Stanford IRB, Stanford University, 1705 El Camino Real, Palo Alto, CA 94306.</p>

      <p><strong>Please save or print a copy of this page for your records.</strong></p>
      <p>If you agree to participate in this research, click ""Continue"" below.</p>
    </div>
  ","0","html-button-response","0","2.1.0","3719","J=YES, F=NO","7kaxe1t65c","1","73","75","70","","","","","","","","","","","","","","","",""
"2783","
    <div style=""max-width: 800px; margin: auto; text-align: left;"">
      <h2>Welcome!</h2>
      <p>Thank you for participating in this study. The experiment consists of three parts:</p>
      <ol>
        <li>An English vocabulary test</li>
        <li>A main task in which you will hear and see words, and decide whether the written word is a real English word</li>
        <li>A brief survey about your background</li>
      </ol>
      <p>Each part will be introduced before it begins.</p>
      <p>Please make sure you are in a quiet environment and can hear audio clearly for the final task.</p>
      <p style=""margin-top: 2em;"">Press any key to begin.</p>
    </div>
  "," ","html-keyboard-response","1","2.1.0","6504","J=YES, F=NO","7kaxe1t65c","1","73","75","70","","","","","","","","","","","","","","","",""
"","","","preload","2","2.1.0","8648","J=YES, F=NO","7kaxe1t65c","1","73","75","70","true","false","[]","[]","[]","","","","","","","","","","",""
"8719","
    <div style=""max-width: 800px; margin: auto; text-align: left;"">
      <h2>Part 1: Vocabulary Test</h2>
      <p>You will now complete the first part of the study: a short English vocabulary test.</p>
      <p>This test is called <strong>LexTALE</strong> and helps us get a general sense of your English proficiency.</p>
      <p style=""margin-top: 2em;"">Press any key to continue.</p>
    </div>
  "," ","html-keyboard-response","3","2.1.0","17369","J=YES, F=NO","7kaxe1t65c","1","73","75","70","","","","","","","","","","","","","","","",""
"17686","
    <div style=""max-width: 800px; margin: auto; text-align: left;"">
      <h2>LexTALE Vocabulary Test</h2>
      <p>In this test, you will see a series of letter strings—one at a time.</p>
      <p>Your task is to decide whether each string is a real English word.</p>
      <p><strong>Key responses:</strong></p>
      <ul>
        <li><strong>J</strong> = YES (real English word)</li>
        <li><strong>F</strong> = NO (not a real English word)</li>
      </ul>
      <p>There is no time limit, but please try to be accurate.</p>
      <p style=""margin-top: 2em;"">Press any key to begin.</p>
    </div>
  ","Enter","html-keyboard-response","4","2.1.0","35058","J=YES, F=NO","7kaxe1t65c","1","73","75","70","","","","","","","","","","","","","","","",""
"4914","
  <p style=""font-size: 40px;"">platery</p>
  <p style=""font-size: 16px;"">J = YES &nbsp;&nbsp;&nbsp; F = NO</p>
","j","html-keyboard-response","5","2.1.0","39976","J=YES, F=NO","7kaxe1t65c","1","73","75","70","","","","","","lextale","false","true","","","","","","","",""
"1069","
  <p style=""font-size: 40px;"">denial</p>
  <p style=""font-size: 16px;"">J = YES &nbsp;&nbsp;&nbsp; F = NO</p>
","j","html-keyboard-response","6","2.1.0","41046","J=YES, F=NO","7kaxe1t65c","1","73","75","70","","","","","","lextale","true","true","","","","","","","",""
"1110","
  <p style=""font-size: 40px;"">marrit</p>
  <p style=""font-size: 16px;"">J = YES &nbsp;&nbsp;&nbsp; F = NO</p>
","j","html-keyboard-response","7","2.1.0","42159","J=YES, F=NO","7kaxe1t65c","1","73","75","70","","","","","","lextale","false","true","","","","","","","",""
"1113","
  <p style=""font-size: 40px;"">bottle</p>
  <p style=""font-size: 16px;"">J = YES &nbsp;&nbsp;&nbsp; F = NO</p>
","j","html-keyboard-response","8","2.1.0","43273","J=YES, F=NO","7kaxe1t65c","1","73","75","70","","","","","","lextale","true","false","","","","","","","",""
"1112","
  <p style=""font-size: 40px;"">birst</p>
  <p style=""font-size: 16px;"">J = YES &nbsp;&nbsp;&nbsp; F = NO</p>
","f","html-keyboard-response","9","2.1.0","44387","J=YES, F=NO","7kaxe1t65c","1","73","75","70","","","","","","lextale","false","false","","","","","","","",""
"967","
  <p style=""font-size: 40px;"">envy</p>
  <p style=""font-size: 16px;"">J = YES &nbsp;&nbsp;&nbsp; F = NO</p>
","j","html-keyboard-response","10","2.1.0","45355","J=YES, F=NO","7kaxe1t65c","1","73","75","70","","","","","","lextale","true","false","","","","","","","",""
"1713","
  <p style=""font-size: 40px;"">brang</p>
  <p style=""font-size: 16px;"">J = YES &nbsp;&nbsp;&nbsp; F = NO</p>
","f","html-keyboard-response","11","2.1.0","47069","J=YES, F=NO","7kaxe1t65c","1","73","75","70","","","","","","lextale","false","false","","","","","","","",""
"1014","
  <p style=""font-size: 40px;"">huge</p>
  <p style=""font-size: 16px;"">J = YES &nbsp;&nbsp;&nbsp; F = NO</p>
","j","html-keyboard-response","12","2.1.0","48084","J=YES, F=NO","7kaxe1t65c","1","73","75","70","","","","","","lextale","true","false","","","","","","","",""
"1017","
  <p style=""font-size: 40px;"">plove</p>
  <p style=""font-size: 16px;"">J = YES &nbsp;&nbsp;&nbsp; F = NO</p>
","f","html-keyboard-response","13","2.1.0","49102","J=YES, F=NO","7kaxe1t65c","1","73","75","70","","","","","","lextale","false","false","","","","","","","",""
"987","
  <p style=""font-size: 40px;"">border</p>
  <p style=""font-size: 16px;"">J = YES &nbsp;&nbsp;&nbsp; F = NO</p>
","j","html-keyboard-response","14","2.1.0","50090","J=YES, F=NO","7kaxe1t65c","1","73","75","70","","","","","","lextale","true","false","","","","","","","",""
"1234","
  <p style=""font-size: 40px;"">flimsy</p>
  <p style=""font-size: 16px;"">J = YES &nbsp;&nbsp;&nbsp; F = NO</p>
","j","html-keyboard-response","15","2.1.0","51327","J=YES, F=NO","7kaxe1t65c","1","73","75","70","","","","","","lextale","true","false","","","","","","","",""
"749","
  <p style=""font-size: 40px;"">drain</p>
  <p style=""font-size: 16px;"">J = YES &nbsp;&nbsp;&nbsp; F = NO</p>
","j","html-keyboard-response","16","2.1.0","52077","J=YES, F=NO","7kaxe1t65c","1","73","75","70","","","","","","lextale","true","false","","","","","","","",""
"883","
  <p style=""font-size: 40px;"">twindle</p>
  <p style=""font-size: 16px;"">J = YES &nbsp;&nbsp;&nbsp; F = NO</p>
","f","html-keyboard-response","17","2.1.0","52961","J=YES, F=NO","7kaxe1t65c","1","73","75","70","","","","","","lextale","false","false","","","","","","","",""
"749","
  <p style=""font-size: 40px;"">propose</p>
  <p style=""font-size: 16px;"">J = YES &nbsp;&nbsp;&nbsp; F = NO</p>
","j","html-keyboard-response","18","2.1.0","53711","J=YES, F=NO","7kaxe1t65c","1","73","75","70","","","","","","lextale","true","false","","","","","","","",""
"782","
  <p style=""font-size: 40px;"">forlay</p>
  <p style=""font-size: 16px;"">J = YES &nbsp;&nbsp;&nbsp; F = NO</p>
","f","html-keyboard-response","19","2.1.0","54494","J=YES, F=NO","7kaxe1t65c","1","73","75","70","","","","","","lextale","false","false","","","","","","","",""
"1138","
  <p style=""font-size: 40px;"">tenant</p>
  <p style=""font-size: 16px;"">J = YES &nbsp;&nbsp;&nbsp; F = NO</p>
","j","html-keyboard-response","20","2.1.0","55634","J=YES, F=NO","7kaxe1t65c","1","73","75","70","","","","","","lextale","true","false","","","","","","","",""
"1031","
  <p style=""font-size: 40px;"">strain</p>
  <p style=""font-size: 16px;"">J = YES &nbsp;&nbsp;&nbsp; F = NO</p>
","j","html-keyboard-response","21","2.1.0","56665","J=YES, F=NO","7kaxe1t65c","1","73","75","70","","","","","","lextale","true","false","","","","","","","",""
"946","
  <p style=""font-size: 40px;"">holster</p>
  <p style=""font-size: 16px;"">J = YES &nbsp;&nbsp;&nbsp; F = NO</p>
","f","html-keyboard-response","22","2.1.0","57613","J=YES, F=NO","7kaxe1t65c","1","73","75","70","","","","","","lextale","true","false","","","","","","","",""
"1154","
  <p style=""font-size: 40px;"">hinder</p>
  <p style=""font-size: 16px;"">J = YES &nbsp;&nbsp;&nbsp; F = NO</p>
","f","html-keyboard-response","23","2.1.0","58768","J=YES, F=NO","7kaxe1t65c","1","73","75","70","","","","","","lextale","true","false","","","","","","","",""
"912","
  <p style=""font-size: 40px;"">swindle</p>
  <p style=""font-size: 16px;"">J = YES &nbsp;&nbsp;&nbsp; F = NO</p>
","f","html-keyboard-response","24","2.1.0","59681","J=YES, F=NO","7kaxe1t65c","1","73","75","70","","","","","","lextale","true","false","","","","","","","",""
"1063","
  <p style=""font-size: 40px;"">nuder</p>
  <p style=""font-size: 16px;"">J = YES &nbsp;&nbsp;&nbsp; F = NO</p>
","f","html-keyboard-response","25","2.1.0","60745","J=YES, F=NO","7kaxe1t65c","1","73","75","70","","","","","","lextale","false","false","","","","","","","",""
"694","
  <p style=""font-size: 40px;"">pillow</p>
  <p style=""font-size: 16px;"">J = YES &nbsp;&nbsp;&nbsp; F = NO</p>
","j","html-keyboard-response","26","2.1.0","61441","J=YES, F=NO","7kaxe1t65c","1","73","75","70","","","","","","lextale","true","false","","","","","","","",""
"630","
  <p style=""font-size: 40px;"">shumble</p>
  <p style=""font-size: 16px;"">J = YES &nbsp;&nbsp;&nbsp; F = NO</p>
","j","html-keyboard-response","27","2.1.0","62072","J=YES, F=NO","7kaxe1t65c","1","73","75","70","","","","","","lextale","false","false","","","","","","","",""
"609","
  <p style=""font-size: 40px;"">thirst</p>
  <p style=""font-size: 16px;"">J = YES &nbsp;&nbsp;&nbsp; F = NO</p>
","j","html-keyboard-response","28","2.1.0","62682","J=YES, F=NO","7kaxe1t65c","1","73","75","70","","","","","","lextale","true","false","","","","","","","",""
"932","
  <p style=""font-size: 40px;"">unsail</p>
  <p style=""font-size: 16px;"">J = YES &nbsp;&nbsp;&nbsp; F = NO</p>
","f","html-keyboard-response","29","2.1.0","63615","J=YES, F=NO","7kaxe1t65c","1","73","75","70","","","","","","lextale","false","false","","","","","","","",""
"647","
  <p style=""font-size: 40px;"">rifle</p>
  <p style=""font-size: 16px;"">J = YES &nbsp;&nbsp;&nbsp; F = NO</p>
","j","html-keyboard-response","30","2.1.0","64263","J=YES, F=NO","7kaxe1t65c","1","73","75","70","","","","","","lextale","true","false","","","","","","","",""
"1403","
  <p style=""font-size: 40px;"">mush</p>
  <p style=""font-size: 16px;"">J = YES &nbsp;&nbsp;&nbsp; F = NO</p>
","j","html-keyboard-response","31","2.1.0","65668","J=YES, F=NO","7kaxe1t65c","1","73","75","70","","","","","","lextale","false","false","","","","","","","",""
"865","
  <p style=""font-size: 40px;"">drench</p>
  <p style=""font-size: 16px;"">J = YES &nbsp;&nbsp;&nbsp; F = NO</p>
","j","html-keyboard-response","32","2.1.0","66535","J=YES, F=NO","7kaxe1t65c","1","73","75","70","","","","","","lextale","true","false","","","","","","","",""
"996","
  <p style=""font-size: 40px;"">snirt</p>
  <p style=""font-size: 16px;"">J = YES &nbsp;&nbsp;&nbsp; F = NO</p>
","f","html-keyboard-response","33","2.1.0","67532","J=YES, F=NO","7kaxe1t65c","1","73","75","70","","","","","","lextale","false","false","","","","","","","",""
"781","
  <p style=""font-size: 40px;"">bitter</p>
  <p style=""font-size: 16px;"">J = YES &nbsp;&nbsp;&nbsp; F = NO</p>
","j","html-keyboard-response","34","2.1.0","68314","J=YES, F=NO","7kaxe1t65c","1","73","75","70","","","","","","lextale","true","false","","","","","","","",""
"755","
  <p style=""font-size: 40px;"">pliff</p>
  <p style=""font-size: 16px;"">J = YES &nbsp;&nbsp;&nbsp; F = NO</p>
","j","html-keyboard-response","35","2.1.0","69070","J=YES, F=NO","7kaxe1t65c","1","73","75","70","","","","","","lextale","false","false","","","","","","","",""
"880","
  <p style=""font-size: 40px;"">tablet</p>
  <p style=""font-size: 16px;"">J = YES &nbsp;&nbsp;&nbsp; F = NO</p>
","j","html-keyboard-response","36","2.1.0","69951","J=YES, F=NO","7kaxe1t65c","1","73","75","70","","","","","","lextale","true","false","","","","","","","",""
"726","
  <p style=""font-size: 40px;"">glimmer</p>
  <p style=""font-size: 16px;"">J = YES &nbsp;&nbsp;&nbsp; F = NO</p>
","j","html-keyboard-response","37","2.1.0","70678","J=YES, F=NO","7kaxe1t65c","1","73","75","70","","","","","","lextale","true","false","","","","","","","",""
"939","
  <p style=""font-size: 40px;"">slink</p>
  <p style=""font-size: 16px;"">J = YES &nbsp;&nbsp;&nbsp; F = NO</p>
","f","html-keyboard-response","38","2.1.0","71618","J=YES, F=NO","7kaxe1t65c","1","73","75","70","","","","","","lextale","true","false","","","","","","","",""
"604","
  <p style=""font-size: 40px;"">clever</p>
  <p style=""font-size: 16px;"">J = YES &nbsp;&nbsp;&nbsp; F = NO</p>
","j","html-keyboard-response","39","2.1.0","72223","J=YES, F=NO","7kaxe1t65c","1","73","75","70","","","","","","lextale","true","false","","","","","","","",""
"937","
  <p style=""font-size: 40px;"">grum</p>
  <p style=""font-size: 16px;"">J = YES &nbsp;&nbsp;&nbsp; F = NO</p>
","f","html-keyboard-response","40","2.1.0","73161","J=YES, F=NO","7kaxe1t65c","1","73","75","70","","","","","","lextale","false","false","","","","","","","",""
"701","
  <p style=""font-size: 40px;"">string</p>
  <p style=""font-size: 16px;"">J = YES &nbsp;&nbsp;&nbsp; F = NO</p>
","j","html-keyboard-response","41","2.1.0","73864","J=YES, F=NO","7kaxe1t65c","1","73","75","70","","","","","","lextale","true","false","","","","","","","",""
"2212","
  <p style=""font-size: 40px;"">plim</p>
  <p style=""font-size: 16px;"">J = YES &nbsp;&nbsp;&nbsp; F = NO</p>
","f","html-keyboard-response","42","2.1.0","76077","J=YES, F=NO","7kaxe1t65c","1","73","75","70","","","","","","lextale","false","false","","","","","","","",""
"1083","
  <p style=""font-size: 40px;"">cable</p>
  <p style=""font-size: 16px;"">J = YES &nbsp;&nbsp;&nbsp; F = NO</p>
","j","html-keyboard-response","43","2.1.0","77160","J=YES, F=NO","7kaxe1t65c","1","73","75","70","","","","","","lextale","true","false","","","","","","","",""
"1081","
  <p style=""font-size: 40px;"">shrivel</p>
  <p style=""font-size: 16px;"">J = YES &nbsp;&nbsp;&nbsp; F = NO</p>
","j","html-keyboard-response","44","2.1.0","78242","J=YES, F=NO","7kaxe1t65c","1","73","75","70","","","","","","lextale","true","false","","","","","","","",""
"1047","
  <p style=""font-size: 40px;"">tarnish</p>
  <p style=""font-size: 16px;"">J = YES &nbsp;&nbsp;&nbsp; F = NO</p>
","j","html-keyboard-response","45","2.1.0","79290","J=YES, F=NO","7kaxe1t65c","1","73","75","70","","","","","","lextale","true","false","","","","","","","",""
"1625","
  <p style=""font-size: 40px;"">blim</p>
  <p style=""font-size: 16px;"">J = YES &nbsp;&nbsp;&nbsp; F = NO</p>
","f","html-keyboard-response","46","2.1.0","80917","J=YES, F=NO","7kaxe1t65c","1","73","75","70","","","","","","lextale","false","false","","","","","","","",""
"1579","
  <p style=""font-size: 40px;"">stifle</p>
  <p style=""font-size: 16px;"">J = YES &nbsp;&nbsp;&nbsp; F = NO</p>
","j","html-keyboard-response","47","2.1.0","82497","J=YES, F=NO","7kaxe1t65c","1","73","75","70","","","","","","lextale","true","false","","","","","","","",""
"1218","
  <p style=""font-size: 40px;"">bint</p>
  <p style=""font-size: 16px;"">J = YES &nbsp;&nbsp;&nbsp; F = NO</p>
","f","html-keyboard-response","48","2.1.0","83716","J=YES, F=NO","7kaxe1t65c","1","73","75","70","","","","","","lextale","false","false","","","","","","","",""
"611","
  <p style=""font-size: 40px;"">purple</p>
  <p style=""font-size: 16px;"">J = YES &nbsp;&nbsp;&nbsp; F = NO</p>
","j","html-keyboard-response","49","2.1.0","84328","J=YES, F=NO","7kaxe1t65c","1","73","75","70","","","","","","lextale","true","false","","","","","","","",""
"827","
  <p style=""font-size: 40px;"">wriggle</p>
  <p style=""font-size: 16px;"">J = YES &nbsp;&nbsp;&nbsp; F = NO</p>
","j","html-keyboard-response","50","2.1.0","85157","J=YES, F=NO","7kaxe1t65c","1","73","75","70","","","","","","lextale","true","false","","","","","","","",""
"901","
  <p style=""font-size: 40px;"">mangle</p>
  <p style=""font-size: 16px;"">J = YES &nbsp;&nbsp;&nbsp; F = NO</p>
","j","html-keyboard-response","51","2.1.0","86059","J=YES, F=NO","7kaxe1t65c","1","73","75","70","","","","","","lextale","true","false","","","","","","","",""
"1512","
  <p style=""font-size: 40px;"">shramp</p>
  <p style=""font-size: 16px;"">J = YES &nbsp;&nbsp;&nbsp; F = NO</p>
","f","html-keyboard-response","52","2.1.0","87572","J=YES, F=NO","7kaxe1t65c","1","73","75","70","","","","","","lextale","false","false","","","","","","","",""
"601","
  <p style=""font-size: 40px;"">flirt</p>
  <p style=""font-size: 16px;"">J = YES &nbsp;&nbsp;&nbsp; F = NO</p>
","j","html-keyboard-response","53","2.1.0","88174","J=YES, F=NO","7kaxe1t65c","1","73","75","70","","","","","","lextale","true","false","","","","","","","",""
"1090","
  <p style=""font-size: 40px;"">frip</p>
  <p style=""font-size: 16px;"">J = YES &nbsp;&nbsp;&nbsp; F = NO</p>
","j","html-keyboard-response","54","2.1.0","89264","J=YES, F=NO","7kaxe1t65c","1","73","75","70","","","","","","lextale","false","false","","","","","","","",""
"519","
  <p style=""font-size: 40px;"">tangle</p>
  <p style=""font-size: 16px;"">J = YES &nbsp;&nbsp;&nbsp; F = NO</p>
","j","html-keyboard-response","55","2.1.0","89785","J=YES, F=NO","7kaxe1t65c","1","73","75","70","","","","","","lextale","true","false","","","","","","","",""
"720","
  <p style=""font-size: 40px;"">crumble</p>
  <p style=""font-size: 16px;"">J = YES &nbsp;&nbsp;&nbsp; F = NO</p>
","j","html-keyboard-response","56","2.1.0","90505","J=YES, F=NO","7kaxe1t65c","1","73","75","70","","","","","","lextale","true","false","","","","","","","",""
"601","
  <p style=""font-size: 40px;"">wrinkle</p>
  <p style=""font-size: 16px;"">J = YES &nbsp;&nbsp;&nbsp; F = NO</p>
","j","html-keyboard-response","57","2.1.0","91108","J=YES, F=NO","7kaxe1t65c","1","73","75","70","","","","","","lextale","true","false","","","","","","","",""
"1035","
  <p style=""font-size: 40px;"">slumb</p>
  <p style=""font-size: 16px;"">J = YES &nbsp;&nbsp;&nbsp; F = NO</p>
","f","html-keyboard-response","58","2.1.0","92144","J=YES, F=NO","7kaxe1t65c","1","73","75","70","","","","","","lextale","false","false","","","","","","","",""
"659","
  <p style=""font-size: 40px;"">jungle</p>
  <p style=""font-size: 16px;"">J = YES &nbsp;&nbsp;&nbsp; F = NO</p>
","j","html-keyboard-response","59","2.1.0","92805","J=YES, F=NO","7kaxe1t65c","1","73","75","70","","","","","","lextale","true","false","","","","","","","",""
"1049","
  <p style=""font-size: 40px;"">frolick</p>
  <p style=""font-size: 16px;"">J = YES &nbsp;&nbsp;&nbsp; F = NO</p>
","j","html-keyboard-response","60","2.1.0","93855","J=YES, F=NO","7kaxe1t65c","1","73","75","70","","","","","","lextale","false","false","","","","","","","",""
"3584","
      <h2>LexTALE Test Completed</h2>
      <p>Your LexTALE vocabulary score is: <strong>73%</strong></p>
      <p>Press any key to continue.</p>
    ","j","html-keyboard-response","61","2.1.0","97441","J=YES, F=NO","7kaxe1t65c","1","73","75","70","","","","","","","","","","","","","","","",""
"3907","
    <div style=""max-width: 800px; margin: auto; text-align: left;"">
      <h2>Break Time</h2>
      <p>You have completed the first part of the study.</p>
      <p>You may take a short <strong>30-second break</strong> before continuing.</p>
      <p>When you’re ready, press any key to continue to the final task.</p>
    </div>
  "," ","html-keyboard-response","62","2.1.0","101350","J=YES, F=NO","7kaxe1t65c","1","73","75","70","","","","","","","","","","","","","","","",""
"18571","
    <div style=""max-width: 800px; margin: auto; text-align: left;"">
      <h2>Part 2: Lexical Decision Task</h2>
      <p>You will now begin the second part of the study.</p>
      <p>Each trial will follow this sequence:</p>
      <ul>
        <li>A fixation cross (+) appears at the center of the screen.</li>
        <li>You will hear a short beep followed by a spoken word.</li>
        <li>A written word will appear briefly on the screen.</li>
      </ul>
      <p>Your task is to judge whether the <strong>written word</strong> is a real English word.</p>
      <p style=""margin-top: 1em;""><strong>Key responses:</strong></p>
      <ul>
        <li><strong>J</strong> = YES (real English word)</li>
        <li><strong>F</strong> = NO (not a real English word)</li>
      </ul>
      <p>Please respond as quickly and accurately as you can.</p>
      <p style=""margin-top: 2em;"">Press any key to continue.</p>
    </div>
  "," ","html-keyboard-response","63","2.1.0","119923","J=YES, F=NO","7kaxe1t65c","1","73","75","70","","","","","","","","","","","","","","","",""
"6681","
    <div style=""max-width: 800px; margin: auto; text-align: left;"">
      <h2>Before You Begin</h2>
      <p>Make sure your sound is turned on.</p>
      <p>You will hear audio during each trial, but your decision should be based only on the <strong>written word</strong> you see on the screen.</p>
      <p><strong>Reminder:</strong></p>
      <ul>
        <li><strong>J</strong> = YES (real English word)</li>
        <li><strong>F</strong> = NO (not a real English word)</li>
      </ul>
      <p style=""margin-top: 2em;"">Press any key when you are ready to begin.</p>
    </div>
  ","AudioVolumeUp","html-keyboard-response","64","2.1.0","126605","J=YES, F=NO","7kaxe1t65c","1","73","75","70","","","","","","","","","","","","","","","",""
"3484","
    <div style=""max-width: 800px; margin: auto; text-align: left;"">
      <h2>Part 2: Practice Trials</h2>
      <p>You will now complete a few <strong>practice trials</strong> to get familiar with the task.</p>
      <p>These trials are <strong>not scored</strong> and are only to help you get used to the format.</p>
      <p style=""margin-top: 2em;"">Press any key to begin.</p>
    </div>
  "," ","html-keyboard-response","65","2.1.0","130090","J=YES, F=NO","7kaxe1t65c","1","73","75","70","","","","","","","","","","","","","","","",""
"1793","<p>Starting practice block 1 of 2. Press any key to continue.</p>"," ","html-keyboard-response","66","2.1.0","131884","J=YES, F=NO","7kaxe1t65c","1","73","75","70","","","","","","","","","","","","","","","",""
"null","<p style=""font-size: 50px;"">+</p>","null","html-keyboard-response","67","2.1.0","132187","J=YES, F=NO","7kaxe1t65c","1","73","75","70","","","","","","","","","","","","","","","",""
"null","audio/beep-329314.mp3","null","audio-keyboard-response","68","2.1.0","133927","J=YES, F=NO","7kaxe1t65c","1","73","75","70","","","","","","","","","","","","","","","",""
"null","audio/van1.wav","null","audio-keyboard-response","69","2.1.0","134556","J=YES, F=NO","7kaxe1t65c","1","73","75","70","","","","","","","","","","","","","","","",""
"null","
          <p id=""word"" style=""font-size: 40px;"">push</p>
          <p style=""font-size: 16px;"">J = YES &nbsp;&nbsp;&nbsp; F = NO</p>
        ","null","html-keyboard-response","70","2.1.0","136062","J=YES, F=NO","7kaxe1t65c","1","73","75","70","","","","","","","","","push","van1","filler","filler","j","false","",""
"null","<p style=""font-size: 50px;"">+</p>","null","html-keyboard-response","71","2.1.0","136376","J=YES, F=NO","7kaxe1t65c","1","73","75","70","","","","","","","","","","","","","","","",""
"null","audio/beep-329314.mp3","null","audio-keyboard-response","72","2.1.0","137906","J=YES, F=NO","7kaxe1t65c","1","73","75","70","","","","","","","","","","","","","","","",""
"null","audio/pain1.wav","null","audio-keyboard-response","73","2.1.0","138377","J=YES, F=NO","7kaxe1t65c","1","73","75","70","","","","","","","","","","","","","","","",""
"433","
          <p id=""word"" style=""font-size: 40px;"">tritted</p>
          <p style=""font-size: 16px;"">J = YES &nbsp;&nbsp;&nbsp; F = NO</p>
        ","j","html-keyboard-response","74","2.1.0","138811","J=YES, F=NO","7kaxe1t65c","1","73","75","70","","","","","","","","","tritted","pain1","pseudoword","pseudoword","f","false","",""
"null","<p style=""font-size: 50px;"">+</p>","null","html-keyboard-response","75","2.1.0","139123","J=YES, F=NO","7kaxe1t65c","1","73","75","70","","","","","","","","","","","","","","","",""
"null","audio/beep-329314.mp3","null","audio-keyboard-response","76","2.1.0","140657","J=YES, F=NO","7kaxe1t65c","1","73","75","70","","","","","","","","","","","","","","","",""
"null","audio/mile1.wav","null","audio-keyboard-response","77","2.1.0","141176","J=YES, F=NO","7kaxe1t65c","1","73","75","70","","","","","","","","","","","","","","","",""
"513","
          <p id=""word"" style=""font-size: 40px;"">writch</p>
          <p style=""font-size: 16px;"">J = YES &nbsp;&nbsp;&nbsp; F = NO</p>
        ","j","html-keyboard-response","78","2.1.0","141691","J=YES, F=NO","7kaxe1t65c","1","73","75","70","","","","","","","","","writch","mile1","pseudoword","pseudoword","f","false","",""
"null","<p style=""font-size: 50px;"">+</p>","null","html-keyboard-response","79","2.1.0","141997","J=YES, F=NO","7kaxe1t65c","1","73","75","70","","","","","","","","","","","","","","","",""
"null","audio/beep-329314.mp3","null","audio-keyboard-response","80","2.1.0","143527","J=YES, F=NO","7kaxe1t65c","1","73","75","70","","","","","","","","","","","","","","","",""
"null","audio/floor.wav","null","audio-keyboard-response","81","2.1.0","144097","J=YES, F=NO","7kaxe1t65c","1","73","75","70","","","","","","","","","","","","","","","",""
"675","
          <p id=""word"" style=""font-size: 40px;"">mop</p>
          <p style=""font-size: 16px;"">J = YES &nbsp;&nbsp;&nbsp; F = NO</p>
        ","f","html-keyboard-response","82","2.1.0","144774","J=YES, F=NO","7kaxe1t65c","1","73","75","70","","","","","","","","","mop","floor","filler","filler","j","false","",""
"null","<p style=""font-size: 50px;"">+</p>","null","html-keyboard-response","83","2.1.0","145078","J=YES, F=NO","7kaxe1t65c","1","73","75","70","","","","","","","","","","","","","","","",""
"null","audio/beep-329314.mp3","null","audio-keyboard-response","84","2.1.0","146606","J=YES, F=NO","7kaxe1t65c","1","73","75","70","","","","","","","","","","","","","","","",""
"null","audio/cave1.wav","null","audio-keyboard-response","85","2.1.0","147176","J=YES, F=NO","7kaxe1t65c","1","73","75","70","","","","","","","","","","","","","","","",""
"939","
          <p id=""word"" style=""font-size: 40px;"">blacket</p>
          <p style=""font-size: 16px;"">J = YES &nbsp;&nbsp;&nbsp; F = NO</p>
        ","f","html-keyboard-response","86","2.1.0","148118","J=YES, F=NO","7kaxe1t65c","1","73","75","70","","","","","","","","","blacket","cave1","pseudoword","pseudoword","f","true","",""
"null","<p style=""font-size: 50px;"">+</p>","null","html-keyboard-response","87","2.1.0","148421","J=YES, F=NO","7kaxe1t65c","1","73","75","70","","","","","","","","","","","","","","","",""
"null","audio/beep-329314.mp3","null","audio-keyboard-response","88","2.1.0","149946","J=YES, F=NO","7kaxe1t65c","1","73","75","70","","","","","","","","","","","","","","","",""
"null","audio/strength.wav","null","audio-keyboard-response","89","2.1.0","150695","J=YES, F=NO","7kaxe1t65c","1","73","75","70","","","","","","","","","","","","","","","",""
"820","
          <p id=""word"" style=""font-size: 40px;"">plabet</p>
          <p style=""font-size: 16px;"">J = YES &nbsp;&nbsp;&nbsp; F = NO</p>
        ","f","html-keyboard-response","90","2.1.0","151516","J=YES, F=NO","7kaxe1t65c","1","73","75","70","","","","","","","","","plabet","strength","pseudoword","pseudoword","f","true","",""
"null","<p style=""font-size: 50px;"">+</p>","null","html-keyboard-response","91","2.1.0","151830","J=YES, F=NO","7kaxe1t65c","1","73","75","70","","","","","","","","","","","","","","","",""
"null","audio/beep-329314.mp3","null","audio-keyboard-response","92","2.1.0","153366","J=YES, F=NO","7kaxe1t65c","1","73","75","70","","","","","","","","","","","","","","","",""
"null","audio/grass.wav","null","audio-keyboard-response","93","2.1.0","154056","J=YES, F=NO","7kaxe1t65c","1","73","75","70","","","","","","","","","","","","","","","",""
"701","
          <p id=""word"" style=""font-size: 40px;"">milames</p>
          <p style=""font-size: 16px;"">J = YES &nbsp;&nbsp;&nbsp; F = NO</p>
        ","f","html-keyboard-response","94","2.1.0","154759","J=YES, F=NO","7kaxe1t65c","1","73","75","70","","","","","","","","","milames","grass","pseudoword","pseudoword","f","true","",""
"null","<p style=""font-size: 50px;"">+</p>","null","html-keyboard-response","95","2.1.0","155073","J=YES, F=NO","7kaxe1t65c","1","73","75","70","","","","","","","","","","","","","","","",""
"null","audio/beep-329314.mp3","null","audio-keyboard-response","96","2.1.0","156606","J=YES, F=NO","7kaxe1t65c","1","73","75","70","","","","","","","","","","","","","","","",""
"null","audio/planet1.wav","null","audio-keyboard-response","97","2.1.0","157236","J=YES, F=NO","7kaxe1t65c","1","73","75","70","","","","","","","","","","","","","","","",""
"946","
          <p id=""word"" style=""font-size: 40px;"">cratched</p>
          <p style=""font-size: 16px;"">J = YES &nbsp;&nbsp;&nbsp; F = NO</p>
        ","f","html-keyboard-response","98","2.1.0","158183","J=YES, F=NO","7kaxe1t65c","1","73","75","70","","","","","","","","","cratched","planet1","pseudoword","pseudoword","f","true","",""
"null","<p style=""font-size: 50px;"">+</p>","null","html-keyboard-response","99","2.1.0","158487","J=YES, F=NO","7kaxe1t65c","1","73","75","70","","","","","","","","","","","","","","","",""
"null","audio/beep-329314.mp3","null","audio-keyboard-response","100","2.1.0","160035","J=YES, F=NO","7kaxe1t65c","1","73","75","70","","","","","","","","","","","","","","","",""
"null","audio/baby.wav","null","audio-keyboard-response","101","2.1.0","160505","J=YES, F=NO","7kaxe1t65c","1","73","75","70","","","","","","","","","","","","","","","",""
"552","
          <p id=""word"" style=""font-size: 40px;"">lift</p>
          <p style=""font-size: 16px;"">J = YES &nbsp;&nbsp;&nbsp; F = NO</p>
        ","f","html-keyboard-response","102","2.1.0","161059","J=YES, F=NO","7kaxe1t65c","1","73","75","70","","","","","","","","","lift","baby","filler","filler","j","false","",""
"null","<p style=""font-size: 50px;"">+</p>","null","html-keyboard-response","103","2.1.0","161376","J=YES, F=NO","7kaxe1t65c","1","73","75","70","","","","","","","","","","","","","","","",""
"null","audio/beep-329314.mp3","null","audio-keyboard-response","104","2.1.0","162935","J=YES, F=NO","7kaxe1t65c","1","73","75","70","","","","","","","","","","","","","","","",""
"null","audio/tax1.wav","null","audio-keyboard-response","105","2.1.0","163585","J=YES, F=NO","7kaxe1t65c","1","73","75","70","","","","","","","","","","","","","","","",""
"842","
          <p id=""word"" style=""font-size: 40px;"">snate</p>
          <p style=""font-size: 16px;"">J = YES &nbsp;&nbsp;&nbsp; F = NO</p>
        ","j","html-keyboard-response","106","2.1.0","164428","J=YES, F=NO","7kaxe1t65c","1","73","75","70","","","","","","","","","snate","tax1","pseudoword","pseudoword","f","false","",""
"null","<p style=""font-size: 50px;"">+</p>","null","html-keyboard-response","107","2.1.0","164742","J=YES, F=NO","7kaxe1t65c","1","73","75","70","","","","","","","","","","","","","","","",""
"null","audio/beep-329314.mp3","null","audio-keyboard-response","108","2.1.0","166296","J=YES, F=NO","7kaxe1t65c","1","73","75","70","","","","","","","","","","","","","","","",""
"null","audio/kettle1.wav","null","audio-keyboard-response","109","2.1.0","166986","J=YES, F=NO","7kaxe1t65c","1","73","75","70","","","","","","","","","","","","","","","",""
"940","
          <p id=""word"" style=""font-size: 40px;"">wrap</p>
          <p style=""font-size: 16px;"">J = YES &nbsp;&nbsp;&nbsp; F = NO</p>
        ","j","html-keyboard-response","110","2.1.0","167928","J=YES, F=NO","7kaxe1t65c","1","73","75","70","","","","","","","","","wrap","kettle1","filler","filler","j","true","",""
"null","<p style=""font-size: 50px;"">+</p>","null","html-keyboard-response","111","2.1.0","168236","J=YES, F=NO","7kaxe1t65c","1","73","75","70","","","","","","","","","","","","","","","",""
"null","audio/beep-329314.mp3","null","audio-keyboard-response","112","2.1.0","169795","J=YES, F=NO","7kaxe1t65c","1","73","75","70","","","","","","","","","","","","","","","",""
"null","audio/hotel1.wav","null","audio-keyboard-response","113","2.1.0","170446","J=YES, F=NO","7kaxe1t65c","1","73","75","70","","","","","","","","","","","","","","","",""
"695","
          <p id=""word"" style=""font-size: 40px;"">flanter</p>
          <p style=""font-size: 16px;"">J = YES &nbsp;&nbsp;&nbsp; F = NO</p>
        ","f","html-keyboard-response","114","2.1.0","171142","J=YES, F=NO","7kaxe1t65c","1","73","75","70","","","","","","","","","flanter","hotel1","pseudoword","pseudoword","f","true","",""
"2395","<p>Starting practice block 2 of 2. Press any key to continue.</p>","AudioVolumeDown","html-keyboard-response","115","2.1.0","173538","J=YES, F=NO","7kaxe1t65c","1","73","75","70","","","","","","","","","","","","","","","",""
"null","<p style=""font-size: 50px;"">+</p>","null","html-keyboard-response","116","2.1.0","173840","J=YES, F=NO","7kaxe1t65c","1","73","75","70","","","","","","","","","","","","","","","",""
"null","audio/beep-329314.mp3","null","audio-keyboard-response","117","2.1.0","175395","J=YES, F=NO","7kaxe1t65c","1","73","75","70","","","","","","","","","","","","","","","",""
"null","audio/birth1.wav","null","audio-keyboard-response","118","2.1.0","175945","J=YES, F=NO","7kaxe1t65c","1","73","75","70","","","","","","","","","","","","","","","",""
"1359","
          <p id=""word"" style=""font-size: 40px;"">peel</p>
          <p style=""font-size: 16px;"">J = YES &nbsp;&nbsp;&nbsp; F = NO</p>
        ","j","html-keyboard-response","119","2.1.0","177306","J=YES, F=NO","7kaxe1t65c","1","73","75","70","","","","","","","","","peel","birth1","filler","filler","j","true","",""
"null","<p style=""font-size: 50px;"">+</p>","null","html-keyboard-response","120","2.1.0","177607","J=YES, F=NO","7kaxe1t65c","1","73","75","70","","","","","","","","","","","","","","","",""
"null","audio/beep-329314.mp3","null","audio-keyboard-response","121","2.1.0","179156","J=YES, F=NO","7kaxe1t65c","1","73","75","70","","","","","","","","","","","","","","","",""
"null","audio/vehicle1.wav","null","audio-keyboard-response","122","2.1.0","179845","J=YES, F=NO","7kaxe1t65c","1","73","75","70","","","","","","","","","","","","","","","",""
"751","
          <p id=""word"" style=""font-size: 40px;"">dropt</p>
          <p style=""font-size: 16px;"">J = YES &nbsp;&nbsp;&nbsp; F = NO</p>
        ","f","html-keyboard-response","123","2.1.0","180597","J=YES, F=NO","7kaxe1t65c","1","73","75","70","","","","","","","","","dropt","vehicle1","pseudoword","pseudoword","f","true","",""
"null","<p style=""font-size: 50px;"">+</p>","null","html-keyboard-response","124","2.1.0","180908","J=YES, F=NO","7kaxe1t65c","1","73","75","70","","","","","","","","","","","","","","","",""
"null","audio/beep-329314.mp3","null","audio-keyboard-response","125","2.1.0","182455","J=YES, F=NO","7kaxe1t65c","1","73","75","70","","","","","","","","","","","","","","","",""
"null","audio/fence.wav","null","audio-keyboard-response","126","2.1.0","183145","J=YES, F=NO","7kaxe1t65c","1","73","75","70","","","","","","","","","","","","","","","",""
"867","
          <p id=""word"" style=""font-size: 40px;"">trim</p>
          <p style=""font-size: 16px;"">J = YES &nbsp;&nbsp;&nbsp; F = NO</p>
        ","f","html-keyboard-response","127","2.1.0","184014","J=YES, F=NO","7kaxe1t65c","1","73","75","70","","","","","","","","","trim","fence","filler","filler","j","false","",""
"null","<p style=""font-size: 50px;"">+</p>","null","html-keyboard-response","128","2.1.0","184324","J=YES, F=NO","7kaxe1t65c","1","73","75","70","","","","","","","","","","","","","","","",""
"null","audio/beep-329314.mp3","null","audio-keyboard-response","129","2.1.0","185875","J=YES, F=NO","7kaxe1t65c","1","73","75","70","","","","","","","","","","","","","","","",""
"null","audio/brain.wav","null","audio-keyboard-response","130","2.1.0","186366","J=YES, F=NO","7kaxe1t65c","1","73","75","70","","","","","","","","","","","","","","","",""
"1192","
          <p id=""word"" style=""font-size: 40px;"">throw</p>
          <p style=""font-size: 16px;"">J = YES &nbsp;&nbsp;&nbsp; F = NO</p>
        ","j","html-keyboard-response","131","2.1.0","187558","J=YES, F=NO","7kaxe1t65c","1","73","75","70","","","","","","","","","throw","brain","filler","filler","j","true","",""
"null","<p style=""font-size: 50px;"">+</p>","null","html-keyboard-response","132","2.1.0","187860","J=YES, F=NO","7kaxe1t65c","1","73","75","70","","","","","","","","","","","","","","","",""
"null","audio/beep-329314.mp3","null","audio-keyboard-response","133","2.1.0","189416","J=YES, F=NO","7kaxe1t65c","1","73","75","70","","","","","","","","","","","","","","","",""
"null","audio/show.wav","null","audio-keyboard-response","134","2.1.0","189985","J=YES, F=NO","7kaxe1t65c","1","73","75","70","","","","","","","","","","","","","","","",""
"525","
          <p id=""word"" style=""font-size: 40px;"">smark</p>
          <p style=""font-size: 16px;"">J = YES &nbsp;&nbsp;&nbsp; F = NO</p>
        ","j","html-keyboard-response","135","2.1.0","190512","J=YES, F=NO","7kaxe1t65c","1","73","75","70","","","","","","","","","smark","show","pseudoword","pseudoword","f","false","",""
"null","<p style=""font-size: 50px;"">+</p>","null","html-keyboard-response","136","2.1.0","190818","J=YES, F=NO","7kaxe1t65c","1","73","75","70","","","","","","","","","","","","","","","",""
"null","audio/beep-329314.mp3","null","audio-keyboard-response","137","2.1.0","192376","J=YES, F=NO","7kaxe1t65c","1","73","75","70","","","","","","","","","","","","","","","",""
"null","audio/bishop1.wav","null","audio-keyboard-response","138","2.1.0","192965","J=YES, F=NO","7kaxe1t65c","1","73","75","70","","","","","","","","","","","","","","","",""
"446","
          <p id=""word"" style=""font-size: 40px;"">play</p>
          <p style=""font-size: 16px;"">J = YES &nbsp;&nbsp;&nbsp; F = NO</p>
        ","j","html-keyboard-response","139","2.1.0","193412","J=YES, F=NO","7kaxe1t65c","1","73","75","70","","","","","","","","","play","bishop1","filler","filler","j","true","",""
"null","<p style=""font-size: 50px;"">+</p>","null","html-keyboard-response","140","2.1.0","193724","J=YES, F=NO","7kaxe1t65c","1","73","75","70","","","","","","","","","","","","","","","",""
"null","audio/beep-329314.mp3","null","audio-keyboard-response","141","2.1.0","195276","J=YES, F=NO","7kaxe1t65c","1","73","75","70","","","","","","","","","","","","","","","",""
"null","audio/account1.wav","null","audio-keyboard-response","142","2.1.0","195985","J=YES, F=NO","7kaxe1t65c","1","73","75","70","","","","","","","","","","","","","","","",""
"463","
          <p id=""word"" style=""font-size: 40px;"">paint</p>
          <p style=""font-size: 16px;"">J = YES &nbsp;&nbsp;&nbsp; F = NO</p>
        ","j","html-keyboard-response","143","2.1.0","196449","J=YES, F=NO","7kaxe1t65c","1","73","75","70","","","","","","","","","paint","account1","filler","filler","j","true","",""
"null","<p style=""font-size: 50px;"">+</p>","null","html-keyboard-response","144","2.1.0","196751","J=YES, F=NO","7kaxe1t65c","1","73","75","70","","","","","","","","","","","","","","","",""
"null","audio/beep-329314.mp3","null","audio-keyboard-response","145","2.1.0","198296","J=YES, F=NO","7kaxe1t65c","1","73","75","70","","","","","","","","","","","","","","","",""
"null","audio/bush1.wav","null","audio-keyboard-response","146","2.1.0","198806","J=YES, F=NO","7kaxe1t65c","1","73","75","70","","","","","","","","","","","","","","","",""
"876","
          <p id=""word"" style=""font-size: 40px;"">platined</p>
          <p style=""font-size: 16px;"">J = YES &nbsp;&nbsp;&nbsp; F = NO</p>
        ","f","html-keyboard-response","147","2.1.0","199683","J=YES, F=NO","7kaxe1t65c","1","73","75","70","","","","","","","","","platined","bush1","pseudoword","pseudoword","f","true","",""
"null","<p style=""font-size: 50px;"">+</p>","null","html-keyboard-response","148","2.1.0","199996","J=YES, F=NO","7kaxe1t65c","1","73","75","70","","","","","","","","","","","","","","","",""
"null","audio/beep-329314.mp3","null","audio-keyboard-response","149","2.1.0","201555","J=YES, F=NO","7kaxe1t65c","1","73","75","70","","","","","","","","","","","","","","","",""
"null","audio/empire.wav","null","audio-keyboard-response","150","2.1.0","202226","J=YES, F=NO","7kaxe1t65c","1","73","75","70","","","","","","","","","","","","","","","",""
"690","
          <p id=""word"" style=""font-size: 40px;"">slorby</p>
          <p style=""font-size: 16px;"">J = YES &nbsp;&nbsp;&nbsp; F = NO</p>
        ","f","html-keyboard-response","151","2.1.0","202916","J=YES, F=NO","7kaxe1t65c","1","73","75","70","","","","","","","","","slorby","empire","pseudoword","pseudoword","f","true","",""
"null","<p style=""font-size: 50px;"">+</p>","null","html-keyboard-response","152","2.1.0","203221","J=YES, F=NO","7kaxe1t65c","1","73","75","70","","","","","","","","","","","","","","","",""
"null","audio/beep-329314.mp3","null","audio-keyboard-response","153","2.1.0","204775","J=YES, F=NO","7kaxe1t65c","1","73","75","70","","","","","","","","","","","","","","","",""
"null","audio/battle1.wav","null","audio-keyboard-response","154","2.1.0","205485","J=YES, F=NO","7kaxe1t65c","1","73","75","70","","","","","","","","","","","","","","","",""
"969","
          <p id=""word"" style=""font-size: 40px;"">boil</p>
          <p style=""font-size: 16px;"">J = YES &nbsp;&nbsp;&nbsp; F = NO</p>
        ","j","html-keyboard-response","155","2.1.0","206455","J=YES, F=NO","7kaxe1t65c","1","73","75","70","","","","","","","","","boil","battle1","filler","filler","j","true","",""
"null","<p style=""font-size: 50px;"">+</p>","null","html-keyboard-response","156","2.1.0","206765","J=YES, F=NO","7kaxe1t65c","1","73","75","70","","","","","","","","","","","","","","","",""
"null","audio/beep-329314.mp3","null","audio-keyboard-response","157","2.1.0","208316","J=YES, F=NO","7kaxe1t65c","1","73","75","70","","","","","","","","","","","","","","","",""
"null","audio/window1.wav","null","audio-keyboard-response","158","2.1.0","209045","J=YES, F=NO","7kaxe1t65c","1","73","75","70","","","","","","","","","","","","","","","",""
"767","
          <p id=""word"" style=""font-size: 40px;"">toss</p>
          <p style=""font-size: 16px;"">J = YES &nbsp;&nbsp;&nbsp; F = NO</p>
        ","j","html-keyboard-response","159","2.1.0","209813","J=YES, F=NO","7kaxe1t65c","1","73","75","70","","","","","","","","","toss","window1","filler","filler","j","true","",""
"null","<p style=""font-size: 50px;"">+</p>","null","html-keyboard-response","160","2.1.0","210125","J=YES, F=NO","7kaxe1t65c","1","73","75","70","","","","","","","","","","","","","","","",""
"null","audio/beep-329314.mp3","null","audio-keyboard-response","161","2.1.0","211675","J=YES, F=NO","7kaxe1t65c","1","73","75","70","","","","","","","","","","","","","","","",""
"null","audio/terrain.wav","null","audio-keyboard-response","162","2.1.0","212465","J=YES, F=NO","7kaxe1t65c","1","73","75","70","","","","","","","","","","","","","","","",""
"829","
          <p id=""word"" style=""font-size: 40px;"">twist</p>
          <p style=""font-size: 16px;"">J = YES &nbsp;&nbsp;&nbsp; F = NO</p>
        ","j","html-keyboard-response","163","2.1.0","213295","J=YES, F=NO","7kaxe1t65c","1","73","75","70","","","","","","","","","twist","terrain","filler","filler","j","true","",""
"12256","
    <div style=""max-width: 800px; margin: auto; text-align: left;"">
      <h2>Part 2: Main Trials</h2>
      <p>Great job on the practice trials!</p>
      <p>You will now begin the <strong>main set of trials</strong>.</p>
      <p>Remember your key assignments:</p>
      <ul>
        <li><strong>J</strong> = YES (real English word)</li>
        <li><strong>F</strong> = NO (not a real English word)</li>
      </ul>
      <p>Try to respond as <strong>quickly and accurately</strong> as possible.</p>
      <p style=""margin-top: 2em;"">Press any key to begin the main trials.</p>
    </div>
  ","f","html-keyboard-response","164","2.1.0","225553","J=YES, F=NO","7kaxe1t65c","1","73","75","70","","","","","","","","","","","","","","","",""
"2355","<p>Starting main block 1 of 8. Press any key to continue.</p>","j","html-keyboard-response","165","2.1.0","227909","J=YES, F=NO","7kaxe1t65c","1","73","75","70","","","","","","","","","","","","","","","",""
"null","<p style=""font-size: 50px;"">+</p>","null","html-keyboard-response","166","2.1.0","228220","J=YES, F=NO","7kaxe1t65c","1","73","75","70","","","","","","","","","","","","","","","",""
"null","audio/beep-329314.mp3","null","audio-keyboard-response","167","2.1.0","229929","J=YES, F=NO","7kaxe1t65c","1","73","75","70","","","","","","","","","","","","","","","",""
"null","audio/cancer1.wav","null","audio-keyboard-response","168","2.1.0","230489","J=YES, F=NO","7kaxe1t65c","1","73","75","70","","","","","","","","","","","","","","","",""
"504","
          <p id=""word"" style=""font-size: 40px;"">fight</p>
          <p style=""font-size: 16px;"">J = YES &nbsp;&nbsp;&nbsp; F = NO</p>
        ","j","html-keyboard-response","169","2.1.0","230995","J=YES, F=NO","7kaxe1t65c","1","73","75","70","","","","","","","","","fight","cancer1","metaphor","experimental","j","true","",""
"null","<p style=""font-size: 50px;"">+</p>","null","html-keyboard-response","170","2.1.0","231309","J=YES, F=NO","7kaxe1t65c","1","73","75","70","","","","","","","","","","","","","","","",""
"null","audio/beep-329314.mp3","null","audio-keyboard-response","171","2.1.0","232849","J=YES, F=NO","7kaxe1t65c","1","73","75","70","","","","","","","","","","","","","","","",""
"null","audio/radio1.wav","null","audio-keyboard-response","172","2.1.0","233450","J=YES, F=NO","7kaxe1t65c","1","73","75","70","","","","","","","","","","","","","","","",""
"565","
          <p id=""word"" style=""font-size: 40px;"">blanter</p>
          <p style=""font-size: 16px;"">J = YES &nbsp;&nbsp;&nbsp; F = NO</p>
        ","f","html-keyboard-response","173","2.1.0","234017","J=YES, F=NO","7kaxe1t65c","1","73","75","70","","","","","","","","","blanter","radio1","pseudoword","pseudoword","f","true","",""
"null","<p style=""font-size: 50px;"">+</p>","null","html-keyboard-response","174","2.1.0","234325","J=YES, F=NO","7kaxe1t65c","1","73","75","70","","","","","","","","","","","","","","","",""
"null","audio/beep-329314.mp3","null","audio-keyboard-response","175","2.1.0","235860","J=YES, F=NO","7kaxe1t65c","1","73","75","70","","","","","","","","","","","","","","","",""
"null","audio/gift1.wav","null","audio-keyboard-response","176","2.1.0","236360","J=YES, F=NO","7kaxe1t65c","1","73","75","70","","","","","","","","","","","","","","","",""
"634","
          <p id=""word"" style=""font-size: 40px;"">protsh</p>
          <p style=""font-size: 16px;"">J = YES &nbsp;&nbsp;&nbsp; F = NO</p>
        ","f","html-keyboard-response","177","2.1.0","236996","J=YES, F=NO","7kaxe1t65c","1","73","75","70","","","","","","","","","protsh","gift1","pseudoword","pseudoword","f","true","",""
"null","<p style=""font-size: 50px;"">+</p>","null","html-keyboard-response","178","2.1.0","237303","J=YES, F=NO","7kaxe1t65c","1","73","75","70","","","","","","","","","","","","","","","",""
"null","audio/beep-329314.mp3","null","audio-keyboard-response","179","2.1.0","238861","J=YES, F=NO","7kaxe1t65c","1","73","75","70","","","","","","","","","","","","","","","",""
"null","audio/stain.wav","null","audio-keyboard-response","180","2.1.0","239520","J=YES, F=NO","7kaxe1t65c","1","73","75","70","","","","","","","","","","","","","","","",""
"645","
          <p id=""word"" style=""font-size: 40px;"">rumpsied</p>
          <p style=""font-size: 16px;"">J = YES &nbsp;&nbsp;&nbsp; F = NO</p>
        ","f","html-keyboard-response","181","2.1.0","240166","J=YES, F=NO","7kaxe1t65c","1","73","75","70","","","","","","","","","rumpsied","stain","pseudoword","pseudoword","f","true","",""
"null","<p style=""font-size: 50px;"">+</p>","null","html-keyboard-response","182","2.1.0","240469","J=YES, F=NO","7kaxe1t65c","1","73","75","70","","","","","","","","","","","","","","","",""
"null","audio/beep-329314.mp3","null","audio-keyboard-response","183","2.1.0","242020","J=YES, F=NO","7kaxe1t65c","1","73","75","70","","","","","","","","","","","","","","","",""
"null","audio/pig.wav","null","audio-keyboard-response","184","2.1.0","242420","J=YES, F=NO","7kaxe1t65c","1","73","75","70","","","","","","","","","","","","","","","",""
"521","
          <p id=""word"" style=""font-size: 40px;"">tirlike</p>
          <p style=""font-size: 16px;"">J = YES &nbsp;&nbsp;&nbsp; F = NO</p>
        ","f","html-keyboard-response","185","2.1.0","242942","J=YES, F=NO","7kaxe1t65c","1","73","75","70","","","","","","","","","tirlike","pig","pseudoword","pseudoword","f","true","",""
"null","<p style=""font-size: 50px;"">+</p>","null","html-keyboard-response","186","2.1.0","243256","J=YES, F=NO","7kaxe1t65c","1","73","75","70","","","","","","","","","","","","","","","",""
"null","audio/beep-329314.mp3","null","audio-keyboard-response","187","2.1.0","244799","J=YES, F=NO","7kaxe1t65c","1","73","75","70","","","","","","","","","","","","","","","",""
"null","audio/arm.wav","null","audio-keyboard-response","188","2.1.0","245360","J=YES, F=NO","7kaxe1t65c","1","73","75","70","","","","","","","","","","","","","","","",""
"500","
          <p id=""word"" style=""font-size: 40px;"">seize</p>
          <p style=""font-size: 16px;"">J = YES &nbsp;&nbsp;&nbsp; F = NO</p>
        ","f","html-keyboard-response","189","2.1.0","245862","J=YES, F=NO","7kaxe1t65c","1","73","75","70","","","","","","","","","seize","arm","literal","experimental","j","false","",""
"null","<p style=""font-size: 50px;"">+</p>","null","html-keyboard-response","190","2.1.0","246163","J=YES, F=NO","7kaxe1t65c","1","73","75","70","","","","","","","","","","","","","","","",""
"null","audio/beep-329314.mp3","null","audio-keyboard-response","191","2.1.0","247719","J=YES, F=NO","7kaxe1t65c","1","73","75","70","","","","","","","","","","","","","","","",""
"null","audio/tomato.wav","null","audio-keyboard-response","192","2.1.0","248420","J=YES, F=NO","7kaxe1t65c","1","73","75","70","","","","","","","","","","","","","","","",""
"864","
          <p id=""word"" style=""font-size: 40px;"">gladies</p>
          <p style=""font-size: 16px;"">J = YES &nbsp;&nbsp;&nbsp; F = NO</p>
        ","f","html-keyboard-response","193","2.1.0","249285","J=YES, F=NO","7kaxe1t65c","1","73","75","70","","","","","","","","","gladies","tomato","pseudoword","pseudoword","f","true","",""
"null","<p style=""font-size: 50px;"">+</p>","null","html-keyboard-response","194","2.1.0","249594","J=YES, F=NO","7kaxe1t65c","1","73","75","70","","","","","","","","","","","","","","","",""
"null","audio/beep-329314.mp3","null","audio-keyboard-response","195","2.1.0","251142","J=YES, F=NO","7kaxe1t65c","1","73","75","70","","","","","","","","","","","","","","","",""
"null","audio/cash1.wav","null","audio-keyboard-response","196","2.1.0","251719","J=YES, F=NO","7kaxe1t65c","1","73","75","70","","","","","","","","","","","","","","","",""
"469","
          <p id=""word"" style=""font-size: 40px;"">splear</p>
          <p style=""font-size: 16px;"">J = YES &nbsp;&nbsp;&nbsp; F = NO</p>
        ","f","html-keyboard-response","197","2.1.0","252190","J=YES, F=NO","7kaxe1t65c","1","73","75","70","","","","","","","","","splear","cash1","pseudoword","pseudoword","f","true","",""
"null","<p style=""font-size: 50px;"">+</p>","null","html-keyboard-response","198","2.1.0","252505","J=YES, F=NO","7kaxe1t65c","1","73","75","70","","","","","","","","","","","","","","","",""
"null","audio/beep-329314.mp3","null","audio-keyboard-response","199","2.1.0","254060","J=YES, F=NO","7kaxe1t65c","1","73","75","70","","","","","","","","","","","","","","","",""
"null","audio/pattern.wav","null","audio-keyboard-response","200","2.1.0","254581","J=YES, F=NO","7kaxe1t65c","1","73","75","70","","","","","","","","","","","","","","","",""
"487","
          <p id=""word"" style=""font-size: 40px;"">tug</p>
          <p style=""font-size: 16px;"">J = YES &nbsp;&nbsp;&nbsp; F = NO</p>
        ","f","html-keyboard-response","201","2.1.0","255070","J=YES, F=NO","7kaxe1t65c","1","73","75","70","","","","","","","","","tug","pattern","filler","filler","j","false","",""
"null","<p style=""font-size: 50px;"">+</p>","null","html-keyboard-response","202","2.1.0","255386","J=YES, F=NO","7kaxe1t65c","1","73","75","70","","","","","","","","","","","","","","","",""
"null","audio/beep-329314.mp3","null","audio-keyboard-response","203","2.1.0","256941","J=YES, F=NO","7kaxe1t65c","1","73","75","70","","","","","","","","","","","","","","","",""
"null","audio/bottle.wav","null","audio-keyboard-response","204","2.1.0","257422","J=YES, F=NO","7kaxe1t65c","1","73","75","70","","","","","","","","","","","","","","","",""
"478","
          <p id=""word"" style=""font-size: 40px;"">watch</p>
          <p style=""font-size: 16px;"">J = YES &nbsp;&nbsp;&nbsp; F = NO</p>
        ","j","html-keyboard-response","205","2.1.0","257901","J=YES, F=NO","7kaxe1t65c","1","73","75","70","","","","","","","","","watch","bottle","filler","filler","j","true","",""
"null","<p style=""font-size: 50px;"">+</p>","null","html-keyboard-response","206","2.1.0","258208","J=YES, F=NO","7kaxe1t65c","1","73","75","70","","","","","","","","","","","","","","","",""
"null","audio/beep-329314.mp3","null","audio-keyboard-response","207","2.1.0","259761","J=YES, F=NO","7kaxe1t65c","1","73","75","70","","","","","","","","","","","","","","","",""
"null","audio/topic.wav","null","audio-keyboard-response","208","2.1.0","260360","J=YES, F=NO","7kaxe1t65c","1","73","75","70","","","","","","","","","","","","","","","",""
"620","
          <p id=""word"" style=""font-size: 40px;"">approach</p>
          <p style=""font-size: 16px;"">J = YES &nbsp;&nbsp;&nbsp; F = NO</p>
        ","j","html-keyboard-response","209","2.1.0","260982","J=YES, F=NO","7kaxe1t65c","1","73","75","70","","","","","","","","","approach","topic","metaphor","experimental","j","true","",""
"null","<p style=""font-size: 50px;"">+</p>","null","html-keyboard-response","210","2.1.0","261286","J=YES, F=NO","7kaxe1t65c","1","73","75","70","","","","","","","","","","","","","","","",""
"null","audio/beep-329314.mp3","null","audio-keyboard-response","211","2.1.0","262840","J=YES, F=NO","7kaxe1t65c","1","73","75","70","","","","","","","","","","","","","","","",""
"null","audio/topic.wav","null","audio-keyboard-response","212","2.1.0","263420","J=YES, F=NO","7kaxe1t65c","1","73","75","70","","","","","","","","","","","","","","","",""
"566","
          <p id=""word"" style=""font-size: 40px;"">infortuitist</p>
          <p style=""font-size: 16px;"">J = YES &nbsp;&nbsp;&nbsp; F = NO</p>
        ","f","html-keyboard-response","213","2.1.0","263986","J=YES, F=NO","7kaxe1t65c","1","73","75","70","","","","","","","","","infortuitist","topic","pseudoword","pseudoword","f","true","",""
"null","<p style=""font-size: 50px;"">+</p>","null","html-keyboard-response","214","2.1.0","264293","J=YES, F=NO","7kaxe1t65c","1","73","75","70","","","","","","","","","","","","","","","",""
"null","audio/beep-329314.mp3","null","audio-keyboard-response","215","2.1.0","265840","J=YES, F=NO","7kaxe1t65c","1","73","75","70","","","","","","","","","","","","","","","",""
"null","audio/golf1.wav","null","audio-keyboard-response","216","2.1.0","266421","J=YES, F=NO","7kaxe1t65c","1","73","75","70","","","","","","","","","","","","","","","",""
"809","
          <p id=""word"" style=""font-size: 40px;"">bury</p>
          <p style=""font-size: 16px;"">J = YES &nbsp;&nbsp;&nbsp; F = NO</p>
        ","j","html-keyboard-response","217","2.1.0","267231","J=YES, F=NO","7kaxe1t65c","1","73","75","70","","","","","","","","","bury","golf1","unrelated","experimental","j","true","",""
"null","<p style=""font-size: 50px;"">+</p>","null","html-keyboard-response","218","2.1.0","267549","J=YES, F=NO","7kaxe1t65c","1","73","75","70","","","","","","","","","","","","","","","",""
"null","audio/beep-329314.mp3","null","audio-keyboard-response","219","2.1.0","269101","J=YES, F=NO","7kaxe1t65c","1","73","75","70","","","","","","","","","","","","","","","",""
"null","audio/neck.wav","null","audio-keyboard-response","220","2.1.0","269679","J=YES, F=NO","7kaxe1t65c","1","73","75","70","","","","","","","","","","","","","","","",""
"471","
          <p id=""word"" style=""font-size: 40px;"">share</p>
          <p style=""font-size: 16px;"">J = YES &nbsp;&nbsp;&nbsp; F = NO</p>
        ","j","html-keyboard-response","221","2.1.0","270151","J=YES, F=NO","7kaxe1t65c","1","73","75","70","","","","","","","","","share","neck","unrelated","experimental","j","true","",""
"null","<p style=""font-size: 50px;"">+</p>","null","html-keyboard-response","222","2.1.0","270458","J=YES, F=NO","7kaxe1t65c","1","73","75","70","","","","","","","","","","","","","","","",""
"null","audio/beep-329314.mp3","null","audio-keyboard-response","223","2.1.0","272019","J=YES, F=NO","7kaxe1t65c","1","73","75","70","","","","","","","","","","","","","","","",""
"null","audio/neck.wav","null","audio-keyboard-response","224","2.1.0","272560","J=YES, F=NO","7kaxe1t65c","1","73","75","70","","","","","","","","","","","","","","","",""
"729","
          <p id=""word"" style=""font-size: 40px;"">werling</p>
          <p style=""font-size: 16px;"">J = YES &nbsp;&nbsp;&nbsp; F = NO</p>
        ","f","html-keyboard-response","225","2.1.0","273291","J=YES, F=NO","7kaxe1t65c","1","73","75","70","","","","","","","","","werling","neck","pseudoword","pseudoword","f","true","",""
"null","<p style=""font-size: 50px;"">+</p>","null","html-keyboard-response","226","2.1.0","273599","J=YES, F=NO","7kaxe1t65c","1","73","75","70","","","","","","","","","","","","","","","",""
"null","audio/beep-329314.mp3","null","audio-keyboard-response","227","2.1.0","275161","J=YES, F=NO","7kaxe1t65c","1","73","75","70","","","","","","","","","","","","","","","",""
"null","audio/cloud1.wav","null","audio-keyboard-response","228","2.1.0","275740","J=YES, F=NO","7kaxe1t65c","1","73","75","70","","","","","","","","","","","","","","","",""
"842","
          <p id=""word"" style=""font-size: 40px;"">brotant</p>
          <p style=""font-size: 16px;"">J = YES &nbsp;&nbsp;&nbsp; F = NO</p>
        ","f","html-keyboard-response","229","2.1.0","276584","J=YES, F=NO","7kaxe1t65c","1","73","75","70","","","","","","","","","brotant","cloud1","pseudoword","pseudoword","f","true","",""
"5037","<p>Excellent! You have finished block 1 of 8.</p>
                     <p>Feel free to take a 30 second break.</p>
                     <p>Press any key when you're ready to continue.</p>","f","html-keyboard-response","230","2.1.0","281622","J=YES, F=NO","7kaxe1t65c","1","73","75","70","","","","","","","","","","","","","","","",""
"1767","<p>Starting main block 2 of 8. Press any key to continue.</p>","f","html-keyboard-response","231","2.1.0","283390","J=YES, F=NO","7kaxe1t65c","1","73","75","70","","","","","","","","","","","","","","","",""
"null","<p style=""font-size: 50px;"">+</p>","null","html-keyboard-response","232","2.1.0","283696","J=YES, F=NO","7kaxe1t65c","1","73","75","70","","","","","","","","","","","","","","","",""
"null","audio/beep-329314.mp3","null","audio-keyboard-response","233","2.1.0","285230","J=YES, F=NO","7kaxe1t65c","1","73","75","70","","","","","","","","","","","","","","","",""
"null","audio/menu.wav","null","audio-keyboard-response","234","2.1.0","285830","J=YES, F=NO","7kaxe1t65c","1","73","75","70","","","","","","","","","","","","","","","",""
"439","
          <p id=""word"" style=""font-size: 40px;"">slice</p>
          <p style=""font-size: 16px;"">J = YES &nbsp;&nbsp;&nbsp; F = NO</p>
        ","j","html-keyboard-response","235","2.1.0","286271","J=YES, F=NO","7kaxe1t65c","1","73","75","70","","","","","","","","","slice","menu","filler","filler","j","true","",""
"null","<p style=""font-size: 50px;"">+</p>","null","html-keyboard-response","236","2.1.0","286572","J=YES, F=NO","7kaxe1t65c","1","73","75","70","","","","","","","","","","","","","","","",""
"null","audio/beep-329314.mp3","null","audio-keyboard-response","237","2.1.0","288130","J=YES, F=NO","7kaxe1t65c","1","73","75","70","","","","","","","","","","","","","","","",""
"null","audio/foot1.wav","null","audio-keyboard-response","238","2.1.0","288709","J=YES, F=NO","7kaxe1t65c","1","73","75","70","","","","","","","","","","","","","","","",""
"569","
          <p id=""word"" style=""font-size: 40px;"">thrutt</p>
          <p style=""font-size: 16px;"">J = YES &nbsp;&nbsp;&nbsp; F = NO</p>
        ","f","html-keyboard-response","239","2.1.0","289280","J=YES, F=NO","7kaxe1t65c","1","73","75","70","","","","","","","","","thrutt","foot1","pseudoword","pseudoword","f","true","",""
"null","<p style=""font-size: 50px;"">+</p>","null","html-keyboard-response","240","2.1.0","289595","J=YES, F=NO","7kaxe1t65c","1","73","75","70","","","","","","","","","","","","","","","",""
"null","audio/beep-329314.mp3","null","audio-keyboard-response","241","2.1.0","291150","J=YES, F=NO","7kaxe1t65c","1","73","75","70","","","","","","","","","","","","","","","",""
"null","audio/hawk1.wav","null","audio-keyboard-response","242","2.1.0","291770","J=YES, F=NO","7kaxe1t65c","1","73","75","70","","","","","","","","","","","","","","","",""
"521","
          <p id=""word"" style=""font-size: 40px;"">ostach</p>
          <p style=""font-size: 16px;"">J = YES &nbsp;&nbsp;&nbsp; F = NO</p>
        ","f","html-keyboard-response","243","2.1.0","292292","J=YES, F=NO","7kaxe1t65c","1","73","75","70","","","","","","","","","ostach","hawk1","pseudoword","pseudoword","f","true","",""
"null","<p style=""font-size: 50px;"">+</p>","null","html-keyboard-response","244","2.1.0","292597","J=YES, F=NO","7kaxe1t65c","1","73","75","70","","","","","","","","","","","","","","","",""
"null","audio/beep-329314.mp3","null","audio-keyboard-response","245","2.1.0","294149","J=YES, F=NO","7kaxe1t65c","1","73","75","70","","","","","","","","","","","","","","","",""
"null","audio/train.wav","null","audio-keyboard-response","246","2.1.0","294710","J=YES, F=NO","7kaxe1t65c","1","73","75","70","","","","","","","","","","","","","","","",""
"558","
          <p id=""word"" style=""font-size: 40px;"">catch</p>
          <p style=""font-size: 16px;"">J = YES &nbsp;&nbsp;&nbsp; F = NO</p>
        ","j","html-keyboard-response","247","2.1.0","295269","J=YES, F=NO","7kaxe1t65c","1","73","75","70","","","","","","","","","catch","train","metaphor","experimental","j","true","",""
"null","<p style=""font-size: 50px;"">+</p>","null","html-keyboard-response","248","2.1.0","295574","J=YES, F=NO","7kaxe1t65c","1","73","75","70","","","","","","","","","","","","","","","",""
"null","audio/beep-329314.mp3","null","audio-keyboard-response","249","2.1.0","297130","J=YES, F=NO","7kaxe1t65c","1","73","75","70","","","","","","","","","","","","","","","",""
"null","audio/smirk1.wav","null","audio-keyboard-response","250","2.1.0","297910","J=YES, F=NO","7kaxe1t65c","1","73","75","70","","","","","","","","","","","","","","","",""
"628","
          <p id=""word"" style=""font-size: 40px;"">snopt</p>
          <p style=""font-size: 16px;"">J = YES &nbsp;&nbsp;&nbsp; F = NO</p>
        ","f","html-keyboard-response","251","2.1.0","298539","J=YES, F=NO","7kaxe1t65c","1","73","75","70","","","","","","","","","snopt","smirk1","pseudoword","pseudoword","f","true","",""
"null","<p style=""font-size: 50px;"">+</p>","null","html-keyboard-response","252","2.1.0","298845","J=YES, F=NO","7kaxe1t65c","1","73","75","70","","","","","","","","","","","","","","","",""
"null","audio/beep-329314.mp3","null","audio-keyboard-response","253","2.1.0","300391","J=YES, F=NO","7kaxe1t65c","1","73","75","70","","","","","","","","","","","","","","","",""
"null","audio/tunnel.wav","null","audio-keyboard-response","254","2.1.0","300850","J=YES, F=NO","7kaxe1t65c","1","73","75","70","","","","","","","","","","","","","","","",""
"488","
          <p id=""word"" style=""font-size: 40px;"">grasp</p>
          <p style=""font-size: 16px;"">J = YES &nbsp;&nbsp;&nbsp; F = NO</p>
        ","f","html-keyboard-response","255","2.1.0","301339","J=YES, F=NO","7kaxe1t65c","1","73","75","70","","","","","","","","","grasp","tunnel","unrelated","experimental","j","false","",""
"null","<p style=""font-size: 50px;"">+</p>","null","html-keyboard-response","256","2.1.0","301651","J=YES, F=NO","7kaxe1t65c","1","73","75","70","","","","","","","","","","","","","","","",""
"null","audio/beep-329314.mp3","null","audio-keyboard-response","257","2.1.0","303210","J=YES, F=NO","7kaxe1t65c","1","73","75","70","","","","","","","","","","","","","","","",""
"null","audio/uncle1.wav","null","audio-keyboard-response","258","2.1.0","303729","J=YES, F=NO","7kaxe1t65c","1","73","75","70","","","","","","","","","","","","","","","",""
"589","
          <p id=""word"" style=""font-size: 40px;"">break</p>
          <p style=""font-size: 16px;"">J = YES &nbsp;&nbsp;&nbsp; F = NO</p>
        ","j","html-keyboard-response","259","2.1.0","304319","J=YES, F=NO","7kaxe1t65c","1","73","75","70","","","","","","","","","break","uncle1","unrelated","experimental","j","true","",""
"null","<p style=""font-size: 50px;"">+</p>","null","html-keyboard-response","260","2.1.0","304628","J=YES, F=NO","7kaxe1t65c","1","73","75","70","","","","","","","","","","","","","","","",""
"null","audio/beep-329314.mp3","null","audio-keyboard-response","261","2.1.0","306190","J=YES, F=NO","7kaxe1t65c","1","73","75","70","","","","","","","","","","","","","","","",""
"null","audio/haste1.wav","null","audio-keyboard-response","262","2.1.0","306790","J=YES, F=NO","7kaxe1t65c","1","73","75","70","","","","","","","","","","","","","","","",""
"678","
          <p id=""word"" style=""font-size: 40px;"">hide</p>
          <p style=""font-size: 16px;"">J = YES &nbsp;&nbsp;&nbsp; F = NO</p>
        ","j","html-keyboard-response","263","2.1.0","307469","J=YES, F=NO","7kaxe1t65c","1","73","75","70","","","","","","","","","hide","haste1","unrelated","experimental","j","true","",""
"null","<p style=""font-size: 50px;"">+</p>","null","html-keyboard-response","264","2.1.0","307778","J=YES, F=NO","7kaxe1t65c","1","73","75","70","","","","","","","","","","","","","","","",""
"null","audio/beep-329314.mp3","null","audio-keyboard-response","265","2.1.0","309329","J=YES, F=NO","7kaxe1t65c","1","73","75","70","","","","","","","","","","","","","","","",""
"null","audio/tunnel.wav","null","audio-keyboard-response","266","2.1.0","309769","J=YES, F=NO","7kaxe1t65c","1","73","75","70","","","","","","","","","","","","","","","",""
"647","
          <p id=""word"" style=""font-size: 40px;"">gred</p>
          <p style=""font-size: 16px;"">J = YES &nbsp;&nbsp;&nbsp; F = NO</p>
        ","f","html-keyboard-response","267","2.1.0","310418","J=YES, F=NO","7kaxe1t65c","1","73","75","70","","","","","","","","","gred","tunnel","pseudoword","pseudoword","f","true","",""
"null","<p style=""font-size: 50px;"">+</p>","null","html-keyboard-response","268","2.1.0","310730","J=YES, F=NO","7kaxe1t65c","1","73","75","70","","","","","","","","","","","","","","","",""
"null","audio/beep-329314.mp3","null","audio-keyboard-response","269","2.1.0","312292","J=YES, F=NO","7kaxe1t65c","1","73","75","70","","","","","","","","","","","","","","","",""
"null","audio/alarm1.wav","null","audio-keyboard-response","270","2.1.0","312929","J=YES, F=NO","7kaxe1t65c","1","73","75","70","","","","","","","","","","","","","","","",""
"503","
          <p id=""word"" style=""font-size: 40px;"">lock</p>
          <p style=""font-size: 16px;"">J = YES &nbsp;&nbsp;&nbsp; F = NO</p>
        ","j","html-keyboard-response","271","2.1.0","313433","J=YES, F=NO","7kaxe1t65c","1","73","75","70","","","","","","","","","lock","alarm1","filler","filler","j","true","",""
"null","<p style=""font-size: 50px;"">+</p>","null","html-keyboard-response","272","2.1.0","313749","J=YES, F=NO","7kaxe1t65c","1","73","75","70","","","","","","","","","","","","","","","",""
"null","audio/beep-329314.mp3","null","audio-keyboard-response","273","2.1.0","315309","J=YES, F=NO","7kaxe1t65c","1","73","75","70","","","","","","","","","","","","","","","",""
"null","audio/beach1.wav","null","audio-keyboard-response","274","2.1.0","315949","J=YES, F=NO","7kaxe1t65c","1","73","75","70","","","","","","","","","","","","","","","",""
"538","
          <p id=""word"" style=""font-size: 40px;"">cut</p>
          <p style=""font-size: 16px;"">J = YES &nbsp;&nbsp;&nbsp; F = NO</p>
        ","j","html-keyboard-response","275","2.1.0","316488","J=YES, F=NO","7kaxe1t65c","1","73","75","70","","","","","","","","","cut","beach1","unrelated","experimental","j","true","",""
"null","<p style=""font-size: 50px;"">+</p>","null","html-keyboard-response","276","2.1.0","316802","J=YES, F=NO","7kaxe1t65c","1","73","75","70","","","","","","","","","","","","","","","",""
"null","audio/beep-329314.mp3","null","audio-keyboard-response","277","2.1.0","318350","J=YES, F=NO","7kaxe1t65c","1","73","75","70","","","","","","","","","","","","","","","",""
"null","audio/show.wav","null","audio-keyboard-response","278","2.1.0","318910","J=YES, F=NO","7kaxe1t65c","1","73","75","70","","","","","","","","","","","","","","","",""
"545","
          <p id=""word"" style=""font-size: 40px;"">hold</p>
          <p style=""font-size: 16px;"">J = YES &nbsp;&nbsp;&nbsp; F = NO</p>
        ","j","html-keyboard-response","279","2.1.0","319457","J=YES, F=NO","7kaxe1t65c","1","73","75","70","","","","","","","","","hold","show","metaphor","experimental","j","true","",""
"null","<p style=""font-size: 50px;"">+</p>","null","html-keyboard-response","280","2.1.0","319762","J=YES, F=NO","7kaxe1t65c","1","73","75","70","","","","","","","","","","","","","","","",""
"null","audio/beep-329314.mp3","null","audio-keyboard-response","281","2.1.0","321310","J=YES, F=NO","7kaxe1t65c","1","73","75","70","","","","","","","","","","","","","","","",""
"null","audio/golf1.wav","null","audio-keyboard-response","282","2.1.0","321871","J=YES, F=NO","7kaxe1t65c","1","73","75","70","","","","","","","","","","","","","","","",""
"544","
          <p id=""word"" style=""font-size: 40px;"">drabble</p>
          <p style=""font-size: 16px;"">J = YES &nbsp;&nbsp;&nbsp; F = NO</p>
        ","f","html-keyboard-response","283","2.1.0","322417","J=YES, F=NO","7kaxe1t65c","1","73","75","70","","","","","","","","","drabble","golf1","pseudoword","pseudoword","f","true","",""
"null","<p style=""font-size: 50px;"">+</p>","null","html-keyboard-response","284","2.1.0","322722","J=YES, F=NO","7kaxe1t65c","1","73","75","70","","","","","","","","","","","","","","","",""
"null","audio/beep-329314.mp3","null","audio-keyboard-response","285","2.1.0","324271","J=YES, F=NO","7kaxe1t65c","1","73","75","70","","","","","","","","","","","","","","","",""
"null","audio/pine.wav","null","audio-keyboard-response","286","2.1.0","324810","J=YES, F=NO","7kaxe1t65c","1","73","75","70","","","","","","","","","","","","","","","",""
"712","
          <p id=""word"" style=""font-size: 40px;"">crebble</p>
          <p style=""font-size: 16px;"">J = YES &nbsp;&nbsp;&nbsp; F = NO</p>
        ","f","html-keyboard-response","287","2.1.0","325524","J=YES, F=NO","7kaxe1t65c","1","73","75","70","","","","","","","","","crebble","pine","pseudoword","pseudoword","f","true","",""
"null","<p style=""font-size: 50px;"">+</p>","null","html-keyboard-response","288","2.1.0","325831","J=YES, F=NO","7kaxe1t65c","1","73","75","70","","","","","","","","","","","","","","","",""
"null","audio/beep-329314.mp3","null","audio-keyboard-response","289","2.1.0","327390","J=YES, F=NO","7kaxe1t65c","1","73","75","70","","","","","","","","","","","","","","","",""
"null","audio/weight1.wav","null","audio-keyboard-response","290","2.1.0","327971","J=YES, F=NO","7kaxe1t65c","1","73","75","70","","","","","","","","","","","","","","","",""
"493","
          <p id=""word"" style=""font-size: 40px;"">support</p>
          <p style=""font-size: 16px;"">J = YES &nbsp;&nbsp;&nbsp; F = NO</p>
        ","j","html-keyboard-response","291","2.1.0","328466","J=YES, F=NO","7kaxe1t65c","1","73","75","70","","","","","","","","","support","weight1","literal","experimental","j","true","",""
"null","<p style=""font-size: 50px;"">+</p>","null","html-keyboard-response","292","2.1.0","328775","J=YES, F=NO","7kaxe1t65c","1","73","75","70","","","","","","","","","","","","","","","",""
"null","audio/beep-329314.mp3","null","audio-keyboard-response","293","2.1.0","330329","J=YES, F=NO","7kaxe1t65c","1","73","75","70","","","","","","","","","","","","","","","",""
"null","audio/sand.wav","null","audio-keyboard-response","294","2.1.0","331009","J=YES, F=NO","7kaxe1t65c","1","73","75","70","","","","","","","","","","","","","","","",""
"436","
          <p id=""word"" style=""font-size: 40px;"">proted</p>
          <p style=""font-size: 16px;"">J = YES &nbsp;&nbsp;&nbsp; F = NO</p>
        ","j","html-keyboard-response","295","2.1.0","331447","J=YES, F=NO","7kaxe1t65c","1","73","75","70","","","","","","","","","proted","sand","pseudoword","pseudoword","f","false","",""
"1419","<p>Excellent! You have finished block 2 of 8.</p>
                     <p>Feel free to take a 30 second break.</p>
                     <p>Press any key when you're ready to continue.</p>","j","html-keyboard-response","296","2.1.0","332867","J=YES, F=NO","7kaxe1t65c","1","73","75","70","","","","","","","","","","","","","","","",""
"599","<p>Starting main block 3 of 8. Press any key to continue.</p>","j","html-keyboard-response","297","2.1.0","333467","J=YES, F=NO","7kaxe1t65c","1","73","75","70","","","","","","","","","","","","","","","",""
"null","<p style=""font-size: 50px;"">+</p>","null","html-keyboard-response","298","2.1.0","333782","J=YES, F=NO","7kaxe1t65c","1","73","75","70","","","","","","","","","","","","","","","",""
"null","audio/beep-329314.mp3","null","audio-keyboard-response","299","2.1.0","335331","J=YES, F=NO","7kaxe1t65c","1","73","75","70","","","","","","","","","","","","","","","",""
"null","audio/breath.wav","null","audio-keyboard-response","300","2.1.0","335930","J=YES, F=NO","7kaxe1t65c","1","73","75","70","","","","","","","","","","","","","","","",""
"573","
          <p id=""word"" style=""font-size: 40px;"">twets</p>
          <p style=""font-size: 16px;"">J = YES &nbsp;&nbsp;&nbsp; F = NO</p>
        ","f","html-keyboard-response","301","2.1.0","336505","J=YES, F=NO","7kaxe1t65c","1","73","75","70","","","","","","","","","twets","breath","pseudoword","pseudoword","f","true","",""
"null","<p style=""font-size: 50px;"">+</p>","null","html-keyboard-response","302","2.1.0","336807","J=YES, F=NO","7kaxe1t65c","1","73","75","70","","","","","","","","","","","","","","","",""
"null","audio/beep-329314.mp3","null","audio-keyboard-response","303","2.1.0","338350","J=YES, F=NO","7kaxe1t65c","1","73","75","70","","","","","","","","","","","","","","","",""
"null","audio/belief.wav","null","audio-keyboard-response","304","2.1.0","339011","J=YES, F=NO","7kaxe1t65c","1","73","75","70","","","","","","","","","","","","","","","",""
"523","
          <p id=""word"" style=""font-size: 40px;"">read</p>
          <p style=""font-size: 16px;"">J = YES &nbsp;&nbsp;&nbsp; F = NO</p>
        ","j","html-keyboard-response","305","2.1.0","339535","J=YES, F=NO","7kaxe1t65c","1","73","75","70","","","","","","","","","read","belief","filler","filler","j","true","",""
"null","<p style=""font-size: 50px;"">+</p>","null","html-keyboard-response","306","2.1.0","339850","J=YES, F=NO","7kaxe1t65c","1","73","75","70","","","","","","","","","","","","","","","",""
"null","audio/beep-329314.mp3","null","audio-keyboard-response","307","2.1.0","341410","J=YES, F=NO","7kaxe1t65c","1","73","75","70","","","","","","","","","","","","","","","",""
"null","audio/hotel1.wav","null","audio-keyboard-response","308","2.1.0","342031","J=YES, F=NO","7kaxe1t65c","1","73","75","70","","","","","","","","","","","","","","","",""
"465","
          <p id=""word"" style=""font-size: 40px;"">spread</p>
          <p style=""font-size: 16px;"">J = YES &nbsp;&nbsp;&nbsp; F = NO</p>
        ","j","html-keyboard-response","309","2.1.0","342497","J=YES, F=NO","7kaxe1t65c","1","73","75","70","","","","","","","","","spread","hotel1","unrelated","experimental","j","true","",""
"null","<p style=""font-size: 50px;"">+</p>","null","html-keyboard-response","310","2.1.0","342810","J=YES, F=NO","7kaxe1t65c","1","73","75","70","","","","","","","","","","","","","","","",""
"null","audio/beep-329314.mp3","null","audio-keyboard-response","311","2.1.0","344370","J=YES, F=NO","7kaxe1t65c","1","73","75","70","","","","","","","","","","","","","","","",""
"null","audio/beach1.wav","null","audio-keyboard-response","312","2.1.0","344990","J=YES, F=NO","7kaxe1t65c","1","73","75","70","","","","","","","","","","","","","","","",""
"481","
          <p id=""word"" style=""font-size: 40px;"">drive</p>
          <p style=""font-size: 16px;"">J = YES &nbsp;&nbsp;&nbsp; F = NO</p>
        ","j","html-keyboard-response","313","2.1.0","345473","J=YES, F=NO","7kaxe1t65c","1","73","75","70","","","","","","","","","drive","beach1","filler","filler","j","true","",""
"null","<p style=""font-size: 50px;"">+</p>","null","html-keyboard-response","314","2.1.0","345789","J=YES, F=NO","7kaxe1t65c","1","73","75","70","","","","","","","","","","","","","","","",""
"null","audio/beep-329314.mp3","null","audio-keyboard-response","315","2.1.0","347350","J=YES, F=NO","7kaxe1t65c","1","73","75","70","","","","","","","","","","","","","","","",""
"null","audio/cash1.wav","null","audio-keyboard-response","316","2.1.0","347930","J=YES, F=NO","7kaxe1t65c","1","73","75","70","","","","","","","","","","","","","","","",""
"562","
          <p id=""word"" style=""font-size: 40px;"">invest</p>
          <p style=""font-size: 16px;"">J = YES &nbsp;&nbsp;&nbsp; F = NO</p>
        ","j","html-keyboard-response","317","2.1.0","348493","J=YES, F=NO","7kaxe1t65c","1","73","75","70","","","","","","","","","invest","cash1","literal","experimental","j","true","",""
"null","<p style=""font-size: 50px;"">+</p>","null","html-keyboard-response","318","2.1.0","348810","J=YES, F=NO","7kaxe1t65c","1","73","75","70","","","","","","","","","","","","","","","",""
"null","audio/beep-329314.mp3","null","audio-keyboard-response","319","2.1.0","350370","J=YES, F=NO","7kaxe1t65c","1","73","75","70","","","","","","","","","","","","","","","",""
"null","audio/age1.wav","null","audio-keyboard-response","320","2.1.0","350951","J=YES, F=NO","7kaxe1t65c","1","73","75","70","","","","","","","","","","","","","","","",""
"556","
          <p id=""word"" style=""font-size: 40px;"">lachry</p>
          <p style=""font-size: 16px;"">J = YES &nbsp;&nbsp;&nbsp; F = NO</p>
        ","f","html-keyboard-response","321","2.1.0","351509","J=YES, F=NO","7kaxe1t65c","1","73","75","70","","","","","","","","","lachry","age1","pseudoword","pseudoword","f","true","",""
"null","<p style=""font-size: 50px;"">+</p>","null","html-keyboard-response","322","2.1.0","351820","J=YES, F=NO","7kaxe1t65c","1","73","75","70","","","","","","","","","","","","","","","",""
"null","audio/beep-329314.mp3","null","audio-keyboard-response","323","2.1.0","353400","J=YES, F=NO","7kaxe1t65c","1","73","75","70","","","","","","","","","","","","","","","",""
"null","audio/haste1.wav","null","audio-keyboard-response","324","2.1.0","353979","J=YES, F=NO","7kaxe1t65c","1","73","75","70","","","","","","","","","","","","","","","",""
"600","
          <p id=""word"" style=""font-size: 40px;"">coraconate</p>
          <p style=""font-size: 16px;"">J = YES &nbsp;&nbsp;&nbsp; F = NO</p>
        ","f","html-keyboard-response","325","2.1.0","354580","J=YES, F=NO","7kaxe1t65c","1","73","75","70","","","","","","","","","coraconate","haste1","pseudoword","pseudoword","f","true","",""
"null","<p style=""font-size: 50px;"">+</p>","null","html-keyboard-response","326","2.1.0","354893","J=YES, F=NO","7kaxe1t65c","1","73","75","70","","","","","","","","","","","","","","","",""
"null","audio/beep-329314.mp3","null","audio-keyboard-response","327","2.1.0","356461","J=YES, F=NO","7kaxe1t65c","1","73","75","70","","","","","","","","","","","","","","","",""
"null","audio/noise1.wav","null","audio-keyboard-response","328","2.1.0","357100","J=YES, F=NO","7kaxe1t65c","1","73","75","70","","","","","","","","","","","","","","","",""
"609","
          <p id=""word"" style=""font-size: 40px;"">slintered</p>
          <p style=""font-size: 16px;"">J = YES &nbsp;&nbsp;&nbsp; F = NO</p>
        ","j","html-keyboard-response","329","2.1.0","357709","J=YES, F=NO","7kaxe1t65c","1","73","75","70","","","","","","","","","slintered","noise1","pseudoword","pseudoword","f","false","",""
"null","<p style=""font-size: 50px;"">+</p>","null","html-keyboard-response","330","2.1.0","358021","J=YES, F=NO","7kaxe1t65c","1","73","75","70","","","","","","","","","","","","","","","",""
"null","audio/beep-329314.mp3","null","audio-keyboard-response","331","2.1.0","359601","J=YES, F=NO","7kaxe1t65c","1","73","75","70","","","","","","","","","","","","","","","",""
"null","audio/corpse1.wav","null","audio-keyboard-response","332","2.1.0","360300","J=YES, F=NO","7kaxe1t65c","1","73","75","70","","","","","","","","","","","","","","","",""
"631","
          <p id=""word"" style=""font-size: 40px;"">glonet</p>
          <p style=""font-size: 16px;"">J = YES &nbsp;&nbsp;&nbsp; F = NO</p>
        ","f","html-keyboard-response","333","2.1.0","360933","J=YES, F=NO","7kaxe1t65c","1","73","75","70","","","","","","","","","glonet","corpse1","pseudoword","pseudoword","f","true","",""
"null","<p style=""font-size: 50px;"">+</p>","null","html-keyboard-response","334","2.1.0","361247","J=YES, F=NO","7kaxe1t65c","1","73","75","70","","","","","","","","","","","","","","","",""
"null","audio/beep-329314.mp3","null","audio-keyboard-response","335","2.1.0","362820","J=YES, F=NO","7kaxe1t65c","1","73","75","70","","","","","","","","","","","","","","","",""
"null","audio/meal.wav","null","audio-keyboard-response","336","2.1.0","363320","J=YES, F=NO","7kaxe1t65c","1","73","75","70","","","","","","","","","","","","","","","",""
"542","
          <p id=""word"" style=""font-size: 40px;"">gallite</p>
          <p style=""font-size: 16px;"">J = YES &nbsp;&nbsp;&nbsp; F = NO</p>
        ","f","html-keyboard-response","337","2.1.0","363864","J=YES, F=NO","7kaxe1t65c","1","73","75","70","","","","","","","","","gallite","meal","pseudoword","pseudoword","f","true","",""
"null","<p style=""font-size: 50px;"">+</p>","null","html-keyboard-response","338","2.1.0","364170","J=YES, F=NO","7kaxe1t65c","1","73","75","70","","","","","","","","","","","","","","","",""
"null","audio/beep-329314.mp3","null","audio-keyboard-response","339","2.1.0","365740","J=YES, F=NO","7kaxe1t65c","1","73","75","70","","","","","","","","","","","","","","","",""
"null","audio/gossip1.wav","null","audio-keyboard-response","340","2.1.0","366400","J=YES, F=NO","7kaxe1t65c","1","73","75","70","","","","","","","","","","","","","","","",""
"575","
          <p id=""word"" style=""font-size: 40px;"">camerish</p>
          <p style=""font-size: 16px;"">J = YES &nbsp;&nbsp;&nbsp; F = NO</p>
        ","f","html-keyboard-response","341","2.1.0","366977","J=YES, F=NO","7kaxe1t65c","1","73","75","70","","","","","","","","","camerish","gossip1","pseudoword","pseudoword","f","true","",""
"null","<p style=""font-size: 50px;"">+</p>","null","html-keyboard-response","342","2.1.0","367294","J=YES, F=NO","7kaxe1t65c","1","73","75","70","","","","","","","","","","","","","","","",""
"null","audio/beep-329314.mp3","null","audio-keyboard-response","343","2.1.0","368861","J=YES, F=NO","7kaxe1t65c","1","73","75","70","","","","","","","","","","","","","","","",""
"null","audio/foe1.wav","null","audio-keyboard-response","344","2.1.0","369420","J=YES, F=NO","7kaxe1t65c","1","73","75","70","","","","","","","","","","","","","","","",""
"588","
          <p id=""word"" style=""font-size: 40px;"">creth</p>
          <p style=""font-size: 16px;"">J = YES &nbsp;&nbsp;&nbsp; F = NO</p>
        ","f","html-keyboard-response","345","2.1.0","370010","J=YES, F=NO","7kaxe1t65c","1","73","75","70","","","","","","","","","creth","foe1","pseudoword","pseudoword","f","true","",""
"null","<p style=""font-size: 50px;"">+</p>","null","html-keyboard-response","346","2.1.0","370315","J=YES, F=NO","7kaxe1t65c","1","73","75","70","","","","","","","","","","","","","","","",""
"null","audio/beep-329314.mp3","null","audio-keyboard-response","347","2.1.0","371881","J=YES, F=NO","7kaxe1t65c","1","73","75","70","","","","","","","","","","","","","","","",""
"null","audio/weapon.wav","null","audio-keyboard-response","348","2.1.0","372481","J=YES, F=NO","7kaxe1t65c","1","73","75","70","","","","","","","","","","","","","","","",""
"629","
          <p id=""word"" style=""font-size: 40px;"">carry</p>
          <p style=""font-size: 16px;"">J = YES &nbsp;&nbsp;&nbsp; F = NO</p>
        ","j","html-keyboard-response","349","2.1.0","373111","J=YES, F=NO","7kaxe1t65c","1","73","75","70","","","","","","","","","carry","weapon","literal","experimental","j","true","",""
"null","<p style=""font-size: 50px;"">+</p>","null","html-keyboard-response","350","2.1.0","373423","J=YES, F=NO","7kaxe1t65c","1","73","75","70","","","","","","","","","","","","","","","",""
"null","audio/beep-329314.mp3","null","audio-keyboard-response","351","2.1.0","375000","J=YES, F=NO","7kaxe1t65c","1","73","75","70","","","","","","","","","","","","","","","",""
"null","audio/ankle1.wav","null","audio-keyboard-response","352","2.1.0","375561","J=YES, F=NO","7kaxe1t65c","1","73","75","70","","","","","","","","","","","","","","","",""
"612","
          <p id=""word"" style=""font-size: 40px;"">switm</p>
          <p style=""font-size: 16px;"">J = YES &nbsp;&nbsp;&nbsp; F = NO</p>
        ","f","html-keyboard-response","353","2.1.0","376175","J=YES, F=NO","7kaxe1t65c","1","73","75","70","","","","","","","","","switm","ankle1","pseudoword","pseudoword","f","true","",""
"null","<p style=""font-size: 50px;"">+</p>","null","html-keyboard-response","354","2.1.0","376480","J=YES, F=NO","7kaxe1t65c","1","73","75","70","","","","","","","","","","","","","","","",""
"null","audio/beep-329314.mp3","null","audio-keyboard-response","355","2.1.0","378061","J=YES, F=NO","7kaxe1t65c","1","73","75","70","","","","","","","","","","","","","","","",""
"null","audio/strength.wav","null","audio-keyboard-response","356","2.1.0","378820","J=YES, F=NO","7kaxe1t65c","1","73","75","70","","","","","","","","","","","","","","","",""
"829","
          <p id=""word"" style=""font-size: 40px;"">possess</p>
          <p style=""font-size: 16px;"">J = YES &nbsp;&nbsp;&nbsp; F = NO</p>
        ","j","html-keyboard-response","357","2.1.0","379650","J=YES, F=NO","7kaxe1t65c","1","73","75","70","","","","","","","","","possess","strength","metaphor","experimental","j","true","",""
"null","<p style=""font-size: 50px;"">+</p>","null","html-keyboard-response","358","2.1.0","379958","J=YES, F=NO","7kaxe1t65c","1","73","75","70","","","","","","","","","","","","","","","",""
"null","audio/beep-329314.mp3","null","audio-keyboard-response","359","2.1.0","381540","J=YES, F=NO","7kaxe1t65c","1","73","75","70","","","","","","","","","","","","","","","",""
"null","audio/winter.wav","null","audio-keyboard-response","360","2.1.0","382141","J=YES, F=NO","7kaxe1t65c","1","73","75","70","","","","","","","","","","","","","","","",""
"632","
          <p id=""word"" style=""font-size: 40px;"">straven</p>
          <p style=""font-size: 16px;"">J = YES &nbsp;&nbsp;&nbsp; F = NO</p>
        ","f","html-keyboard-response","361","2.1.0","382774","J=YES, F=NO","7kaxe1t65c","1","73","75","70","","","","","","","","","straven","winter","pseudoword","pseudoword","f","true","",""
"1047","<p>Excellent! You have finished block 3 of 8.</p>
                     <p>Feel free to take a 30 second break.</p>
                     <p>Press any key when you're ready to continue.</p>","j","html-keyboard-response","362","2.1.0","383822","J=YES, F=NO","7kaxe1t65c","1","73","75","70","","","","","","","","","","","","","","","",""
"456","<p>Starting main block 4 of 8. Press any key to continue.</p>","j","html-keyboard-response","363","2.1.0","384280","J=YES, F=NO","7kaxe1t65c","1","73","75","70","","","","","","","","","","","","","","","",""
"null","<p style=""font-size: 50px;"">+</p>","null","html-keyboard-response","364","2.1.0","384583","J=YES, F=NO","7kaxe1t65c","1","73","75","70","","","","","","","","","","","","","","","",""
"null","audio/beep-329314.mp3","null","audio-keyboard-response","365","2.1.0","386160","J=YES, F=NO","7kaxe1t65c","1","73","75","70","","","","","","","","","","","","","","","",""
"null","audio/table1.wav","null","audio-keyboard-response","366","2.1.0","386699","J=YES, F=NO","7kaxe1t65c","1","73","75","70","","","","","","","","","","","","","","","",""
"656","
          <p id=""word"" style=""font-size: 40px;"">stimb</p>
          <p style=""font-size: 16px;"">J = YES &nbsp;&nbsp;&nbsp; F = NO</p>
        ","j","html-keyboard-response","367","2.1.0","387356","J=YES, F=NO","7kaxe1t65c","1","73","75","70","","","","","","","","","stimb","table1","pseudoword","pseudoword","f","false","",""
"null","<p style=""font-size: 50px;"">+</p>","null","html-keyboard-response","368","2.1.0","387661","J=YES, F=NO","7kaxe1t65c","1","73","75","70","","","","","","","","","","","","","","","",""
"null","audio/beep-329314.mp3","null","audio-keyboard-response","369","2.1.0","389231","J=YES, F=NO","7kaxe1t65c","1","73","75","70","","","","","","","","","","","","","","","",""
"null","audio/plot1.wav","null","audio-keyboard-response","370","2.1.0","389830","J=YES, F=NO","7kaxe1t65c","1","73","75","70","","","","","","","","","","","","","","","",""
"468","
          <p id=""word"" style=""font-size: 40px;"">glenter</p>
          <p style=""font-size: 16px;"">J = YES &nbsp;&nbsp;&nbsp; F = NO</p>
        ","f","html-keyboard-response","371","2.1.0","390300","J=YES, F=NO","7kaxe1t65c","1","73","75","70","","","","","","","","","glenter","plot1","pseudoword","pseudoword","f","true","",""
"null","<p style=""font-size: 50px;"">+</p>","null","html-keyboard-response","372","2.1.0","390605","J=YES, F=NO","7kaxe1t65c","1","73","75","70","","","","","","","","","","","","","","","",""
"null","audio/beep-329314.mp3","null","audio-keyboard-response","373","2.1.0","392172","J=YES, F=NO","7kaxe1t65c","1","73","75","70","","","","","","","","","","","","","","","",""
"null","audio/voice.wav","null","audio-keyboard-response","374","2.1.0","392831","J=YES, F=NO","7kaxe1t65c","1","73","75","70","","","","","","","","","","","","","","","",""
"622","
          <p id=""word"" style=""font-size: 40px;"">grintle</p>
          <p style=""font-size: 16px;"">J = YES &nbsp;&nbsp;&nbsp; F = NO</p>
        ","f","html-keyboard-response","375","2.1.0","393454","J=YES, F=NO","7kaxe1t65c","1","73","75","70","","","","","","","","","grintle","voice","pseudoword","pseudoword","f","true","",""
"null","<p style=""font-size: 50px;"">+</p>","null","html-keyboard-response","376","2.1.0","393756","J=YES, F=NO","7kaxe1t65c","1","73","75","70","","","","","","","","","","","","","","","",""
"null","audio/beep-329314.mp3","null","audio-keyboard-response","377","2.1.0","395331","J=YES, F=NO","7kaxe1t65c","1","73","75","70","","","","","","","","","","","","","","","",""
"null","audio/cinema1.wav","null","audio-keyboard-response","378","2.1.0","396010","J=YES, F=NO","7kaxe1t65c","1","73","75","70","","","","","","","","","","","","","","","",""
"523","
          <p id=""word"" style=""font-size: 40px;"">murple</p>
          <p style=""font-size: 16px;"">J = YES &nbsp;&nbsp;&nbsp; F = NO</p>
        ","f","html-keyboard-response","379","2.1.0","396534","J=YES, F=NO","7kaxe1t65c","1","73","75","70","","","","","","","","","murple","cinema1","pseudoword","pseudoword","f","true","",""
"null","<p style=""font-size: 50px;"">+</p>","null","html-keyboard-response","380","2.1.0","396840","J=YES, F=NO","7kaxe1t65c","1","73","75","70","","","","","","","","","","","","","","","",""
"null","audio/beep-329314.mp3","null","audio-keyboard-response","381","2.1.0","398410","J=YES, F=NO","7kaxe1t65c","1","73","75","70","","","","","","","","","","","","","","","",""
"null","audio/arm.wav","null","audio-keyboard-response","382","2.1.0","398970","J=YES, F=NO","7kaxe1t65c","1","73","75","70","","","","","","","","","","","","","","","",""
"569","
          <p id=""word"" style=""font-size: 40px;"">pigne</p>
          <p style=""font-size: 16px;"">J = YES &nbsp;&nbsp;&nbsp; F = NO</p>
        ","f","html-keyboard-response","383","2.1.0","399540","J=YES, F=NO","7kaxe1t65c","1","73","75","70","","","","","","","","","pigne","arm","pseudoword","pseudoword","f","true","",""
"null","<p style=""font-size: 50px;"">+</p>","null","html-keyboard-response","384","2.1.0","399850","J=YES, F=NO","7kaxe1t65c","1","73","75","70","","","","","","","","","","","","","","","",""
"null","audio/beep-329314.mp3","null","audio-keyboard-response","385","2.1.0","401431","J=YES, F=NO","7kaxe1t65c","1","73","75","70","","","","","","","","","","","","","","","",""
"null","audio/purpose.wav","null","audio-keyboard-response","386","2.1.0","402150","J=YES, F=NO","7kaxe1t65c","1","73","75","70","","","","","","","","","","","","","","","",""
"655","
          <p id=""word"" style=""font-size: 40px;"">whigm</p>
          <p style=""font-size: 16px;"">J = YES &nbsp;&nbsp;&nbsp; F = NO</p>
        ","f","html-keyboard-response","387","2.1.0","402807","J=YES, F=NO","7kaxe1t65c","1","73","75","70","","","","","","","","","whigm","purpose","pseudoword","pseudoword","f","true","",""
"null","<p style=""font-size: 50px;"">+</p>","null","html-keyboard-response","388","2.1.0","403110","J=YES, F=NO","7kaxe1t65c","1","73","75","70","","","","","","","","","","","","","","","",""
"null","audio/beep-329314.mp3","null","audio-keyboard-response","389","2.1.0","404690","J=YES, F=NO","7kaxe1t65c","1","73","75","70","","","","","","","","","","","","","","","",""
"null","audio/desire.wav","null","audio-keyboard-response","390","2.1.0","405350","J=YES, F=NO","7kaxe1t65c","1","73","75","70","","","","","","","","","","","","","","","",""
"330","
          <p id=""word"" style=""font-size: 40px;"">nophed</p>
          <p style=""font-size: 16px;"">J = YES &nbsp;&nbsp;&nbsp; F = NO</p>
        ","f","html-keyboard-response","391","2.1.0","405680","J=YES, F=NO","7kaxe1t65c","1","73","75","70","","","","","","","","","nophed","desire","pseudoword","pseudoword","f","true","",""
