"rt","stimulus","response","trial_type","trial_index","plugin_version","time_elapsed","response_mapping","subject_id","list_index","lextale_score","lextale_word_score","lextale_nonword_score","success","timeout","failed_images","failed_audio","failed_video","task","isWord","isDummy","target","prime","prime_type","stimulus_type","correct_response","correct","section","question_order"
"5285","
    <div style=""max-width: 800px; margin: auto; text-align: left;"">
      <h2>STANFORD UNIVERSITY</h2>
      <h3>Research Information Sheet</h3>
      <p><strong>Protocol Director:</strong> Robert Hawkins<br>
      <strong>Protocol Title:</strong> Communication and social cognition in natural audiovisual contexts<br>
      <strong>IRB#:</strong> 77226</p>

      <p><strong>DESCRIPTION:</strong> You are invited to participate in a research study about language and communication. The purpose of the research is to understand how you interact and communicate with other people in naturalistic settings as a fluent English speaker. This research will be conducted through the Prolific platform, including participants from the US, UK, and Canada. If you decide to participate in this research, you will play a communication game in a group with one or more partners.</p>

      <p><strong>TIME INVOLVEMENT:</strong> The task will last the amount of time advertised on Prolific. You are free to withdraw from the study at any time.</p>

      <p><strong>RISKS AND BENEFITS:</strong> You may become frustrated if your partner gets distracted, or experience discomfort if other participants in your group send text that is inappropriate for the task. We ask you to please be respectful of other participants you might be interacting with to mitigate these risks. You may also experience discomfort when being asked to discuss or challenge emotionally salient political beliefs. Study data will be stored securely, in compliance with Stanford University standards, minimizing the risk of confidentiality breach. This study advances our scientific understanding of how people communicate and collaborate in naturalistic settings. This study may lead to further insights about what can go wrong in teamwork, suggest potential interventions to overcome these barriers, and help to develop assistive technologies that collaborate with human partners. We cannot and do not guarantee or promise that you will receive any benefits from this study.</p>

      <p><strong>PAYMENTS:</strong> You will receive payment in the amount advertised on Prolific. If you do not complete this study, you will receive prorated payment based on the time that you have spent. Additionally, you may be eligible for bonus payments as described in the instructions.</p>

      <p><strong>PARTICIPANT’S RIGHTS:</strong> If you have read this form and have decided to participate in this project, please understand your participation is voluntary and you have the right to withdraw your consent or discontinue participation at any time without penalty or loss of benefits to which you are otherwise entitled. The alternative is not to participate. You have the right to refuse to answer particular questions. The results of this research study may be presented at scientific or professional meetings or published in scientific journals. Your individual privacy will be maintained in all published and written data resulting from the study. In accordance with scientific norms, the data from this study may be used or shared with other researchers for future research (after removing personally identifying information) without additional consent from you.</p>

      <p><strong>CONTACT INFORMATION:</strong><br>
      Questions: If you have any questions, concerns or complaints about this research, its procedures, risks and benefits, contact the Protocol Director, Robert Hawkins (<a href=""mailto:rdhawkins@stanford.edu"">rdhawkins@stanford.edu</a>, 217-549-6923).<br>
      Independent Contact: If you are not satisfied with how this study is being conducted, or if you have any concerns, complaints, or general questions about the research or your rights as a participant, please contact the Stanford Institutional Review Board (IRB) to speak to someone independent of the research team at 650-723-2480 or toll free at 1-866-680-2906, or email at <a href=""mailto:irbnon-med@stanford.edu"">irbnon-med@stanford.edu</a>. You can also write to the Stanford IRB, Stanford University, 1705 El Camino Real, Palo Alto, CA 94306.</p>

      <p><strong>Please save or print a copy of this page for your records.</strong></p>
      <p>If you agree to participate in this research, click ""Continue"" below.</p>
    </div>
  ","0","html-button-response","0","2.1.0","5291","F=YES, J=NO","7mq2dnchqw","0","76","83","70","","","","","","","","","","","","","","","",""
"4389","
    <div style=""max-width: 800px; margin: auto; text-align: left;"">
      <h2>Welcome!</h2>
      <p>Thank you for participating in this study. The experiment consists of three parts:</p>
      <ol>
        <li>An English vocabulary test</li>
        <li>A main task in which you will hear and see words, and decide whether the written word is a real English word</li>
        <li>A brief survey about your background</li>
      </ol>
      <p>Each part will be introduced before it begins.</p>
      <p>Please make sure you are in a quiet environment and can hear audio clearly for the final task.</p>
      <p style=""margin-top: 2em;"">Press any key to begin.</p>
    </div>
  ","g","html-keyboard-response","1","2.1.0","9682","F=YES, J=NO","7mq2dnchqw","0","76","83","70","","","","","","","","","","","","","","","",""
"","","","preload","2","2.1.0","13693","F=YES, J=NO","7mq2dnchqw","0","76","83","70","true","false","[]","[]","[]","","","","","","","","","","",""
"6519","
    <div style=""max-width: 800px; margin: auto; text-align: left;"">
      <h2>Part 1: Vocabulary Test</h2>
      <p>You will now complete the first part of the study: a short English vocabulary test.</p>
      <p>This test is called <strong>LexTALE</strong> and helps us get a general sense of your English proficiency.</p>
      <p style=""margin-top: 2em;"">Press any key to continue.</p>
    </div>
  ","h","html-keyboard-response","3","2.1.0","20213","F=YES, J=NO","7mq2dnchqw","0","76","83","70","","","","","","","","","","","","","","","",""
"10761","
    <div style=""max-width: 800px; margin: auto; text-align: left;"">
      <h2>LexTALE Vocabulary Test</h2>
      <p>In this test, you will see a series of letter strings—one at a time.</p>
      <p>Your task is to decide whether each string is a real English word.</p>
      <p><strong>Key responses:</strong></p>
      <ul>
        <li><strong>F</strong> = YES (real English word)</li>
        <li><strong>J</strong> = NO (not a real English word)</li>
      </ul>
      <p>There is no time limit, but please try to be accurate.</p>
      <p style=""margin-top: 2em;"">Press any key to begin.</p>
    </div>
  ","f","html-keyboard-response","4","2.1.0","30975","F=YES, J=NO","7mq2dnchqw","0","76","83","70","","","","","","","","","","","","","","","",""
"2225","
  <p style=""font-size: 40px;"">platery</p>
  <p style=""font-size: 16px;"">F = YES &nbsp;&nbsp;&nbsp; J = NO</p>
","f","html-keyboard-response","5","2.1.0","33201","F=YES, J=NO","7mq2dnchqw","0","76","83","70","","","","","","lextale","false","true","","","","","","","",""
"779","
  <p style=""font-size: 40px;"">denial</p>
  <p style=""font-size: 16px;"">F = YES &nbsp;&nbsp;&nbsp; J = NO</p>
","f","html-keyboard-response","6","2.1.0","33981","F=YES, J=NO","7mq2dnchqw","0","76","83","70","","","","","","lextale","true","true","","","","","","","",""
"2315","
  <p style=""font-size: 40px;"">marrit</p>
  <p style=""font-size: 16px;"">F = YES &nbsp;&nbsp;&nbsp; J = NO</p>
","j","html-keyboard-response","7","2.1.0","36297","F=YES, J=NO","7mq2dnchqw","0","76","83","70","","","","","","lextale","false","true","","","","","","","",""
"1160","
  <p style=""font-size: 40px;"">bottle</p>
  <p style=""font-size: 16px;"">F = YES &nbsp;&nbsp;&nbsp; J = NO</p>
","f","html-keyboard-response","8","2.1.0","37458","F=YES, J=NO","7mq2dnchqw","0","76","83","70","","","","","","lextale","true","false","","","","","","","",""
"1069","
  <p style=""font-size: 40px;"">birst</p>
  <p style=""font-size: 16px;"">F = YES &nbsp;&nbsp;&nbsp; J = NO</p>
","j","html-keyboard-response","9","2.1.0","38528","F=YES, J=NO","7mq2dnchqw","0","76","83","70","","","","","","lextale","false","false","","","","","","","",""
"728","
  <p style=""font-size: 40px;"">envy</p>
  <p style=""font-size: 16px;"">F = YES &nbsp;&nbsp;&nbsp; J = NO</p>
","f","html-keyboard-response","10","2.1.0","39256","F=YES, J=NO","7mq2dnchqw","0","76","83","70","","","","","","lextale","true","false","","","","","","","",""
"1237","
  <p style=""font-size: 40px;"">brang</p>
  <p style=""font-size: 16px;"">F = YES &nbsp;&nbsp;&nbsp; J = NO</p>
","j","html-keyboard-response","11","2.1.0","40494","F=YES, J=NO","7mq2dnchqw","0","76","83","70","","","","","","lextale","false","false","","","","","","","",""
"801","
  <p style=""font-size: 40px;"">huge</p>
  <p style=""font-size: 16px;"">F = YES &nbsp;&nbsp;&nbsp; J = NO</p>
","f","html-keyboard-response","12","2.1.0","41296","F=YES, J=NO","7mq2dnchqw","0","76","83","70","","","","","","lextale","true","false","","","","","","","",""
"1111","
  <p style=""font-size: 40px;"">plove</p>
  <p style=""font-size: 16px;"">F = YES &nbsp;&nbsp;&nbsp; J = NO</p>
","j","html-keyboard-response","13","2.1.0","42408","F=YES, J=NO","7mq2dnchqw","0","76","83","70","","","","","","lextale","false","false","","","","","","","",""
"751","
  <p style=""font-size: 40px;"">border</p>
  <p style=""font-size: 16px;"">F = YES &nbsp;&nbsp;&nbsp; J = NO</p>
","f","html-keyboard-response","14","2.1.0","43159","F=YES, J=NO","7mq2dnchqw","0","76","83","70","","","","","","lextale","true","false","","","","","","","",""
"904","
  <p style=""font-size: 40px;"">flimsy</p>
  <p style=""font-size: 16px;"">F = YES &nbsp;&nbsp;&nbsp; J = NO</p>
","f","html-keyboard-response","15","2.1.0","44064","F=YES, J=NO","7mq2dnchqw","0","76","83","70","","","","","","lextale","true","false","","","","","","","",""
"711","
  <p style=""font-size: 40px;"">drain</p>
  <p style=""font-size: 16px;"">F = YES &nbsp;&nbsp;&nbsp; J = NO</p>
","f","html-keyboard-response","16","2.1.0","44776","F=YES, J=NO","7mq2dnchqw","0","76","83","70","","","","","","lextale","true","false","","","","","","","",""
"897","
  <p style=""font-size: 40px;"">twindle</p>
  <p style=""font-size: 16px;"">F = YES &nbsp;&nbsp;&nbsp; J = NO</p>
","f","html-keyboard-response","17","2.1.0","45674","F=YES, J=NO","7mq2dnchqw","0","76","83","70","","","","","","lextale","false","false","","","","","","","",""
"689","
  <p style=""font-size: 40px;"">propose</p>
  <p style=""font-size: 16px;"">F = YES &nbsp;&nbsp;&nbsp; J = NO</p>
","f","html-keyboard-response","18","2.1.0","46364","F=YES, J=NO","7mq2dnchqw","0","76","83","70","","","","","","lextale","true","false","","","","","","","",""
"1969","
  <p style=""font-size: 40px;"">forlay</p>
  <p style=""font-size: 16px;"">F = YES &nbsp;&nbsp;&nbsp; J = NO</p>
","j","html-keyboard-response","19","2.1.0","48334","F=YES, J=NO","7mq2dnchqw","0","76","83","70","","","","","","lextale","false","false","","","","","","","",""
"1231","
  <p style=""font-size: 40px;"">tenant</p>
  <p style=""font-size: 16px;"">F = YES &nbsp;&nbsp;&nbsp; J = NO</p>
","f","html-keyboard-response","20","2.1.0","49565","F=YES, J=NO","7mq2dnchqw","0","76","83","70","","","","","","lextale","true","false","","","","","","","",""
"771","
  <p style=""font-size: 40px;"">strain</p>
  <p style=""font-size: 16px;"">F = YES &nbsp;&nbsp;&nbsp; J = NO</p>
","f","html-keyboard-response","21","2.1.0","50337","F=YES, J=NO","7mq2dnchqw","0","76","83","70","","","","","","lextale","true","false","","","","","","","",""
"1343","
  <p style=""font-size: 40px;"">holster</p>
  <p style=""font-size: 16px;"">F = YES &nbsp;&nbsp;&nbsp; J = NO</p>
","f","html-keyboard-response","22","2.1.0","51681","F=YES, J=NO","7mq2dnchqw","0","76","83","70","","","","","","lextale","true","false","","","","","","","",""
"865","
  <p style=""font-size: 40px;"">hinder</p>
  <p style=""font-size: 16px;"">F = YES &nbsp;&nbsp;&nbsp; J = NO</p>
","f","html-keyboard-response","23","2.1.0","52546","F=YES, J=NO","7mq2dnchqw","0","76","83","70","","","","","","lextale","true","false","","","","","","","",""
"719","
  <p style=""font-size: 40px;"">swindle</p>
  <p style=""font-size: 16px;"">F = YES &nbsp;&nbsp;&nbsp; J = NO</p>
","f","html-keyboard-response","24","2.1.0","53266","F=YES, J=NO","7mq2dnchqw","0","76","83","70","","","","","","lextale","true","false","","","","","","","",""
"941","
  <p style=""font-size: 40px;"">nuder</p>
  <p style=""font-size: 16px;"">F = YES &nbsp;&nbsp;&nbsp; J = NO</p>
","j","html-keyboard-response","25","2.1.0","54207","F=YES, J=NO","7mq2dnchqw","0","76","83","70","","","","","","lextale","false","false","","","","","","","",""
"735","
  <p style=""font-size: 40px;"">pillow</p>
  <p style=""font-size: 16px;"">F = YES &nbsp;&nbsp;&nbsp; J = NO</p>
","f","html-keyboard-response","26","2.1.0","54943","F=YES, J=NO","7mq2dnchqw","0","76","83","70","","","","","","lextale","true","false","","","","","","","",""
"2050","
  <p style=""font-size: 40px;"">shumble</p>
  <p style=""font-size: 16px;"">F = YES &nbsp;&nbsp;&nbsp; J = NO</p>
","j","html-keyboard-response","27","2.1.0","56994","F=YES, J=NO","7mq2dnchqw","0","76","83","70","","","","","","lextale","false","false","","","","","","","",""
"689","
  <p style=""font-size: 40px;"">thirst</p>
  <p style=""font-size: 16px;"">F = YES &nbsp;&nbsp;&nbsp; J = NO</p>
","f","html-keyboard-response","28","2.1.0","57684","F=YES, J=NO","7mq2dnchqw","0","76","83","70","","","","","","lextale","true","false","","","","","","","",""
"1861","
  <p style=""font-size: 40px;"">unsail</p>
  <p style=""font-size: 16px;"">F = YES &nbsp;&nbsp;&nbsp; J = NO</p>
","f","html-keyboard-response","29","2.1.0","59545","F=YES, J=NO","7mq2dnchqw","0","76","83","70","","","","","","lextale","false","false","","","","","","","",""
"689","
  <p style=""font-size: 40px;"">rifle</p>
  <p style=""font-size: 16px;"">F = YES &nbsp;&nbsp;&nbsp; J = NO</p>
","f","html-keyboard-response","30","2.1.0","60234","F=YES, J=NO","7mq2dnchqw","0","76","83","70","","","","","","lextale","true","false","","","","","","","",""
"827","
  <p style=""font-size: 40px;"">mush</p>
  <p style=""font-size: 16px;"">F = YES &nbsp;&nbsp;&nbsp; J = NO</p>
","f","html-keyboard-response","31","2.1.0","61062","F=YES, J=NO","7mq2dnchqw","0","76","83","70","","","","","","lextale","false","false","","","","","","","",""
"920","
  <p style=""font-size: 40px;"">drench</p>
  <p style=""font-size: 16px;"">F = YES &nbsp;&nbsp;&nbsp; J = NO</p>
","f","html-keyboard-response","32","2.1.0","61983","F=YES, J=NO","7mq2dnchqw","0","76","83","70","","","","","","lextale","true","false","","","","","","","",""
"1012","
  <p style=""font-size: 40px;"">snirt</p>
  <p style=""font-size: 16px;"">F = YES &nbsp;&nbsp;&nbsp; J = NO</p>
","j","html-keyboard-response","33","2.1.0","62995","F=YES, J=NO","7mq2dnchqw","0","76","83","70","","","","","","lextale","false","false","","","","","","","",""
"636","
  <p style=""font-size: 40px;"">bitter</p>
  <p style=""font-size: 16px;"">F = YES &nbsp;&nbsp;&nbsp; J = NO</p>
","f","html-keyboard-response","34","2.1.0","63632","F=YES, J=NO","7mq2dnchqw","0","76","83","70","","","","","","lextale","true","false","","","","","","","",""
"728","
  <p style=""font-size: 40px;"">pliff</p>
  <p style=""font-size: 16px;"">F = YES &nbsp;&nbsp;&nbsp; J = NO</p>
","j","html-keyboard-response","35","2.1.0","64360","F=YES, J=NO","7mq2dnchqw","0","76","83","70","","","","","","lextale","false","false","","","","","","","",""
"823","
  <p style=""font-size: 40px;"">tablet</p>
  <p style=""font-size: 16px;"">F = YES &nbsp;&nbsp;&nbsp; J = NO</p>
","f","html-keyboard-response","36","2.1.0","65183","F=YES, J=NO","7mq2dnchqw","0","76","83","70","","","","","","lextale","true","false","","","","","","","",""
"794","
  <p style=""font-size: 40px;"">glimmer</p>
  <p style=""font-size: 16px;"">F = YES &nbsp;&nbsp;&nbsp; J = NO</p>
","f","html-keyboard-response","37","2.1.0","65978","F=YES, J=NO","7mq2dnchqw","0","76","83","70","","","","","","lextale","true","false","","","","","","","",""
"2272","
  <p style=""font-size: 40px;"">slink</p>
  <p style=""font-size: 16px;"">F = YES &nbsp;&nbsp;&nbsp; J = NO</p>
","f","html-keyboard-response","38","2.1.0","68251","F=YES, J=NO","7mq2dnchqw","0","76","83","70","","","","","","lextale","true","false","","","","","","","",""
"590","
  <p style=""font-size: 40px;"">clever</p>
  <p style=""font-size: 16px;"">F = YES &nbsp;&nbsp;&nbsp; J = NO</p>
","f","html-keyboard-response","39","2.1.0","68842","F=YES, J=NO","7mq2dnchqw","0","76","83","70","","","","","","lextale","true","false","","","","","","","",""
"1746","
  <p style=""font-size: 40px;"">grum</p>
  <p style=""font-size: 16px;"">F = YES &nbsp;&nbsp;&nbsp; J = NO</p>
","j","html-keyboard-response","40","2.1.0","70588","F=YES, J=NO","7mq2dnchqw","0","76","83","70","","","","","","lextale","false","false","","","","","","","",""
"662","
  <p style=""font-size: 40px;"">string</p>
  <p style=""font-size: 16px;"">F = YES &nbsp;&nbsp;&nbsp; J = NO</p>
","f","html-keyboard-response","41","2.1.0","71250","F=YES, J=NO","7mq2dnchqw","0","76","83","70","","","","","","lextale","true","false","","","","","","","",""
"1235","
  <p style=""font-size: 40px;"">plim</p>
  <p style=""font-size: 16px;"">F = YES &nbsp;&nbsp;&nbsp; J = NO</p>
","j","html-keyboard-response","42","2.1.0","72485","F=YES, J=NO","7mq2dnchqw","0","76","83","70","","","","","","lextale","false","false","","","","","","","",""
"535","
  <p style=""font-size: 40px;"">cable</p>
  <p style=""font-size: 16px;"">F = YES &nbsp;&nbsp;&nbsp; J = NO</p>
","f","html-keyboard-response","43","2.1.0","73020","F=YES, J=NO","7mq2dnchqw","0","76","83","70","","","","","","lextale","true","false","","","","","","","",""
"1449","
  <p style=""font-size: 40px;"">shrivel</p>
  <p style=""font-size: 16px;"">F = YES &nbsp;&nbsp;&nbsp; J = NO</p>
","f","html-keyboard-response","44","2.1.0","74470","F=YES, J=NO","7mq2dnchqw","0","76","83","70","","","","","","lextale","true","false","","","","","","","",""
"628","
  <p style=""font-size: 40px;"">tarnish</p>
  <p style=""font-size: 16px;"">F = YES &nbsp;&nbsp;&nbsp; J = NO</p>
","f","html-keyboard-response","45","2.1.0","75099","F=YES, J=NO","7mq2dnchqw","0","76","83","70","","","","","","lextale","true","false","","","","","","","",""
"730","
  <p style=""font-size: 40px;"">blim</p>
  <p style=""font-size: 16px;"">F = YES &nbsp;&nbsp;&nbsp; J = NO</p>
","j","html-keyboard-response","46","2.1.0","75829","F=YES, J=NO","7mq2dnchqw","0","76","83","70","","","","","","lextale","false","false","","","","","","","",""
"1001","
  <p style=""font-size: 40px;"">stifle</p>
  <p style=""font-size: 16px;"">F = YES &nbsp;&nbsp;&nbsp; J = NO</p>
","f","html-keyboard-response","47","2.1.0","76831","F=YES, J=NO","7mq2dnchqw","0","76","83","70","","","","","","lextale","true","false","","","","","","","",""
"801","
  <p style=""font-size: 40px;"">bint</p>
  <p style=""font-size: 16px;"">F = YES &nbsp;&nbsp;&nbsp; J = NO</p>
","j","html-keyboard-response","48","2.1.0","77632","F=YES, J=NO","7mq2dnchqw","0","76","83","70","","","","","","lextale","false","false","","","","","","","",""
"551","
  <p style=""font-size: 40px;"">purple</p>
  <p style=""font-size: 16px;"">F = YES &nbsp;&nbsp;&nbsp; J = NO</p>
","f","html-keyboard-response","49","2.1.0","78184","F=YES, J=NO","7mq2dnchqw","0","76","83","70","","","","","","lextale","true","false","","","","","","","",""
"1645","
  <p style=""font-size: 40px;"">wriggle</p>
  <p style=""font-size: 16px;"">F = YES &nbsp;&nbsp;&nbsp; J = NO</p>
","j","html-keyboard-response","50","2.1.0","79829","F=YES, J=NO","7mq2dnchqw","0","76","83","70","","","","","","lextale","true","false","","","","","","","",""
"867","
  <p style=""font-size: 40px;"">mangle</p>
  <p style=""font-size: 16px;"">F = YES &nbsp;&nbsp;&nbsp; J = NO</p>
","f","html-keyboard-response","51","2.1.0","80697","F=YES, J=NO","7mq2dnchqw","0","76","83","70","","","","","","lextale","true","false","","","","","","","",""
"728","
  <p style=""font-size: 40px;"">shramp</p>
  <p style=""font-size: 16px;"">F = YES &nbsp;&nbsp;&nbsp; J = NO</p>
","j","html-keyboard-response","52","2.1.0","81425","F=YES, J=NO","7mq2dnchqw","0","76","83","70","","","","","","lextale","false","false","","","","","","","",""
"619","
  <p style=""font-size: 40px;"">flirt</p>
  <p style=""font-size: 16px;"">F = YES &nbsp;&nbsp;&nbsp; J = NO</p>
","f","html-keyboard-response","53","2.1.0","82044","F=YES, J=NO","7mq2dnchqw","0","76","83","70","","","","","","lextale","true","false","","","","","","","",""
"834","
  <p style=""font-size: 40px;"">frip</p>
  <p style=""font-size: 16px;"">F = YES &nbsp;&nbsp;&nbsp; J = NO</p>
","j","html-keyboard-response","54","2.1.0","82879","F=YES, J=NO","7mq2dnchqw","0","76","83","70","","","","","","lextale","false","false","","","","","","","",""
"765","
  <p style=""font-size: 40px;"">tangle</p>
  <p style=""font-size: 16px;"">F = YES &nbsp;&nbsp;&nbsp; J = NO</p>
","f","html-keyboard-response","55","2.1.0","83645","F=YES, J=NO","7mq2dnchqw","0","76","83","70","","","","","","lextale","true","false","","","","","","","",""
"795","
  <p style=""font-size: 40px;"">crumble</p>
  <p style=""font-size: 16px;"">F = YES &nbsp;&nbsp;&nbsp; J = NO</p>
","f","html-keyboard-response","56","2.1.0","84440","F=YES, J=NO","7mq2dnchqw","0","76","83","70","","","","","","lextale","true","false","","","","","","","",""
"675","
  <p style=""font-size: 40px;"">wrinkle</p>
  <p style=""font-size: 16px;"">F = YES &nbsp;&nbsp;&nbsp; J = NO</p>
","f","html-keyboard-response","57","2.1.0","85116","F=YES, J=NO","7mq2dnchqw","0","76","83","70","","","","","","lextale","true","false","","","","","","","",""
"1024","
  <p style=""font-size: 40px;"">slumb</p>
  <p style=""font-size: 16px;"">F = YES &nbsp;&nbsp;&nbsp; J = NO</p>
","f","html-keyboard-response","58","2.1.0","86140","F=YES, J=NO","7mq2dnchqw","0","76","83","70","","","","","","lextale","false","false","","","","","","","",""
"680","
  <p style=""font-size: 40px;"">jungle</p>
  <p style=""font-size: 16px;"">F = YES &nbsp;&nbsp;&nbsp; J = NO</p>
","f","html-keyboard-response","59","2.1.0","86821","F=YES, J=NO","7mq2dnchqw","0","76","83","70","","","","","","lextale","true","false","","","","","","","",""
"762","
  <p style=""font-size: 40px;"">frolick</p>
  <p style=""font-size: 16px;"">F = YES &nbsp;&nbsp;&nbsp; J = NO</p>
","f","html-keyboard-response","60","2.1.0","87584","F=YES, J=NO","7mq2dnchqw","0","76","83","70","","","","","","lextale","false","false","","","","","","","",""
"2272","
      <h2>LexTALE Test Completed</h2>
      <p>Your LexTALE vocabulary score is: <strong>76%</strong></p>
      <p>Press any key to continue.</p>
    ","f","html-keyboard-response","61","2.1.0","89858","F=YES, J=NO","7mq2dnchqw","0","76","83","70","","","","","","","","","","","","","","","",""
"7656","
    <div style=""max-width: 800px; margin: auto; text-align: left;"">
      <h2>Break Time</h2>
      <p>You have completed the first part of the study.</p>
      <p>You may take a short <strong>30-second break</strong> before continuing.</p>
      <p>When you’re ready, press any key to continue to the final task.</p>
    </div>
  ","f","html-keyboard-response","62","2.1.0","97514","F=YES, J=NO","7mq2dnchqw","0","76","83","70","","","","","","","","","","","","","","","",""
"14551","
    <div style=""max-width: 800px; margin: auto; text-align: left;"">
      <h2>Part 2: Lexical Decision Task</h2>
      <p>You will now begin the second part of the study.</p>
      <p>Each trial will follow this sequence:</p>
      <ul>
        <li>A fixation cross (+) appears at the center of the screen.</li>
        <li>You will hear a short beep followed by a spoken word.</li>
        <li>A written word will appear briefly on the screen.</li>
      </ul>
      <p>Your task is to judge whether the <strong>written word</strong> is a real English word.</p>
      <p style=""margin-top: 1em;""><strong>Key responses:</strong></p>
      <ul>
        <li><strong>F</strong> = YES (real English word)</li>
        <li><strong>J</strong> = NO (not a real English word)</li>
      </ul>
      <p>Please respond as quickly and accurately as you can.</p>
      <p style=""margin-top: 2em;"">Press any key to continue.</p>
    </div>
  ","f","html-keyboard-response","63","2.1.0","112066","F=YES, J=NO","7mq2dnchqw","0","76","83","70","","","","","","","","","","","","","","","",""
"4735","
    <div style=""max-width: 800px; margin: auto; text-align: left;"">
      <h2>Before You Begin</h2>
      <p>Make sure your sound is turned on.</p>
      <p>You will hear audio during each trial, but your decision should be based only on the <strong>written word</strong> you see on the screen.</p>
      <p><strong>Reminder:</strong></p>
      <ul>
        <li><strong>F</strong> = YES (real English word)</li>
        <li><strong>J</strong> = NO (not a real English word)</li>
      </ul>
      <p style=""margin-top: 2em;"">Press any key when you are ready to begin.</p>
    </div>
  ","f","html-keyboard-response","64","2.1.0","116802","F=YES, J=NO","7mq2dnchqw","0","76","83","70","","","","","","","","","","","","","","","",""
"2411","
    <div style=""max-width: 800px; margin: auto; text-align: left;"">
      <h2>Part 2: Practice Trials</h2>
      <p>You will now complete a few <strong>practice trials</strong> to get familiar with the task.</p>
      <p>These trials are <strong>not scored</strong> and are only to help you get used to the format.</p>
      <p style=""margin-top: 2em;"">Press any key to begin.</p>
    </div>
  ","f","html-keyboard-response","65","2.1.0","119214","F=YES, J=NO","7mq2dnchqw","0","76","83","70","","","","","","","","","","","","","","","",""
"2018","<p>Starting practice block 1 of 2. Press any key to continue.</p>","f","html-keyboard-response","66","2.1.0","121232","F=YES, J=NO","7mq2dnchqw","0","76","83","70","","","","","","","","","","","","","","","",""
"null","<p style=""font-size: 50px;"">+</p>","null","html-keyboard-response","67","2.1.0","121544","F=YES, J=NO","7mq2dnchqw","0","76","83","70","","","","","","","","","","","","","","","",""
"null","audio/beep-329314.mp3","null","audio-keyboard-response","68","2.1.0","123386","F=YES, J=NO","7mq2dnchqw","0","76","83","70","","","","","","","","","","","","","","","",""
"null","audio/age1.wav","null","audio-keyboard-response","69","2.1.0","123972","F=YES, J=NO","7mq2dnchqw","0","76","83","70","","","","","","","","","","","","","","","",""
"905","
          <p id=""word"" style=""font-size: 40px;"">bake</p>
          <p style=""font-size: 16px;"">F = YES &nbsp;&nbsp;&nbsp; J = NO</p>
        ","f","html-keyboard-response","70","2.1.0","124878","F=YES, J=NO","7mq2dnchqw","0","76","83","70","","","","","","","","","bake","age1","filler","filler","f","true","",""
"null","<p style=""font-size: 50px;"">+</p>","null","html-keyboard-response","71","2.1.0","125196","F=YES, J=NO","7mq2dnchqw","0","76","83","70","","","","","","","","","","","","","","","",""
"null","audio/beep-329314.mp3","null","audio-keyboard-response","72","2.1.0","126713","F=YES, J=NO","7mq2dnchqw","0","76","83","70","","","","","","","","","","","","","","","",""
"null","audio/pain1.wav","null","audio-keyboard-response","73","2.1.0","127149","F=YES, J=NO","7mq2dnchqw","0","76","83","70","","","","","","","","","","","","","","","",""
"854","
          <p id=""word"" style=""font-size: 40px;"">tritted</p>
          <p style=""font-size: 16px;"">F = YES &nbsp;&nbsp;&nbsp; J = NO</p>
        ","j","html-keyboard-response","74","2.1.0","128003","F=YES, J=NO","7mq2dnchqw","0","76","83","70","","","","","","","","","tritted","pain1","pseudoword","pseudoword","j","true","",""
"null","<p style=""font-size: 50px;"">+</p>","null","html-keyboard-response","75","2.1.0","128311","F=YES, J=NO","7mq2dnchqw","0","76","83","70","","","","","","","","","","","","","","","",""
"null","audio/beep-329314.mp3","null","audio-keyboard-response","76","2.1.0","129828","F=YES, J=NO","7mq2dnchqw","0","76","83","70","","","","","","","","","","","","","","","",""
"null","audio/ankle1.wav","null","audio-keyboard-response","77","2.1.0","130350","F=YES, J=NO","7mq2dnchqw","0","76","83","70","","","","","","","","","","","","","","","",""
"926","
          <p id=""word"" style=""font-size: 40px;"">kick</p>
          <p style=""font-size: 16px;"">F = YES &nbsp;&nbsp;&nbsp; J = NO</p>
        ","f","html-keyboard-response","78","2.1.0","131277","F=YES, J=NO","7mq2dnchqw","0","76","83","70","","","","","","","","","kick","ankle1","filler","filler","f","true","",""
"null","<p style=""font-size: 50px;"">+</p>","null","html-keyboard-response","79","2.1.0","131597","F=YES, J=NO","7mq2dnchqw","0","76","83","70","","","","","","","","","","","","","","","",""
"null","audio/beep-329314.mp3","null","audio-keyboard-response","80","2.1.0","133134","F=YES, J=NO","7mq2dnchqw","0","76","83","70","","","","","","","","","","","","","","","",""
"null","audio/trust.wav","null","audio-keyboard-response","81","2.1.0","133763","F=YES, J=NO","7mq2dnchqw","0","76","83","70","","","","","","","","","","","","","","","",""
"885","
          <p id=""word"" style=""font-size: 40px;"">swint</p>
          <p style=""font-size: 16px;"">F = YES &nbsp;&nbsp;&nbsp; J = NO</p>
        ","j","html-keyboard-response","82","2.1.0","134649","F=YES, J=NO","7mq2dnchqw","0","76","83","70","","","","","","","","","swint","trust","pseudoword","pseudoword","j","true","",""
"null","<p style=""font-size: 50px;"">+</p>","null","html-keyboard-response","83","2.1.0","134968","F=YES, J=NO","7mq2dnchqw","0","76","83","70","","","","","","","","","","","","","","","",""
"null","audio/beep-329314.mp3","null","audio-keyboard-response","84","2.1.0","136505","F=YES, J=NO","7mq2dnchqw","0","76","83","70","","","","","","","","","","","","","","","",""
"null","audio/birth1.wav","null","audio-keyboard-response","85","2.1.0","137262","F=YES, J=NO","7mq2dnchqw","0","76","83","70","","","","","","","","","","","","","","","",""
"874","
          <p id=""word"" style=""font-size: 40px;"">peel</p>
          <p style=""font-size: 16px;"">F = YES &nbsp;&nbsp;&nbsp; J = NO</p>
        ","f","html-keyboard-response","86","2.1.0","138137","F=YES, J=NO","7mq2dnchqw","0","76","83","70","","","","","","","","","peel","birth1","filler","filler","f","true","",""
"null","<p style=""font-size: 50px;"">+</p>","null","html-keyboard-response","87","2.1.0","138445","F=YES, J=NO","7mq2dnchqw","0","76","83","70","","","","","","","","","","","","","","","",""
"null","audio/beep-329314.mp3","null","audio-keyboard-response","88","2.1.0","139961","F=YES, J=NO","7mq2dnchqw","0","76","83","70","","","","","","","","","","","","","","","",""
"null","audio/tomato.wav","null","audio-keyboard-response","89","2.1.0","140825","F=YES, J=NO","7mq2dnchqw","0","76","83","70","","","","","","","","","","","","","","","",""
"909","
          <p id=""word"" style=""font-size: 40px;"">gladies</p>
          <p style=""font-size: 16px;"">F = YES &nbsp;&nbsp;&nbsp; J = NO</p>
        ","j","html-keyboard-response","90","2.1.0","141734","F=YES, J=NO","7mq2dnchqw","0","76","83","70","","","","","","","","","gladies","tomato","pseudoword","pseudoword","j","true","",""
"null","<p style=""font-size: 50px;"">+</p>","null","html-keyboard-response","91","2.1.0","142039","F=YES, J=NO","7mq2dnchqw","0","76","83","70","","","","","","","","","","","","","","","",""
"null","audio/beep-329314.mp3","null","audio-keyboard-response","92","2.1.0","143567","F=YES, J=NO","7mq2dnchqw","0","76","83","70","","","","","","","","","","","","","","","",""
"null","audio/emotion.wav","null","audio-keyboard-response","93","2.1.0","144217","F=YES, J=NO","7mq2dnchqw","0","76","83","70","","","","","","","","","","","","","","","",""
"914","
          <p id=""word"" style=""font-size: 40px;"">devering</p>
          <p style=""font-size: 16px;"">F = YES &nbsp;&nbsp;&nbsp; J = NO</p>
        ","j","html-keyboard-response","94","2.1.0","145132","F=YES, J=NO","7mq2dnchqw","0","76","83","70","","","","","","","","","devering","emotion","pseudoword","pseudoword","j","true","",""
"null","<p style=""font-size: 50px;"">+</p>","null","html-keyboard-response","95","2.1.0","145453","F=YES, J=NO","7mq2dnchqw","0","76","83","70","","","","","","","","","","","","","","","",""
"null","audio/beep-329314.mp3","null","audio-keyboard-response","96","2.1.0","146980","F=YES, J=NO","7mq2dnchqw","0","76","83","70","","","","","","","","","","","","","","","",""
"null","audio/cloud1.wav","null","audio-keyboard-response","97","2.1.0","147736","F=YES, J=NO","7mq2dnchqw","0","76","83","70","","","","","","","","","","","","","","","",""
"961","
          <p id=""word"" style=""font-size: 40px;"">brotant</p>
          <p style=""font-size: 16px;"">F = YES &nbsp;&nbsp;&nbsp; J = NO</p>
        ","j","html-keyboard-response","98","2.1.0","148698","F=YES, J=NO","7mq2dnchqw","0","76","83","70","","","","","","","","","brotant","cloud1","pseudoword","pseudoword","j","true","",""
"null","<p style=""font-size: 50px;"">+</p>","null","html-keyboard-response","99","2.1.0","149005","F=YES, J=NO","7mq2dnchqw","0","76","83","70","","","","","","","","","","","","","","","",""
"null","audio/beep-329314.mp3","null","audio-keyboard-response","100","2.1.0","150521","F=YES, J=NO","7mq2dnchqw","0","76","83","70","","","","","","","","","","","","","","","",""
"null","audio/flaw.wav","null","audio-keyboard-response","101","2.1.0","151342","F=YES, J=NO","7mq2dnchqw","0","76","83","70","","","","","","","","","","","","","","","",""
"1092","
          <p id=""word"" style=""font-size: 40px;"">thwool</p>
          <p style=""font-size: 16px;"">F = YES &nbsp;&nbsp;&nbsp; J = NO</p>
        ","j","html-keyboard-response","102","2.1.0","152435","F=YES, J=NO","7mq2dnchqw","0","76","83","70","","","","","","","","","thwool","flaw","pseudoword","pseudoword","j","true","",""
"null","<p style=""font-size: 50px;"">+</p>","null","html-keyboard-response","103","2.1.0","152738","F=YES, J=NO","7mq2dnchqw","0","76","83","70","","","","","","","","","","","","","","","",""
"null","audio/beep-329314.mp3","null","audio-keyboard-response","104","2.1.0","154254","F=YES, J=NO","7mq2dnchqw","0","76","83","70","","","","","","","","","","","","","","","",""
"null","audio/camera1.wav","null","audio-keyboard-response","105","2.1.0","154819","F=YES, J=NO","7mq2dnchqw","0","76","83","70","","","","","","","","","","","","","","","",""
"919","
          <p id=""word"" style=""font-size: 40px;"">stir</p>
          <p style=""font-size: 16px;"">F = YES &nbsp;&nbsp;&nbsp; J = NO</p>
        ","f","html-keyboard-response","106","2.1.0","155738","F=YES, J=NO","7mq2dnchqw","0","76","83","70","","","","","","","","","stir","camera1","filler","filler","f","true","",""
"null","<p style=""font-size: 50px;"">+</p>","null","html-keyboard-response","107","2.1.0","156055","F=YES, J=NO","7mq2dnchqw","0","76","83","70","","","","","","","","","","","","","","","",""
"null","audio/beep-329314.mp3","null","audio-keyboard-response","108","2.1.0","157582","F=YES, J=NO","7mq2dnchqw","0","76","83","70","","","","","","","","","","","","","","","",""
"null","audio/menu.wav","null","audio-keyboard-response","109","2.1.0","158254","F=YES, J=NO","7mq2dnchqw","0","76","83","70","","","","","","","","","","","","","","","",""
"746","
          <p id=""word"" style=""font-size: 40px;"">slice</p>
          <p style=""font-size: 16px;"">F = YES &nbsp;&nbsp;&nbsp; J = NO</p>
        ","f","html-keyboard-response","110","2.1.0","159001","F=YES, J=NO","7mq2dnchqw","0","76","83","70","","","","","","","","","slice","menu","filler","filler","f","true","",""
"null","<p style=""font-size: 50px;"">+</p>","null","html-keyboard-response","111","2.1.0","159319","F=YES, J=NO","7mq2dnchqw","0","76","83","70","","","","","","","","","","","","","","","",""
"null","audio/beep-329314.mp3","null","audio-keyboard-response","112","2.1.0","160846","F=YES, J=NO","7mq2dnchqw","0","76","83","70","","","","","","","","","","","","","","","",""
"null","audio/smirk1.wav","null","audio-keyboard-response","113","2.1.0","161645","F=YES, J=NO","7mq2dnchqw","0","76","83","70","","","","","","","","","","","","","","","",""
"827","
          <p id=""word"" style=""font-size: 40px;"">snopt</p>
          <p style=""font-size: 16px;"">F = YES &nbsp;&nbsp;&nbsp; J = NO</p>
        ","j","html-keyboard-response","114","2.1.0","162474","F=YES, J=NO","7mq2dnchqw","0","76","83","70","","","","","","","","","snopt","smirk1","pseudoword","pseudoword","j","true","",""
"4434","<p>Starting practice block 2 of 2. Press any key to continue.</p>","f","html-keyboard-response","115","2.1.0","166908","F=YES, J=NO","7mq2dnchqw","0","76","83","70","","","","","","","","","","","","","","","",""
"null","<p style=""font-size: 50px;"">+</p>","null","html-keyboard-response","116","2.1.0","167212","F=YES, J=NO","7mq2dnchqw","0","76","83","70","","","","","","","","","","","","","","","",""
"null","audio/beep-329314.mp3","null","audio-keyboard-response","117","2.1.0","168740","F=YES, J=NO","7mq2dnchqw","0","76","83","70","","","","","","","","","","","","","","","",""
"null","audio/arm.wav","null","audio-keyboard-response","118","2.1.0","169347","F=YES, J=NO","7mq2dnchqw","0","76","83","70","","","","","","","","","","","","","","","",""
"786","
          <p id=""word"" style=""font-size: 40px;"">fold</p>
          <p style=""font-size: 16px;"">F = YES &nbsp;&nbsp;&nbsp; J = NO</p>
        ","f","html-keyboard-response","119","2.1.0","170134","F=YES, J=NO","7mq2dnchqw","0","76","83","70","","","","","","","","","fold","arm","filler","filler","f","true","",""
"null","<p style=""font-size: 50px;"">+</p>","null","html-keyboard-response","120","2.1.0","170445","F=YES, J=NO","7mq2dnchqw","0","76","83","70","","","","","","","","","","","","","","","",""
"null","audio/beep-329314.mp3","null","audio-keyboard-response","121","2.1.0","171961","F=YES, J=NO","7mq2dnchqw","0","76","83","70","","","","","","","","","","","","","","","",""
"null","audio/alarm1.wav","null","audio-keyboard-response","122","2.1.0","172547","F=YES, J=NO","7mq2dnchqw","0","76","83","70","","","","","","","","","","","","","","","",""
"1096","
          <p id=""word"" style=""font-size: 40px;"">swetp</p>
          <p style=""font-size: 16px;"">F = YES &nbsp;&nbsp;&nbsp; J = NO</p>
        ","j","html-keyboard-response","123","2.1.0","173644","F=YES, J=NO","7mq2dnchqw","0","76","83","70","","","","","","","","","swetp","alarm1","pseudoword","pseudoword","j","true","",""
"null","<p style=""font-size: 50px;"">+</p>","null","html-keyboard-response","124","2.1.0","173964","F=YES, J=NO","7mq2dnchqw","0","76","83","70","","","","","","","","","","","","","","","",""
"null","audio/beep-329314.mp3","null","audio-keyboard-response","125","2.1.0","175481","F=YES, J=NO","7mq2dnchqw","0","76","83","70","","","","","","","","","","","","","","","",""
"null","audio/table1.wav","null","audio-keyboard-response","126","2.1.0","176046","F=YES, J=NO","7mq2dnchqw","0","76","83","70","","","","","","","","","","","","","","","",""
"768","
          <p id=""word"" style=""font-size: 40px;"">stimb</p>
          <p style=""font-size: 16px;"">F = YES &nbsp;&nbsp;&nbsp; J = NO</p>
        ","j","html-keyboard-response","127","2.1.0","176815","F=YES, J=NO","7mq2dnchqw","0","76","83","70","","","","","","","","","stimb","table1","pseudoword","pseudoword","j","true","",""
"null","<p style=""font-size: 50px;"">+</p>","null","html-keyboard-response","128","2.1.0","177122","F=YES, J=NO","7mq2dnchqw","0","76","83","70","","","","","","","","","","","","","","","",""
"null","audio/beep-329314.mp3","null","audio-keyboard-response","129","2.1.0","178659","F=YES, J=NO","7mq2dnchqw","0","76","83","70","","","","","","","","","","","","","","","",""
"null","audio/cash1.wav","null","audio-keyboard-response","130","2.1.0","179225","F=YES, J=NO","7mq2dnchqw","0","76","83","70","","","","","","","","","","","","","","","",""
"754","
          <p id=""word"" style=""font-size: 40px;"">splear</p>
          <p style=""font-size: 16px;"">F = YES &nbsp;&nbsp;&nbsp; J = NO</p>
        ","j","html-keyboard-response","131","2.1.0","179980","F=YES, J=NO","7mq2dnchqw","0","76","83","70","","","","","","","","","splear","cash1","pseudoword","pseudoword","j","true","",""
"null","<p style=""font-size: 50px;"">+</p>","null","html-keyboard-response","132","2.1.0","180285","F=YES, J=NO","7mq2dnchqw","0","76","83","70","","","","","","","","","","","","","","","",""
"null","audio/beep-329314.mp3","null","audio-keyboard-response","133","2.1.0","181817","F=YES, J=NO","7mq2dnchqw","0","76","83","70","","","","","","","","","","","","","","","",""
"null","audio/bishop1.wav","null","audio-keyboard-response","134","2.1.0","182467","F=YES, J=NO","7mq2dnchqw","0","76","83","70","","","","","","","","","","","","","","","",""
"632","
          <p id=""word"" style=""font-size: 40px;"">play</p>
          <p style=""font-size: 16px;"">F = YES &nbsp;&nbsp;&nbsp; J = NO</p>
        ","f","html-keyboard-response","135","2.1.0","183100","F=YES, J=NO","7mq2dnchqw","0","76","83","70","","","","","","","","","play","bishop1","filler","filler","f","true","",""
"null","<p style=""font-size: 50px;"">+</p>","null","html-keyboard-response","136","2.1.0","183415","F=YES, J=NO","7mq2dnchqw","0","76","83","70","","","","","","","","","","","","","","","",""
"null","audio/beep-329314.mp3","null","audio-keyboard-response","137","2.1.0","184931","F=YES, J=NO","7mq2dnchqw","0","76","83","70","","","","","","","","","","","","","","","",""
"null","audio/effort.wav","null","audio-keyboard-response","138","2.1.0","185582","F=YES, J=NO","7mq2dnchqw","0","76","83","70","","","","","","","","","","","","","","","",""
"664","
          <p id=""word"" style=""font-size: 40px;"">whonk</p>
          <p style=""font-size: 16px;"">F = YES &nbsp;&nbsp;&nbsp; J = NO</p>
        ","j","html-keyboard-response","139","2.1.0","186246","F=YES, J=NO","7mq2dnchqw","0","76","83","70","","","","","","","","","whonk","effort","pseudoword","pseudoword","j","true","",""
"null","<p style=""font-size: 50px;"">+</p>","null","html-keyboard-response","140","2.1.0","186551","F=YES, J=NO","7mq2dnchqw","0","76","83","70","","","","","","","","","","","","","","","",""
"null","audio/beep-329314.mp3","null","audio-keyboard-response","141","2.1.0","188067","F=YES, J=NO","7mq2dnchqw","0","76","83","70","","","","","","","","","","","","","","","",""
"null","audio/terrain.wav","null","audio-keyboard-response","142","2.1.0","188654","F=YES, J=NO","7mq2dnchqw","0","76","83","70","","","","","","","","","","","","","","","",""
"735","
          <p id=""word"" style=""font-size: 40px;"">twist</p>
          <p style=""font-size: 16px;"">F = YES &nbsp;&nbsp;&nbsp; J = NO</p>
        ","f","html-keyboard-response","143","2.1.0","189390","F=YES, J=NO","7mq2dnchqw","0","76","83","70","","","","","","","","","twist","terrain","filler","filler","f","true","",""
"null","<p style=""font-size: 50px;"">+</p>","null","html-keyboard-response","144","2.1.0","189698","F=YES, J=NO","7mq2dnchqw","0","76","83","70","","","","","","","","","","","","","","","",""
"null","audio/beep-329314.mp3","null","audio-keyboard-response","145","2.1.0","191225","F=YES, J=NO","7mq2dnchqw","0","76","83","70","","","","","","","","","","","","","","","",""
"null","audio/van1.wav","null","audio-keyboard-response","146","2.1.0","191790","F=YES, J=NO","7mq2dnchqw","0","76","83","70","","","","","","","","","","","","","","","",""
"652","
          <p id=""word"" style=""font-size: 40px;"">push</p>
          <p style=""font-size: 16px;"">F = YES &nbsp;&nbsp;&nbsp; J = NO</p>
        ","f","html-keyboard-response","147","2.1.0","192443","F=YES, J=NO","7mq2dnchqw","0","76","83","70","","","","","","","","","push","van1","filler","filler","f","true","",""
"null","<p style=""font-size: 50px;"">+</p>","null","html-keyboard-response","148","2.1.0","192749","F=YES, J=NO","7mq2dnchqw","0","76","83","70","","","","","","","","","","","","","","","",""
"null","audio/beep-329314.mp3","null","audio-keyboard-response","149","2.1.0","194276","F=YES, J=NO","7mq2dnchqw","0","76","83","70","","","","","","","","","","","","","","","",""
"null","audio/cancer1.wav","null","audio-keyboard-response","150","2.1.0","194905","F=YES, J=NO","7mq2dnchqw","0","76","83","70","","","","","","","","","","","","","","","",""
"704","
          <p id=""word"" style=""font-size: 40px;"">draw</p>
          <p style=""font-size: 16px;"">F = YES &nbsp;&nbsp;&nbsp; J = NO</p>
        ","f","html-keyboard-response","151","2.1.0","195609","F=YES, J=NO","7mq2dnchqw","0","76","83","70","","","","","","","","","draw","cancer1","filler","filler","f","true","",""
"null","<p style=""font-size: 50px;"">+</p>","null","html-keyboard-response","152","2.1.0","195927","F=YES, J=NO","7mq2dnchqw","0","76","83","70","","","","","","","","","","","","","","","",""
"null","audio/beep-329314.mp3","null","audio-keyboard-response","153","2.1.0","197454","F=YES, J=NO","7mq2dnchqw","0","76","83","70","","","","","","","","","","","","","","","",""
"null","audio/battle1.wav","null","audio-keyboard-response","154","2.1.0","197913","F=YES, J=NO","7mq2dnchqw","0","76","83","70","","","","","","","","","","","","","","","",""
"735","
          <p id=""word"" style=""font-size: 40px;"">boil</p>
          <p style=""font-size: 16px;"">F = YES &nbsp;&nbsp;&nbsp; J = NO</p>
        ","f","html-keyboard-response","155","2.1.0","198649","F=YES, J=NO","7mq2dnchqw","0","76","83","70","","","","","","","","","boil","battle1","filler","filler","f","true","",""
"null","<p style=""font-size: 50px;"">+</p>","null","html-keyboard-response","156","2.1.0","198967","F=YES, J=NO","7mq2dnchqw","0","76","83","70","","","","","","","","","","","","","","","",""
"null","audio/beep-329314.mp3","null","audio-keyboard-response","157","2.1.0","200484","F=YES, J=NO","7mq2dnchqw","0","76","83","70","","","","","","","","","","","","","","","",""
"null","audio/butter1.wav","null","audio-keyboard-response","158","2.1.0","201134","F=YES, J=NO","7mq2dnchqw","0","76","83","70","","","","","","","","","","","","","","","",""
"667","
          <p id=""word"" style=""font-size: 40px;"">chew</p>
          <p style=""font-size: 16px;"">F = YES &nbsp;&nbsp;&nbsp; J = NO</p>
        ","f","html-keyboard-response","159","2.1.0","201802","F=YES, J=NO","7mq2dnchqw","0","76","83","70","","","","","","","","","chew","butter1","filler","filler","f","true","",""
"null","<p style=""font-size: 50px;"">+</p>","null","html-keyboard-response","160","2.1.0","202114","F=YES, J=NO","7mq2dnchqw","0","76","83","70","","","","","","","","","","","","","","","",""
"null","audio/beep-329314.mp3","null","audio-keyboard-response","161","2.1.0","203641","F=YES, J=NO","7mq2dnchqw","0","76","83","70","","","","","","","","","","","","","","","",""
"null","audio/foe1.wav","null","audio-keyboard-response","162","2.1.0","204227","F=YES, J=NO","7mq2dnchqw","0","76","83","70","","","","","","","","","","","","","","","",""
"781","
          <p id=""word"" style=""font-size: 40px;"">creth</p>
          <p style=""font-size: 16px;"">F = YES &nbsp;&nbsp;&nbsp; J = NO</p>
        ","j","html-keyboard-response","163","2.1.0","205009","F=YES, J=NO","7mq2dnchqw","0","76","83","70","","","","","","","","","creth","foe1","pseudoword","pseudoword","j","true","",""
"7080","
    <div style=""max-width: 800px; margin: auto; text-align: left;"">
      <h2>Part 2: Main Trials</h2>
      <p>Great job on the practice trials!</p>
      <p>You will now begin the <strong>main set of trials</strong>.</p>
      <p>Remember your key assignments:</p>
      <ul>
        <li><strong>F</strong> = YES (real English word)</li>
        <li><strong>J</strong> = NO (not a real English word)</li>
      </ul>
      <p>Try to respond as <strong>quickly and accurately</strong> as possible.</p>
      <p style=""margin-top: 2em;"">Press any key to begin the main trials.</p>
    </div>
  ","f","html-keyboard-response","164","2.1.0","212090","F=YES, J=NO","7mq2dnchqw","0","76","83","70","","","","","","","","","","","","","","","",""
"1733","<p>Starting main block 1 of 8. Press any key to continue.</p>","f","html-keyboard-response","165","2.1.0","213823","F=YES, J=NO","7mq2dnchqw","0","76","83","70","","","","","","","","","","","","","","","",""
"null","<p style=""font-size: 50px;"">+</p>","null","html-keyboard-response","166","2.1.0","214135","F=YES, J=NO","7mq2dnchqw","0","76","83","70","","","","","","","","","","","","","","","",""
"null","audio/beep-329314.mp3","null","audio-keyboard-response","167","2.1.0","215640","F=YES, J=NO","7mq2dnchqw","0","76","83","70","","","","","","","","","","","","","","","",""
"null","audio/pain1.wav","null","audio-keyboard-response","168","2.1.0","216057","F=YES, J=NO","7mq2dnchqw","0","76","83","70","","","","","","","","","","","","","","","",""
"590","
          <p id=""word"" style=""font-size: 40px;"">sell</p>
          <p style=""font-size: 16px;"">F = YES &nbsp;&nbsp;&nbsp; J = NO</p>
        ","f","html-keyboard-response","169","2.1.0","216647","F=YES, J=NO","7mq2dnchqw","0","76","83","70","","","","","","","","","sell","pain1","unrelated","experimental","f","true","",""
"null","<p style=""font-size: 50px;"">+</p>","null","html-keyboard-response","170","2.1.0","216951","F=YES, J=NO","7mq2dnchqw","0","76","83","70","","","","","","","","","","","","","","","",""
"null","audio/beep-329314.mp3","null","audio-keyboard-response","171","2.1.0","218477","F=YES, J=NO","7mq2dnchqw","0","76","83","70","","","","","","","","","","","","","","","",""
"null","audio/truth1.wav","null","audio-keyboard-response","172","2.1.0","219236","F=YES, J=NO","7mq2dnchqw","0","76","83","70","","","","","","","","","","","","","","","",""
"666","
          <p id=""word"" style=""font-size: 40px;"">calitom</p>
          <p style=""font-size: 16px;"">F = YES &nbsp;&nbsp;&nbsp; J = NO</p>
        ","j","html-keyboard-response","173","2.1.0","219903","F=YES, J=NO","7mq2dnchqw","0","76","83","70","","","","","","","","","calitom","truth1","pseudoword","pseudoword","j","true","",""
"null","<p style=""font-size: 50px;"">+</p>","null","html-keyboard-response","174","2.1.0","220215","F=YES, J=NO","7mq2dnchqw","0","76","83","70","","","","","","","","","","","","","","","",""
"null","audio/beep-329314.mp3","null","audio-keyboard-response","175","2.1.0","221742","F=YES, J=NO","7mq2dnchqw","0","76","83","70","","","","","","","","","","","","","","","",""
"null","audio/breath.wav","null","audio-keyboard-response","176","2.1.0","222307","F=YES, J=NO","7mq2dnchqw","0","76","83","70","","","","","","","","","","","","","","","",""
"757","
          <p id=""word"" style=""font-size: 40px;"">twets</p>
          <p style=""font-size: 16px;"">F = YES &nbsp;&nbsp;&nbsp; J = NO</p>
        ","j","html-keyboard-response","177","2.1.0","223065","F=YES, J=NO","7mq2dnchqw","0","76","83","70","","","","","","","","","twets","breath","pseudoword","pseudoword","j","true","",""
"null","<p style=""font-size: 50px;"">+</p>","null","html-keyboard-response","178","2.1.0","223367","F=YES, J=NO","7mq2dnchqw","0","76","83","70","","","","","","","","","","","","","","","",""
"null","audio/beep-329314.mp3","null","audio-keyboard-response","179","2.1.0","224900","F=YES, J=NO","7mq2dnchqw","0","76","83","70","","","","","","","","","","","","","","","",""
"null","audio/heart1.wav","null","audio-keyboard-response","180","2.1.0","225529","F=YES, J=NO","7mq2dnchqw","0","76","83","70","","","","","","","","","","","","","","","",""
"677","
          <p id=""word"" style=""font-size: 40px;"">dralm</p>
          <p style=""font-size: 16px;"">F = YES &nbsp;&nbsp;&nbsp; J = NO</p>
        ","j","html-keyboard-response","181","2.1.0","226207","F=YES, J=NO","7mq2dnchqw","0","76","83","70","","","","","","","","","dralm","heart1","pseudoword","pseudoword","j","true","",""
"null","<p style=""font-size: 50px;"">+</p>","null","html-keyboard-response","182","2.1.0","226519","F=YES, J=NO","7mq2dnchqw","0","76","83","70","","","","","","","","","","","","","","","",""
"null","audio/beep-329314.mp3","null","audio-keyboard-response","183","2.1.0","228057","F=YES, J=NO","7mq2dnchqw","0","76","83","70","","","","","","","","","","","","","","","",""
"null","audio/ship.wav","null","audio-keyboard-response","184","2.1.0","228601","F=YES, J=NO","7mq2dnchqw","0","76","83","70","","","","","","","","","","","","","","","",""
"769","
          <p id=""word"" style=""font-size: 40px;"">scrap</p>
          <p style=""font-size: 16px;"">F = YES &nbsp;&nbsp;&nbsp; J = NO</p>
        ","f","html-keyboard-response","185","2.1.0","229370","F=YES, J=NO","7mq2dnchqw","0","76","83","70","","","","","","","","","scrap","ship","literal","experimental","f","true","",""
"null","<p style=""font-size: 50px;"">+</p>","null","html-keyboard-response","186","2.1.0","229683","F=YES, J=NO","7mq2dnchqw","0","76","83","70","","","","","","","","","","","","","","","",""
"null","audio/beep-329314.mp3","null","audio-keyboard-response","187","2.1.0","231214","F=YES, J=NO","7mq2dnchqw","0","76","83","70","","","","","","","","","","","","","","","",""
"null","audio/road.wav","null","audio-keyboard-response","188","2.1.0","231630","F=YES, J=NO","7mq2dnchqw","0","76","83","70","","","","","","","","","","","","","","","",""
"547","
          <p id=""word"" style=""font-size: 40px;"">wappings</p>
          <p style=""font-size: 16px;"">F = YES &nbsp;&nbsp;&nbsp; J = NO</p>
        ","j","html-keyboard-response","189","2.1.0","232177","F=YES, J=NO","7mq2dnchqw","0","76","83","70","","","","","","","","","wappings","road","pseudoword","pseudoword","j","true","",""
"null","<p style=""font-size: 50px;"">+</p>","null","html-keyboard-response","190","2.1.0","232482","F=YES, J=NO","7mq2dnchqw","0","76","83","70","","","","","","","","","","","","","","","",""
"null","audio/beep-329314.mp3","null","audio-keyboard-response","191","2.1.0","234009","F=YES, J=NO","7mq2dnchqw","0","76","83","70","","","","","","","","","","","","","","","",""
"null","audio/ground.wav","null","audio-keyboard-response","192","2.1.0","234616","F=YES, J=NO","7mq2dnchqw","0","76","83","70","","","","","","","","","","","","","","","",""
"580","
          <p id=""word"" style=""font-size: 40px;"">touch</p>
          <p style=""font-size: 16px;"">F = YES &nbsp;&nbsp;&nbsp; J = NO</p>
        ","f","html-keyboard-response","193","2.1.0","235197","F=YES, J=NO","7mq2dnchqw","0","76","83","70","","","","","","","","","touch","ground","literal","experimental","f","true","",""
"null","<p style=""font-size: 50px;"">+</p>","null","html-keyboard-response","194","2.1.0","235511","F=YES, J=NO","7mq2dnchqw","0","76","83","70","","","","","","","","","","","","","","","",""
"null","audio/beep-329314.mp3","null","audio-keyboard-response","195","2.1.0","237038","F=YES, J=NO","7mq2dnchqw","0","76","83","70","","","","","","","","","","","","","","","",""
"null","audio/neck.wav","null","audio-keyboard-response","196","2.1.0","237582","F=YES, J=NO","7mq2dnchqw","0","76","83","70","","","","","","","","","","","","","","","",""
"872","
          <p id=""word"" style=""font-size: 40px;"">werling</p>
          <p style=""font-size: 16px;"">F = YES &nbsp;&nbsp;&nbsp; J = NO</p>
        ","j","html-keyboard-response","197","2.1.0","238454","F=YES, J=NO","7mq2dnchqw","0","76","83","70","","","","","","","","","werling","neck","pseudoword","pseudoword","j","true","",""
"null","<p style=""font-size: 50px;"">+</p>","null","html-keyboard-response","198","2.1.0","238765","F=YES, J=NO","7mq2dnchqw","0","76","83","70","","","","","","","","","","","","","","","",""
"null","audio/beep-329314.mp3","null","audio-keyboard-response","199","2.1.0","240302","F=YES, J=NO","7mq2dnchqw","0","76","83","70","","","","","","","","","","","","","","","",""
"null","audio/beach1.wav","null","audio-keyboard-response","200","2.1.0","240910","F=YES, J=NO","7mq2dnchqw","0","76","83","70","","","","","","","","","","","","","","","",""
"543","
          <p id=""word"" style=""font-size: 40px;"">cut</p>
          <p style=""font-size: 16px;"">F = YES &nbsp;&nbsp;&nbsp; J = NO</p>
        ","f","html-keyboard-response","201","2.1.0","241454","F=YES, J=NO","7mq2dnchqw","0","76","83","70","","","","","","","","","cut","beach1","unrelated","experimental","f","true","",""
"null","<p style=""font-size: 50px;"">+</p>","null","html-keyboard-response","202","2.1.0","241761","F=YES, J=NO","7mq2dnchqw","0","76","83","70","","","","","","","","","","","","","","","",""
"null","audio/beep-329314.mp3","null","audio-keyboard-response","203","2.1.0","243288","F=YES, J=NO","7mq2dnchqw","0","76","83","70","","","","","","","","","","","","","","","",""
"null","audio/hawk1.wav","null","audio-keyboard-response","204","2.1.0","243897","F=YES, J=NO","7mq2dnchqw","0","76","83","70","","","","","","","","","","","","","","","",""
"631","
          <p id=""word"" style=""font-size: 40px;"">ostach</p>
          <p style=""font-size: 16px;"">F = YES &nbsp;&nbsp;&nbsp; J = NO</p>
        ","j","html-keyboard-response","205","2.1.0","244528","F=YES, J=NO","7mq2dnchqw","0","76","83","70","","","","","","","","","ostach","hawk1","pseudoword","pseudoword","j","true","",""
"null","<p style=""font-size: 50px;"">+</p>","null","html-keyboard-response","206","2.1.0","244834","F=YES, J=NO","7mq2dnchqw","0","76","83","70","","","","","","","","","","","","","","","",""
"null","audio/beep-329314.mp3","null","audio-keyboard-response","207","2.1.0","246361","F=YES, J=NO","7mq2dnchqw","0","76","83","70","","","","","","","","","","","","","","","",""
"null","audio/trout1.wav","null","audio-keyboard-response","208","2.1.0","246948","F=YES, J=NO","7mq2dnchqw","0","76","83","70","","","","","","","","","","","","","","","",""
"761","
          <p id=""word"" style=""font-size: 40px;"">spimt</p>
          <p style=""font-size: 16px;"">F = YES &nbsp;&nbsp;&nbsp; J = NO</p>
        ","j","html-keyboard-response","209","2.1.0","247709","F=YES, J=NO","7mq2dnchqw","0","76","83","70","","","","","","","","","spimt","trout1","pseudoword","pseudoword","j","true","",""
"null","<p style=""font-size: 50px;"">+</p>","null","html-keyboard-response","210","2.1.0","248013","F=YES, J=NO","7mq2dnchqw","0","76","83","70","","","","","","","","","","","","","","","",""
"null","audio/beep-329314.mp3","null","audio-keyboard-response","211","2.1.0","249539","F=YES, J=NO","7mq2dnchqw","0","76","83","70","","","","","","","","","","","","","","","",""
"null","audio/camera1.wav","null","audio-keyboard-response","212","2.1.0","250020","F=YES, J=NO","7mq2dnchqw","0","76","83","70","","","","","","","","","","","","","","","",""
"582","
          <p id=""word"" style=""font-size: 40px;"">bring</p>
          <p style=""font-size: 16px;"">F = YES &nbsp;&nbsp;&nbsp; J = NO</p>
        ","f","html-keyboard-response","213","2.1.0","250603","F=YES, J=NO","7mq2dnchqw","0","76","83","70","","","","","","","","","bring","camera1","literal","experimental","f","true","",""
"null","<p style=""font-size: 50px;"">+</p>","null","html-keyboard-response","214","2.1.0","250914","F=YES, J=NO","7mq2dnchqw","0","76","83","70","","","","","","","","","","","","","","","",""
"null","audio/beep-329314.mp3","null","audio-keyboard-response","215","2.1.0","252440","F=YES, J=NO","7mq2dnchqw","0","76","83","70","","","","","","","","","","","","","","","",""
"null","audio/cash1.wav","null","audio-keyboard-response","216","2.1.0","252985","F=YES, J=NO","7mq2dnchqw","0","76","83","70","","","","","","","","","","","","","","","",""
"564","
          <p id=""word"" style=""font-size: 40px;"">invest</p>
          <p style=""font-size: 16px;"">F = YES &nbsp;&nbsp;&nbsp; J = NO</p>
        ","f","html-keyboard-response","217","2.1.0","253550","F=YES, J=NO","7mq2dnchqw","0","76","83","70","","","","","","","","","invest","cash1","literal","experimental","f","true","",""
"null","<p style=""font-size: 50px;"">+</p>","null","html-keyboard-response","218","2.1.0","253858","F=YES, J=NO","7mq2dnchqw","0","76","83","70","","","","","","","","","","","","","","","",""
"null","audio/beep-329314.mp3","null","audio-keyboard-response","219","2.1.0","255385","F=YES, J=NO","7mq2dnchqw","0","76","83","70","","","","","","","","","","","","","","","",""
"null","audio/ego.wav","null","audio-keyboard-response","220","2.1.0","256078","F=YES, J=NO","7mq2dnchqw","0","76","83","70","","","","","","","","","","","","","","","",""
"871","
          <p id=""word"" style=""font-size: 40px;"">bruite</p>
          <p style=""font-size: 16px;"">F = YES &nbsp;&nbsp;&nbsp; J = NO</p>
        ","j","html-keyboard-response","221","2.1.0","256950","F=YES, J=NO","7mq2dnchqw","0","76","83","70","","","","","","","","","bruite","ego","pseudoword","pseudoword","j","true","",""
"null","<p style=""font-size: 50px;"">+</p>","null","html-keyboard-response","222","2.1.0","257271","F=YES, J=NO","7mq2dnchqw","0","76","83","70","","","","","","","","","","","","","","","",""
"null","audio/beep-329314.mp3","null","audio-keyboard-response","223","2.1.0","258798","F=YES, J=NO","7mq2dnchqw","0","76","83","70","","","","","","","","","","","","","","","",""
"null","audio/revenue1.wav","null","audio-keyboard-response","224","2.1.0","259470","F=YES, J=NO","7mq2dnchqw","0","76","83","70","","","","","","","","","","","","","","","",""
"673","
          <p id=""word"" style=""font-size: 40px;"">grow</p>
          <p style=""font-size: 16px;"">F = YES &nbsp;&nbsp;&nbsp; J = NO</p>
        ","f","html-keyboard-response","225","2.1.0","260144","F=YES, J=NO","7mq2dnchqw","0","76","83","70","","","","","","","","","grow","revenue1","metaphor","experimental","f","true","",""
"null","<p style=""font-size: 50px;"">+</p>","null","html-keyboard-response","226","2.1.0","260459","F=YES, J=NO","7mq2dnchqw","0","76","83","70","","","","","","","","","","","","","","","",""
"null","audio/beep-329314.mp3","null","audio-keyboard-response","227","2.1.0","261977","F=YES, J=NO","7mq2dnchqw","0","76","83","70","","","","","","","","","","","","","","","",""
"null","audio/size1.wav","null","audio-keyboard-response","228","2.1.0","262734","F=YES, J=NO","7mq2dnchqw","0","76","83","70","","","","","","","","","","","","","","","",""
"496","
          <p id=""word"" style=""font-size: 40px;"">clear</p>
          <p style=""font-size: 16px;"">F = YES &nbsp;&nbsp;&nbsp; J = NO</p>
        ","f","html-keyboard-response","229","2.1.0","263231","F=YES, J=NO","7mq2dnchqw","0","76","83","70","","","","","","","","","clear","size1","unrelated","experimental","f","true","",""
"14319","<p>Excellent! You have finished block 1 of 8.</p>
                     <p>Feel free to take a 30 second break.</p>
                     <p>Press any key when you're ready to continue.</p>","f","html-keyboard-response","230","2.1.0","277550","F=YES, J=NO","7mq2dnchqw","0","76","83","70","","","","","","","","","","","","","","","",""
"994","<p>Starting main block 2 of 8. Press any key to continue.</p>","f","html-keyboard-response","231","2.1.0","278545","F=YES, J=NO","7mq2dnchqw","0","76","83","70","","","","","","","","","","","","","","","",""
"null","<p style=""font-size: 50px;"">+</p>","null","html-keyboard-response","232","2.1.0","278852","F=YES, J=NO","7mq2dnchqw","0","76","83","70","","","","","","","","","","","","","","","",""
"null","audio/beep-329314.mp3","null","audio-keyboard-response","233","2.1.0","280516","F=YES, J=NO","7mq2dnchqw","0","76","83","70","","","","","","","","","","","","","","","",""
"null","audio/hotel1.wav","null","audio-keyboard-response","234","2.1.0","281166","F=YES, J=NO","7mq2dnchqw","0","76","83","70","","","","","","","","","","","","","","","",""
"608","
          <p id=""word"" style=""font-size: 40px;"">spread</p>
          <p style=""font-size: 16px;"">F = YES &nbsp;&nbsp;&nbsp; J = NO</p>
        ","f","html-keyboard-response","235","2.1.0","281775","F=YES, J=NO","7mq2dnchqw","0","76","83","70","","","","","","","","","spread","hotel1","unrelated","experimental","f","true","",""
"null","<p style=""font-size: 50px;"">+</p>","null","html-keyboard-response","236","2.1.0","282091","F=YES, J=NO","7mq2dnchqw","0","76","83","70","","","","","","","","","","","","","","","",""
"null","audio/beep-329314.mp3","null","audio-keyboard-response","237","2.1.0","283609","F=YES, J=NO","7mq2dnchqw","0","76","83","70","","","","","","","","","","","","","","","",""
"null","audio/cave1.wav","null","audio-keyboard-response","238","2.1.0","284174","F=YES, J=NO","7mq2dnchqw","0","76","83","70","","","","","","","","","","","","","","","",""
"751","
          <p id=""word"" style=""font-size: 40px;"">blacket</p>
          <p style=""font-size: 16px;"">F = YES &nbsp;&nbsp;&nbsp; J = NO</p>
        ","j","html-keyboard-response","239","2.1.0","284926","F=YES, J=NO","7mq2dnchqw","0","76","83","70","","","","","","","","","blacket","cave1","pseudoword","pseudoword","j","true","",""
"null","<p style=""font-size: 50px;"">+</p>","null","html-keyboard-response","240","2.1.0","285240","F=YES, J=NO","7mq2dnchqw","0","76","83","70","","","","","","","","","","","","","","","",""
"null","audio/beep-329314.mp3","null","audio-keyboard-response","241","2.1.0","286767","F=YES, J=NO","7mq2dnchqw","0","76","83","70","","","","","","","","","","","","","","","",""
"null","audio/voice.wav","null","audio-keyboard-response","242","2.1.0","287374","F=YES, J=NO","7mq2dnchqw","0","76","83","70","","","","","","","","","","","","","","","",""
"462","
          <p id=""word"" style=""font-size: 40px;"">flood</p>
          <p style=""font-size: 16px;"">F = YES &nbsp;&nbsp;&nbsp; J = NO</p>
        ","f","html-keyboard-response","243","2.1.0","287837","F=YES, J=NO","7mq2dnchqw","0","76","83","70","","","","","","","","","flood","voice","unrelated","experimental","f","true","",""
"null","<p style=""font-size: 50px;"">+</p>","null","html-keyboard-response","244","2.1.0","288141","F=YES, J=NO","7mq2dnchqw","0","76","83","70","","","","","","","","","","","","","","","",""
"null","audio/beep-329314.mp3","null","audio-keyboard-response","245","2.1.0","289668","F=YES, J=NO","7mq2dnchqw","0","76","83","70","","","","","","","","","","","","","","","",""
"null","audio/tunnel.wav","null","audio-keyboard-response","246","2.1.0","290105","F=YES, J=NO","7mq2dnchqw","0","76","83","70","","","","","","","","","","","","","","","",""
"668","
          <p id=""word"" style=""font-size: 40px;"">gred</p>
          <p style=""font-size: 16px;"">F = YES &nbsp;&nbsp;&nbsp; J = NO</p>
        ","j","html-keyboard-response","247","2.1.0","290774","F=YES, J=NO","7mq2dnchqw","0","76","83","70","","","","","","","","","gred","tunnel","pseudoword","pseudoword","j","true","",""
"null","<p style=""font-size: 50px;"">+</p>","null","html-keyboard-response","248","2.1.0","291095","F=YES, J=NO","7mq2dnchqw","0","76","83","70","","","","","","","","","","","","","","","",""
"null","audio/beep-329314.mp3","null","audio-keyboard-response","249","2.1.0","292612","F=YES, J=NO","7mq2dnchqw","0","76","83","70","","","","","","","","","","","","","","","",""
"null","audio/show.wav","null","audio-keyboard-response","250","2.1.0","293156","F=YES, J=NO","7mq2dnchqw","0","76","83","70","","","","","","","","","","","","","","","",""
"725","
          <p id=""word"" style=""font-size: 40px;"">smark</p>
          <p style=""font-size: 16px;"">F = YES &nbsp;&nbsp;&nbsp; J = NO</p>
        ","j","html-keyboard-response","251","2.1.0","293881","F=YES, J=NO","7mq2dnchqw","0","76","83","70","","","","","","","","","smark","show","pseudoword","pseudoword","j","true","",""
"null","<p style=""font-size: 50px;"">+</p>","null","html-keyboard-response","252","2.1.0","294200","F=YES, J=NO","7mq2dnchqw","0","76","83","70","","","","","","","","","","","","","","","",""
"null","audio/beep-329314.mp3","null","audio-keyboard-response","253","2.1.0","295727","F=YES, J=NO","7mq2dnchqw","0","76","83","70","","","","","","","","","","","","","","","",""
"null","audio/pattern.wav","null","audio-keyboard-response","254","2.1.0","296249","F=YES, J=NO","7mq2dnchqw","0","76","83","70","","","","","","","","","","","","","","","",""
"752","
          <p id=""word"" style=""font-size: 40px;"">tug</p>
          <p style=""font-size: 16px;"">F = YES &nbsp;&nbsp;&nbsp; J = NO</p>
        ","f","html-keyboard-response","255","2.1.0","297001","F=YES, J=NO","7mq2dnchqw","0","76","83","70","","","","","","","","","tug","pattern","filler","filler","f","true","",""
"null","<p style=""font-size: 50px;"">+</p>","null","html-keyboard-response","256","2.1.0","297303","F=YES, J=NO","7mq2dnchqw","0","76","83","70","","","","","","","","","","","","","","","",""
"null","audio/beep-329314.mp3","null","audio-keyboard-response","257","2.1.0","298820","F=YES, J=NO","7mq2dnchqw","0","76","83","70","","","","","","","","","","","","","","","",""
"null","audio/haste1.wav","null","audio-keyboard-response","258","2.1.0","299385","F=YES, J=NO","7mq2dnchqw","0","76","83","70","","","","","","","","","","","","","","","",""
"910","
          <p id=""word"" style=""font-size: 40px;"">coraconate</p>
          <p style=""font-size: 16px;"">F = YES &nbsp;&nbsp;&nbsp; J = NO</p>
        ","j","html-keyboard-response","259","2.1.0","300296","F=YES, J=NO","7mq2dnchqw","0","76","83","70","","","","","","","","","coraconate","haste1","pseudoword","pseudoword","j","true","",""
"null","<p style=""font-size: 50px;"">+</p>","null","html-keyboard-response","260","2.1.0","300599","F=YES, J=NO","7mq2dnchqw","0","76","83","70","","","","","","","","","","","","","","","",""
"null","audio/beep-329314.mp3","null","audio-keyboard-response","261","2.1.0","302126","F=YES, J=NO","7mq2dnchqw","0","76","83","70","","","","","","","","","","","","","","","",""
"null","audio/floor.wav","null","audio-keyboard-response","262","2.1.0","302883","F=YES, J=NO","7mq2dnchqw","0","76","83","70","","","","","","","","","","","","","","","",""
"658","
          <p id=""word"" style=""font-size: 40px;"">mop</p>
          <p style=""font-size: 16px;"">F = YES &nbsp;&nbsp;&nbsp; J = NO</p>
        ","f","html-keyboard-response","263","2.1.0","303542","F=YES, J=NO","7mq2dnchqw","0","76","83","70","","","","","","","","","mop","floor","filler","filler","f","true","",""
"null","<p style=""font-size: 50px;"">+</p>","null","html-keyboard-response","264","2.1.0","303853","F=YES, J=NO","7mq2dnchqw","0","76","83","70","","","","","","","","","","","","","","","",""
"null","audio/beep-329314.mp3","null","audio-keyboard-response","265","2.1.0","305369","F=YES, J=NO","7mq2dnchqw","0","76","83","70","","","","","","","","","","","","","","","",""
"null","audio/sand.wav","null","audio-keyboard-response","266","2.1.0","306019","F=YES, J=NO","7mq2dnchqw","0","76","83","70","","","","","","","","","","","","","","","",""
"750","
          <p id=""word"" style=""font-size: 40px;"">proted</p>
          <p style=""font-size: 16px;"">F = YES &nbsp;&nbsp;&nbsp; J = NO</p>
        ","j","html-keyboard-response","267","2.1.0","306770","F=YES, J=NO","7mq2dnchqw","0","76","83","70","","","","","","","","","proted","sand","pseudoword","pseudoword","j","true","",""
"null","<p style=""font-size: 50px;"">+</p>","null","html-keyboard-response","268","2.1.0","307085","F=YES, J=NO","7mq2dnchqw","0","76","83","70","","","","","","","","","","","","","","","",""
"null","audio/beep-329314.mp3","null","audio-keyboard-response","269","2.1.0","308612","F=YES, J=NO","7mq2dnchqw","0","76","83","70","","","","","","","","","","","","","","","",""
"null","audio/uncle1.wav","null","audio-keyboard-response","270","2.1.0","309091","F=YES, J=NO","7mq2dnchqw","0","76","83","70","","","","","","","","","","","","","","","",""
"720","
          <p id=""word"" style=""font-size: 40px;"">dramble</p>
          <p style=""font-size: 16px;"">F = YES &nbsp;&nbsp;&nbsp; J = NO</p>
        ","j","html-keyboard-response","271","2.1.0","309812","F=YES, J=NO","7mq2dnchqw","0","76","83","70","","","","","","","","","dramble","uncle1","pseudoword","pseudoword","j","true","",""
"null","<p style=""font-size: 50px;"">+</p>","null","html-keyboard-response","272","2.1.0","310114","F=YES, J=NO","7mq2dnchqw","0","76","83","70","","","","","","","","","","","","","","","",""
"null","audio/beep-329314.mp3","null","audio-keyboard-response","273","2.1.0","311641","F=YES, J=NO","7mq2dnchqw","0","76","83","70","","","","","","","","","","","","","","","",""
"null","audio/life1.wav","null","audio-keyboard-response","274","2.1.0","312206","F=YES, J=NO","7mq2dnchqw","0","76","83","70","","","","","","","","","","","","","","","",""
"477","
          <p id=""word"" style=""font-size: 40px;"">give</p>
          <p style=""font-size: 16px;"">F = YES &nbsp;&nbsp;&nbsp; J = NO</p>
        ","f","html-keyboard-response","275","2.1.0","312684","F=YES, J=NO","7mq2dnchqw","0","76","83","70","","","","","","","","","give","life1","metaphor","experimental","f","true","",""
"null","<p style=""font-size: 50px;"">+</p>","null","html-keyboard-response","276","2.1.0","313005","F=YES, J=NO","7mq2dnchqw","0","76","83","70","","","","","","","","","","","","","","","",""
"null","audio/beep-329314.mp3","null","audio-keyboard-response","277","2.1.0","314521","F=YES, J=NO","7mq2dnchqw","0","76","83","70","","","","","","","","","","","","","","","",""
"null","audio/prisoner.wav","null","audio-keyboard-response","278","2.1.0","315022","F=YES, J=NO","7mq2dnchqw","0","76","83","70","","","","","","","","","","","","","","","",""
"697","
          <p id=""word"" style=""font-size: 40px;"">egotian</p>
          <p style=""font-size: 16px;"">F = YES &nbsp;&nbsp;&nbsp; J = NO</p>
        ","j","html-keyboard-response","279","2.1.0","315719","F=YES, J=NO","7mq2dnchqw","0","76","83","70","","","","","","","","","egotian","prisoner","pseudoword","pseudoword","j","true","",""
"null","<p style=""font-size: 50px;"">+</p>","null","html-keyboard-response","280","2.1.0","316034","F=YES, J=NO","7mq2dnchqw","0","76","83","70","","","","","","","","","","","","","","","",""
"null","audio/beep-329314.mp3","null","audio-keyboard-response","281","2.1.0","317550","F=YES, J=NO","7mq2dnchqw","0","76","83","70","","","","","","","","","","","","","","","",""
"null","audio/client1.wav","null","audio-keyboard-response","282","2.1.0","318222","F=YES, J=NO","7mq2dnchqw","0","76","83","70","","","","","","","","","","","","","","","",""
"647","
          <p id=""word"" style=""font-size: 40px;"">droothe</p>
          <p style=""font-size: 16px;"">F = YES &nbsp;&nbsp;&nbsp; J = NO</p>
        ","j","html-keyboard-response","283","2.1.0","318869","F=YES, J=NO","7mq2dnchqw","0","76","83","70","","","","","","","","","droothe","client1","pseudoword","pseudoword","j","true","",""
"null","<p style=""font-size: 50px;"">+</p>","null","html-keyboard-response","284","2.1.0","319176","F=YES, J=NO","7mq2dnchqw","0","76","83","70","","","","","","","","","","","","","","","",""
"null","audio/beep-329314.mp3","null","audio-keyboard-response","285","2.1.0","320708","F=YES, J=NO","7mq2dnchqw","0","76","83","70","","","","","","","","","","","","","","","",""
"null","audio/ego.wav","null","audio-keyboard-response","286","2.1.0","321252","F=YES, J=NO","7mq2dnchqw","0","76","83","70","","","","","","","","","","","","","","","",""
"423","
          <p id=""word"" style=""font-size: 40px;"">feed</p>
          <p style=""font-size: 16px;"">F = YES &nbsp;&nbsp;&nbsp; J = NO</p>
        ","f","html-keyboard-response","287","2.1.0","321676","F=YES, J=NO","7mq2dnchqw","0","76","83","70","","","","","","","","","feed","ego","metaphor","experimental","f","true","",""
"null","<p style=""font-size: 50px;"">+</p>","null","html-keyboard-response","288","2.1.0","321997","F=YES, J=NO","7mq2dnchqw","0","76","83","70","","","","","","","","","","","","","","","",""
"null","audio/beep-329314.mp3","null","audio-keyboard-response","289","2.1.0","323524","F=YES, J=NO","7mq2dnchqw","0","76","83","70","","","","","","","","","","","","","","","",""
"null","audio/hotel1.wav","null","audio-keyboard-response","290","2.1.0","324132","F=YES, J=NO","7mq2dnchqw","0","76","83","70","","","","","","","","","","","","","","","",""
"572","
          <p id=""word"" style=""font-size: 40px;"">flanter</p>
          <p style=""font-size: 16px;"">F = YES &nbsp;&nbsp;&nbsp; J = NO</p>
        ","j","html-keyboard-response","291","2.1.0","324705","F=YES, J=NO","7mq2dnchqw","0","76","83","70","","","","","","","","","flanter","hotel1","pseudoword","pseudoword","j","true","",""
"null","<p style=""font-size: 50px;"">+</p>","null","html-keyboard-response","292","2.1.0","325026","F=YES, J=NO","7mq2dnchqw","0","76","83","70","","","","","","","","","","","","","","","",""
"null","audio/beep-329314.mp3","null","audio-keyboard-response","293","2.1.0","326553","F=YES, J=NO","7mq2dnchqw","0","76","83","70","","","","","","","","","","","","","","","",""
"null","audio/key1.wav","null","audio-keyboard-response","294","2.1.0","326926","F=YES, J=NO","7mq2dnchqw","0","76","83","70","","","","","","","","","","","","","","","",""
"611","
          <p id=""word"" style=""font-size: 40px;"">sminsh</p>
          <p style=""font-size: 16px;"">F = YES &nbsp;&nbsp;&nbsp; J = NO</p>
        ","j","html-keyboard-response","295","2.1.0","327537","F=YES, J=NO","7mq2dnchqw","0","76","83","70","","","","","","","","","sminsh","key1","pseudoword","pseudoword","j","true","",""
"12844","<p>Excellent! You have finished block 2 of 8.</p>
                     <p>Feel free to take a 30 second break.</p>
                     <p>Press any key when you're ready to continue.</p>","f","html-keyboard-response","296","2.1.0","340381","F=YES, J=NO","7mq2dnchqw","0","76","83","70","","","","","","","","","","","","","","","",""
"386","<p>Starting main block 3 of 8. Press any key to continue.</p>","f","html-keyboard-response","297","2.1.0","340768","F=YES, J=NO","7mq2dnchqw","0","76","83","70","","","","","","","","","","","","","","","",""
"null","<p style=""font-size: 50px;"">+</p>","null","html-keyboard-response","298","2.1.0","341071","F=YES, J=NO","7mq2dnchqw","0","76","83","70","","","","","","","","","","","","","","","",""
"null","audio/beep-329314.mp3","null","audio-keyboard-response","299","2.1.0","342558","F=YES, J=NO","7mq2dnchqw","0","76","83","70","","","","","","","","","","","","","","","",""
"null","audio/corpse1.wav","null","audio-keyboard-response","300","2.1.0","343348","F=YES, J=NO","7mq2dnchqw","0","76","83","70","","","","","","","","","","","","","","","",""
"700","
          <p id=""word"" style=""font-size: 40px;"">glonet</p>
          <p style=""font-size: 16px;"">F = YES &nbsp;&nbsp;&nbsp; J = NO</p>
        ","j","html-keyboard-response","301","2.1.0","344049","F=YES, J=NO","7mq2dnchqw","0","76","83","70","","","","","","","","","glonet","corpse1","pseudoword","pseudoword","j","true","",""
"null","<p style=""font-size: 50px;"">+</p>","null","html-keyboard-response","302","2.1.0","344360","F=YES, J=NO","7mq2dnchqw","0","76","83","70","","","","","","","","","","","","","","","",""
"null","audio/beep-329314.mp3","null","audio-keyboard-response","303","2.1.0","345887","F=YES, J=NO","7mq2dnchqw","0","76","83","70","","","","","","","","","","","","","","","",""
"null","audio/trust.wav","null","audio-keyboard-response","304","2.1.0","346505","F=YES, J=NO","7mq2dnchqw","0","76","83","70","","","","","","","","","","","","","","","",""
"603","
          <p id=""word"" style=""font-size: 40px;"">build</p>
          <p style=""font-size: 16px;"">F = YES &nbsp;&nbsp;&nbsp; J = NO</p>
        ","f","html-keyboard-response","305","2.1.0","347110","F=YES, J=NO","7mq2dnchqw","0","76","83","70","","","","","","","","","build","trust","metaphor","experimental","f","true","",""
"null","<p style=""font-size: 50px;"">+</p>","null","html-keyboard-response","306","2.1.0","347411","F=YES, J=NO","7mq2dnchqw","0","76","83","70","","","","","","","","","","","","","","","",""
"null","audio/beep-329314.mp3","null","audio-keyboard-response","307","2.1.0","348938","F=YES, J=NO","7mq2dnchqw","0","76","83","70","","","","","","","","","","","","","","","",""
"null","audio/grass.wav","null","audio-keyboard-response","308","2.1.0","349792","F=YES, J=NO","7mq2dnchqw","0","76","83","70","","","","","","","","","","","","","","","",""
"657","
          <p id=""word"" style=""font-size: 40px;"">milames</p>
          <p style=""font-size: 16px;"">F = YES &nbsp;&nbsp;&nbsp; J = NO</p>
        ","j","html-keyboard-response","309","2.1.0","350450","F=YES, J=NO","7mq2dnchqw","0","76","83","70","","","","","","","","","milames","grass","pseudoword","pseudoword","j","true","",""
"null","<p style=""font-size: 50px;"">+</p>","null","html-keyboard-response","310","2.1.0","350771","F=YES, J=NO","7mq2dnchqw","0","76","83","70","","","","","","","","","","","","","","","",""
"null","audio/beep-329314.mp3","null","audio-keyboard-response","311","2.1.0","352287","F=YES, J=NO","7mq2dnchqw","0","76","83","70","","","","","","","","","","","","","","","",""
"null","audio/account1.wav","null","audio-keyboard-response","312","2.1.0","353140","F=YES, J=NO","7mq2dnchqw","0","76","83","70","","","","","","","","","","","","","","","",""
"670","
          <p id=""word"" style=""font-size: 40px;"">paint</p>
          <p style=""font-size: 16px;"">F = YES &nbsp;&nbsp;&nbsp; J = NO</p>
        ","f","html-keyboard-response","313","2.1.0","353811","F=YES, J=NO","7mq2dnchqw","0","76","83","70","","","","","","","","","paint","account1","filler","filler","f","true","",""
"null","<p style=""font-size: 50px;"">+</p>","null","html-keyboard-response","314","2.1.0","354124","F=YES, J=NO","7mq2dnchqw","0","76","83","70","","","","","","","","","","","","","","","",""
"null","audio/beep-329314.mp3","null","audio-keyboard-response","315","2.1.0","355658","F=YES, J=NO","7mq2dnchqw","0","76","83","70","","","","","","","","","","","","","","","",""
"null","audio/ankle1.wav","null","audio-keyboard-response","316","2.1.0","356170","F=YES, J=NO","7mq2dnchqw","0","76","83","70","","","","","","","","","","","","","","","",""
"669","
          <p id=""word"" style=""font-size: 40px;"">switm</p>
          <p style=""font-size: 16px;"">F = YES &nbsp;&nbsp;&nbsp; J = NO</p>
        ","j","html-keyboard-response","317","2.1.0","356840","F=YES, J=NO","7mq2dnchqw","0","76","83","70","","","","","","","","","switm","ankle1","pseudoword","pseudoword","j","true","",""
"null","<p style=""font-size: 50px;"">+</p>","null","html-keyboard-response","318","2.1.0","357160","F=YES, J=NO","7mq2dnchqw","0","76","83","70","","","","","","","","","","","","","","","",""
"null","audio/beep-329314.mp3","null","audio-keyboard-response","319","2.1.0","358688","F=YES, J=NO","7mq2dnchqw","0","76","83","70","","","","","","","","","","","","","","","",""
"null","audio/desire.wav","null","audio-keyboard-response","320","2.1.0","359306","F=YES, J=NO","7mq2dnchqw","0","76","83","70","","","","","","","","","","","","","","","",""
"520","
          <p id=""word"" style=""font-size: 40px;"">open</p>
          <p style=""font-size: 16px;"">F = YES &nbsp;&nbsp;&nbsp; J = NO</p>
        ","f","html-keyboard-response","321","2.1.0","359827","F=YES, J=NO","7mq2dnchqw","0","76","83","70","","","","","","","","","open","desire","unrelated","experimental","f","true","",""
"null","<p style=""font-size: 50px;"">+</p>","null","html-keyboard-response","322","2.1.0","360146","F=YES, J=NO","7mq2dnchqw","0","76","83","70","","","","","","","","","","","","","","","",""
"null","audio/beep-329314.mp3","null","audio-keyboard-response","323","2.1.0","361674","F=YES, J=NO","7mq2dnchqw","0","76","83","70","","","","","","","","","","","","","","","",""
"null","audio/bridge.wav","null","audio-keyboard-response","324","2.1.0","362271","F=YES, J=NO","7mq2dnchqw","0","76","83","70","","","","","","","","","","","","","","","",""
"524","
          <p id=""word"" style=""font-size: 40px;"">crack</p>
          <p style=""font-size: 16px;"">F = YES &nbsp;&nbsp;&nbsp; J = NO</p>
        ","f","html-keyboard-response","325","2.1.0","362796","F=YES, J=NO","7mq2dnchqw","0","76","83","70","","","","","","","","","crack","bridge","filler","filler","f","true","",""
"null","<p style=""font-size: 50px;"">+</p>","null","html-keyboard-response","326","2.1.0","363112","F=YES, J=NO","7mq2dnchqw","0","76","83","70","","","","","","","","","","","","","","","",""
"null","audio/beep-329314.mp3","null","audio-keyboard-response","327","2.1.0","364639","F=YES, J=NO","7mq2dnchqw","0","76","83","70","","","","","","","","","","","","","","","",""
"null","audio/handle.wav","null","audio-keyboard-response","328","2.1.0","365257","F=YES, J=NO","7mq2dnchqw","0","76","83","70","","","","","","","","","","","","","","","",""
"663","
          <p id=""word"" style=""font-size: 40px;"">moutes</p>
          <p style=""font-size: 16px;"">F = YES &nbsp;&nbsp;&nbsp; J = NO</p>
        ","j","html-keyboard-response","329","2.1.0","365921","F=YES, J=NO","7mq2dnchqw","0","76","83","70","","","","","","","","","moutes","handle","pseudoword","pseudoword","j","true","",""
"null","<p style=""font-size: 50px;"">+</p>","null","html-keyboard-response","330","2.1.0","366237","F=YES, J=NO","7mq2dnchqw","0","76","83","70","","","","","","","","","","","","","","","",""
"null","audio/beep-329314.mp3","null","audio-keyboard-response","331","2.1.0","367754","F=YES, J=NO","7mq2dnchqw","0","76","83","70","","","","","","","","","","","","","","","",""
"null","audio/roof1.wav","null","audio-keyboard-response","332","2.1.0","368287","F=YES, J=NO","7mq2dnchqw","0","76","83","70","","","","","","","","","","","","","","","",""
"617","
          <p id=""word"" style=""font-size: 40px;"">wronb</p>
          <p style=""font-size: 16px;"">F = YES &nbsp;&nbsp;&nbsp; J = NO</p>
        ","j","html-keyboard-response","333","2.1.0","368905","F=YES, J=NO","7mq2dnchqw","0","76","83","70","","","","","","","","","wronb","roof1","pseudoword","pseudoword","j","true","",""
"null","<p style=""font-size: 50px;"">+</p>","null","html-keyboard-response","334","2.1.0","369213","F=YES, J=NO","7mq2dnchqw","0","76","83","70","","","","","","","","","","","","","","","",""
"null","audio/beep-329314.mp3","null","audio-keyboard-response","335","2.1.0","370741","F=YES, J=NO","7mq2dnchqw","0","76","83","70","","","","","","","","","","","","","","","",""
"null","audio/planet1.wav","null","audio-keyboard-response","336","2.1.0","371338","F=YES, J=NO","7mq2dnchqw","0","76","83","70","","","","","","","","","","","","","","","",""
"534","
          <p id=""word"" style=""font-size: 40px;"">save</p>
          <p style=""font-size: 16px;"">F = YES &nbsp;&nbsp;&nbsp; J = NO</p>
        ","f","html-keyboard-response","337","2.1.0","371873","F=YES, J=NO","7mq2dnchqw","0","76","83","70","","","","","","","","","save","planet1","metaphor","experimental","f","true","",""
"null","<p style=""font-size: 50px;"">+</p>","null","html-keyboard-response","338","2.1.0","372178","F=YES, J=NO","7mq2dnchqw","0","76","83","70","","","","","","","","","","","","","","","",""
"null","audio/beep-329314.mp3","null","audio-keyboard-response","339","2.1.0","373706","F=YES, J=NO","7mq2dnchqw","0","76","83","70","","","","","","","","","","","","","","","",""
"null","audio/strength.wav","null","audio-keyboard-response","340","2.1.0","374645","F=YES, J=NO","7mq2dnchqw","0","76","83","70","","","","","","","","","","","","","","","",""
"590","
          <p id=""word"" style=""font-size: 40px;"">plabet</p>
          <p style=""font-size: 16px;"">F = YES &nbsp;&nbsp;&nbsp; J = NO</p>
        ","j","html-keyboard-response","341","2.1.0","375236","F=YES, J=NO","7mq2dnchqw","0","76","83","70","","","","","","","","","plabet","strength","pseudoword","pseudoword","j","true","",""
"null","<p style=""font-size: 50px;"">+</p>","null","html-keyboard-response","342","2.1.0","375539","F=YES, J=NO","7mq2dnchqw","0","76","83","70","","","","","","","","","","","","","","","",""
"null","audio/beep-329314.mp3","null","audio-keyboard-response","343","2.1.0","377077","F=YES, J=NO","7mq2dnchqw","0","76","83","70","","","","","","","","","","","","","","","",""
"null","audio/winter.wav","null","audio-keyboard-response","344","2.1.0","377653","F=YES, J=NO","7mq2dnchqw","0","76","83","70","","","","","","","","","","","","","","","",""
"639","
          <p id=""word"" style=""font-size: 40px;"">straven</p>
          <p style=""font-size: 16px;"">F = YES &nbsp;&nbsp;&nbsp; J = NO</p>
        ","j","html-keyboard-response","345","2.1.0","378292","F=YES, J=NO","7mq2dnchqw","0","76","83","70","","","","","","","","","straven","winter","pseudoword","pseudoword","j","true","",""
"null","<p style=""font-size: 50px;"">+</p>","null","html-keyboard-response","346","2.1.0","378600","F=YES, J=NO","7mq2dnchqw","0","76","83","70","","","","","","","","","","","","","","","",""
"null","audio/beep-329314.mp3","null","audio-keyboard-response","347","2.1.0","380128","F=YES, J=NO","7mq2dnchqw","0","76","83","70","","","","","","","","","","","","","","","",""
"null","audio/golf1.wav","null","audio-keyboard-response","348","2.1.0","380682","F=YES, J=NO","7mq2dnchqw","0","76","83","70","","","","","","","","","","","","","","","",""
"547","
          <p id=""word"" style=""font-size: 40px;"">drabble</p>
          <p style=""font-size: 16px;"">F = YES &nbsp;&nbsp;&nbsp; J = NO</p>
        ","f","html-keyboard-response","349","2.1.0","381230","F=YES, J=NO","7mq2dnchqw","0","76","83","70","","","","","","","","","drabble","golf1","pseudoword","pseudoword","j","false","",""
"null","<p style=""font-size: 50px;"">+</p>","null","html-keyboard-response","350","2.1.0","381533","F=YES, J=NO","7mq2dnchqw","0","76","83","70","","","","","","","","","","","","","","","",""
"null","audio/beep-329314.mp3","null","audio-keyboard-response","351","2.1.0","383049","F=YES, J=NO","7mq2dnchqw","0","76","83","70","","","","","","","","","","","","","","","",""
"null","audio/life1.wav","null","audio-keyboard-response","352","2.1.0","383604","F=YES, J=NO","7mq2dnchqw","0","76","83","70","","","","","","","","","","","","","","","",""
"605","
          <p id=""word"" style=""font-size: 40px;"">flimch</p>
          <p style=""font-size: 16px;"">F = YES &nbsp;&nbsp;&nbsp; J = NO</p>
        ","j","html-keyboard-response","353","2.1.0","384210","F=YES, J=NO","7mq2dnchqw","0","76","83","70","","","","","","","","","flimch","life1","pseudoword","pseudoword","j","true","",""
"null","<p style=""font-size: 50px;"">+</p>","null","html-keyboard-response","354","2.1.0","384531","F=YES, J=NO","7mq2dnchqw","0","76","83","70","","","","","","","","","","","","","","","",""
"null","audio/beep-329314.mp3","null","audio-keyboard-response","355","2.1.0","386057","F=YES, J=NO","7mq2dnchqw","0","76","83","70","","","","","","","","","","","","","","","",""
"null","audio/haste1.wav","null","audio-keyboard-response","356","2.1.0","386612","F=YES, J=NO","7mq2dnchqw","0","76","83","70","","","","","","","","","","","","","","","",""
"387","
          <p id=""word"" style=""font-size: 40px;"">hide</p>
          <p style=""font-size: 16px;"">F = YES &nbsp;&nbsp;&nbsp; J = NO</p>
        ","f","html-keyboard-response","357","2.1.0","387000","F=YES, J=NO","7mq2dnchqw","0","76","83","70","","","","","","","","","hide","haste1","unrelated","experimental","f","true","",""
"null","<p style=""font-size: 50px;"">+</p>","null","html-keyboard-response","358","2.1.0","387304","F=YES, J=NO","7mq2dnchqw","0","76","83","70","","","","","","","","","","","","","","","",""
"null","audio/beep-329314.mp3","null","audio-keyboard-response","359","2.1.0","388831","F=YES, J=NO","7mq2dnchqw","0","76","83","70","","","","","","","","","","","","","","","",""
"null","audio/gift1.wav","null","audio-keyboard-response","360","2.1.0","389492","F=YES, J=NO","7mq2dnchqw","0","76","83","70","","","","","","","","","","","","","","","",""
"568","
          <p id=""word"" style=""font-size: 40px;"">protsh</p>
          <p style=""font-size: 16px;"">F = YES &nbsp;&nbsp;&nbsp; J = NO</p>
        ","j","html-keyboard-response","361","2.1.0","390061","F=YES, J=NO","7mq2dnchqw","0","76","83","70","","","","","","","","","protsh","gift1","pseudoword","pseudoword","j","true","",""
"4215","<p>Excellent! You have finished block 3 of 8.</p>
                     <p>Feel free to take a 30 second break.</p>
                     <p>Press any key when you're ready to continue.</p>","f","html-keyboard-response","362","2.1.0","394277","F=YES, J=NO","7mq2dnchqw","0","76","83","70","","","","","","","","","","","","","","","",""
"605","<p>Starting main block 4 of 8. Press any key to continue.</p>","f","html-keyboard-response","363","2.1.0","394882","F=YES, J=NO","7mq2dnchqw","0","76","83","70","","","","","","","","","","","","","","","",""
"null","<p style=""font-size: 50px;"">+</p>","null","html-keyboard-response","364","2.1.0","395187","F=YES, J=NO","7mq2dnchqw","0","76","83","70","","","","","","","","","","","","","","","",""
"null","audio/beep-329314.mp3","null","audio-keyboard-response","365","2.1.0","396703","F=YES, J=NO","7mq2dnchqw","0","76","83","70","","","","","","","","","","","","","","","",""
"null","audio/train.wav","null","audio-keyboard-response","366","2.1.0","397215","F=YES, J=NO","7mq2dnchqw","0","76","83","70","","","","","","","","","","","","","","","",""
"554","
          <p id=""word"" style=""font-size: 40px;"">catch</p>
          <p style=""font-size: 16px;"">F = YES &nbsp;&nbsp;&nbsp; J = NO</p>
        ","f","html-keyboard-response","367","2.1.0","397770","F=YES, J=NO","7mq2dnchqw","0","76","83","70","","","","","","","","","catch","train","metaphor","experimental","f","true","",""
"null","<p style=""font-size: 50px;"">+</p>","null","html-keyboard-response","368","2.1.0","398082","F=YES, J=NO","7mq2dnchqw","0","76","83","70","","","","","","","","","","","","","","","",""
"null","audio/beep-329314.mp3","null","audio-keyboard-response","369","2.1.0","399604","F=YES, J=NO","7mq2dnchqw","0","76","83","70","","","","","","","","","","","","","","","",""
"null","audio/weight1.wav","null","audio-keyboard-response","370","2.1.0","400137","F=YES, J=NO","7mq2dnchqw","0","76","83","70","","","","","","","","","","","","","","","",""
"453","
          <p id=""word"" style=""font-size: 40px;"">support</p>
          <p style=""font-size: 16px;"">F = YES &nbsp;&nbsp;&nbsp; J = NO</p>
        ","f","html-keyboard-response","371","2.1.0","400592","F=YES, J=NO","7mq2dnchqw","0","76","83","70","","","","","","","","","support","weight1","literal","experimental","f","true","",""
"null","<p style=""font-size: 50px;"">+</p>","null","html-keyboard-response","372","2.1.0","400903","F=YES, J=NO","7mq2dnchqw","0","76","83","70","","","","","","","","","","","","","","","",""
"null","audio/beep-329314.mp3","null","audio-keyboard-response","373","2.1.0","402420","F=YES, J=NO","7mq2dnchqw","0","76","83","70","","","","","","","","","","","","","","","",""
"null","audio/fence.wav","null","audio-keyboard-response","374","2.1.0","403253","F=YES, J=NO","7mq2dnchqw","0","76","83","70","","","","","","","","","","","","","","","",""
"627","
          <p id=""word"" style=""font-size: 40px;"">trim</p>
          <p style=""font-size: 16px;"">F = YES &nbsp;&nbsp;&nbsp; J = NO</p>
        ","f","html-keyboard-response","375","2.1.0","403881","F=YES, J=NO","7mq2dnchqw","0","76","83","70","","","","","","","","","trim","fence","filler","filler","f","true","",""
"null","<p style=""font-size: 50px;"">+</p>","null","html-keyboard-response","376","2.1.0","404194","F=YES, J=NO","7mq2dnchqw","0","76","83","70","","","","","","","","","","","","","","","",""
"null","audio/beep-329314.mp3","null","audio-keyboard-response","377","2.1.0","405727","F=YES, J=NO","7mq2dnchqw","0","76","83","70","","","","","","","","","","","","","","","",""
"null","audio/scar.wav","null","audio-keyboard-response","378","2.1.0","406388","F=YES, J=NO","7mq2dnchqw","0","76","83","70","","","","","","","","","","","","","","","",""
"759","
          <p id=""word"" style=""font-size: 40px;"">adelineate</p>
          <p style=""font-size: 16px;"">F = YES &nbsp;&nbsp;&nbsp; J = NO</p>
        ","j","html-keyboard-response","379","2.1.0","407148","F=YES, J=NO","7mq2dnchqw","0","76","83","70","","","","","","","","","adelineate","scar","pseudoword","pseudoword","j","true","",""
"null","<p style=""font-size: 50px;"">+</p>","null","html-keyboard-response","380","2.1.0","407453","F=YES, J=NO","7mq2dnchqw","0","76","83","70","","","","","","","","","","","","","","","",""
"null","audio/beep-329314.mp3","null","audio-keyboard-response","381","2.1.0","408970","F=YES, J=NO","7mq2dnchqw","0","76","83","70","","","","","","","","","","","","","","","",""
"null","audio/arm.wav","null","audio-keyboard-response","382","2.1.0","409504","F=YES, J=NO","7mq2dnchqw","0","76","83","70","","","","","","","","","","","","","","","",""
"770","
          <p id=""word"" style=""font-size: 40px;"">pigne</p>
          <p style=""font-size: 16px;"">F = YES &nbsp;&nbsp;&nbsp; J = NO</p>
        ","j","html-keyboard-response","383","2.1.0","410274","F=YES, J=NO","7mq2dnchqw","0","76","83","70","","","","","","","","","pigne","arm","pseudoword","pseudoword","j","true","",""
"null","<p style=""font-size: 50px;"">+</p>","null","html-keyboard-response","384","2.1.0","410578","F=YES, J=NO","7mq2dnchqw","0","76","83","70","","","","","","","","","","","","","","","",""
"null","audio/beep-329314.mp3","null","audio-keyboard-response","385","2.1.0","412106","F=YES, J=NO","7mq2dnchqw","0","76","83","70","","","","","","","","","","","","","","","",""
"null","audio/radio1.wav","null","audio-keyboard-response","386","2.1.0","412703","F=YES, J=NO","7mq2dnchqw","0","76","83","70","","","","","","","","","","","","","","","",""
"609","
          <p id=""word"" style=""font-size: 40px;"">blanter</p>
          <p style=""font-size: 16px;"">F = YES &nbsp;&nbsp;&nbsp; J = NO</p>
        ","f","html-keyboard-response","387","2.1.0","413313","F=YES, J=NO","7mq2dnchqw","0","76","83","70","","","","","","","","","blanter","radio1","pseudoword","pseudoword","j","false","",""
"null","<p style=""font-size: 50px;"">+</p>","null","html-keyboard-response","388","2.1.0","413629","F=YES, J=NO","7mq2dnchqw","0","76","83","70","","","","","","","","","","","","","","","",""
"null","audio/beep-329314.mp3","null","audio-keyboard-response","389","2.1.0","415157","F=YES, J=NO","7mq2dnchqw","0","76","83","70","","","","","","","","","","","","","","","",""
"null","audio/purpose.wav","null","audio-keyboard-response","390","2.1.0","415818","F=YES, J=NO","7mq2dnchqw","0","76","83","70","","","","","","","","","","","","","","","",""
"587","
          <p id=""word"" style=""font-size: 40px;"">defeat</p>
          <p style=""font-size: 16px;"">F = YES &nbsp;&nbsp;&nbsp; J = NO</p>
        ","f","html-keyboard-response","391","2.1.0","416406","F=YES, J=NO","7mq2dnchqw","0","76","83","70","","","","","","","","","defeat","purpose","metaphor","experimental","f","true","",""
