"rt","stimulus","response","trial_type","trial_index","plugin_version","time_elapsed","response_mapping","subject_id","list_index","lextale_score","lextale_word_score","lextale_nonword_score","success","timeout","failed_images","failed_audio","failed_video","task","isWord","isDummy","target","prime","prime_type","stimulus_type","correct_response","correct","section","question_order"
"20336","
    <div style=""max-width: 800px; margin: auto; text-align: left;"">
      <h2>STANFORD UNIVERSITY</h2>
      <h3>Research Information Sheet</h3>
      <p><strong>Protocol Director:</strong> Robert Hawkins<br>
      <strong>Protocol Title:</strong> Communication and social cognition in natural audiovisual contexts<br>
      <strong>IRB#:</strong> 77226</p>

      <p><strong>DESCRIPTION:</strong> You are invited to participate in a research study about language and communication. The purpose of the research is to understand how you interact and communicate with other people in naturalistic settings as a fluent English speaker. This research will be conducted through the Prolific platform, including participants from the US, UK, and Canada. If you decide to participate in this research, you will play a communication game in a group with one or more partners.</p>

      <p><strong>TIME INVOLVEMENT:</strong> The task will last the amount of time advertised on Prolific. You are free to withdraw from the study at any time.</p>

      <p><strong>RISKS AND BENEFITS:</strong> You may become frustrated if your partner gets distracted, or experience discomfort if other participants in your group send text that is inappropriate for the task. We ask you to please be respectful of other participants you might be interacting with to mitigate these risks. You may also experience discomfort when being asked to discuss or challenge emotionally salient political beliefs. Study data will be stored securely, in compliance with Stanford University standards, minimizing the risk of confidentiality breach. This study advances our scientific understanding of how people communicate and collaborate in naturalistic settings. This study may lead to further insights about what can go wrong in teamwork, suggest potential interventions to overcome these barriers, and help to develop assistive technologies that collaborate with human partners. We cannot and do not guarantee or promise that you will receive any benefits from this study.</p>

      <p><strong>PAYMENTS:</strong> You will receive payment in the amount advertised on Prolific. If you do not complete this study, you will receive prorated payment based on the time that you have spent. Additionally, you may be eligible for bonus payments as described in the instructions.</p>

      <p><strong>PARTICIPANT’S RIGHTS:</strong> If you have read this form and have decided to participate in this project, please understand your participation is voluntary and you have the right to withdraw your consent or discontinue participation at any time without penalty or loss of benefits to which you are otherwise entitled. The alternative is not to participate. You have the right to refuse to answer particular questions. The results of this research study may be presented at scientific or professional meetings or published in scientific journals. Your individual privacy will be maintained in all published and written data resulting from the study. In accordance with scientific norms, the data from this study may be used or shared with other researchers for future research (after removing personally identifying information) without additional consent from you.</p>

      <p><strong>CONTACT INFORMATION:</strong><br>
      Questions: If you have any questions, concerns or complaints about this research, its procedures, risks and benefits, contact the Protocol Director, Robert Hawkins (<a href=""mailto:rdhawkins@stanford.edu"">rdhawkins@stanford.edu</a>, 217-549-6923).<br>
      Independent Contact: If you are not satisfied with how this study is being conducted, or if you have any concerns, complaints, or general questions about the research or your rights as a participant, please contact the Stanford Institutional Review Board (IRB) to speak to someone independent of the research team at 650-723-2480 or toll free at 1-866-680-2906, or email at <a href=""mailto:irbnon-med@stanford.edu"">irbnon-med@stanford.edu</a>. You can also write to the Stanford IRB, Stanford University, 1705 El Camino Real, Palo Alto, CA 94306.</p>

      <p><strong>Please save or print a copy of this page for your records.</strong></p>
      <p>If you agree to participate in this research, click ""Continue"" below.</p>
    </div>
  ","0","html-button-response","0","2.1.0","20344","F=YES, J=NO","80h2zf06kl","1","75","80","70","","","","","","","","","","","","","","","",""
"3950","
    <div style=""max-width: 800px; margin: auto; text-align: left;"">
      <h2>Welcome!</h2>
      <p>Thank you for participating in this study. The experiment consists of three parts:</p>
      <ol>
        <li>An English vocabulary test</li>
        <li>A main task in which you will hear and see words, and decide whether the written word is a real English word</li>
        <li>A brief survey about your background</li>
      </ol>
      <p>Each part will be introduced before it begins.</p>
      <p>Please make sure you are in a quiet environment and can hear audio clearly for the final task.</p>
      <p style=""margin-top: 2em;"">Press any key to begin.</p>
    </div>
  "," ","html-keyboard-response","1","2.1.0","24295","F=YES, J=NO","80h2zf06kl","1","75","80","70","","","","","","","","","","","","","","","",""
"","","","preload","2","2.1.0","24674","F=YES, J=NO","80h2zf06kl","1","75","80","70","true","false","[]","[]","[]","","","","","","","","","","",""
"3526","
    <div style=""max-width: 800px; margin: auto; text-align: left;"">
      <h2>Part 1: Vocabulary Test</h2>
      <p>You will now complete the first part of the study: a short English vocabulary test.</p>
      <p>This test is called <strong>LexTALE</strong> and helps us get a general sense of your English proficiency.</p>
      <p style=""margin-top: 2em;"">Press any key to continue.</p>
    </div>
  "," ","html-keyboard-response","3","2.1.0","28201","F=YES, J=NO","80h2zf06kl","1","75","80","70","","","","","","","","","","","","","","","",""
"19473","
    <div style=""max-width: 800px; margin: auto; text-align: left;"">
      <h2>LexTALE Vocabulary Test</h2>
      <p>In this test, you will see a series of letter strings—one at a time.</p>
      <p>Your task is to decide whether each string is a real English word.</p>
      <p><strong>Key responses:</strong></p>
      <ul>
        <li><strong>F</strong> = YES (real English word)</li>
        <li><strong>J</strong> = NO (not a real English word)</li>
      </ul>
      <p>There is no time limit, but please try to be accurate.</p>
      <p style=""margin-top: 2em;"">Press any key to begin.</p>
    </div>
  "," ","html-keyboard-response","4","2.1.0","47675","F=YES, J=NO","80h2zf06kl","1","75","80","70","","","","","","","","","","","","","","","",""
"4273","
  <p style=""font-size: 40px;"">platery</p>
  <p style=""font-size: 16px;"">F = YES &nbsp;&nbsp;&nbsp; J = NO</p>
","j","html-keyboard-response","5","2.1.0","51949","F=YES, J=NO","80h2zf06kl","1","75","80","70","","","","","","lextale","false","true","","","","","","","",""
"1072","
  <p style=""font-size: 40px;"">denial</p>
  <p style=""font-size: 16px;"">F = YES &nbsp;&nbsp;&nbsp; J = NO</p>
","f","html-keyboard-response","6","2.1.0","53023","F=YES, J=NO","80h2zf06kl","1","75","80","70","","","","","","lextale","true","true","","","","","","","",""
"1348","
  <p style=""font-size: 40px;"">marrit</p>
  <p style=""font-size: 16px;"">F = YES &nbsp;&nbsp;&nbsp; J = NO</p>
","j","html-keyboard-response","7","2.1.0","54372","F=YES, J=NO","80h2zf06kl","1","75","80","70","","","","","","lextale","false","true","","","","","","","",""
"1140","
  <p style=""font-size: 40px;"">bottle</p>
  <p style=""font-size: 16px;"">F = YES &nbsp;&nbsp;&nbsp; J = NO</p>
","f","html-keyboard-response","8","2.1.0","55512","F=YES, J=NO","80h2zf06kl","1","75","80","70","","","","","","lextale","true","false","","","","","","","",""
"2232","
  <p style=""font-size: 40px;"">birst</p>
  <p style=""font-size: 16px;"">F = YES &nbsp;&nbsp;&nbsp; J = NO</p>
","j","html-keyboard-response","9","2.1.0","57744","F=YES, J=NO","80h2zf06kl","1","75","80","70","","","","","","lextale","false","false","","","","","","","",""
"833","
  <p style=""font-size: 40px;"">envy</p>
  <p style=""font-size: 16px;"">F = YES &nbsp;&nbsp;&nbsp; J = NO</p>
","f","html-keyboard-response","10","2.1.0","58578","F=YES, J=NO","80h2zf06kl","1","75","80","70","","","","","","lextale","true","false","","","","","","","",""
"1429","
  <p style=""font-size: 40px;"">brang</p>
  <p style=""font-size: 16px;"">F = YES &nbsp;&nbsp;&nbsp; J = NO</p>
","j","html-keyboard-response","11","2.1.0","60008","F=YES, J=NO","80h2zf06kl","1","75","80","70","","","","","","lextale","false","false","","","","","","","",""
"829","
  <p style=""font-size: 40px;"">huge</p>
  <p style=""font-size: 16px;"">F = YES &nbsp;&nbsp;&nbsp; J = NO</p>
","f","html-keyboard-response","12","2.1.0","60838","F=YES, J=NO","80h2zf06kl","1","75","80","70","","","","","","lextale","true","false","","","","","","","",""
"1321","
  <p style=""font-size: 40px;"">plove</p>
  <p style=""font-size: 16px;"">F = YES &nbsp;&nbsp;&nbsp; J = NO</p>
","j","html-keyboard-response","13","2.1.0","62160","F=YES, J=NO","80h2zf06kl","1","75","80","70","","","","","","lextale","false","false","","","","","","","",""
"607","
  <p style=""font-size: 40px;"">border</p>
  <p style=""font-size: 16px;"">F = YES &nbsp;&nbsp;&nbsp; J = NO</p>
","f","html-keyboard-response","14","2.1.0","62767","F=YES, J=NO","80h2zf06kl","1","75","80","70","","","","","","lextale","true","false","","","","","","","",""
"1018","
  <p style=""font-size: 40px;"">flimsy</p>
  <p style=""font-size: 16px;"">F = YES &nbsp;&nbsp;&nbsp; J = NO</p>
","f","html-keyboard-response","15","2.1.0","63785","F=YES, J=NO","80h2zf06kl","1","75","80","70","","","","","","lextale","true","false","","","","","","","",""
"698","
  <p style=""font-size: 40px;"">drain</p>
  <p style=""font-size: 16px;"">F = YES &nbsp;&nbsp;&nbsp; J = NO</p>
","f","html-keyboard-response","16","2.1.0","64483","F=YES, J=NO","80h2zf06kl","1","75","80","70","","","","","","lextale","true","false","","","","","","","",""
"1085","
  <p style=""font-size: 40px;"">twindle</p>
  <p style=""font-size: 16px;"">F = YES &nbsp;&nbsp;&nbsp; J = NO</p>
","f","html-keyboard-response","17","2.1.0","65568","F=YES, J=NO","80h2zf06kl","1","75","80","70","","","","","","lextale","false","false","","","","","","","",""
"592","
  <p style=""font-size: 40px;"">propose</p>
  <p style=""font-size: 16px;"">F = YES &nbsp;&nbsp;&nbsp; J = NO</p>
","f","html-keyboard-response","18","2.1.0","66161","F=YES, J=NO","80h2zf06kl","1","75","80","70","","","","","","lextale","true","false","","","","","","","",""
"945","
  <p style=""font-size: 40px;"">forlay</p>
  <p style=""font-size: 16px;"">F = YES &nbsp;&nbsp;&nbsp; J = NO</p>
","f","html-keyboard-response","19","2.1.0","67107","F=YES, J=NO","80h2zf06kl","1","75","80","70","","","","","","lextale","false","false","","","","","","","",""
"600","
  <p style=""font-size: 40px;"">tenant</p>
  <p style=""font-size: 16px;"">F = YES &nbsp;&nbsp;&nbsp; J = NO</p>
","f","html-keyboard-response","20","2.1.0","67707","F=YES, J=NO","80h2zf06kl","1","75","80","70","","","","","","lextale","true","false","","","","","","","",""
"565","
  <p style=""font-size: 40px;"">strain</p>
  <p style=""font-size: 16px;"">F = YES &nbsp;&nbsp;&nbsp; J = NO</p>
","f","html-keyboard-response","21","2.1.0","68273","F=YES, J=NO","80h2zf06kl","1","75","80","70","","","","","","lextale","true","false","","","","","","","",""
"668","
  <p style=""font-size: 40px;"">holster</p>
  <p style=""font-size: 16px;"">F = YES &nbsp;&nbsp;&nbsp; J = NO</p>
","f","html-keyboard-response","22","2.1.0","68940","F=YES, J=NO","80h2zf06kl","1","75","80","70","","","","","","lextale","true","false","","","","","","","",""
"799","
  <p style=""font-size: 40px;"">hinder</p>
  <p style=""font-size: 16px;"">F = YES &nbsp;&nbsp;&nbsp; J = NO</p>
","f","html-keyboard-response","23","2.1.0","69741","F=YES, J=NO","80h2zf06kl","1","75","80","70","","","","","","lextale","true","false","","","","","","","",""
"573","
  <p style=""font-size: 40px;"">swindle</p>
  <p style=""font-size: 16px;"">F = YES &nbsp;&nbsp;&nbsp; J = NO</p>
","f","html-keyboard-response","24","2.1.0","70313","F=YES, J=NO","80h2zf06kl","1","75","80","70","","","","","","lextale","true","false","","","","","","","",""
"1714","
  <p style=""font-size: 40px;"">nuder</p>
  <p style=""font-size: 16px;"">F = YES &nbsp;&nbsp;&nbsp; J = NO</p>
","j","html-keyboard-response","25","2.1.0","72028","F=YES, J=NO","80h2zf06kl","1","75","80","70","","","","","","lextale","false","false","","","","","","","",""
"589","
  <p style=""font-size: 40px;"">pillow</p>
  <p style=""font-size: 16px;"">F = YES &nbsp;&nbsp;&nbsp; J = NO</p>
","f","html-keyboard-response","26","2.1.0","72618","F=YES, J=NO","80h2zf06kl","1","75","80","70","","","","","","lextale","true","false","","","","","","","",""
"988","
  <p style=""font-size: 40px;"">shumble</p>
  <p style=""font-size: 16px;"">F = YES &nbsp;&nbsp;&nbsp; J = NO</p>
","j","html-keyboard-response","27","2.1.0","73606","F=YES, J=NO","80h2zf06kl","1","75","80","70","","","","","","lextale","false","false","","","","","","","",""
"612","
  <p style=""font-size: 40px;"">thirst</p>
  <p style=""font-size: 16px;"">F = YES &nbsp;&nbsp;&nbsp; J = NO</p>
","f","html-keyboard-response","28","2.1.0","74219","F=YES, J=NO","80h2zf06kl","1","75","80","70","","","","","","lextale","true","false","","","","","","","",""
"1265","
  <p style=""font-size: 40px;"">unsail</p>
  <p style=""font-size: 16px;"">F = YES &nbsp;&nbsp;&nbsp; J = NO</p>
","f","html-keyboard-response","29","2.1.0","75484","F=YES, J=NO","80h2zf06kl","1","75","80","70","","","","","","lextale","false","false","","","","","","","",""
"859","
  <p style=""font-size: 40px;"">rifle</p>
  <p style=""font-size: 16px;"">F = YES &nbsp;&nbsp;&nbsp; J = NO</p>
","f","html-keyboard-response","30","2.1.0","76344","F=YES, J=NO","80h2zf06kl","1","75","80","70","","","","","","lextale","true","false","","","","","","","",""
"624","
  <p style=""font-size: 40px;"">mush</p>
  <p style=""font-size: 16px;"">F = YES &nbsp;&nbsp;&nbsp; J = NO</p>
","f","html-keyboard-response","31","2.1.0","76968","F=YES, J=NO","80h2zf06kl","1","75","80","70","","","","","","lextale","false","false","","","","","","","",""
"1068","
  <p style=""font-size: 40px;"">drench</p>
  <p style=""font-size: 16px;"">F = YES &nbsp;&nbsp;&nbsp; J = NO</p>
","f","html-keyboard-response","32","2.1.0","78036","F=YES, J=NO","80h2zf06kl","1","75","80","70","","","","","","lextale","true","false","","","","","","","",""
"1027","
  <p style=""font-size: 40px;"">snirt</p>
  <p style=""font-size: 16px;"">F = YES &nbsp;&nbsp;&nbsp; J = NO</p>
","j","html-keyboard-response","33","2.1.0","79063","F=YES, J=NO","80h2zf06kl","1","75","80","70","","","","","","lextale","false","false","","","","","","","",""
"653","
  <p style=""font-size: 40px;"">bitter</p>
  <p style=""font-size: 16px;"">F = YES &nbsp;&nbsp;&nbsp; J = NO</p>
","f","html-keyboard-response","34","2.1.0","79718","F=YES, J=NO","80h2zf06kl","1","75","80","70","","","","","","lextale","true","false","","","","","","","",""
"2092","
  <p style=""font-size: 40px;"">pliff</p>
  <p style=""font-size: 16px;"">F = YES &nbsp;&nbsp;&nbsp; J = NO</p>
","j","html-keyboard-response","35","2.1.0","81810","F=YES, J=NO","80h2zf06kl","1","75","80","70","","","","","","lextale","false","false","","","","","","","",""
"570","
  <p style=""font-size: 40px;"">tablet</p>
  <p style=""font-size: 16px;"">F = YES &nbsp;&nbsp;&nbsp; J = NO</p>
","f","html-keyboard-response","36","2.1.0","82382","F=YES, J=NO","80h2zf06kl","1","75","80","70","","","","","","lextale","true","false","","","","","","","",""
"945","
  <p style=""font-size: 40px;"">glimmer</p>
  <p style=""font-size: 16px;"">F = YES &nbsp;&nbsp;&nbsp; J = NO</p>
","f","html-keyboard-response","37","2.1.0","83327","F=YES, J=NO","80h2zf06kl","1","75","80","70","","","","","","lextale","true","false","","","","","","","",""
"802","
  <p style=""font-size: 40px;"">slink</p>
  <p style=""font-size: 16px;"">F = YES &nbsp;&nbsp;&nbsp; J = NO</p>
","f","html-keyboard-response","38","2.1.0","84129","F=YES, J=NO","80h2zf06kl","1","75","80","70","","","","","","lextale","true","false","","","","","","","",""
"569","
  <p style=""font-size: 40px;"">clever</p>
  <p style=""font-size: 16px;"">F = YES &nbsp;&nbsp;&nbsp; J = NO</p>
","f","html-keyboard-response","39","2.1.0","84699","F=YES, J=NO","80h2zf06kl","1","75","80","70","","","","","","lextale","true","false","","","","","","","",""
"882","
  <p style=""font-size: 40px;"">grum</p>
  <p style=""font-size: 16px;"">F = YES &nbsp;&nbsp;&nbsp; J = NO</p>
","j","html-keyboard-response","40","2.1.0","85581","F=YES, J=NO","80h2zf06kl","1","75","80","70","","","","","","lextale","false","false","","","","","","","",""
"566","
  <p style=""font-size: 40px;"">string</p>
  <p style=""font-size: 16px;"">F = YES &nbsp;&nbsp;&nbsp; J = NO</p>
","f","html-keyboard-response","41","2.1.0","86148","F=YES, J=NO","80h2zf06kl","1","75","80","70","","","","","","lextale","true","false","","","","","","","",""
"765","
  <p style=""font-size: 40px;"">plim</p>
  <p style=""font-size: 16px;"">F = YES &nbsp;&nbsp;&nbsp; J = NO</p>
","j","html-keyboard-response","42","2.1.0","86914","F=YES, J=NO","80h2zf06kl","1","75","80","70","","","","","","lextale","false","false","","","","","","","",""
"569","
  <p style=""font-size: 40px;"">cable</p>
  <p style=""font-size: 16px;"">F = YES &nbsp;&nbsp;&nbsp; J = NO</p>
","f","html-keyboard-response","43","2.1.0","87483","F=YES, J=NO","80h2zf06kl","1","75","80","70","","","","","","lextale","true","false","","","","","","","",""
"908","
  <p style=""font-size: 40px;"">shrivel</p>
  <p style=""font-size: 16px;"">F = YES &nbsp;&nbsp;&nbsp; J = NO</p>
","j","html-keyboard-response","44","2.1.0","88391","F=YES, J=NO","80h2zf06kl","1","75","80","70","","","","","","lextale","true","false","","","","","","","",""
"1525","
  <p style=""font-size: 40px;"">tarnish</p>
  <p style=""font-size: 16px;"">F = YES &nbsp;&nbsp;&nbsp; J = NO</p>
","f","html-keyboard-response","45","2.1.0","89915","F=YES, J=NO","80h2zf06kl","1","75","80","70","","","","","","lextale","true","false","","","","","","","",""
"895","
  <p style=""font-size: 40px;"">blim</p>
  <p style=""font-size: 16px;"">F = YES &nbsp;&nbsp;&nbsp; J = NO</p>
","j","html-keyboard-response","46","2.1.0","90810","F=YES, J=NO","80h2zf06kl","1","75","80","70","","","","","","lextale","false","false","","","","","","","",""
"987","
  <p style=""font-size: 40px;"">stifle</p>
  <p style=""font-size: 16px;"">F = YES &nbsp;&nbsp;&nbsp; J = NO</p>
","j","html-keyboard-response","47","2.1.0","91798","F=YES, J=NO","80h2zf06kl","1","75","80","70","","","","","","lextale","true","false","","","","","","","",""
"756","
  <p style=""font-size: 40px;"">bint</p>
  <p style=""font-size: 16px;"">F = YES &nbsp;&nbsp;&nbsp; J = NO</p>
","j","html-keyboard-response","48","2.1.0","92554","F=YES, J=NO","80h2zf06kl","1","75","80","70","","","","","","lextale","false","false","","","","","","","",""
"571","
  <p style=""font-size: 40px;"">purple</p>
  <p style=""font-size: 16px;"">F = YES &nbsp;&nbsp;&nbsp; J = NO</p>
","f","html-keyboard-response","49","2.1.0","93125","F=YES, J=NO","80h2zf06kl","1","75","80","70","","","","","","lextale","true","false","","","","","","","",""
"713","
  <p style=""font-size: 40px;"">wriggle</p>
  <p style=""font-size: 16px;"">F = YES &nbsp;&nbsp;&nbsp; J = NO</p>
","f","html-keyboard-response","50","2.1.0","93840","F=YES, J=NO","80h2zf06kl","1","75","80","70","","","","","","lextale","true","false","","","","","","","",""
"717","
  <p style=""font-size: 40px;"">mangle</p>
  <p style=""font-size: 16px;"">F = YES &nbsp;&nbsp;&nbsp; J = NO</p>
","f","html-keyboard-response","51","2.1.0","94557","F=YES, J=NO","80h2zf06kl","1","75","80","70","","","","","","lextale","true","false","","","","","","","",""
"905","
  <p style=""font-size: 40px;"">shramp</p>
  <p style=""font-size: 16px;"">F = YES &nbsp;&nbsp;&nbsp; J = NO</p>
","j","html-keyboard-response","52","2.1.0","95464","F=YES, J=NO","80h2zf06kl","1","75","80","70","","","","","","lextale","false","false","","","","","","","",""
"682","
  <p style=""font-size: 40px;"">flirt</p>
  <p style=""font-size: 16px;"">F = YES &nbsp;&nbsp;&nbsp; J = NO</p>
","f","html-keyboard-response","53","2.1.0","96147","F=YES, J=NO","80h2zf06kl","1","75","80","70","","","","","","lextale","true","false","","","","","","","",""
"837","
  <p style=""font-size: 40px;"">frip</p>
  <p style=""font-size: 16px;"">F = YES &nbsp;&nbsp;&nbsp; J = NO</p>
","j","html-keyboard-response","54","2.1.0","96984","F=YES, J=NO","80h2zf06kl","1","75","80","70","","","","","","lextale","false","false","","","","","","","",""
"655","
  <p style=""font-size: 40px;"">tangle</p>
  <p style=""font-size: 16px;"">F = YES &nbsp;&nbsp;&nbsp; J = NO</p>
","f","html-keyboard-response","55","2.1.0","97640","F=YES, J=NO","80h2zf06kl","1","75","80","70","","","","","","lextale","true","false","","","","","","","",""
"691","
  <p style=""font-size: 40px;"">crumble</p>
  <p style=""font-size: 16px;"">F = YES &nbsp;&nbsp;&nbsp; J = NO</p>
","f","html-keyboard-response","56","2.1.0","98333","F=YES, J=NO","80h2zf06kl","1","75","80","70","","","","","","lextale","true","false","","","","","","","",""
"696","
  <p style=""font-size: 40px;"">wrinkle</p>
  <p style=""font-size: 16px;"">F = YES &nbsp;&nbsp;&nbsp; J = NO</p>
","f","html-keyboard-response","57","2.1.0","99029","F=YES, J=NO","80h2zf06kl","1","75","80","70","","","","","","lextale","true","false","","","","","","","",""
"821","
  <p style=""font-size: 40px;"">slumb</p>
  <p style=""font-size: 16px;"">F = YES &nbsp;&nbsp;&nbsp; J = NO</p>
","j","html-keyboard-response","58","2.1.0","99852","F=YES, J=NO","80h2zf06kl","1","75","80","70","","","","","","lextale","false","false","","","","","","","",""
"601","
  <p style=""font-size: 40px;"">jungle</p>
  <p style=""font-size: 16px;"">F = YES &nbsp;&nbsp;&nbsp; J = NO</p>
","f","html-keyboard-response","59","2.1.0","100453","F=YES, J=NO","80h2zf06kl","1","75","80","70","","","","","","lextale","true","false","","","","","","","",""
"908","
  <p style=""font-size: 40px;"">frolick</p>
  <p style=""font-size: 16px;"">F = YES &nbsp;&nbsp;&nbsp; J = NO</p>
","f","html-keyboard-response","60","2.1.0","101362","F=YES, J=NO","80h2zf06kl","1","75","80","70","","","","","","lextale","false","false","","","","","","","",""
"10140","
      <h2>LexTALE Test Completed</h2>
      <p>Your LexTALE vocabulary score is: <strong>75%</strong></p>
      <p>Press any key to continue.</p>
    "," ","html-keyboard-response","61","2.1.0","111503","F=YES, J=NO","80h2zf06kl","1","75","80","70","","","","","","","","","","","","","","","",""
"1948","
    <div style=""max-width: 800px; margin: auto; text-align: left;"">
      <h2>Break Time</h2>
      <p>You have completed the first part of the study.</p>
      <p>You may take a short <strong>30-second break</strong> before continuing.</p>
      <p>When you’re ready, press any key to continue to the final task.</p>
    </div>
  "," ","html-keyboard-response","62","2.1.0","113450","F=YES, J=NO","80h2zf06kl","1","75","80","70","","","","","","","","","","","","","","","",""
"11950","
    <div style=""max-width: 800px; margin: auto; text-align: left;"">
      <h2>Part 2: Lexical Decision Task</h2>
      <p>You will now begin the second part of the study.</p>
      <p>Each trial will follow this sequence:</p>
      <ul>
        <li>A fixation cross (+) appears at the center of the screen.</li>
        <li>You will hear a short beep followed by a spoken word.</li>
        <li>A written word will appear briefly on the screen.</li>
      </ul>
      <p>Your task is to judge whether the <strong>written word</strong> is a real English word.</p>
      <p style=""margin-top: 1em;""><strong>Key responses:</strong></p>
      <ul>
        <li><strong>F</strong> = YES (real English word)</li>
        <li><strong>J</strong> = NO (not a real English word)</li>
      </ul>
      <p>Please respond as quickly and accurately as you can.</p>
      <p style=""margin-top: 2em;"">Press any key to continue.</p>
    </div>
  "," ","html-keyboard-response","63","2.1.0","125401","F=YES, J=NO","80h2zf06kl","1","75","80","70","","","","","","","","","","","","","","","",""
"2871","
    <div style=""max-width: 800px; margin: auto; text-align: left;"">
      <h2>Before You Begin</h2>
      <p>Make sure your sound is turned on.</p>
      <p>You will hear audio during each trial, but your decision should be based only on the <strong>written word</strong> you see on the screen.</p>
      <p><strong>Reminder:</strong></p>
      <ul>
        <li><strong>F</strong> = YES (real English word)</li>
        <li><strong>J</strong> = NO (not a real English word)</li>
      </ul>
      <p style=""margin-top: 2em;"">Press any key when you are ready to begin.</p>
    </div>
  "," ","html-keyboard-response","64","2.1.0","128272","F=YES, J=NO","80h2zf06kl","1","75","80","70","","","","","","","","","","","","","","","",""
"1204","
    <div style=""max-width: 800px; margin: auto; text-align: left;"">
      <h2>Part 2: Practice Trials</h2>
      <p>You will now complete a few <strong>practice trials</strong> to get familiar with the task.</p>
      <p>These trials are <strong>not scored</strong> and are only to help you get used to the format.</p>
      <p style=""margin-top: 2em;"">Press any key to begin.</p>
    </div>
  "," ","html-keyboard-response","65","2.1.0","129477","F=YES, J=NO","80h2zf06kl","1","75","80","70","","","","","","","","","","","","","","","",""
"3820","<p>Starting practice block 1 of 2. Press any key to continue.</p>"," ","html-keyboard-response","66","2.1.0","133298","F=YES, J=NO","80h2zf06kl","1","75","80","70","","","","","","","","","","","","","","","",""
"null","<p style=""font-size: 50px;"">+</p>","null","html-keyboard-response","67","2.1.0","133599","F=YES, J=NO","80h2zf06kl","1","75","80","70","","","","","","","","","","","","","","","",""
"null","audio/beep-329314.mp3","null","audio-keyboard-response","68","2.1.0","135152","F=YES, J=NO","80h2zf06kl","1","75","80","70","","","","","","","","","","","","","","","",""
"null","audio/window1.wav","null","audio-keyboard-response","69","2.1.0","135827","F=YES, J=NO","80h2zf06kl","1","75","80","70","","","","","","","","","","","","","","","",""
"769","
          <p id=""word"" style=""font-size: 40px;"">toss</p>
          <p style=""font-size: 16px;"">F = YES &nbsp;&nbsp;&nbsp; J = NO</p>
        ","f","html-keyboard-response","70","2.1.0","136596","F=YES, J=NO","80h2zf06kl","1","75","80","70","","","","","","","","","toss","window1","filler","filler","f","true","",""
"null","<p style=""font-size: 50px;"">+</p>","null","html-keyboard-response","71","2.1.0","136911","F=YES, J=NO","80h2zf06kl","1","75","80","70","","","","","","","","","","","","","","","",""
"null","audio/beep-329314.mp3","null","audio-keyboard-response","72","2.1.0","138462","F=YES, J=NO","80h2zf06kl","1","75","80","70","","","","","","","","","","","","","","","",""
"null","audio/relief.wav","null","audio-keyboard-response","73","2.1.0","139306","F=YES, J=NO","80h2zf06kl","1","75","80","70","","","","","","","","","","","","","","","",""
"319","
          <p id=""word"" style=""font-size: 40px;"">grigg</p>
          <p style=""font-size: 16px;"">F = YES &nbsp;&nbsp;&nbsp; J = NO</p>
        ","f","html-keyboard-response","74","2.1.0","139624","F=YES, J=NO","80h2zf06kl","1","75","80","70","","","","","","","","","grigg","relief","pseudoword","pseudoword","j","false","",""
"null","<p style=""font-size: 50px;"">+</p>","null","html-keyboard-response","75","2.1.0","139937","F=YES, J=NO","80h2zf06kl","1","75","80","70","","","","","","","","","","","","","","","",""
"null","audio/beep-329314.mp3","null","audio-keyboard-response","76","2.1.0","141463","F=YES, J=NO","80h2zf06kl","1","75","80","70","","","","","","","","","","","","","","","",""
"null","audio/van1.wav","null","audio-keyboard-response","77","2.1.0","142015","F=YES, J=NO","80h2zf06kl","1","75","80","70","","","","","","","","","","","","","","","",""
"878","
          <p id=""word"" style=""font-size: 40px;"">push</p>
          <p style=""font-size: 16px;"">F = YES &nbsp;&nbsp;&nbsp; J = NO</p>
        ","f","html-keyboard-response","78","2.1.0","142892","F=YES, J=NO","80h2zf06kl","1","75","80","70","","","","","","","","","push","van1","filler","filler","f","true","",""
"null","<p style=""font-size: 50px;"">+</p>","null","html-keyboard-response","79","2.1.0","143204","F=YES, J=NO","80h2zf06kl","1","75","80","70","","","","","","","","","","","","","","","",""
"null","audio/beep-329314.mp3","null","audio-keyboard-response","80","2.1.0","144756","F=YES, J=NO","80h2zf06kl","1","75","80","70","","","","","","","","","","","","","","","",""
"null","audio/purpose.wav","null","audio-keyboard-response","81","2.1.0","145507","F=YES, J=NO","80h2zf06kl","1","75","80","70","","","","","","","","","","","","","","","",""
"718","
          <p id=""word"" style=""font-size: 40px;"">whigm</p>
          <p style=""font-size: 16px;"">F = YES &nbsp;&nbsp;&nbsp; J = NO</p>
        ","f","html-keyboard-response","82","2.1.0","146227","F=YES, J=NO","80h2zf06kl","1","75","80","70","","","","","","","","","whigm","purpose","pseudoword","pseudoword","j","false","",""
"null","<p style=""font-size: 50px;"">+</p>","null","html-keyboard-response","83","2.1.0","146536","F=YES, J=NO","80h2zf06kl","1","75","80","70","","","","","","","","","","","","","","","",""
"null","audio/beep-329314.mp3","null","audio-keyboard-response","84","2.1.0","148088","F=YES, J=NO","80h2zf06kl","1","75","80","70","","","","","","","","","","","","","","","",""
"null","audio/bomb1.wav","null","audio-keyboard-response","85","2.1.0","148732","F=YES, J=NO","80h2zf06kl","1","75","80","70","","","","","","","","","","","","","","","",""
"1271","
          <p id=""word"" style=""font-size: 40px;"">clean</p>
          <p style=""font-size: 16px;"">F = YES &nbsp;&nbsp;&nbsp; J = NO</p>
        ","j","html-keyboard-response","86","2.1.0","150003","F=YES, J=NO","80h2zf06kl","1","75","80","70","","","","","","","","","clean","bomb1","filler","filler","f","false","",""
"null","<p style=""font-size: 50px;"">+</p>","null","html-keyboard-response","87","2.1.0","150310","F=YES, J=NO","80h2zf06kl","1","75","80","70","","","","","","","","","","","","","","","",""
"null","audio/beep-329314.mp3","null","audio-keyboard-response","88","2.1.0","151861","F=YES, J=NO","80h2zf06kl","1","75","80","70","","","","","","","","","","","","","","","",""
"null","audio/pattern.wav","null","audio-keyboard-response","89","2.1.0","152435","F=YES, J=NO","80h2zf06kl","1","75","80","70","","","","","","","","","","","","","","","",""
"518","
          <p id=""word"" style=""font-size: 40px;"">tug</p>
          <p style=""font-size: 16px;"">F = YES &nbsp;&nbsp;&nbsp; J = NO</p>
        ","f","html-keyboard-response","90","2.1.0","152952","F=YES, J=NO","80h2zf06kl","1","75","80","70","","","","","","","","","tug","pattern","filler","filler","f","true","",""
"null","<p style=""font-size: 50px;"">+</p>","null","html-keyboard-response","91","2.1.0","153253","F=YES, J=NO","80h2zf06kl","1","75","80","70","","","","","","","","","","","","","","","",""
"null","audio/beep-329314.mp3","null","audio-keyboard-response","92","2.1.0","154778","F=YES, J=NO","80h2zf06kl","1","75","80","70","","","","","","","","","","","","","","","",""
"null","audio/tunnel.wav","null","audio-keyboard-response","93","2.1.0","155271","F=YES, J=NO","80h2zf06kl","1","75","80","70","","","","","","","","","","","","","","","",""
"466","
          <p id=""word"" style=""font-size: 40px;"">gred</p>
          <p style=""font-size: 16px;"">F = YES &nbsp;&nbsp;&nbsp; J = NO</p>
        ","f","html-keyboard-response","94","2.1.0","155738","F=YES, J=NO","80h2zf06kl","1","75","80","70","","","","","","","","","gred","tunnel","pseudoword","pseudoword","j","false","",""
"null","<p style=""font-size: 50px;"">+</p>","null","html-keyboard-response","95","2.1.0","156042","F=YES, J=NO","80h2zf06kl","1","75","80","70","","","","","","","","","","","","","","","",""
"null","audio/beep-329314.mp3","null","audio-keyboard-response","96","2.1.0","157565","F=YES, J=NO","80h2zf06kl","1","75","80","70","","","","","","","","","","","","","","","",""
"null","audio/trust.wav","null","audio-keyboard-response","97","2.1.0","158489","F=YES, J=NO","80h2zf06kl","1","75","80","70","","","","","","","","","","","","","","","",""
"null","
          <p id=""word"" style=""font-size: 40px;"">swint</p>
          <p style=""font-size: 16px;"">F = YES &nbsp;&nbsp;&nbsp; J = NO</p>
        ","null","html-keyboard-response","98","2.1.0","160000","F=YES, J=NO","80h2zf06kl","1","75","80","70","","","","","","","","","swint","trust","pseudoword","pseudoword","j","false","",""
"null","<p style=""font-size: 50px;"">+</p>","null","html-keyboard-response","99","2.1.0","160308","F=YES, J=NO","80h2zf06kl","1","75","80","70","","","","","","","","","","","","","","","",""
"null","audio/beep-329314.mp3","null","audio-keyboard-response","100","2.1.0","161859","F=YES, J=NO","80h2zf06kl","1","75","80","70","","","","","","","","","","","","","","","",""
"null","audio/menu.wav","null","audio-keyboard-response","101","2.1.0","162642","F=YES, J=NO","80h2zf06kl","1","75","80","70","","","","","","","","","","","","","","","",""
"null","
          <p id=""word"" style=""font-size: 40px;"">slice</p>
          <p style=""font-size: 16px;"">F = YES &nbsp;&nbsp;&nbsp; J = NO</p>
        ","null","html-keyboard-response","102","2.1.0","164144","F=YES, J=NO","80h2zf06kl","1","75","80","70","","","","","","","","","slice","menu","filler","filler","f","false","",""
"null","<p style=""font-size: 50px;"">+</p>","null","html-keyboard-response","103","2.1.0","164453","F=YES, J=NO","80h2zf06kl","1","75","80","70","","","","","","","","","","","","","","","",""
"null","audio/beep-329314.mp3","null","audio-keyboard-response","104","2.1.0","166004","F=YES, J=NO","80h2zf06kl","1","75","80","70","","","","","","","","","","","","","","","",""
"null","audio/hawk1.wav","null","audio-keyboard-response","105","2.1.0","166934","F=YES, J=NO","80h2zf06kl","1","75","80","70","","","","","","","","","","","","","","","",""
"539","
          <p id=""word"" style=""font-size: 40px;"">ostach</p>
          <p style=""font-size: 16px;"">F = YES &nbsp;&nbsp;&nbsp; J = NO</p>
        ","f","html-keyboard-response","106","2.1.0","167474","F=YES, J=NO","80h2zf06kl","1","75","80","70","","","","","","","","","ostach","hawk1","pseudoword","pseudoword","j","false","",""
"null","<p style=""font-size: 50px;"">+</p>","null","html-keyboard-response","107","2.1.0","167788","F=YES, J=NO","80h2zf06kl","1","75","80","70","","","","","","","","","","","","","","","",""
"null","audio/beep-329314.mp3","null","audio-keyboard-response","108","2.1.0","169312","F=YES, J=NO","80h2zf06kl","1","75","80","70","","","","","","","","","","","","","","","",""
"null","audio/floor.wav","null","audio-keyboard-response","109","2.1.0","170012","F=YES, J=NO","80h2zf06kl","1","75","80","70","","","","","","","","","","","","","","","",""
"568","
          <p id=""word"" style=""font-size: 40px;"">mop</p>
          <p style=""font-size: 16px;"">F = YES &nbsp;&nbsp;&nbsp; J = NO</p>
        ","f","html-keyboard-response","110","2.1.0","170583","F=YES, J=NO","80h2zf06kl","1","75","80","70","","","","","","","","","mop","floor","filler","filler","f","true","",""
"null","<p style=""font-size: 50px;"">+</p>","null","html-keyboard-response","111","2.1.0","170887","F=YES, J=NO","80h2zf06kl","1","75","80","70","","","","","","","","","","","","","","","",""
"null","audio/beep-329314.mp3","null","audio-keyboard-response","112","2.1.0","172411","F=YES, J=NO","80h2zf06kl","1","75","80","70","","","","","","","","","","","","","","","",""
"null","audio/birth1.wav","null","audio-keyboard-response","113","2.1.0","172948","F=YES, J=NO","80h2zf06kl","1","75","80","70","","","","","","","","","","","","","","","",""
"476","
          <p id=""word"" style=""font-size: 40px;"">peel</p>
          <p style=""font-size: 16px;"">F = YES &nbsp;&nbsp;&nbsp; J = NO</p>
        ","f","html-keyboard-response","114","2.1.0","173423","F=YES, J=NO","80h2zf06kl","1","75","80","70","","","","","","","","","peel","birth1","filler","filler","f","true","",""
"3173","<p>Starting practice block 2 of 2. Press any key to continue.</p>"," ","html-keyboard-response","115","2.1.0","176598","F=YES, J=NO","80h2zf06kl","1","75","80","70","","","","","","","","","","","","","","","",""
"null","<p style=""font-size: 50px;"">+</p>","null","html-keyboard-response","116","2.1.0","176905","F=YES, J=NO","80h2zf06kl","1","75","80","70","","","","","","","","","","","","","","","",""
"null","audio/beep-329314.mp3","null","audio-keyboard-response","117","2.1.0","178456","F=YES, J=NO","80h2zf06kl","1","75","80","70","","","","","","","","","","","","","","","",""
"null","audio/cancer1.wav","null","audio-keyboard-response","118","2.1.0","179083","F=YES, J=NO","80h2zf06kl","1","75","80","70","","","","","","","","","","","","","","","",""
"674","
          <p id=""word"" style=""font-size: 40px;"">draw</p>
          <p style=""font-size: 16px;"">F = YES &nbsp;&nbsp;&nbsp; J = NO</p>
        ","f","html-keyboard-response","119","2.1.0","179756","F=YES, J=NO","80h2zf06kl","1","75","80","70","","","","","","","","","draw","cancer1","filler","filler","f","true","",""
"null","<p style=""font-size: 50px;"">+</p>","null","html-keyboard-response","120","2.1.0","180061","F=YES, J=NO","80h2zf06kl","1","75","80","70","","","","","","","","","","","","","","","",""
"null","audio/beep-329314.mp3","null","audio-keyboard-response","121","2.1.0","181597","F=YES, J=NO","80h2zf06kl","1","75","80","70","","","","","","","","","","","","","","","",""
"null","audio/bishop1.wav","null","audio-keyboard-response","122","2.1.0","182184","F=YES, J=NO","80h2zf06kl","1","75","80","70","","","","","","","","","","","","","","","",""
"289","
          <p id=""word"" style=""font-size: 40px;"">play</p>
          <p style=""font-size: 16px;"">F = YES &nbsp;&nbsp;&nbsp; J = NO</p>
        ","f","html-keyboard-response","123","2.1.0","182473","F=YES, J=NO","80h2zf06kl","1","75","80","70","","","","","","","","","play","bishop1","filler","filler","f","true","",""
"null","<p style=""font-size: 50px;"">+</p>","null","html-keyboard-response","124","2.1.0","182786","F=YES, J=NO","80h2zf06kl","1","75","80","70","","","","","","","","","","","","","","","",""
"null","audio/beep-329314.mp3","null","audio-keyboard-response","125","2.1.0","184310","F=YES, J=NO","80h2zf06kl","1","75","80","70","","","","","","","","","","","","","","","",""
"null","audio/neck.wav","null","audio-keyboard-response","126","2.1.0","184915","F=YES, J=NO","80h2zf06kl","1","75","80","70","","","","","","","","","","","","","","","",""
"483","
          <p id=""word"" style=""font-size: 40px;"">werling</p>
          <p style=""font-size: 16px;"">F = YES &nbsp;&nbsp;&nbsp; J = NO</p>
        ","f","html-keyboard-response","127","2.1.0","185397","F=YES, J=NO","80h2zf06kl","1","75","80","70","","","","","","","","","werling","neck","pseudoword","pseudoword","j","false","",""
"null","<p style=""font-size: 50px;"">+</p>","null","html-keyboard-response","128","2.1.0","185729","F=YES, J=NO","80h2zf06kl","1","75","80","70","","","","","","","","","","","","","","","",""
"null","audio/beep-329314.mp3","null","audio-keyboard-response","129","2.1.0","187254","F=YES, J=NO","80h2zf06kl","1","75","80","70","","","","","","","","","","","","","","","",""
"null","audio/bridge.wav","null","audio-keyboard-response","130","2.1.0","187858","F=YES, J=NO","80h2zf06kl","1","75","80","70","","","","","","","","","","","","","","","",""
"916","
          <p id=""word"" style=""font-size: 40px;"">crack</p>
          <p style=""font-size: 16px;"">F = YES &nbsp;&nbsp;&nbsp; J = NO</p>
        ","f","html-keyboard-response","131","2.1.0","188774","F=YES, J=NO","80h2zf06kl","1","75","80","70","","","","","","","","","crack","bridge","filler","filler","f","true","",""
"null","<p style=""font-size: 50px;"">+</p>","null","html-keyboard-response","132","2.1.0","189096","F=YES, J=NO","80h2zf06kl","1","75","80","70","","","","","","","","","","","","","","","",""
"null","audio/beep-329314.mp3","null","audio-keyboard-response","133","2.1.0","190646","F=YES, J=NO","80h2zf06kl","1","75","80","70","","","","","","","","","","","","","","","",""
"null","audio/account1.wav","null","audio-keyboard-response","134","2.1.0","191322","F=YES, J=NO","80h2zf06kl","1","75","80","70","","","","","","","","","","","","","","","",""
"372","
          <p id=""word"" style=""font-size: 40px;"">paint</p>
          <p style=""font-size: 16px;"">F = YES &nbsp;&nbsp;&nbsp; J = NO</p>
        ","f","html-keyboard-response","135","2.1.0","191693","F=YES, J=NO","80h2zf06kl","1","75","80","70","","","","","","","","","paint","account1","filler","filler","f","true","",""
"null","<p style=""font-size: 50px;"">+</p>","null","html-keyboard-response","136","2.1.0","192000","F=YES, J=NO","80h2zf06kl","1","75","80","70","","","","","","","","","","","","","","","",""
"null","audio/beep-329314.mp3","null","audio-keyboard-response","137","2.1.0","193523","F=YES, J=NO","80h2zf06kl","1","75","80","70","","","","","","","","","","","","","","","",""
"null","audio/heart1.wav","null","audio-keyboard-response","138","2.1.0","194209","F=YES, J=NO","80h2zf06kl","1","75","80","70","","","","","","","","","","","","","","","",""
"536","
          <p id=""word"" style=""font-size: 40px;"">dralm</p>
          <p style=""font-size: 16px;"">F = YES &nbsp;&nbsp;&nbsp; J = NO</p>
        ","f","html-keyboard-response","139","2.1.0","194745","F=YES, J=NO","80h2zf06kl","1","75","80","70","","","","","","","","","dralm","heart1","pseudoword","pseudoword","j","false","",""
"null","<p style=""font-size: 50px;"">+</p>","null","html-keyboard-response","140","2.1.0","195060","F=YES, J=NO","80h2zf06kl","1","75","80","70","","","","","","","","","","","","","","","",""
"null","audio/beep-329314.mp3","null","audio-keyboard-response","141","2.1.0","196586","F=YES, J=NO","80h2zf06kl","1","75","80","70","","","","","","","","","","","","","","","",""
"null","audio/battle1.wav","null","audio-keyboard-response","142","2.1.0","197041","F=YES, J=NO","80h2zf06kl","1","75","80","70","","","","","","","","","","","","","","","",""
"457","
          <p id=""word"" style=""font-size: 40px;"">boil</p>
          <p style=""font-size: 16px;"">F = YES &nbsp;&nbsp;&nbsp; J = NO</p>
        ","f","html-keyboard-response","143","2.1.0","197499","F=YES, J=NO","80h2zf06kl","1","75","80","70","","","","","","","","","boil","battle1","filler","filler","f","true","",""
"null","<p style=""font-size: 50px;"">+</p>","null","html-keyboard-response","144","2.1.0","197802","F=YES, J=NO","80h2zf06kl","1","75","80","70","","","","","","","","","","","","","","","",""
"null","audio/beep-329314.mp3","null","audio-keyboard-response","145","2.1.0","199325","F=YES, J=NO","80h2zf06kl","1","75","80","70","","","","","","","","","","","","","","","",""
"null","audio/effort.wav","null","audio-keyboard-response","146","2.1.0","199980","F=YES, J=NO","80h2zf06kl","1","75","80","70","","","","","","","","","","","","","","","",""
"327","
          <p id=""word"" style=""font-size: 40px;"">whonk</p>
          <p style=""font-size: 16px;"">F = YES &nbsp;&nbsp;&nbsp; J = NO</p>
        ","f","html-keyboard-response","147","2.1.0","200307","F=YES, J=NO","80h2zf06kl","1","75","80","70","","","","","","","","","whonk","effort","pseudoword","pseudoword","j","false","",""
"null","<p style=""font-size: 50px;"">+</p>","null","html-keyboard-response","148","2.1.0","200618","F=YES, J=NO","80h2zf06kl","1","75","80","70","","","","","","","","","","","","","","","",""
"null","audio/beep-329314.mp3","null","audio-keyboard-response","149","2.1.0","202143","F=YES, J=NO","80h2zf06kl","1","75","80","70","","","","","","","","","","","","","","","",""
"null","audio/foe1.wav","null","audio-keyboard-response","150","2.1.0","202860","F=YES, J=NO","80h2zf06kl","1","75","80","70","","","","","","","","","","","","","","","",""
"830","
          <p id=""word"" style=""font-size: 40px;"">creth</p>
          <p style=""font-size: 16px;"">F = YES &nbsp;&nbsp;&nbsp; J = NO</p>
        ","f","html-keyboard-response","151","2.1.0","203690","F=YES, J=NO","80h2zf06kl","1","75","80","70","","","","","","","","","creth","foe1","pseudoword","pseudoword","j","false","",""
"null","<p style=""font-size: 50px;"">+</p>","null","html-keyboard-response","152","2.1.0","203993","F=YES, J=NO","80h2zf06kl","1","75","80","70","","","","","","","","","","","","","","","",""
"null","audio/beep-329314.mp3","null","audio-keyboard-response","153","2.1.0","205544","F=YES, J=NO","80h2zf06kl","1","75","80","70","","","","","","","","","","","","","","","",""
"null","audio/emotion.wav","null","audio-keyboard-response","154","2.1.0","206201","F=YES, J=NO","80h2zf06kl","1","75","80","70","","","","","","","","","","","","","","","",""
"673","
          <p id=""word"" style=""font-size: 40px;"">devering</p>
          <p style=""font-size: 16px;"">F = YES &nbsp;&nbsp;&nbsp; J = NO</p>
        ","j","html-keyboard-response","155","2.1.0","206874","F=YES, J=NO","80h2zf06kl","1","75","80","70","","","","","","","","","devering","emotion","pseudoword","pseudoword","j","true","",""
"null","<p style=""font-size: 50px;"">+</p>","null","html-keyboard-response","156","2.1.0","207177","F=YES, J=NO","80h2zf06kl","1","75","80","70","","","","","","","","","","","","","","","",""
"null","audio/beep-329314.mp3","null","audio-keyboard-response","157","2.1.0","208729","F=YES, J=NO","80h2zf06kl","1","75","80","70","","","","","","","","","","","","","","","",""
"null","audio/show.wav","null","audio-keyboard-response","158","2.1.0","209333","F=YES, J=NO","80h2zf06kl","1","75","80","70","","","","","","","","","","","","","","","",""
"970","
          <p id=""word"" style=""font-size: 40px;"">smark</p>
          <p style=""font-size: 16px;"">F = YES &nbsp;&nbsp;&nbsp; J = NO</p>
        ","j","html-keyboard-response","159","2.1.0","210303","F=YES, J=NO","80h2zf06kl","1","75","80","70","","","","","","","","","smark","show","pseudoword","pseudoword","j","true","",""
"null","<p style=""font-size: 50px;"">+</p>","null","html-keyboard-response","160","2.1.0","210612","F=YES, J=NO","80h2zf06kl","1","75","80","70","","","","","","","","","","","","","","","",""
"null","audio/beep-329314.mp3","null","audio-keyboard-response","161","2.1.0","212163","F=YES, J=NO","80h2zf06kl","1","75","80","70","","","","","","","","","","","","","","","",""
"null","audio/age1.wav","null","audio-keyboard-response","162","2.1.0","212709","F=YES, J=NO","80h2zf06kl","1","75","80","70","","","","","","","","","","","","","","","",""
"674","
          <p id=""word"" style=""font-size: 40px;"">lachry</p>
          <p style=""font-size: 16px;"">F = YES &nbsp;&nbsp;&nbsp; J = NO</p>
        ","j","html-keyboard-response","163","2.1.0","213385","F=YES, J=NO","80h2zf06kl","1","75","80","70","","","","","","","","","lachry","age1","pseudoword","pseudoword","j","true","",""
"12784","
    <div style=""max-width: 800px; margin: auto; text-align: left;"">
      <h2>Part 2: Main Trials</h2>
      <p>Great job on the practice trials!</p>
      <p>You will now begin the <strong>main set of trials</strong>.</p>
      <p>Remember your key assignments:</p>
      <ul>
        <li><strong>F</strong> = YES (real English word)</li>
        <li><strong>J</strong> = NO (not a real English word)</li>
      </ul>
      <p>Try to respond as <strong>quickly and accurately</strong> as possible.</p>
      <p style=""margin-top: 2em;"">Press any key to begin the main trials.</p>
    </div>
  "," ","html-keyboard-response","164","2.1.0","226169","F=YES, J=NO","80h2zf06kl","1","75","80","70","","","","","","","","","","","","","","","",""
"1355","<p>Starting main block 1 of 8. Press any key to continue.</p>"," ","html-keyboard-response","165","2.1.0","227525","F=YES, J=NO","80h2zf06kl","1","75","80","70","","","","","","","","","","","","","","","",""
"null","<p style=""font-size: 50px;"">+</p>","null","html-keyboard-response","166","2.1.0","227827","F=YES, J=NO","80h2zf06kl","1","75","80","70","","","","","","","","","","","","","","","",""
"null","audio/beep-329314.mp3","null","audio-keyboard-response","167","2.1.0","229379","F=YES, J=NO","80h2zf06kl","1","75","80","70","","","","","","","","","","","","","","","",""
"null","audio/breath.wav","null","audio-keyboard-response","168","2.1.0","229936","F=YES, J=NO","80h2zf06kl","1","75","80","70","","","","","","","","","","","","","","","",""
"669","
          <p id=""word"" style=""font-size: 40px;"">pack</p>
          <p style=""font-size: 16px;"">F = YES &nbsp;&nbsp;&nbsp; J = NO</p>
        ","f","html-keyboard-response","169","2.1.0","230606","F=YES, J=NO","80h2zf06kl","1","75","80","70","","","","","","","","","pack","breath","filler","filler","f","true","",""
"null","<p style=""font-size: 50px;"">+</p>","null","html-keyboard-response","170","2.1.0","230917","F=YES, J=NO","80h2zf06kl","1","75","80","70","","","","","","","","","","","","","","","",""
"null","audio/beep-329314.mp3","null","audio-keyboard-response","171","2.1.0","232455","F=YES, J=NO","80h2zf06kl","1","75","80","70","","","","","","","","","","","","","","","",""
"null","audio/strength.wav","null","audio-keyboard-response","172","2.1.0","233192","F=YES, J=NO","80h2zf06kl","1","75","80","70","","","","","","","","","","","","","","","",""
"644","
          <p id=""word"" style=""font-size: 40px;"">plabet</p>
          <p style=""font-size: 16px;"">F = YES &nbsp;&nbsp;&nbsp; J = NO</p>
        ","j","html-keyboard-response","173","2.1.0","233837","F=YES, J=NO","80h2zf06kl","1","75","80","70","","","","","","","","","plabet","strength","pseudoword","pseudoword","j","true","",""
"null","<p style=""font-size: 50px;"">+</p>","null","html-keyboard-response","174","2.1.0","234144","F=YES, J=NO","80h2zf06kl","1","75","80","70","","","","","","","","","","","","","","","",""
"null","audio/beep-329314.mp3","null","audio-keyboard-response","175","2.1.0","235695","F=YES, J=NO","80h2zf06kl","1","75","80","70","","","","","","","","","","","","","","","",""
"null","audio/planet1.wav","null","audio-keyboard-response","176","2.1.0","236291","F=YES, J=NO","80h2zf06kl","1","75","80","70","","","","","","","","","","","","","","","",""
"984","
          <p id=""word"" style=""font-size: 40px;"">cratched</p>
          <p style=""font-size: 16px;"">F = YES &nbsp;&nbsp;&nbsp; J = NO</p>
        ","j","html-keyboard-response","177","2.1.0","237275","F=YES, J=NO","80h2zf06kl","1","75","80","70","","","","","","","","","cratched","planet1","pseudoword","pseudoword","j","true","",""
"null","<p style=""font-size: 50px;"">+</p>","null","html-keyboard-response","178","2.1.0","237585","F=YES, J=NO","80h2zf06kl","1","75","80","70","","","","","","","","","","","","","","","",""
"null","audio/beep-329314.mp3","null","audio-keyboard-response","179","2.1.0","239137","F=YES, J=NO","80h2zf06kl","1","75","80","70","","","","","","","","","","","","","","","",""
"null","audio/pride1.wav","null","audio-keyboard-response","180","2.1.0","239684","F=YES, J=NO","80h2zf06kl","1","75","80","70","","","","","","","","","","","","","","","",""
"542","
          <p id=""word"" style=""font-size: 40px;"">hurt</p>
          <p style=""font-size: 16px;"">F = YES &nbsp;&nbsp;&nbsp; J = NO</p>
        ","f","html-keyboard-response","181","2.1.0","240225","F=YES, J=NO","80h2zf06kl","1","75","80","70","","","","","","","","","hurt","pride1","metaphor","experimental","f","true","",""
"null","<p style=""font-size: 50px;"">+</p>","null","html-keyboard-response","182","2.1.0","240534","F=YES, J=NO","80h2zf06kl","1","75","80","70","","","","","","","","","","","","","","","",""
"null","audio/beep-329314.mp3","null","audio-keyboard-response","183","2.1.0","242057","F=YES, J=NO","80h2zf06kl","1","75","80","70","","","","","","","","","","","","","","","",""
"null","audio/uncle1.wav","null","audio-keyboard-response","184","2.1.0","242534","F=YES, J=NO","80h2zf06kl","1","75","80","70","","","","","","","","","","","","","","","",""
"705","
          <p id=""word"" style=""font-size: 40px;"">dramble</p>
          <p style=""font-size: 16px;"">F = YES &nbsp;&nbsp;&nbsp; J = NO</p>
        ","j","html-keyboard-response","185","2.1.0","243240","F=YES, J=NO","80h2zf06kl","1","75","80","70","","","","","","","","","dramble","uncle1","pseudoword","pseudoword","j","true","",""
"null","<p style=""font-size: 50px;"">+</p>","null","html-keyboard-response","186","2.1.0","243547","F=YES, J=NO","80h2zf06kl","1","75","80","70","","","","","","","","","","","","","","","",""
"null","audio/beep-329314.mp3","null","audio-keyboard-response","187","2.1.0","245069","F=YES, J=NO","80h2zf06kl","1","75","80","70","","","","","","","","","","","","","","","",""
"null","audio/cave1.wav","null","audio-keyboard-response","188","2.1.0","245615","F=YES, J=NO","80h2zf06kl","1","75","80","70","","","","","","","","","","","","","","","",""
"485","
          <p id=""word"" style=""font-size: 40px;"">blacket</p>
          <p style=""font-size: 16px;"">F = YES &nbsp;&nbsp;&nbsp; J = NO</p>
        ","f","html-keyboard-response","189","2.1.0","246100","F=YES, J=NO","80h2zf06kl","1","75","80","70","","","","","","","","","blacket","cave1","pseudoword","pseudoword","j","false","",""
"null","<p style=""font-size: 50px;"">+</p>","null","html-keyboard-response","190","2.1.0","246410","F=YES, J=NO","80h2zf06kl","1","75","80","70","","","","","","","","","","","","","","","",""
"null","audio/beep-329314.mp3","null","audio-keyboard-response","191","2.1.0","247936","F=YES, J=NO","80h2zf06kl","1","75","80","70","","","","","","","","","","","","","","","",""
"null","audio/pig.wav","null","audio-keyboard-response","192","2.1.0","248312","F=YES, J=NO","80h2zf06kl","1","75","80","70","","","","","","","","","","","","","","","",""
"680","
          <p id=""word"" style=""font-size: 40px;"">tirlike</p>
          <p style=""font-size: 16px;"">F = YES &nbsp;&nbsp;&nbsp; J = NO</p>
        ","j","html-keyboard-response","193","2.1.0","248992","F=YES, J=NO","80h2zf06kl","1","75","80","70","","","","","","","","","tirlike","pig","pseudoword","pseudoword","j","true","",""
"null","<p style=""font-size: 50px;"">+</p>","null","html-keyboard-response","194","2.1.0","249293","F=YES, J=NO","80h2zf06kl","1","75","80","70","","","","","","","","","","","","","","","",""
"null","audio/beep-329314.mp3","null","audio-keyboard-response","195","2.1.0","250817","F=YES, J=NO","80h2zf06kl","1","75","80","70","","","","","","","","","","","","","","","",""
"null","audio/mouth1.wav","null","audio-keyboard-response","196","2.1.0","251383","F=YES, J=NO","80h2zf06kl","1","75","80","70","","","","","","","","","","","","","","","",""
"562","
          <p id=""word"" style=""font-size: 40px;"">close</p>
          <p style=""font-size: 16px;"">F = YES &nbsp;&nbsp;&nbsp; J = NO</p>
        ","f","html-keyboard-response","197","2.1.0","251945","F=YES, J=NO","80h2zf06kl","1","75","80","70","","","","","","","","","close","mouth1","literal","experimental","f","true","",""
"null","<p style=""font-size: 50px;"">+</p>","null","html-keyboard-response","198","2.1.0","252246","F=YES, J=NO","80h2zf06kl","1","75","80","70","","","","","","","","","","","","","","","",""
"null","audio/beep-329314.mp3","null","audio-keyboard-response","199","2.1.0","253770","F=YES, J=NO","80h2zf06kl","1","75","80","70","","","","","","","","","","","","","","","",""
"null","audio/camera1.wav","null","audio-keyboard-response","200","2.1.0","254258","F=YES, J=NO","80h2zf06kl","1","75","80","70","","","","","","","","","","","","","","","",""
"636","
          <p id=""word"" style=""font-size: 40px;"">bring</p>
          <p style=""font-size: 16px;"">F = YES &nbsp;&nbsp;&nbsp; J = NO</p>
        ","f","html-keyboard-response","201","2.1.0","254893","F=YES, J=NO","80h2zf06kl","1","75","80","70","","","","","","","","","bring","camera1","literal","experimental","f","true","",""
"null","<p style=""font-size: 50px;"">+</p>","null","html-keyboard-response","202","2.1.0","255202","F=YES, J=NO","80h2zf06kl","1","75","80","70","","","","","","","","","","","","","","","",""
"null","audio/beep-329314.mp3","null","audio-keyboard-response","203","2.1.0","256726","F=YES, J=NO","80h2zf06kl","1","75","80","70","","","","","","","","","","","","","","","",""
"null","audio/truth1.wav","null","audio-keyboard-response","204","2.1.0","257272","F=YES, J=NO","80h2zf06kl","1","75","80","70","","","","","","","","","","","","","","","",""
"598","
          <p id=""word"" style=""font-size: 40px;"">expose</p>
          <p style=""font-size: 16px;"">F = YES &nbsp;&nbsp;&nbsp; J = NO</p>
        ","f","html-keyboard-response","205","2.1.0","257871","F=YES, J=NO","80h2zf06kl","1","75","80","70","","","","","","","","","expose","truth1","metaphor","experimental","f","true","",""
"null","<p style=""font-size: 50px;"">+</p>","null","html-keyboard-response","206","2.1.0","258185","F=YES, J=NO","80h2zf06kl","1","75","80","70","","","","","","","","","","","","","","","",""
"null","audio/beep-329314.mp3","null","audio-keyboard-response","207","2.1.0","259708","F=YES, J=NO","80h2zf06kl","1","75","80","70","","","","","","","","","","","","","","","",""
"null","audio/dome.wav","null","audio-keyboard-response","208","2.1.0","260145","F=YES, J=NO","80h2zf06kl","1","75","80","70","","","","","","","","","","","","","","","",""
"710","
          <p id=""word"" style=""font-size: 40px;"">scrupliness</p>
          <p style=""font-size: 16px;"">F = YES &nbsp;&nbsp;&nbsp; J = NO</p>
        ","j","html-keyboard-response","209","2.1.0","260856","F=YES, J=NO","80h2zf06kl","1","75","80","70","","","","","","","","","scrupliness","dome","pseudoword","pseudoword","j","true","",""
"null","<p style=""font-size: 50px;"">+</p>","null","html-keyboard-response","210","2.1.0","261160","F=YES, J=NO","80h2zf06kl","1","75","80","70","","","","","","","","","","","","","","","",""
"null","audio/beep-329314.mp3","null","audio-keyboard-response","211","2.1.0","262684","F=YES, J=NO","80h2zf06kl","1","75","80","70","","","","","","","","","","","","","","","",""
"null","audio/holiday1.wav","null","audio-keyboard-response","212","2.1.0","263309","F=YES, J=NO","80h2zf06kl","1","75","80","70","","","","","","","","","","","","","","","",""
"945","
          <p id=""word"" style=""font-size: 40px;"">drivets</p>
          <p style=""font-size: 16px;"">F = YES &nbsp;&nbsp;&nbsp; J = NO</p>
        ","f","html-keyboard-response","213","2.1.0","264254","F=YES, J=NO","80h2zf06kl","1","75","80","70","","","","","","","","","drivets","holiday1","pseudoword","pseudoword","j","false","",""
"null","<p style=""font-size: 50px;"">+</p>","null","html-keyboard-response","214","2.1.0","264569","F=YES, J=NO","80h2zf06kl","1","75","80","70","","","","","","","","","","","","","","","",""
"null","audio/beep-329314.mp3","null","audio-keyboard-response","215","2.1.0","266119","F=YES, J=NO","80h2zf06kl","1","75","80","70","","","","","","","","","","","","","","","",""
"null","audio/prisoner.wav","null","audio-keyboard-response","216","2.1.0","266625","F=YES, J=NO","80h2zf06kl","1","75","80","70","","","","","","","","","","","","","","","",""
"605","
          <p id=""word"" style=""font-size: 40px;"">release</p>
          <p style=""font-size: 16px;"">F = YES &nbsp;&nbsp;&nbsp; J = NO</p>
        ","f","html-keyboard-response","217","2.1.0","267230","F=YES, J=NO","80h2zf06kl","1","75","80","70","","","","","","","","","release","prisoner","literal","experimental","f","true","",""
"null","<p style=""font-size: 50px;"">+</p>","null","html-keyboard-response","218","2.1.0","267546","F=YES, J=NO","80h2zf06kl","1","75","80","70","","","","","","","","","","","","","","","",""
"null","audio/beep-329314.mp3","null","audio-keyboard-response","219","2.1.0","269070","F=YES, J=NO","80h2zf06kl","1","75","80","70","","","","","","","","","","","","","","","",""
"null","audio/sugar1.wav","null","audio-keyboard-response","220","2.1.0","269546","F=YES, J=NO","80h2zf06kl","1","75","80","70","","","","","","","","","","","","","","","",""
"603","
          <p id=""word"" style=""font-size: 40px;"">glung</p>
          <p style=""font-size: 16px;"">F = YES &nbsp;&nbsp;&nbsp; J = NO</p>
        ","j","html-keyboard-response","221","2.1.0","270150","F=YES, J=NO","80h2zf06kl","1","75","80","70","","","","","","","","","glung","sugar1","pseudoword","pseudoword","j","true","",""
"null","<p style=""font-size: 50px;"">+</p>","null","html-keyboard-response","222","2.1.0","270453","F=YES, J=NO","80h2zf06kl","1","75","80","70","","","","","","","","","","","","","","","",""
"null","audio/beep-329314.mp3","null","audio-keyboard-response","223","2.1.0","271976","F=YES, J=NO","80h2zf06kl","1","75","80","70","","","","","","","","","","","","","","","",""
"null","audio/theory1.wav","null","audio-keyboard-response","224","2.1.0","272612","F=YES, J=NO","80h2zf06kl","1","75","80","70","","","","","","","","","","","","","","","",""
"638","
          <p id=""word"" style=""font-size: 40px;"">scolve</p>
          <p style=""font-size: 16px;"">F = YES &nbsp;&nbsp;&nbsp; J = NO</p>
        ","j","html-keyboard-response","225","2.1.0","273251","F=YES, J=NO","80h2zf06kl","1","75","80","70","","","","","","","","","scolve","theory1","pseudoword","pseudoword","j","true","",""
"null","<p style=""font-size: 50px;"">+</p>","null","html-keyboard-response","226","2.1.0","273552","F=YES, J=NO","80h2zf06kl","1","75","80","70","","","","","","","","","","","","","","","",""
"null","audio/beep-329314.mp3","null","audio-keyboard-response","227","2.1.0","275104","F=YES, J=NO","80h2zf06kl","1","75","80","70","","","","","","","","","","","","","","","",""
"null","audio/client1.wav","null","audio-keyboard-response","228","2.1.0","275780","F=YES, J=NO","80h2zf06kl","1","75","80","70","","","","","","","","","","","","","","","",""
"691","
          <p id=""word"" style=""font-size: 40px;"">droothe</p>
          <p style=""font-size: 16px;"">F = YES &nbsp;&nbsp;&nbsp; J = NO</p>
        ","j","html-keyboard-response","229","2.1.0","276471","F=YES, J=NO","80h2zf06kl","1","75","80","70","","","","","","","","","droothe","client1","pseudoword","pseudoword","j","true","",""
"1878","<p>Excellent! You have finished block 1 of 8.</p>
                     <p>Feel free to take a 30 second break.</p>
                     <p>Press any key when you're ready to continue.</p>"," ","html-keyboard-response","230","2.1.0","278350","F=YES, J=NO","80h2zf06kl","1","75","80","70","","","","","","","","","","","","","","","",""
"552","<p>Starting main block 2 of 8. Press any key to continue.</p>"," ","html-keyboard-response","231","2.1.0","278903","F=YES, J=NO","80h2zf06kl","1","75","80","70","","","","","","","","","","","","","","","",""
"null","<p style=""font-size: 50px;"">+</p>","null","html-keyboard-response","232","2.1.0","279213","F=YES, J=NO","80h2zf06kl","1","75","80","70","","","","","","","","","","","","","","","",""
"null","audio/beep-329314.mp3","null","audio-keyboard-response","233","2.1.0","280763","F=YES, J=NO","80h2zf06kl","1","75","80","70","","","","","","","","","","","","","","","",""
"null","audio/gold1.wav","null","audio-keyboard-response","234","2.1.0","281299","F=YES, J=NO","80h2zf06kl","1","75","80","70","","","","","","","","","","","","","","","",""
"523","
          <p id=""word"" style=""font-size: 40px;"">sell</p>
          <p style=""font-size: 16px;"">F = YES &nbsp;&nbsp;&nbsp; J = NO</p>
        ","f","html-keyboard-response","235","2.1.0","281824","F=YES, J=NO","80h2zf06kl","1","75","80","70","","","","","","","","","sell","gold1","literal","experimental","f","true","",""
"null","<p style=""font-size: 50px;"">+</p>","null","html-keyboard-response","236","2.1.0","282137","F=YES, J=NO","80h2zf06kl","1","75","80","70","","","","","","","","","","","","","","","",""
"null","audio/beep-329314.mp3","null","audio-keyboard-response","237","2.1.0","283661","F=YES, J=NO","80h2zf06kl","1","75","80","70","","","","","","","","","","","","","","","",""
"null","audio/size1.wav","null","audio-keyboard-response","238","2.1.0","284408","F=YES, J=NO","80h2zf06kl","1","75","80","70","","","","","","","","","","","","","","","",""
"509","
          <p id=""word"" style=""font-size: 40px;"">clear</p>
          <p style=""font-size: 16px;"">F = YES &nbsp;&nbsp;&nbsp; J = NO</p>
        ","f","html-keyboard-response","239","2.1.0","284917","F=YES, J=NO","80h2zf06kl","1","75","80","70","","","","","","","","","clear","size1","unrelated","experimental","f","true","",""
"null","<p style=""font-size: 50px;"">+</p>","null","html-keyboard-response","240","2.1.0","285225","F=YES, J=NO","80h2zf06kl","1","75","80","70","","","","","","","","","","","","","","","",""
"null","audio/beep-329314.mp3","null","audio-keyboard-response","241","2.1.0","286776","F=YES, J=NO","80h2zf06kl","1","75","80","70","","","","","","","","","","","","","","","",""
"null","audio/smirk1.wav","null","audio-keyboard-response","242","2.1.0","287491","F=YES, J=NO","80h2zf06kl","1","75","80","70","","","","","","","","","","","","","","","",""
"635","
          <p id=""word"" style=""font-size: 40px;"">wipe</p>
          <p style=""font-size: 16px;"">F = YES &nbsp;&nbsp;&nbsp; J = NO</p>
        ","f","html-keyboard-response","243","2.1.0","288127","F=YES, J=NO","80h2zf06kl","1","75","80","70","","","","","","","","","wipe","smirk1","metaphor","experimental","f","true","",""
"null","<p style=""font-size: 50px;"">+</p>","null","html-keyboard-response","244","2.1.0","288429","F=YES, J=NO","80h2zf06kl","1","75","80","70","","","","","","","","","","","","","","","",""
"null","audio/beep-329314.mp3","null","audio-keyboard-response","245","2.1.0","289978","F=YES, J=NO","80h2zf06kl","1","75","80","70","","","","","","","","","","","","","","","",""
"null","audio/mouth1.wav","null","audio-keyboard-response","246","2.1.0","290544","F=YES, J=NO","80h2zf06kl","1","75","80","70","","","","","","","","","","","","","","","",""
"659","
          <p id=""word"" style=""font-size: 40px;"">spolial</p>
          <p style=""font-size: 16px;"">F = YES &nbsp;&nbsp;&nbsp; J = NO</p>
        ","j","html-keyboard-response","247","2.1.0","291203","F=YES, J=NO","80h2zf06kl","1","75","80","70","","","","","","","","","spolial","mouth1","pseudoword","pseudoword","j","true","",""
"null","<p style=""font-size: 50px;"">+</p>","null","html-keyboard-response","248","2.1.0","291509","F=YES, J=NO","80h2zf06kl","1","75","80","70","","","","","","","","","","","","","","","",""
"null","audio/beep-329314.mp3","null","audio-keyboard-response","249","2.1.0","293045","F=YES, J=NO","80h2zf06kl","1","75","80","70","","","","","","","","","","","","","","","",""
"null","audio/pine.wav","null","audio-keyboard-response","250","2.1.0","293542","F=YES, J=NO","80h2zf06kl","1","75","80","70","","","","","","","","","","","","","","","",""
"658","
          <p id=""word"" style=""font-size: 40px;"">crebble</p>
          <p style=""font-size: 16px;"">F = YES &nbsp;&nbsp;&nbsp; J = NO</p>
        ","j","html-keyboard-response","251","2.1.0","294201","F=YES, J=NO","80h2zf06kl","1","75","80","70","","","","","","","","","crebble","pine","pseudoword","pseudoword","j","true","",""
"null","<p style=""font-size: 50px;"">+</p>","null","html-keyboard-response","252","2.1.0","294504","F=YES, J=NO","80h2zf06kl","1","75","80","70","","","","","","","","","","","","","","","",""
"null","audio/beep-329314.mp3","null","audio-keyboard-response","253","2.1.0","296028","F=YES, J=NO","80h2zf06kl","1","75","80","70","","","","","","","","","","","","","","","",""
"null","audio/age1.wav","null","audio-keyboard-response","254","2.1.0","296573","F=YES, J=NO","80h2zf06kl","1","75","80","70","","","","","","","","","","","","","","","",""
"643","
          <p id=""word"" style=""font-size: 40px;"">bake</p>
          <p style=""font-size: 16px;"">F = YES &nbsp;&nbsp;&nbsp; J = NO</p>
        ","f","html-keyboard-response","255","2.1.0","297217","F=YES, J=NO","80h2zf06kl","1","75","80","70","","","","","","","","","bake","age1","filler","filler","f","true","",""
"null","<p style=""font-size: 50px;"">+</p>","null","html-keyboard-response","256","2.1.0","297527","F=YES, J=NO","80h2zf06kl","1","75","80","70","","","","","","","","","","","","","","","",""
"null","audio/beep-329314.mp3","null","audio-keyboard-response","257","2.1.0","299051","F=YES, J=NO","80h2zf06kl","1","75","80","70","","","","","","","","","","","","","","","",""
"null","audio/brain.wav","null","audio-keyboard-response","258","2.1.0","299527","F=YES, J=NO","80h2zf06kl","1","75","80","70","","","","","","","","","","","","","","","",""
"451","
          <p id=""word"" style=""font-size: 40px;"">flood</p>
          <p style=""font-size: 16px;"">F = YES &nbsp;&nbsp;&nbsp; J = NO</p>
        ","f","html-keyboard-response","259","2.1.0","299978","F=YES, J=NO","80h2zf06kl","1","75","80","70","","","","","","","","","flood","brain","metaphor","experimental","f","true","",""
"null","<p style=""font-size: 50px;"">+</p>","null","html-keyboard-response","260","2.1.0","300284","F=YES, J=NO","80h2zf06kl","1","75","80","70","","","","","","","","","","","","","","","",""
"null","audio/beep-329314.mp3","null","audio-keyboard-response","261","2.1.0","301808","F=YES, J=NO","80h2zf06kl","1","75","80","70","","","","","","","","","","","","","","","",""
"null","audio/bottle.wav","null","audio-keyboard-response","262","2.1.0","302266","F=YES, J=NO","80h2zf06kl","1","75","80","70","","","","","","","","","","","","","","","",""
"525","
          <p id=""word"" style=""font-size: 40px;"">watch</p>
          <p style=""font-size: 16px;"">F = YES &nbsp;&nbsp;&nbsp; J = NO</p>
        ","f","html-keyboard-response","263","2.1.0","302792","F=YES, J=NO","80h2zf06kl","1","75","80","70","","","","","","","","","watch","bottle","filler","filler","f","true","",""
"null","<p style=""font-size: 50px;"">+</p>","null","html-keyboard-response","264","2.1.0","303105","F=YES, J=NO","80h2zf06kl","1","75","80","70","","","","","","","","","","","","","","","",""
"null","audio/beep-329314.mp3","null","audio-keyboard-response","265","2.1.0","304629","F=YES, J=NO","80h2zf06kl","1","75","80","70","","","","","","","","","","","","","","","",""
"null","audio/tomato.wav","null","audio-keyboard-response","266","2.1.0","305295","F=YES, J=NO","80h2zf06kl","1","75","80","70","","","","","","","","","","","","","","","",""
"572","
          <p id=""word"" style=""font-size: 40px;"">gladies</p>
          <p style=""font-size: 16px;"">F = YES &nbsp;&nbsp;&nbsp; J = NO</p>
        ","j","html-keyboard-response","267","2.1.0","305866","F=YES, J=NO","80h2zf06kl","1","75","80","70","","","","","","","","","gladies","tomato","pseudoword","pseudoword","j","true","",""
"null","<p style=""font-size: 50px;"">+</p>","null","html-keyboard-response","268","2.1.0","306175","F=YES, J=NO","80h2zf06kl","1","75","80","70","","","","","","","","","","","","","","","",""
"null","audio/beep-329314.mp3","null","audio-keyboard-response","269","2.1.0","307725","F=YES, J=NO","80h2zf06kl","1","75","80","70","","","","","","","","","","","","","","","",""
"null","audio/gift1.wav","null","audio-keyboard-response","270","2.1.0","308182","F=YES, J=NO","80h2zf06kl","1","75","80","70","","","","","","","","","","","","","","","",""
"592","
          <p id=""word"" style=""font-size: 40px;"">protsh</p>
          <p style=""font-size: 16px;"">F = YES &nbsp;&nbsp;&nbsp; J = NO</p>
        ","j","html-keyboard-response","271","2.1.0","308773","F=YES, J=NO","80h2zf06kl","1","75","80","70","","","","","","","","","protsh","gift1","pseudoword","pseudoword","j","true","",""
"null","<p style=""font-size: 50px;"">+</p>","null","html-keyboard-response","272","2.1.0","309080","F=YES, J=NO","80h2zf06kl","1","75","80","70","","","","","","","","","","","","","","","",""
"null","audio/beep-329314.mp3","null","audio-keyboard-response","273","2.1.0","310603","F=YES, J=NO","80h2zf06kl","1","75","80","70","","","","","","","","","","","","","","","",""
"null","audio/topic.wav","null","audio-keyboard-response","274","2.1.0","311179","F=YES, J=NO","80h2zf06kl","1","75","80","70","","","","","","","","","","","","","","","",""
"726","
          <p id=""word"" style=""font-size: 40px;"">infortuitist</p>
          <p style=""font-size: 16px;"">F = YES &nbsp;&nbsp;&nbsp; J = NO</p>
        ","j","html-keyboard-response","275","2.1.0","311906","F=YES, J=NO","80h2zf06kl","1","75","80","70","","","","","","","","","infortuitist","topic","pseudoword","pseudoword","j","true","",""
"null","<p style=""font-size: 50px;"">+</p>","null","html-keyboard-response","276","2.1.0","312220","F=YES, J=NO","80h2zf06kl","1","75","80","70","","","","","","","","","","","","","","","",""
"null","audio/beep-329314.mp3","null","audio-keyboard-response","277","2.1.0","313771","F=YES, J=NO","80h2zf06kl","1","75","80","70","","","","","","","","","","","","","","","",""
"null","audio/budget1.wav","null","audio-keyboard-response","278","2.1.0","314378","F=YES, J=NO","80h2zf06kl","1","75","80","70","","","","","","","","","","","","","","","",""
"874","
          <p id=""word"" style=""font-size: 40px;"">sulist</p>
          <p style=""font-size: 16px;"">F = YES &nbsp;&nbsp;&nbsp; J = NO</p>
        ","f","html-keyboard-response","279","2.1.0","315253","F=YES, J=NO","80h2zf06kl","1","75","80","70","","","","","","","","","sulist","budget1","pseudoword","pseudoword","j","false","",""
"null","<p style=""font-size: 50px;"">+</p>","null","html-keyboard-response","280","2.1.0","315566","F=YES, J=NO","80h2zf06kl","1","75","80","70","","","","","","","","","","","","","","","",""
"null","audio/beep-329314.mp3","null","audio-keyboard-response","281","2.1.0","317117","F=YES, J=NO","80h2zf06kl","1","75","80","70","","","","","","","","","","","","","","","",""
"null","audio/birth1.wav","null","audio-keyboard-response","282","2.1.0","317652","F=YES, J=NO","80h2zf06kl","1","75","80","70","","","","","","","","","","","","","","","",""
"520","
          <p id=""word"" style=""font-size: 40px;"">drop</p>
          <p style=""font-size: 16px;"">F = YES &nbsp;&nbsp;&nbsp; J = NO</p>
        ","f","html-keyboard-response","283","2.1.0","318173","F=YES, J=NO","80h2zf06kl","1","75","80","70","","","","","","","","","drop","birth1","unrelated","experimental","f","true","",""
"null","<p style=""font-size: 50px;"">+</p>","null","html-keyboard-response","284","2.1.0","318475","F=YES, J=NO","80h2zf06kl","1","75","80","70","","","","","","","","","","","","","","","",""
"null","audio/beep-329314.mp3","null","audio-keyboard-response","285","2.1.0","319998","F=YES, J=NO","80h2zf06kl","1","75","80","70","","","","","","","","","","","","","","","",""
"null","audio/uncle1.wav","null","audio-keyboard-response","286","2.1.0","320474","F=YES, J=NO","80h2zf06kl","1","75","80","70","","","","","","","","","","","","","","","",""
"485","
          <p id=""word"" style=""font-size: 40px;"">break</p>
          <p style=""font-size: 16px;"">F = YES &nbsp;&nbsp;&nbsp; J = NO</p>
        ","f","html-keyboard-response","287","2.1.0","320959","F=YES, J=NO","80h2zf06kl","1","75","80","70","","","","","","","","","break","uncle1","unrelated","experimental","f","true","",""
"null","<p style=""font-size: 50px;"">+</p>","null","html-keyboard-response","288","2.1.0","321274","F=YES, J=NO","80h2zf06kl","1","75","80","70","","","","","","","","","","","","","","","",""
"null","audio/beep-329314.mp3","null","audio-keyboard-response","289","2.1.0","322799","F=YES, J=NO","80h2zf06kl","1","75","80","70","","","","","","","","","","","","","","","",""
"null","audio/street.wav","null","audio-keyboard-response","290","2.1.0","323484","F=YES, J=NO","80h2zf06kl","1","75","80","70","","","","","","","","","","","","","","","",""
"489","
          <p id=""word"" style=""font-size: 40px;"">hold</p>
          <p style=""font-size: 16px;"">F = YES &nbsp;&nbsp;&nbsp; J = NO</p>
        ","f","html-keyboard-response","291","2.1.0","323972","F=YES, J=NO","80h2zf06kl","1","75","80","70","","","","","","","","","hold","street","unrelated","experimental","f","true","",""
"null","<p style=""font-size: 50px;"">+</p>","null","html-keyboard-response","292","2.1.0","324274","F=YES, J=NO","80h2zf06kl","1","75","80","70","","","","","","","","","","","","","","","",""
"null","audio/beep-329314.mp3","null","audio-keyboard-response","293","2.1.0","325798","F=YES, J=NO","80h2zf06kl","1","75","80","70","","","","","","","","","","","","","","","",""
"null","audio/trout1.wav","null","audio-keyboard-response","294","2.1.0","326384","F=YES, J=NO","80h2zf06kl","1","75","80","70","","","","","","","","","","","","","","","",""
"628","
          <p id=""word"" style=""font-size: 40px;"">spimt</p>
          <p style=""font-size: 16px;"">F = YES &nbsp;&nbsp;&nbsp; J = NO</p>
        ","j","html-keyboard-response","295","2.1.0","327014","F=YES, J=NO","80h2zf06kl","1","75","80","70","","","","","","","","","spimt","trout1","pseudoword","pseudoword","j","true","",""
"863","<p>Excellent! You have finished block 2 of 8.</p>
                     <p>Feel free to take a 30 second break.</p>
                     <p>Press any key when you're ready to continue.</p>"," ","html-keyboard-response","296","2.1.0","327877","F=YES, J=NO","80h2zf06kl","1","75","80","70","","","","","","","","","","","","","","","",""
"3421","<p>Starting main block 3 of 8. Press any key to continue.</p>"," ","html-keyboard-response","297","2.1.0","331299","F=YES, J=NO","80h2zf06kl","1","75","80","70","","","","","","","","","","","","","","","",""
"null","<p style=""font-size: 50px;"">+</p>","null","html-keyboard-response","298","2.1.0","331606","F=YES, J=NO","80h2zf06kl","1","75","80","70","","","","","","","","","","","","","","","",""
"null","audio/beep-329314.mp3","null","audio-keyboard-response","299","2.1.0","333158","F=YES, J=NO","80h2zf06kl","1","75","80","70","","","","","","","","","","","","","","","",""
"null","audio/test1.wav","null","audio-keyboard-response","300","2.1.0","333725","F=YES, J=NO","80h2zf06kl","1","75","80","70","","","","","","","","","","","","","","","",""
"555","
          <p id=""word"" style=""font-size: 40px;"">twopch</p>
          <p style=""font-size: 16px;"">F = YES &nbsp;&nbsp;&nbsp; J = NO</p>
        ","j","html-keyboard-response","301","2.1.0","334281","F=YES, J=NO","80h2zf06kl","1","75","80","70","","","","","","","","","twopch","test1","pseudoword","pseudoword","j","true","",""
"null","<p style=""font-size: 50px;"">+</p>","null","html-keyboard-response","302","2.1.0","334596","F=YES, J=NO","80h2zf06kl","1","75","80","70","","","","","","","","","","","","","","","",""
"null","audio/beep-329314.mp3","null","audio-keyboard-response","303","2.1.0","336120","F=YES, J=NO","80h2zf06kl","1","75","80","70","","","","","","","","","","","","","","","",""
"null","audio/voice.wav","null","audio-keyboard-response","304","2.1.0","336716","F=YES, J=NO","80h2zf06kl","1","75","80","70","","","","","","","","","","","","","","","",""
"733","
          <p id=""word"" style=""font-size: 40px;"">grintle</p>
          <p style=""font-size: 16px;"">F = YES &nbsp;&nbsp;&nbsp; J = NO</p>
        ","f","html-keyboard-response","305","2.1.0","337449","F=YES, J=NO","80h2zf06kl","1","75","80","70","","","","","","","","","grintle","voice","pseudoword","pseudoword","j","false","",""
"null","<p style=""font-size: 50px;"">+</p>","null","html-keyboard-response","306","2.1.0","337758","F=YES, J=NO","80h2zf06kl","1","75","80","70","","","","","","","","","","","","","","","",""
"null","audio/beep-329314.mp3","null","audio-keyboard-response","307","2.1.0","339308","F=YES, J=NO","80h2zf06kl","1","75","80","70","","","","","","","","","","","","","","","",""
"null","audio/battle1.wav","null","audio-keyboard-response","308","2.1.0","339765","F=YES, J=NO","80h2zf06kl","1","75","80","70","","","","","","","","","","","","","","","",""
"547","
          <p id=""word"" style=""font-size: 40px;"">fight</p>
          <p style=""font-size: 16px;"">F = YES &nbsp;&nbsp;&nbsp; J = NO</p>
        ","f","html-keyboard-response","309","2.1.0","340312","F=YES, J=NO","80h2zf06kl","1","75","80","70","","","","","","","","","fight","battle1","literal","experimental","f","true","",""
"null","<p style=""font-size: 50px;"">+</p>","null","html-keyboard-response","310","2.1.0","340621","F=YES, J=NO","80h2zf06kl","1","75","80","70","","","","","","","","","","","","","","","",""
"null","audio/beep-329314.mp3","null","audio-keyboard-response","311","2.1.0","342145","F=YES, J=NO","80h2zf06kl","1","75","80","70","","","","","","","","","","","","","","","",""
"null","audio/lion1.wav","null","audio-keyboard-response","312","2.1.0","342682","F=YES, J=NO","80h2zf06kl","1","75","80","70","","","","","","","","","","","","","","","",""
"510","
          <p id=""word"" style=""font-size: 40px;"">wrestle</p>
          <p style=""font-size: 16px;"">F = YES &nbsp;&nbsp;&nbsp; J = NO</p>
        ","f","html-keyboard-response","313","2.1.0","343192","F=YES, J=NO","80h2zf06kl","1","75","80","70","","","","","","","","","wrestle","lion1","literal","experimental","f","true","",""
"null","<p style=""font-size: 50px;"">+</p>","null","html-keyboard-response","314","2.1.0","343516","F=YES, J=NO","80h2zf06kl","1","75","80","70","","","","","","","","","","","","","","","",""
"null","audio/beep-329314.mp3","null","audio-keyboard-response","315","2.1.0","345041","F=YES, J=NO","80h2zf06kl","1","75","80","70","","","","","","","","","","","","","","","",""
"null","audio/essence1.wav","null","audio-keyboard-response","316","2.1.0","345731","F=YES, J=NO","80h2zf06kl","1","75","80","70","","","","","","","","","","","","","","","",""
"600","
          <p id=""word"" style=""font-size: 40px;"">grasp</p>
          <p style=""font-size: 16px;"">F = YES &nbsp;&nbsp;&nbsp; J = NO</p>
        ","f","html-keyboard-response","317","2.1.0","346331","F=YES, J=NO","80h2zf06kl","1","75","80","70","","","","","","","","","grasp","essence1","metaphor","experimental","f","true","",""
"null","<p style=""font-size: 50px;"">+</p>","null","html-keyboard-response","318","2.1.0","346640","F=YES, J=NO","80h2zf06kl","1","75","80","70","","","","","","","","","","","","","","","",""
"null","audio/beep-329314.mp3","null","audio-keyboard-response","319","2.1.0","348192","F=YES, J=NO","80h2zf06kl","1","75","80","70","","","","","","","","","","","","","","","",""
"null","audio/survey1.wav","null","audio-keyboard-response","320","2.1.0","348919","F=YES, J=NO","80h2zf06kl","1","75","80","70","","","","","","","","","","","","","","","",""
"634","
          <p id=""word"" style=""font-size: 40px;"">imploth</p>
          <p style=""font-size: 16px;"">F = YES &nbsp;&nbsp;&nbsp; J = NO</p>
        ","j","html-keyboard-response","321","2.1.0","349553","F=YES, J=NO","80h2zf06kl","1","75","80","70","","","","","","","","","imploth","survey1","pseudoword","pseudoword","j","true","",""
"null","<p style=""font-size: 50px;"">+</p>","null","html-keyboard-response","322","2.1.0","349864","F=YES, J=NO","80h2zf06kl","1","75","80","70","","","","","","","","","","","","","","","",""
"null","audio/beep-329314.mp3","null","audio-keyboard-response","323","2.1.0","351415","F=YES, J=NO","80h2zf06kl","1","75","80","70","","","","","","","","","","","","","","","",""
"null","audio/alarm1.wav","null","audio-keyboard-response","324","2.1.0","351990","F=YES, J=NO","80h2zf06kl","1","75","80","70","","","","","","","","","","","","","","","",""
"879","
          <p id=""word"" style=""font-size: 40px;"">swetp</p>
          <p style=""font-size: 16px;"">F = YES &nbsp;&nbsp;&nbsp; J = NO</p>
        ","f","html-keyboard-response","325","2.1.0","352870","F=YES, J=NO","80h2zf06kl","1","75","80","70","","","","","","","","","swetp","alarm1","pseudoword","pseudoword","j","false","",""
"null","<p style=""font-size: 50px;"">+</p>","null","html-keyboard-response","326","2.1.0","353178","F=YES, J=NO","80h2zf06kl","1","75","80","70","","","","","","","","","","","","","","","",""
"null","audio/beep-329314.mp3","null","audio-keyboard-response","327","2.1.0","354728","F=YES, J=NO","80h2zf06kl","1","75","80","70","","","","","","","","","","","","","","","",""
"null","audio/stain.wav","null","audio-keyboard-response","328","2.1.0","355376","F=YES, J=NO","80h2zf06kl","1","75","80","70","","","","","","","","","","","","","","","",""
"794","
          <p id=""word"" style=""font-size: 40px;"">rumpsied</p>
          <p style=""font-size: 16px;"">F = YES &nbsp;&nbsp;&nbsp; J = NO</p>
        ","f","html-keyboard-response","329","2.1.0","356170","F=YES, J=NO","80h2zf06kl","1","75","80","70","","","","","","","","","rumpsied","stain","pseudoword","pseudoword","j","false","",""
"null","<p style=""font-size: 50px;"">+</p>","null","html-keyboard-response","330","2.1.0","356480","F=YES, J=NO","80h2zf06kl","1","75","80","70","","","","","","","","","","","","","","","",""
"null","audio/beep-329314.mp3","null","audio-keyboard-response","331","2.1.0","358030","F=YES, J=NO","80h2zf06kl","1","75","80","70","","","","","","","","","","","","","","","",""
"null","audio/mind.wav","null","audio-keyboard-response","332","2.1.0","358596","F=YES, J=NO","80h2zf06kl","1","75","80","70","","","","","","","","","","","","","","","",""
"662","
          <p id=""word"" style=""font-size: 40px;"">crainate</p>
          <p style=""font-size: 16px;"">F = YES &nbsp;&nbsp;&nbsp; J = NO</p>
        ","j","html-keyboard-response","333","2.1.0","359258","F=YES, J=NO","80h2zf06kl","1","75","80","70","","","","","","","","","crainate","mind","pseudoword","pseudoword","j","true","",""
"null","<p style=""font-size: 50px;"">+</p>","null","html-keyboard-response","334","2.1.0","359560","F=YES, J=NO","80h2zf06kl","1","75","80","70","","","","","","","","","","","","","","","",""
"null","audio/beep-329314.mp3","null","audio-keyboard-response","335","2.1.0","361095","F=YES, J=NO","80h2zf06kl","1","75","80","70","","","","","","","","","","","","","","","",""
"null","audio/rank1.wav","null","audio-keyboard-response","336","2.1.0","361662","F=YES, J=NO","80h2zf06kl","1","75","80","70","","","","","","","","","","","","","","","",""
"516","
          <p id=""word"" style=""font-size: 40px;"">climb</p>
          <p style=""font-size: 16px;"">F = YES &nbsp;&nbsp;&nbsp; J = NO</p>
        ","f","html-keyboard-response","337","2.1.0","362177","F=YES, J=NO","80h2zf06kl","1","75","80","70","","","","","","","","","climb","rank1","metaphor","experimental","f","true","",""
"null","<p style=""font-size: 50px;"">+</p>","null","html-keyboard-response","338","2.1.0","362484","F=YES, J=NO","80h2zf06kl","1","75","80","70","","","","","","","","","","","","","","","",""
"null","audio/beep-329314.mp3","null","audio-keyboard-response","339","2.1.0","364007","F=YES, J=NO","80h2zf06kl","1","75","80","70","","","","","","","","","","","","","","","",""
"null","audio/rain.wav","null","audio-keyboard-response","340","2.1.0","364453","F=YES, J=NO","80h2zf06kl","1","75","80","70","","","","","","","","","","","","","","","",""
"463","
          <p id=""word"" style=""font-size: 40px;"">lose</p>
          <p style=""font-size: 16px;"">F = YES &nbsp;&nbsp;&nbsp; J = NO</p>
        ","f","html-keyboard-response","341","2.1.0","364917","F=YES, J=NO","80h2zf06kl","1","75","80","70","","","","","","","","","lose","rain","unrelated","experimental","f","true","",""
"null","<p style=""font-size: 50px;"">+</p>","null","html-keyboard-response","342","2.1.0","365228","F=YES, J=NO","80h2zf06kl","1","75","80","70","","","","","","","","","","","","","","","",""
"null","audio/beep-329314.mp3","null","audio-keyboard-response","343","2.1.0","366751","F=YES, J=NO","80h2zf06kl","1","75","80","70","","","","","","","","","","","","","","","",""
"null","audio/radio1.wav","null","audio-keyboard-response","344","2.1.0","367347","F=YES, J=NO","80h2zf06kl","1","75","80","70","","","","","","","","","","","","","","","",""
"483","
          <p id=""word"" style=""font-size: 40px;"">spend</p>
          <p style=""font-size: 16px;"">F = YES &nbsp;&nbsp;&nbsp; J = NO</p>
        ","f","html-keyboard-response","345","2.1.0","367831","F=YES, J=NO","80h2zf06kl","1","75","80","70","","","","","","","","","spend","radio1","unrelated","experimental","f","true","",""
"null","<p style=""font-size: 50px;"">+</p>","null","html-keyboard-response","346","2.1.0","368142","F=YES, J=NO","80h2zf06kl","1","75","80","70","","","","","","","","","","","","","","","",""
"null","audio/beep-329314.mp3","null","audio-keyboard-response","347","2.1.0","369666","F=YES, J=NO","80h2zf06kl","1","75","80","70","","","","","","","","","","","","","","","",""
"null","audio/corpse1.wav","null","audio-keyboard-response","348","2.1.0","370303","F=YES, J=NO","80h2zf06kl","1","75","80","70","","","","","","","","","","","","","","","",""
"658","
          <p id=""word"" style=""font-size: 40px;"">glonet</p>
          <p style=""font-size: 16px;"">F = YES &nbsp;&nbsp;&nbsp; J = NO</p>
        ","j","html-keyboard-response","349","2.1.0","370963","F=YES, J=NO","80h2zf06kl","1","75","80","70","","","","","","","","","glonet","corpse1","pseudoword","pseudoword","j","true","",""
"null","<p style=""font-size: 50px;"">+</p>","null","html-keyboard-response","350","2.1.0","371268","F=YES, J=NO","80h2zf06kl","1","75","80","70","","","","","","","","","","","","","","","",""
"null","audio/beep-329314.mp3","null","audio-keyboard-response","351","2.1.0","372820","F=YES, J=NO","80h2zf06kl","1","75","80","70","","","","","","","","","","","","","","","",""
"null","audio/mile1.wav","null","audio-keyboard-response","352","2.1.0","373296","F=YES, J=NO","80h2zf06kl","1","75","80","70","","","","","","","","","","","","","","","",""
"516","
          <p id=""word"" style=""font-size: 40px;"">run</p>
          <p style=""font-size: 16px;"">F = YES &nbsp;&nbsp;&nbsp; J = NO</p>
        ","f","html-keyboard-response","353","2.1.0","373812","F=YES, J=NO","80h2zf06kl","1","75","80","70","","","","","","","","","run","mile1","literal","experimental","f","true","",""
"null","<p style=""font-size: 50px;"">+</p>","null","html-keyboard-response","354","2.1.0","374118","F=YES, J=NO","80h2zf06kl","1","75","80","70","","","","","","","","","","","","","","","",""
"null","audio/beep-329314.mp3","null","audio-keyboard-response","355","2.1.0","375641","F=YES, J=NO","80h2zf06kl","1","75","80","70","","","","","","","","","","","","","","","",""
"null","audio/belief.wav","null","audio-keyboard-response","356","2.1.0","376267","F=YES, J=NO","80h2zf06kl","1","75","80","70","","","","","","","","","","","","","","","",""
"491","
          <p id=""word"" style=""font-size: 40px;"">share</p>
          <p style=""font-size: 16px;"">F = YES &nbsp;&nbsp;&nbsp; J = NO</p>
        ","f","html-keyboard-response","357","2.1.0","376759","F=YES, J=NO","80h2zf06kl","1","75","80","70","","","","","","","","","share","belief","metaphor","experimental","f","true","",""
"null","<p style=""font-size: 50px;"">+</p>","null","html-keyboard-response","358","2.1.0","377073","F=YES, J=NO","80h2zf06kl","1","75","80","70","","","","","","","","","","","","","","","",""
"null","audio/beep-329314.mp3","null","audio-keyboard-response","359","2.1.0","378596","F=YES, J=NO","80h2zf06kl","1","75","80","70","","","","","","","","","","","","","","","",""
"null","audio/beach1.wav","null","audio-keyboard-response","360","2.1.0","379193","F=YES, J=NO","80h2zf06kl","1","75","80","70","","","","","","","","","","","","","","","",""
"541","
          <p id=""word"" style=""font-size: 40px;"">drive</p>
          <p style=""font-size: 16px;"">F = YES &nbsp;&nbsp;&nbsp; J = NO</p>
        ","f","html-keyboard-response","361","2.1.0","379733","F=YES, J=NO","80h2zf06kl","1","75","80","70","","","","","","","","","drive","beach1","filler","filler","f","true","",""
"825","<p>Excellent! You have finished block 3 of 8.</p>
                     <p>Feel free to take a 30 second break.</p>
                     <p>Press any key when you're ready to continue.</p>"," ","html-keyboard-response","362","2.1.0","380559","F=YES, J=NO","80h2zf06kl","1","75","80","70","","","","","","","","","","","","","","","",""
"842","<p>Starting main block 4 of 8. Press any key to continue.</p>"," ","html-keyboard-response","363","2.1.0","381401","F=YES, J=NO","80h2zf06kl","1","75","80","70","","","","","","","","","","","","","","","",""
"null","<p style=""font-size: 50px;"">+</p>","null","html-keyboard-response","364","2.1.0","381724","F=YES, J=NO","80h2zf06kl","1","75","80","70","","","","","","","","","","","","","","","",""
"null","audio/beep-329314.mp3","null","audio-keyboard-response","365","2.1.0","383275","F=YES, J=NO","80h2zf06kl","1","75","80","70","","","","","","","","","","","","","","","",""
"null","audio/haste1.wav","null","audio-keyboard-response","366","2.1.0","383832","F=YES, J=NO","80h2zf06kl","1","75","80","70","","","","","","","","","","","","","","","",""
"509","
          <p id=""word"" style=""font-size: 40px;"">coraconate</p>
          <p style=""font-size: 16px;"">F = YES &nbsp;&nbsp;&nbsp; J = NO</p>
        ","f","html-keyboard-response","367","2.1.0","384340","F=YES, J=NO","80h2zf06kl","1","75","80","70","","","","","","","","","coraconate","haste1","pseudoword","pseudoword","j","false","",""
"null","<p style=""font-size: 50px;"">+</p>","null","html-keyboard-response","368","2.1.0","384649","F=YES, J=NO","80h2zf06kl","1","75","80","70","","","","","","","","","","","","","","","",""
"null","audio/beep-329314.mp3","null","audio-keyboard-response","369","2.1.0","386173","F=YES, J=NO","80h2zf06kl","1","75","80","70","","","","","","","","","","","","","","","",""
"null","audio/foot1.wav","null","audio-keyboard-response","370","2.1.0","386730","F=YES, J=NO","80h2zf06kl","1","75","80","70","","","","","","","","","","","","","","","",""
"729","
          <p id=""word"" style=""font-size: 40px;"">thrutt</p>
          <p style=""font-size: 16px;"">F = YES &nbsp;&nbsp;&nbsp; J = NO</p>
        ","j","html-keyboard-response","371","2.1.0","387460","F=YES, J=NO","80h2zf06kl","1","75","80","70","","","","","","","","","thrutt","foot1","pseudoword","pseudoword","j","true","",""
"null","<p style=""font-size: 50px;"">+</p>","null","html-keyboard-response","372","2.1.0","387769","F=YES, J=NO","80h2zf06kl","1","75","80","70","","","","","","","","","","","","","","","",""
"null","audio/beep-329314.mp3","null","audio-keyboard-response","373","2.1.0","389321","F=YES, J=NO","80h2zf06kl","1","75","80","70","","","","","","","","","","","","","","","",""
"null","audio/scar.wav","null","audio-keyboard-response","374","2.1.0","389917","F=YES, J=NO","80h2zf06kl","1","75","80","70","","","","","","","","","","","","","","","",""
"731","
          <p id=""word"" style=""font-size: 40px;"">adelineate</p>
          <p style=""font-size: 16px;"">F = YES &nbsp;&nbsp;&nbsp; J = NO</p>
        ","f","html-keyboard-response","375","2.1.0","390648","F=YES, J=NO","80h2zf06kl","1","75","80","70","","","","","","","","","adelineate","scar","pseudoword","pseudoword","j","false","",""
"null","<p style=""font-size: 50px;"">+</p>","null","html-keyboard-response","376","2.1.0","390959","F=YES, J=NO","80h2zf06kl","1","75","80","70","","","","","","","","","","","","","","","",""
"null","audio/beep-329314.mp3","null","audio-keyboard-response","377","2.1.0","392510","F=YES, J=NO","80h2zf06kl","1","75","80","70","","","","","","","","","","","","","","","",""
"null","audio/weight1.wav","null","audio-keyboard-response","378","2.1.0","393036","F=YES, J=NO","80h2zf06kl","1","75","80","70","","","","","","","","","","","","","","","",""
"676","
          <p id=""word"" style=""font-size: 40px;"">crimsh</p>
          <p style=""font-size: 16px;"">F = YES &nbsp;&nbsp;&nbsp; J = NO</p>
        ","j","html-keyboard-response","379","2.1.0","393713","F=YES, J=NO","80h2zf06kl","1","75","80","70","","","","","","","","","crimsh","weight1","pseudoword","pseudoword","j","true","",""
"null","<p style=""font-size: 50px;"">+</p>","null","html-keyboard-response","380","2.1.0","394023","F=YES, J=NO","80h2zf06kl","1","75","80","70","","","","","","","","","","","","","","","",""
"null","audio/beep-329314.mp3","null","audio-keyboard-response","381","2.1.0","395545","F=YES, J=NO","80h2zf06kl","1","75","80","70","","","","","","","","","","","","","","","",""
"null","audio/chance.wav","null","audio-keyboard-response","382","2.1.0","396183","F=YES, J=NO","80h2zf06kl","1","75","80","70","","","","","","","","","","","","","","","",""
"527","
          <p id=""word"" style=""font-size: 40px;"">seize</p>
          <p style=""font-size: 16px;"">F = YES &nbsp;&nbsp;&nbsp; J = NO</p>
        ","f","html-keyboard-response","383","2.1.0","396709","F=YES, J=NO","80h2zf06kl","1","75","80","70","","","","","","","","","seize","chance","metaphor","experimental","f","true","",""
"null","<p style=""font-size: 50px;"">+</p>","null","html-keyboard-response","384","2.1.0","397011","F=YES, J=NO","80h2zf06kl","1","75","80","70","","","","","","","","","","","","","","","",""
"null","audio/beep-329314.mp3","null","audio-keyboard-response","385","2.1.0","398534","F=YES, J=NO","80h2zf06kl","1","75","80","70","","","","","","","","","","","","","","","",""
"null","audio/breath.wav","null","audio-keyboard-response","386","2.1.0","399091","F=YES, J=NO","80h2zf06kl","1","75","80","70","","","","","","","","","","","","","","","",""
"497","
          <p id=""word"" style=""font-size: 40px;"">construct</p>
          <p style=""font-size: 16px;"">F = YES &nbsp;&nbsp;&nbsp; J = NO</p>
        ","f","html-keyboard-response","387","2.1.0","399588","F=YES, J=NO","80h2zf06kl","1","75","80","70","","","","","","","","","construct","breath","unrelated","experimental","f","true","",""
"null","<p style=""font-size: 50px;"">+</p>","null","html-keyboard-response","388","2.1.0","399924","F=YES, J=NO","80h2zf06kl","1","75","80","70","","","","","","","","","","","","","","","",""
"null","audio/beep-329314.mp3","null","audio-keyboard-response","389","2.1.0","401448","F=YES, J=NO","80h2zf06kl","1","75","80","70","","","","","","","","","","","","","","","",""
"null","audio/goal.wav","null","audio-keyboard-response","390","2.1.0","401855","F=YES, J=NO","80h2zf06kl","1","75","80","70","","","","","","","","","","","","","","","",""
"468","
          <p id=""word"" style=""font-size: 40px;"">support</p>
          <p style=""font-size: 16px;"">F = YES &nbsp;&nbsp;&nbsp; J = NO</p>
