"rt","stimulus","response","trial_type","trial_index","plugin_version","time_elapsed","response_mapping","subject_id","list_index","lextale_score","lextale_word_score","lextale_nonword_score","success","timeout","failed_images","failed_audio","failed_video","task","isWord","isDummy","target","prime","prime_type","stimulus_type","correct_response","correct","section","question_order"
"4001","
    <div style=""max-width: 800px; margin: auto; text-align: left;"">
      <h2>STANFORD UNIVERSITY</h2>
      <h3>Research Information Sheet</h3>
      <p><strong>Protocol Director:</strong> Robert Hawkins<br>
      <strong>Protocol Title:</strong> Communication and social cognition in natural audiovisual contexts<br>
      <strong>IRB#:</strong> 77226</p>

      <p><strong>DESCRIPTION:</strong> You are invited to participate in a research study about language and communication. The purpose of the research is to understand how you interact and communicate with other people in naturalistic settings as a fluent English speaker. This research will be conducted through the Prolific platform, including participants from the US, UK, and Canada. If you decide to participate in this research, you will play a communication game in a group with one or more partners.</p>

      <p><strong>TIME INVOLVEMENT:</strong> The task will last the amount of time advertised on Prolific. You are free to withdraw from the study at any time.</p>

      <p><strong>RISKS AND BENEFITS:</strong> You may become frustrated if your partner gets distracted, or experience discomfort if other participants in your group send text that is inappropriate for the task. We ask you to please be respectful of other participants you might be interacting with to mitigate these risks. You may also experience discomfort when being asked to discuss or challenge emotionally salient political beliefs. Study data will be stored securely, in compliance with Stanford University standards, minimizing the risk of confidentiality breach. This study advances our scientific understanding of how people communicate and collaborate in naturalistic settings. This study may lead to further insights about what can go wrong in teamwork, suggest potential interventions to overcome these barriers, and help to develop assistive technologies that collaborate with human partners. We cannot and do not guarantee or promise that you will receive any benefits from this study.</p>

      <p><strong>PAYMENTS:</strong> You will receive payment in the amount advertised on Prolific. If you do not complete this study, you will receive prorated payment based on the time that you have spent. Additionally, you may be eligible for bonus payments as described in the instructions.</p>

      <p><strong>PARTICIPANT’S RIGHTS:</strong> If you have read this form and have decided to participate in this project, please understand your participation is voluntary and you have the right to withdraw your consent or discontinue participation at any time without penalty or loss of benefits to which you are otherwise entitled. The alternative is not to participate. You have the right to refuse to answer particular questions. The results of this research study may be presented at scientific or professional meetings or published in scientific journals. Your individual privacy will be maintained in all published and written data resulting from the study. In accordance with scientific norms, the data from this study may be used or shared with other researchers for future research (after removing personally identifying information) without additional consent from you.</p>

      <p><strong>CONTACT INFORMATION:</strong><br>
      Questions: If you have any questions, concerns or complaints about this research, its procedures, risks and benefits, contact the Protocol Director, Robert Hawkins (<a href=""mailto:rdhawkins@stanford.edu"">rdhawkins@stanford.edu</a>, 217-549-6923).<br>
      Independent Contact: If you are not satisfied with how this study is being conducted, or if you have any concerns, complaints, or general questions about the research or your rights as a participant, please contact the Stanford Institutional Review Board (IRB) to speak to someone independent of the research team at 650-723-2480 or toll free at 1-866-680-2906, or email at <a href=""mailto:irbnon-med@stanford.edu"">irbnon-med@stanford.edu</a>. You can also write to the Stanford IRB, Stanford University, 1705 El Camino Real, Palo Alto, CA 94306.</p>

      <p><strong>Please save or print a copy of this page for your records.</strong></p>
      <p>If you agree to participate in this research, click ""Continue"" below.</p>
    </div>
  ","0","html-button-response","0","2.1.0","4029","F=YES, J=NO","878a0hebmn","0","83","75","90","","","","","","","","","","","","","","","",""
"5603","
    <div style=""max-width: 800px; margin: auto; text-align: left;"">
      <h2>Welcome!</h2>
      <p>Thank you for participating in this study. The experiment consists of three parts:</p>
      <ol>
        <li>An English vocabulary test</li>
        <li>A main task in which you will hear and see words, and decide whether the written word is a real English word</li>
        <li>A brief survey about your background</li>
      </ol>
      <p>Each part will be introduced before it begins.</p>
      <p>Please make sure you are in a quiet environment and can hear audio clearly for the final task.</p>
      <p style=""margin-top: 2em;"">Press any key to begin.</p>
    </div>
  ","d","html-keyboard-response","1","2.1.0","9636","F=YES, J=NO","878a0hebmn","0","83","75","90","","","","","","","","","","","","","","","",""
"","","","preload","2","2.1.0","11976","F=YES, J=NO","878a0hebmn","0","83","75","90","true","false","[]","[]","[]","","","","","","","","","","",""
"78823","
    <div style=""max-width: 800px; margin: auto; text-align: left;"">
      <h2>Part 1: Vocabulary Test</h2>
      <p>You will now complete the first part of the study: a short English vocabulary test.</p>
      <p>This test is called <strong>LexTALE</strong> and helps us get a general sense of your English proficiency.</p>
      <p style=""margin-top: 2em;"">Press any key to continue.</p>
    </div>
  ","d","html-keyboard-response","3","2.1.0","90800","F=YES, J=NO","878a0hebmn","0","83","75","90","","","","","","","","","","","","","","","",""
"7945","
    <div style=""max-width: 800px; margin: auto; text-align: left;"">
      <h2>LexTALE Vocabulary Test</h2>
      <p>In this test, you will see a series of letter strings—one at a time.</p>
      <p>Your task is to decide whether each string is a real English word.</p>
      <p><strong>Key responses:</strong></p>
      <ul>
        <li><strong>F</strong> = YES (real English word)</li>
        <li><strong>J</strong> = NO (not a real English word)</li>
      </ul>
      <p>There is no time limit, but please try to be accurate.</p>
      <p style=""margin-top: 2em;"">Press any key to begin.</p>
    </div>
  ","f","html-keyboard-response","4","2.1.0","98746","F=YES, J=NO","878a0hebmn","0","83","75","90","","","","","","","","","","","","","","","",""
"1214","
  <p style=""font-size: 40px;"">platery</p>
  <p style=""font-size: 16px;"">F = YES &nbsp;&nbsp;&nbsp; J = NO</p>
","f","html-keyboard-response","5","2.1.0","99962","F=YES, J=NO","878a0hebmn","0","83","75","90","","","","","","lextale","false","true","","","","","","","",""
"682","
  <p style=""font-size: 40px;"">denial</p>
  <p style=""font-size: 16px;"">F = YES &nbsp;&nbsp;&nbsp; J = NO</p>
","f","html-keyboard-response","6","2.1.0","100645","F=YES, J=NO","878a0hebmn","0","83","75","90","","","","","","lextale","true","true","","","","","","","",""
"943","
  <p style=""font-size: 40px;"">marrit</p>
  <p style=""font-size: 16px;"">F = YES &nbsp;&nbsp;&nbsp; J = NO</p>
","j","html-keyboard-response","7","2.1.0","101590","F=YES, J=NO","878a0hebmn","0","83","75","90","","","","","","lextale","false","true","","","","","","","",""
"2357","
  <p style=""font-size: 40px;"">bottle</p>
  <p style=""font-size: 16px;"">F = YES &nbsp;&nbsp;&nbsp; J = NO</p>
","f","html-keyboard-response","8","2.1.0","103949","F=YES, J=NO","878a0hebmn","0","83","75","90","","","","","","lextale","true","false","","","","","","","",""
"935","
  <p style=""font-size: 40px;"">birst</p>
  <p style=""font-size: 16px;"">F = YES &nbsp;&nbsp;&nbsp; J = NO</p>
","j","html-keyboard-response","9","2.1.0","104886","F=YES, J=NO","878a0hebmn","0","83","75","90","","","","","","lextale","false","false","","","","","","","",""
"670","
  <p style=""font-size: 40px;"">envy</p>
  <p style=""font-size: 16px;"">F = YES &nbsp;&nbsp;&nbsp; J = NO</p>
","f","html-keyboard-response","10","2.1.0","105558","F=YES, J=NO","878a0hebmn","0","83","75","90","","","","","","lextale","true","false","","","","","","","",""
"753","
  <p style=""font-size: 40px;"">brang</p>
  <p style=""font-size: 16px;"">F = YES &nbsp;&nbsp;&nbsp; J = NO</p>
","j","html-keyboard-response","11","2.1.0","106313","F=YES, J=NO","878a0hebmn","0","83","75","90","","","","","","lextale","false","false","","","","","","","",""
"604","
  <p style=""font-size: 40px;"">huge</p>
  <p style=""font-size: 16px;"">F = YES &nbsp;&nbsp;&nbsp; J = NO</p>
","f","html-keyboard-response","12","2.1.0","106918","F=YES, J=NO","878a0hebmn","0","83","75","90","","","","","","lextale","true","false","","","","","","","",""
"803","
  <p style=""font-size: 40px;"">plove</p>
  <p style=""font-size: 16px;"">F = YES &nbsp;&nbsp;&nbsp; J = NO</p>
","j","html-keyboard-response","13","2.1.0","107723","F=YES, J=NO","878a0hebmn","0","83","75","90","","","","","","lextale","false","false","","","","","","","",""
"644","
  <p style=""font-size: 40px;"">border</p>
  <p style=""font-size: 16px;"">F = YES &nbsp;&nbsp;&nbsp; J = NO</p>
","f","html-keyboard-response","14","2.1.0","108368","F=YES, J=NO","878a0hebmn","0","83","75","90","","","","","","lextale","true","false","","","","","","","",""
"896","
  <p style=""font-size: 40px;"">flimsy</p>
  <p style=""font-size: 16px;"">F = YES &nbsp;&nbsp;&nbsp; J = NO</p>
","j","html-keyboard-response","15","2.1.0","109266","F=YES, J=NO","878a0hebmn","0","83","75","90","","","","","","lextale","true","false","","","","","","","",""
"615","
  <p style=""font-size: 40px;"">drain</p>
  <p style=""font-size: 16px;"">F = YES &nbsp;&nbsp;&nbsp; J = NO</p>
","f","html-keyboard-response","16","2.1.0","109882","F=YES, J=NO","878a0hebmn","0","83","75","90","","","","","","lextale","true","false","","","","","","","",""
"895","
  <p style=""font-size: 40px;"">twindle</p>
  <p style=""font-size: 16px;"">F = YES &nbsp;&nbsp;&nbsp; J = NO</p>
","j","html-keyboard-response","17","2.1.0","110779","F=YES, J=NO","878a0hebmn","0","83","75","90","","","","","","lextale","false","false","","","","","","","",""
"593","
  <p style=""font-size: 40px;"">propose</p>
  <p style=""font-size: 16px;"">F = YES &nbsp;&nbsp;&nbsp; J = NO</p>
","f","html-keyboard-response","18","2.1.0","111373","F=YES, J=NO","878a0hebmn","0","83","75","90","","","","","","lextale","true","false","","","","","","","",""
"955","
  <p style=""font-size: 40px;"">forlay</p>
  <p style=""font-size: 16px;"">F = YES &nbsp;&nbsp;&nbsp; J = NO</p>
","j","html-keyboard-response","19","2.1.0","112330","F=YES, J=NO","878a0hebmn","0","83","75","90","","","","","","lextale","false","false","","","","","","","",""
"1619","
  <p style=""font-size: 40px;"">tenant</p>
  <p style=""font-size: 16px;"">F = YES &nbsp;&nbsp;&nbsp; J = NO</p>
","f","html-keyboard-response","20","2.1.0","113950","F=YES, J=NO","878a0hebmn","0","83","75","90","","","","","","lextale","true","false","","","","","","","",""
"719","
  <p style=""font-size: 40px;"">strain</p>
  <p style=""font-size: 16px;"">F = YES &nbsp;&nbsp;&nbsp; J = NO</p>
","f","html-keyboard-response","21","2.1.0","114670","F=YES, J=NO","878a0hebmn","0","83","75","90","","","","","","lextale","true","false","","","","","","","",""
"3902","
  <p style=""font-size: 40px;"">holster</p>
  <p style=""font-size: 16px;"">F = YES &nbsp;&nbsp;&nbsp; J = NO</p>
","f","html-keyboard-response","22","2.1.0","118573","F=YES, J=NO","878a0hebmn","0","83","75","90","","","","","","lextale","true","false","","","","","","","",""
"1008","
  <p style=""font-size: 40px;"">hinder</p>
  <p style=""font-size: 16px;"">F = YES &nbsp;&nbsp;&nbsp; J = NO</p>
","f","html-keyboard-response","23","2.1.0","119583","F=YES, J=NO","878a0hebmn","0","83","75","90","","","","","","lextale","true","false","","","","","","","",""
"731","
  <p style=""font-size: 40px;"">swindle</p>
  <p style=""font-size: 16px;"">F = YES &nbsp;&nbsp;&nbsp; J = NO</p>
","f","html-keyboard-response","24","2.1.0","120315","F=YES, J=NO","878a0hebmn","0","83","75","90","","","","","","lextale","true","false","","","","","","","",""
"754","
  <p style=""font-size: 40px;"">nuder</p>
  <p style=""font-size: 16px;"">F = YES &nbsp;&nbsp;&nbsp; J = NO</p>
","j","html-keyboard-response","25","2.1.0","121070","F=YES, J=NO","878a0hebmn","0","83","75","90","","","","","","lextale","false","false","","","","","","","",""
"595","
  <p style=""font-size: 40px;"">pillow</p>
  <p style=""font-size: 16px;"">F = YES &nbsp;&nbsp;&nbsp; J = NO</p>
","f","html-keyboard-response","26","2.1.0","121666","F=YES, J=NO","878a0hebmn","0","83","75","90","","","","","","lextale","true","false","","","","","","","",""
"1083","
  <p style=""font-size: 40px;"">shumble</p>
  <p style=""font-size: 16px;"">F = YES &nbsp;&nbsp;&nbsp; J = NO</p>
","j","html-keyboard-response","27","2.1.0","122751","F=YES, J=NO","878a0hebmn","0","83","75","90","","","","","","lextale","false","false","","","","","","","",""
"692","
  <p style=""font-size: 40px;"">thirst</p>
  <p style=""font-size: 16px;"">F = YES &nbsp;&nbsp;&nbsp; J = NO</p>
","f","html-keyboard-response","28","2.1.0","123444","F=YES, J=NO","878a0hebmn","0","83","75","90","","","","","","lextale","true","false","","","","","","","",""
"763","
  <p style=""font-size: 40px;"">unsail</p>
  <p style=""font-size: 16px;"">F = YES &nbsp;&nbsp;&nbsp; J = NO</p>
","j","html-keyboard-response","29","2.1.0","124210","F=YES, J=NO","878a0hebmn","0","83","75","90","","","","","","lextale","false","false","","","","","","","",""
"1180","
  <p style=""font-size: 40px;"">rifle</p>
  <p style=""font-size: 16px;"">F = YES &nbsp;&nbsp;&nbsp; J = NO</p>
","j","html-keyboard-response","30","2.1.0","125391","F=YES, J=NO","878a0hebmn","0","83","75","90","","","","","","lextale","true","false","","","","","","","",""
"790","
  <p style=""font-size: 40px;"">mush</p>
  <p style=""font-size: 16px;"">F = YES &nbsp;&nbsp;&nbsp; J = NO</p>
","j","html-keyboard-response","31","2.1.0","126183","F=YES, J=NO","878a0hebmn","0","83","75","90","","","","","","lextale","false","false","","","","","","","",""
"789","
  <p style=""font-size: 40px;"">drench</p>
  <p style=""font-size: 16px;"">F = YES &nbsp;&nbsp;&nbsp; J = NO</p>
","j","html-keyboard-response","32","2.1.0","126973","F=YES, J=NO","878a0hebmn","0","83","75","90","","","","","","lextale","true","false","","","","","","","",""
"667","
  <p style=""font-size: 40px;"">snirt</p>
  <p style=""font-size: 16px;"">F = YES &nbsp;&nbsp;&nbsp; J = NO</p>
","j","html-keyboard-response","33","2.1.0","127642","F=YES, J=NO","878a0hebmn","0","83","75","90","","","","","","lextale","false","false","","","","","","","",""
"842","
  <p style=""font-size: 40px;"">bitter</p>
  <p style=""font-size: 16px;"">F = YES &nbsp;&nbsp;&nbsp; J = NO</p>
","f","html-keyboard-response","34","2.1.0","128484","F=YES, J=NO","878a0hebmn","0","83","75","90","","","","","","lextale","true","false","","","","","","","",""
"814","
  <p style=""font-size: 40px;"">pliff</p>
  <p style=""font-size: 16px;"">F = YES &nbsp;&nbsp;&nbsp; J = NO</p>
","j","html-keyboard-response","35","2.1.0","129299","F=YES, J=NO","878a0hebmn","0","83","75","90","","","","","","lextale","false","false","","","","","","","",""
"783","
  <p style=""font-size: 40px;"">tablet</p>
  <p style=""font-size: 16px;"">F = YES &nbsp;&nbsp;&nbsp; J = NO</p>
","f","html-keyboard-response","36","2.1.0","130082","F=YES, J=NO","878a0hebmn","0","83","75","90","","","","","","lextale","true","false","","","","","","","",""
"1393","
  <p style=""font-size: 40px;"">glimmer</p>
  <p style=""font-size: 16px;"">F = YES &nbsp;&nbsp;&nbsp; J = NO</p>
","j","html-keyboard-response","37","2.1.0","131477","F=YES, J=NO","878a0hebmn","0","83","75","90","","","","","","lextale","true","false","","","","","","","",""
"603","
  <p style=""font-size: 40px;"">slink</p>
  <p style=""font-size: 16px;"">F = YES &nbsp;&nbsp;&nbsp; J = NO</p>
","f","html-keyboard-response","38","2.1.0","132081","F=YES, J=NO","878a0hebmn","0","83","75","90","","","","","","lextale","true","false","","","","","","","",""
"603","
  <p style=""font-size: 40px;"">clever</p>
  <p style=""font-size: 16px;"">F = YES &nbsp;&nbsp;&nbsp; J = NO</p>
","f","html-keyboard-response","39","2.1.0","132685","F=YES, J=NO","878a0hebmn","0","83","75","90","","","","","","lextale","true","false","","","","","","","",""
"870","
  <p style=""font-size: 40px;"">grum</p>
  <p style=""font-size: 16px;"">F = YES &nbsp;&nbsp;&nbsp; J = NO</p>
","j","html-keyboard-response","40","2.1.0","133557","F=YES, J=NO","878a0hebmn","0","83","75","90","","","","","","lextale","false","false","","","","","","","",""
"575","
  <p style=""font-size: 40px;"">string</p>
  <p style=""font-size: 16px;"">F = YES &nbsp;&nbsp;&nbsp; J = NO</p>
","f","html-keyboard-response","41","2.1.0","134133","F=YES, J=NO","878a0hebmn","0","83","75","90","","","","","","lextale","true","false","","","","","","","",""
"683","
  <p style=""font-size: 40px;"">plim</p>
  <p style=""font-size: 16px;"">F = YES &nbsp;&nbsp;&nbsp; J = NO</p>
","j","html-keyboard-response","42","2.1.0","134817","F=YES, J=NO","878a0hebmn","0","83","75","90","","","","","","lextale","false","false","","","","","","","",""
"551","
  <p style=""font-size: 40px;"">cable</p>
  <p style=""font-size: 16px;"">F = YES &nbsp;&nbsp;&nbsp; J = NO</p>
","f","html-keyboard-response","43","2.1.0","135369","F=YES, J=NO","878a0hebmn","0","83","75","90","","","","","","lextale","true","false","","","","","","","",""
"936","
  <p style=""font-size: 40px;"">shrivel</p>
  <p style=""font-size: 16px;"">F = YES &nbsp;&nbsp;&nbsp; J = NO</p>
","f","html-keyboard-response","44","2.1.0","136306","F=YES, J=NO","878a0hebmn","0","83","75","90","","","","","","lextale","true","false","","","","","","","",""
"858","
  <p style=""font-size: 40px;"">tarnish</p>
  <p style=""font-size: 16px;"">F = YES &nbsp;&nbsp;&nbsp; J = NO</p>
","f","html-keyboard-response","45","2.1.0","137165","F=YES, J=NO","878a0hebmn","0","83","75","90","","","","","","lextale","true","false","","","","","","","",""
"815","
  <p style=""font-size: 40px;"">blim</p>
  <p style=""font-size: 16px;"">F = YES &nbsp;&nbsp;&nbsp; J = NO</p>
","j","html-keyboard-response","46","2.1.0","137982","F=YES, J=NO","878a0hebmn","0","83","75","90","","","","","","lextale","false","false","","","","","","","",""
"1351","
  <p style=""font-size: 40px;"">stifle</p>
  <p style=""font-size: 16px;"">F = YES &nbsp;&nbsp;&nbsp; J = NO</p>
","f","html-keyboard-response","47","2.1.0","139334","F=YES, J=NO","878a0hebmn","0","83","75","90","","","","","","lextale","true","false","","","","","","","",""
"798","
  <p style=""font-size: 40px;"">bint</p>
  <p style=""font-size: 16px;"">F = YES &nbsp;&nbsp;&nbsp; J = NO</p>
","j","html-keyboard-response","48","2.1.0","140134","F=YES, J=NO","878a0hebmn","0","83","75","90","","","","","","lextale","false","false","","","","","","","",""
"591","
  <p style=""font-size: 40px;"">purple</p>
  <p style=""font-size: 16px;"">F = YES &nbsp;&nbsp;&nbsp; J = NO</p>
","f","html-keyboard-response","49","2.1.0","140726","F=YES, J=NO","878a0hebmn","0","83","75","90","","","","","","lextale","true","false","","","","","","","",""
"707","
  <p style=""font-size: 40px;"">wriggle</p>
  <p style=""font-size: 16px;"">F = YES &nbsp;&nbsp;&nbsp; J = NO</p>
","f","html-keyboard-response","50","2.1.0","141434","F=YES, J=NO","878a0hebmn","0","83","75","90","","","","","","lextale","true","false","","","","","","","",""
"758","
  <p style=""font-size: 40px;"">mangle</p>
  <p style=""font-size: 16px;"">F = YES &nbsp;&nbsp;&nbsp; J = NO</p>
","f","html-keyboard-response","51","2.1.0","142194","F=YES, J=NO","878a0hebmn","0","83","75","90","","","","","","lextale","true","false","","","","","","","",""
"835","
  <p style=""font-size: 40px;"">shramp</p>
  <p style=""font-size: 16px;"">F = YES &nbsp;&nbsp;&nbsp; J = NO</p>
","f","html-keyboard-response","52","2.1.0","143030","F=YES, J=NO","878a0hebmn","0","83","75","90","","","","","","lextale","false","false","","","","","","","",""
"591","
  <p style=""font-size: 40px;"">flirt</p>
  <p style=""font-size: 16px;"">F = YES &nbsp;&nbsp;&nbsp; J = NO</p>
","f","html-keyboard-response","53","2.1.0","143622","F=YES, J=NO","878a0hebmn","0","83","75","90","","","","","","lextale","true","false","","","","","","","",""
"1082","
  <p style=""font-size: 40px;"">frip</p>
  <p style=""font-size: 16px;"">F = YES &nbsp;&nbsp;&nbsp; J = NO</p>
","j","html-keyboard-response","54","2.1.0","144705","F=YES, J=NO","878a0hebmn","0","83","75","90","","","","","","lextale","false","false","","","","","","","",""
"523","
  <p style=""font-size: 40px;"">tangle</p>
  <p style=""font-size: 16px;"">F = YES &nbsp;&nbsp;&nbsp; J = NO</p>
","f","html-keyboard-response","55","2.1.0","145230","F=YES, J=NO","878a0hebmn","0","83","75","90","","","","","","lextale","true","false","","","","","","","",""
"899","
  <p style=""font-size: 40px;"">crumble</p>
  <p style=""font-size: 16px;"">F = YES &nbsp;&nbsp;&nbsp; J = NO</p>
","f","html-keyboard-response","56","2.1.0","146130","F=YES, J=NO","878a0hebmn","0","83","75","90","","","","","","lextale","true","false","","","","","","","",""
"716","
  <p style=""font-size: 40px;"">wrinkle</p>
  <p style=""font-size: 16px;"">F = YES &nbsp;&nbsp;&nbsp; J = NO</p>
","f","html-keyboard-response","57","2.1.0","146847","F=YES, J=NO","878a0hebmn","0","83","75","90","","","","","","lextale","true","false","","","","","","","",""
"701","
  <p style=""font-size: 40px;"">slumb</p>
  <p style=""font-size: 16px;"">F = YES &nbsp;&nbsp;&nbsp; J = NO</p>
","j","html-keyboard-response","58","2.1.0","147550","F=YES, J=NO","878a0hebmn","0","83","75","90","","","","","","lextale","false","false","","","","","","","",""
"481","
  <p style=""font-size: 40px;"">jungle</p>
  <p style=""font-size: 16px;"">F = YES &nbsp;&nbsp;&nbsp; J = NO</p>
","f","html-keyboard-response","59","2.1.0","148033","F=YES, J=NO","878a0hebmn","0","83","75","90","","","","","","lextale","true","false","","","","","","","",""
"708","
  <p style=""font-size: 40px;"">frolick</p>
  <p style=""font-size: 16px;"">F = YES &nbsp;&nbsp;&nbsp; J = NO</p>
","j","html-keyboard-response","60","2.1.0","148742","F=YES, J=NO","878a0hebmn","0","83","75","90","","","","","","lextale","false","false","","","","","","","",""
"1825","
      <h2>LexTALE Test Completed</h2>
      <p>Your LexTALE vocabulary score is: <strong>83%</strong></p>
      <p>Press any key to continue.</p>
    "," ","html-keyboard-response","61","2.1.0","150570","F=YES, J=NO","878a0hebmn","0","83","75","90","","","","","","","","","","","","","","","",""
"4559","
    <div style=""max-width: 800px; margin: auto; text-align: left;"">
      <h2>Break Time</h2>
      <p>You have completed the first part of the study.</p>
      <p>You may take a short <strong>30-second break</strong> before continuing.</p>
      <p>When you’re ready, press any key to continue to the final task.</p>
    </div>
  ","f","html-keyboard-response","62","2.1.0","155130","F=YES, J=NO","878a0hebmn","0","83","75","90","","","","","","","","","","","","","","","",""
"32440","
    <div style=""max-width: 800px; margin: auto; text-align: left;"">
      <h2>Part 2: Lexical Decision Task</h2>
      <p>You will now begin the second part of the study.</p>
      <p>Each trial will follow this sequence:</p>
      <ul>
        <li>A fixation cross (+) appears at the center of the screen.</li>
        <li>You will hear a short beep followed by a spoken word.</li>
        <li>A written word will appear briefly on the screen.</li>
      </ul>
      <p>Your task is to judge whether the <strong>written word</strong> is a real English word.</p>
      <p style=""margin-top: 1em;""><strong>Key responses:</strong></p>
      <ul>
        <li><strong>F</strong> = YES (real English word)</li>
        <li><strong>J</strong> = NO (not a real English word)</li>
      </ul>
      <p>Please respond as quickly and accurately as you can.</p>
      <p style=""margin-top: 2em;"">Press any key to continue.</p>
    </div>
  ","f","html-keyboard-response","63","2.1.0","187572","F=YES, J=NO","878a0hebmn","0","83","75","90","","","","","","","","","","","","","","","",""
"3665","
    <div style=""max-width: 800px; margin: auto; text-align: left;"">
      <h2>Before You Begin</h2>
      <p>Make sure your sound is turned on.</p>
      <p>You will hear audio during each trial, but your decision should be based only on the <strong>written word</strong> you see on the screen.</p>
      <p><strong>Reminder:</strong></p>
      <ul>
        <li><strong>F</strong> = YES (real English word)</li>
        <li><strong>J</strong> = NO (not a real English word)</li>
      </ul>
      <p style=""margin-top: 2em;"">Press any key when you are ready to begin.</p>
    </div>
  ","f","html-keyboard-response","64","2.1.0","191239","F=YES, J=NO","878a0hebmn","0","83","75","90","","","","","","","","","","","","","","","",""
"2476","
    <div style=""max-width: 800px; margin: auto; text-align: left;"">
      <h2>Part 2: Practice Trials</h2>
      <p>You will now complete a few <strong>practice trials</strong> to get familiar with the task.</p>
      <p>These trials are <strong>not scored</strong> and are only to help you get used to the format.</p>
      <p style=""margin-top: 2em;"">Press any key to begin.</p>
    </div>
  ","f","html-keyboard-response","65","2.1.0","193716","F=YES, J=NO","878a0hebmn","0","83","75","90","","","","","","","","","","","","","","","",""
"1632","<p>Starting practice block 1 of 2. Press any key to continue.</p>","f","html-keyboard-response","66","2.1.0","195349","F=YES, J=NO","878a0hebmn","0","83","75","90","","","","","","","","","","","","","","","",""
"null","<p style=""font-size: 50px;"">+</p>","null","html-keyboard-response","67","2.1.0","195667","F=YES, J=NO","878a0hebmn","0","83","75","90","","","","","","","","","","","","","","","",""
"null","audio/beep-329314.mp3","null","audio-keyboard-response","68","2.1.0","197457","F=YES, J=NO","878a0hebmn","0","83","75","90","","","","","","","","","","","","","","","",""
"null","audio/beach1.wav","null","audio-keyboard-response","69","2.1.0","198126","F=YES, J=NO","878a0hebmn","0","83","75","90","","","","","","","","","","","","","","","",""
"null","
          <p id=""word"" style=""font-size: 40px;"">drive</p>
          <p style=""font-size: 16px;"">F = YES &nbsp;&nbsp;&nbsp; J = NO</p>
        ","null","html-keyboard-response","70","2.1.0","199637","F=YES, J=NO","878a0hebmn","0","83","75","90","","","","","","","","","drive","beach1","filler","filler","f","false","",""
"null","<p style=""font-size: 50px;"">+</p>","null","html-keyboard-response","71","2.1.0","199948","F=YES, J=NO","878a0hebmn","0","83","75","90","","","","","","","","","","","","","","","",""
"null","audio/beep-329314.mp3","null","audio-keyboard-response","72","2.1.0","201476","F=YES, J=NO","878a0hebmn","0","83","75","90","","","","","","","","","","","","","","","",""
"null","audio/breath.wav","null","audio-keyboard-response","73","2.1.0","202087","F=YES, J=NO","878a0hebmn","0","83","75","90","","","","","","","","","","","","","","","",""
"519","
          <p id=""word"" style=""font-size: 40px;"">pack</p>
          <p style=""font-size: 16px;"">F = YES &nbsp;&nbsp;&nbsp; J = NO</p>
        ","j","html-keyboard-response","74","2.1.0","202608","F=YES, J=NO","878a0hebmn","0","83","75","90","","","","","","","","","pack","breath","filler","filler","f","false","",""
"null","<p style=""font-size: 50px;"">+</p>","null","html-keyboard-response","75","2.1.0","202921","F=YES, J=NO","878a0hebmn","0","83","75","90","","","","","","","","","","","","","","","",""
"null","audio/beep-329314.mp3","null","audio-keyboard-response","76","2.1.0","204456","F=YES, J=NO","878a0hebmn","0","83","75","90","","","","","","","","","","","","","","","",""
"null","audio/novel.wav","null","audio-keyboard-response","77","2.1.0","204986","F=YES, J=NO","878a0hebmn","0","83","75","90","","","","","","","","","","","","","","","",""
"1138","
          <p id=""word"" style=""font-size: 40px;"">type</p>
          <p style=""font-size: 16px;"">F = YES &nbsp;&nbsp;&nbsp; J = NO</p>
        ","f","html-keyboard-response","78","2.1.0","206126","F=YES, J=NO","878a0hebmn","0","83","75","90","","","","","","","","","type","novel","filler","filler","f","true","",""
"null","<p style=""font-size: 50px;"">+</p>","null","html-keyboard-response","79","2.1.0","206439","F=YES, J=NO","878a0hebmn","0","83","75","90","","","","","","","","","","","","","","","",""
"null","audio/beep-329314.mp3","null","audio-keyboard-response","80","2.1.0","207976","F=YES, J=NO","878a0hebmn","0","83","75","90","","","","","","","","","","","","","","","",""
"null","audio/survey1.wav","null","audio-keyboard-response","81","2.1.0","208986","F=YES, J=NO","878a0hebmn","0","83","75","90","","","","","","","","","","","","","","","",""
"886","
          <p id=""word"" style=""font-size: 40px;"">imploth</p>
          <p style=""font-size: 16px;"">F = YES &nbsp;&nbsp;&nbsp; J = NO</p>
        ","j","html-keyboard-response","82","2.1.0","209873","F=YES, J=NO","878a0hebmn","0","83","75","90","","","","","","","","","imploth","survey1","pseudoword","pseudoword","j","true","",""
"null","<p style=""font-size: 50px;"">+</p>","null","html-keyboard-response","83","2.1.0","210177","F=YES, J=NO","878a0hebmn","0","83","75","90","","","","","","","","","","","","","","","",""
"null","audio/beep-329314.mp3","null","audio-keyboard-response","84","2.1.0","211716","F=YES, J=NO","878a0hebmn","0","83","75","90","","","","","","","","","","","","","","","",""
"null","audio/key1.wav","null","audio-keyboard-response","85","2.1.0","212306","F=YES, J=NO","878a0hebmn","0","83","75","90","","","","","","","","","","","","","","","",""
"1414","
          <p id=""word"" style=""font-size: 40px;"">sminsh</p>
          <p style=""font-size: 16px;"">F = YES &nbsp;&nbsp;&nbsp; J = NO</p>
        ","j","html-keyboard-response","86","2.1.0","213721","F=YES, J=NO","878a0hebmn","0","83","75","90","","","","","","","","","sminsh","key1","pseudoword","pseudoword","j","true","",""
"null","<p style=""font-size: 50px;"">+</p>","null","html-keyboard-response","87","2.1.0","214034","F=YES, J=NO","878a0hebmn","0","83","75","90","","","","","","","","","","","","","","","",""
"null","audio/beep-329314.mp3","null","audio-keyboard-response","88","2.1.0","215576","F=YES, J=NO","878a0hebmn","0","83","75","90","","","","","","","","","","","","","","","",""
"null","audio/tunnel.wav","null","audio-keyboard-response","89","2.1.0","216046","F=YES, J=NO","878a0hebmn","0","83","75","90","","","","","","","","","","","","","","","",""
"754","
          <p id=""word"" style=""font-size: 40px;"">gred</p>
          <p style=""font-size: 16px;"">F = YES &nbsp;&nbsp;&nbsp; J = NO</p>
        ","j","html-keyboard-response","90","2.1.0","216802","F=YES, J=NO","878a0hebmn","0","83","75","90","","","","","","","","","gred","tunnel","pseudoword","pseudoword","j","true","",""
"null","<p style=""font-size: 50px;"">+</p>","null","html-keyboard-response","91","2.1.0","217114","F=YES, J=NO","878a0hebmn","0","83","75","90","","","","","","","","","","","","","","","",""
"null","audio/beep-329314.mp3","null","audio-keyboard-response","92","2.1.0","218656","F=YES, J=NO","878a0hebmn","0","83","75","90","","","","","","","","","","","","","","","",""
"null","audio/butter1.wav","null","audio-keyboard-response","93","2.1.0","219426","F=YES, J=NO","878a0hebmn","0","83","75","90","","","","","","","","","","","","","","","",""
"970","
          <p id=""word"" style=""font-size: 40px;"">chew</p>
          <p style=""font-size: 16px;"">F = YES &nbsp;&nbsp;&nbsp; J = NO</p>
        ","f","html-keyboard-response","94","2.1.0","220397","F=YES, J=NO","878a0hebmn","0","83","75","90","","","","","","","","","chew","butter1","filler","filler","f","true","",""
"null","<p style=""font-size: 50px;"">+</p>","null","html-keyboard-response","95","2.1.0","220708","F=YES, J=NO","878a0hebmn","0","83","75","90","","","","","","","","","","","","","","","",""
"null","audio/beep-329314.mp3","null","audio-keyboard-response","96","2.1.0","222236","F=YES, J=NO","878a0hebmn","0","83","75","90","","","","","","","","","","","","","","","",""
"null","audio/tomato.wav","null","audio-keyboard-response","97","2.1.0","223065","F=YES, J=NO","878a0hebmn","0","83","75","90","","","","","","","","","","","","","","","",""
"1067","
          <p id=""word"" style=""font-size: 40px;"">gladies</p>
          <p style=""font-size: 16px;"">F = YES &nbsp;&nbsp;&nbsp; J = NO</p>
        ","j","html-keyboard-response","98","2.1.0","224134","F=YES, J=NO","878a0hebmn","0","83","75","90","","","","","","","","","gladies","tomato","pseudoword","pseudoword","j","true","",""
"null","<p style=""font-size: 50px;"">+</p>","null","html-keyboard-response","99","2.1.0","224438","F=YES, J=NO","878a0hebmn","0","83","75","90","","","","","","","","","","","","","","","",""
"null","audio/beep-329314.mp3","null","audio-keyboard-response","100","2.1.0","225977","F=YES, J=NO","878a0hebmn","0","83","75","90","","","","","","","","","","","","","","","",""
"null","audio/prisoner.wav","null","audio-keyboard-response","101","2.1.0","226526","F=YES, J=NO","878a0hebmn","0","83","75","90","","","","","","","","","","","","","","","",""
"1242","
          <p id=""word"" style=""font-size: 40px;"">egotian</p>
          <p style=""font-size: 16px;"">F = YES &nbsp;&nbsp;&nbsp; J = NO</p>
        ","j","html-keyboard-response","102","2.1.0","227770","F=YES, J=NO","878a0hebmn","0","83","75","90","","","","","","","","","egotian","prisoner","pseudoword","pseudoword","j","true","",""
"null","<p style=""font-size: 50px;"">+</p>","null","html-keyboard-response","103","2.1.0","228084","F=YES, J=NO","878a0hebmn","0","83","75","90","","","","","","","","","","","","","","","",""
"null","audio/beep-329314.mp3","null","audio-keyboard-response","104","2.1.0","229616","F=YES, J=NO","878a0hebmn","0","83","75","90","","","","","","","","","","","","","","","",""
"null","audio/terrain.wav","null","audio-keyboard-response","105","2.1.0","230227","F=YES, J=NO","878a0hebmn","0","83","75","90","","","","","","","","","","","","","","","",""
"978","
          <p id=""word"" style=""font-size: 40px;"">twist</p>
          <p style=""font-size: 16px;"">F = YES &nbsp;&nbsp;&nbsp; J = NO</p>
        ","f","html-keyboard-response","106","2.1.0","231206","F=YES, J=NO","878a0hebmn","0","83","75","90","","","","","","","","","twist","terrain","filler","filler","f","true","",""
"null","<p style=""font-size: 50px;"">+</p>","null","html-keyboard-response","107","2.1.0","231508","F=YES, J=NO","878a0hebmn","0","83","75","90","","","","","","","","","","","","","","","",""
"null","audio/beep-329314.mp3","null","audio-keyboard-response","108","2.1.0","233036","F=YES, J=NO","878a0hebmn","0","83","75","90","","","","","","","","","","","","","","","",""
"null","audio/arm.wav","null","audio-keyboard-response","109","2.1.0","233766","F=YES, J=NO","878a0hebmn","0","83","75","90","","","","","","","","","","","","","","","",""
"903","
          <p id=""word"" style=""font-size: 40px;"">pigne</p>
          <p style=""font-size: 16px;"">F = YES &nbsp;&nbsp;&nbsp; J = NO</p>
        ","j","html-keyboard-response","110","2.1.0","234670","F=YES, J=NO","878a0hebmn","0","83","75","90","","","","","","","","","pigne","arm","pseudoword","pseudoword","j","true","",""
"null","<p style=""font-size: 50px;"">+</p>","null","html-keyboard-response","111","2.1.0","234978","F=YES, J=NO","878a0hebmn","0","83","75","90","","","","","","","","","","","","","","","",""
"null","audio/beep-329314.mp3","null","audio-keyboard-response","112","2.1.0","236516","F=YES, J=NO","878a0hebmn","0","83","75","90","","","","","","","","","","","","","","","",""
"null","audio/road.wav","null","audio-keyboard-response","113","2.1.0","236986","F=YES, J=NO","878a0hebmn","0","83","75","90","","","","","","","","","","","","","","","",""
"1202","
          <p id=""word"" style=""font-size: 40px;"">wappings</p>
          <p style=""font-size: 16px;"">F = YES &nbsp;&nbsp;&nbsp; J = NO</p>
        ","j","html-keyboard-response","114","2.1.0","238190","F=YES, J=NO","878a0hebmn","0","83","75","90","","","","","","","","","wappings","road","pseudoword","pseudoword","j","true","",""
"3851","<p>Starting practice block 2 of 2. Press any key to continue.</p>","f","html-keyboard-response","115","2.1.0","242042","F=YES, J=NO","878a0hebmn","0","83","75","90","","","","","","","","","","","","","","","",""
"null","<p style=""font-size: 50px;"">+</p>","null","html-keyboard-response","116","2.1.0","242351","F=YES, J=NO","878a0hebmn","0","83","75","90","","","","","","","","","","","","","","","",""
"null","audio/beep-329314.mp3","null","audio-keyboard-response","117","2.1.0","243876","F=YES, J=NO","878a0hebmn","0","83","75","90","","","","","","","","","","","","","","","",""
"null","audio/alarm1.wav","null","audio-keyboard-response","118","2.1.0","244506","F=YES, J=NO","878a0hebmn","0","83","75","90","","","","","","","","","","","","","","","",""
"1103","
          <p id=""word"" style=""font-size: 40px;"">lock</p>
          <p style=""font-size: 16px;"">F = YES &nbsp;&nbsp;&nbsp; J = NO</p>
        ","f","html-keyboard-response","119","2.1.0","245611","F=YES, J=NO","878a0hebmn","0","83","75","90","","","","","","","","","lock","alarm1","filler","filler","f","true","",""
"null","<p style=""font-size: 50px;"">+</p>","null","html-keyboard-response","120","2.1.0","245915","F=YES, J=NO","878a0hebmn","0","83","75","90","","","","","","","","","","","","","","","",""
"null","audio/beep-329314.mp3","null","audio-keyboard-response","121","2.1.0","247456","F=YES, J=NO","878a0hebmn","0","83","75","90","","","","","","","","","","","","","","","",""
"null","audio/kettle1.wav","null","audio-keyboard-response","122","2.1.0","248166","F=YES, J=NO","878a0hebmn","0","83","75","90","","","","","","","","","","","","","","","",""
"554","
          <p id=""word"" style=""font-size: 40px;"">wrap</p>
          <p style=""font-size: 16px;"">F = YES &nbsp;&nbsp;&nbsp; J = NO</p>
        ","f","html-keyboard-response","123","2.1.0","248722","F=YES, J=NO","878a0hebmn","0","83","75","90","","","","","","","","","wrap","kettle1","filler","filler","f","true","",""
"null","<p style=""font-size: 50px;"">+</p>","null","html-keyboard-response","124","2.1.0","249036","F=YES, J=NO","878a0hebmn","0","83","75","90","","","","","","","","","","","","","","","",""
"null","audio/beep-329314.mp3","null","audio-keyboard-response","125","2.1.0","250576","F=YES, J=NO","878a0hebmn","0","83","75","90","","","","","","","","","","","","","","","",""
"null","audio/belief.wav","null","audio-keyboard-response","126","2.1.0","251346","F=YES, J=NO","878a0hebmn","0","83","75","90","","","","","","","","","","","","","","","",""
"688","
          <p id=""word"" style=""font-size: 40px;"">read</p>
          <p style=""font-size: 16px;"">F = YES &nbsp;&nbsp;&nbsp; J = NO</p>
        ","f","html-keyboard-response","127","2.1.0","252035","F=YES, J=NO","878a0hebmn","0","83","75","90","","","","","","","","","read","belief","filler","filler","f","true","",""
"null","<p style=""font-size: 50px;"">+</p>","null","html-keyboard-response","128","2.1.0","252346","F=YES, J=NO","878a0hebmn","0","83","75","90","","","","","","","","","","","","","","","",""
"null","audio/beep-329314.mp3","null","audio-keyboard-response","129","2.1.0","253876","F=YES, J=NO","878a0hebmn","0","83","75","90","","","","","","","","","","","","","","","",""
"null","audio/holiday1.wav","null","audio-keyboard-response","130","2.1.0","254766","F=YES, J=NO","878a0hebmn","0","83","75","90","","","","","","","","","","","","","","","",""
"1030","
          <p id=""word"" style=""font-size: 40px;"">drivets</p>
          <p style=""font-size: 16px;"">F = YES &nbsp;&nbsp;&nbsp; J = NO</p>
        ","j","html-keyboard-response","131","2.1.0","255798","F=YES, J=NO","878a0hebmn","0","83","75","90","","","","","","","","","drivets","holiday1","pseudoword","pseudoword","j","true","",""
"null","<p style=""font-size: 50px;"">+</p>","null","html-keyboard-response","132","2.1.0","256101","F=YES, J=NO","878a0hebmn","0","83","75","90","","","","","","","","","","","","","","","",""
"null","audio/beep-329314.mp3","null","audio-keyboard-response","133","2.1.0","257635","F=YES, J=NO","878a0hebmn","0","83","75","90","","","","","","","","","","","","","","","",""
"null","audio/window1.wav","null","audio-keyboard-response","134","2.1.0","258385","F=YES, J=NO","878a0hebmn","0","83","75","90","","","","","","","","","","","","","","","",""
"935","
          <p id=""word"" style=""font-size: 40px;"">toss</p>
          <p style=""font-size: 16px;"">F = YES &nbsp;&nbsp;&nbsp; J = NO</p>
        ","f","html-keyboard-response","135","2.1.0","259322","F=YES, J=NO","878a0hebmn","0","83","75","90","","","","","","","","","toss","window1","filler","filler","f","true","",""
"null","<p style=""font-size: 50px;"">+</p>","null","html-keyboard-response","136","2.1.0","259636","F=YES, J=NO","878a0hebmn","0","83","75","90","","","","","","","","","","","","","","","",""
"null","audio/beep-329314.mp3","null","audio-keyboard-response","137","2.1.0","261176","F=YES, J=NO","878a0hebmn","0","83","75","90","","","","","","","","","","","","","","","",""
"null","audio/breath.wav","null","audio-keyboard-response","138","2.1.0","261726","F=YES, J=NO","878a0hebmn","0","83","75","90","","","","","","","","","","","","","","","",""
"758","
          <p id=""word"" style=""font-size: 40px;"">twets</p>
          <p style=""font-size: 16px;"">F = YES &nbsp;&nbsp;&nbsp; J = NO</p>
        ","j","html-keyboard-response","139","2.1.0","262485","F=YES, J=NO","878a0hebmn","0","83","75","90","","","","","","","","","twets","breath","pseudoword","pseudoword","j","true","",""
"null","<p style=""font-size: 50px;"">+</p>","null","html-keyboard-response","140","2.1.0","262792","F=YES, J=NO","878a0hebmn","0","83","75","90","","","","","","","","","","","","","","","",""
"null","audio/beep-329314.mp3","null","audio-keyboard-response","141","2.1.0","264317","F=YES, J=NO","878a0hebmn","0","83","75","90","","","","","","","","","","","","","","","",""
"null","audio/bridge.wav","null","audio-keyboard-response","142","2.1.0","265205","F=YES, J=NO","878a0hebmn","0","83","75","90","","","","","","","","","","","","","","","",""
"687","
          <p id=""word"" style=""font-size: 40px;"">crack</p>
          <p style=""font-size: 16px;"">F = YES &nbsp;&nbsp;&nbsp; J = NO</p>
        ","f","html-keyboard-response","143","2.1.0","265893","F=YES, J=NO","878a0hebmn","0","83","75","90","","","","","","","","","crack","bridge","filler","filler","f","true","",""
"null","<p style=""font-size: 50px;"">+</p>","null","html-keyboard-response","144","2.1.0","266197","F=YES, J=NO","878a0hebmn","0","83","75","90","","","","","","","","","","","","","","","",""
"null","audio/beep-329314.mp3","null","audio-keyboard-response","145","2.1.0","267736","F=YES, J=NO","878a0hebmn","0","83","75","90","","","","","","","","","","","","","","","",""
"null","audio/scar.wav","null","audio-keyboard-response","146","2.1.0","268366","F=YES, J=NO","878a0hebmn","0","83","75","90","","","","","","","","","","","","","","","",""
"649","
          <p id=""word"" style=""font-size: 40px;"">adelineate</p>
          <p style=""font-size: 16px;"">F = YES &nbsp;&nbsp;&nbsp; J = NO</p>
        ","j","html-keyboard-response","147","2.1.0","269017","F=YES, J=NO","878a0hebmn","0","83","75","90","","","","","","","","","adelineate","scar","pseudoword","pseudoword","j","true","",""
"null","<p style=""font-size: 50px;"">+</p>","null","html-keyboard-response","148","2.1.0","269325","F=YES, J=NO","878a0hebmn","0","83","75","90","","","","","","","","","","","","","","","",""
"null","audio/beep-329314.mp3","null","audio-keyboard-response","149","2.1.0","270855","F=YES, J=NO","878a0hebmn","0","83","75","90","","","","","","","","","","","","","","","",""
"null","audio/vehicle1.wav","null","audio-keyboard-response","150","2.1.0","271786","F=YES, J=NO","878a0hebmn","0","83","75","90","","","","","","","","","","","","","","","",""
"598","
          <p id=""word"" style=""font-size: 40px;"">dropt</p>
          <p style=""font-size: 16px;"">F = YES &nbsp;&nbsp;&nbsp; J = NO</p>
        ","j","html-keyboard-response","151","2.1.0","272385","F=YES, J=NO","878a0hebmn","0","83","75","90","","","","","","","","","dropt","vehicle1","pseudoword","pseudoword","j","true","",""
"null","<p style=""font-size: 50px;"">+</p>","null","html-keyboard-response","152","2.1.0","272701","F=YES, J=NO","878a0hebmn","0","83","75","90","","","","","","","","","","","","","","","",""
"null","audio/beep-329314.mp3","null","audio-keyboard-response","153","2.1.0","274236","F=YES, J=NO","878a0hebmn","0","83","75","90","","","","","","","","","","","","","","","",""
"null","audio/baby.wav","null","audio-keyboard-response","154","2.1.0","274966","F=YES, J=NO","878a0hebmn","0","83","75","90","","","","","","","","","","","","","","","",""
"782","
          <p id=""word"" style=""font-size: 40px;"">lift</p>
          <p style=""font-size: 16px;"">F = YES &nbsp;&nbsp;&nbsp; J = NO</p>
        ","f","html-keyboard-response","155","2.1.0","275750","F=YES, J=NO","878a0hebmn","0","83","75","90","","","","","","","","","lift","baby","filler","filler","f","true","",""
"null","<p style=""font-size: 50px;"">+</p>","null","html-keyboard-response","156","2.1.0","276055","F=YES, J=NO","878a0hebmn","0","83","75","90","","","","","","","","","","","","","","","",""
"null","audio/beep-329314.mp3","null","audio-keyboard-response","157","2.1.0","277596","F=YES, J=NO","878a0hebmn","0","83","75","90","","","","","","","","","","","","","","","",""
"null","audio/neck.wav","null","audio-keyboard-response","158","2.1.0","278406","F=YES, J=NO","878a0hebmn","0","83","75","90","","","","","","","","","","","","","","","",""
"754","
          <p id=""word"" style=""font-size: 40px;"">werling</p>
          <p style=""font-size: 16px;"">F = YES &nbsp;&nbsp;&nbsp; J = NO</p>
        ","j","html-keyboard-response","159","2.1.0","279161","F=YES, J=NO","878a0hebmn","0","83","75","90","","","","","","","","","werling","neck","pseudoword","pseudoword","j","true","",""
"null","<p style=""font-size: 50px;"">+</p>","null","html-keyboard-response","160","2.1.0","279477","F=YES, J=NO","878a0hebmn","0","83","75","90","","","","","","","","","","","","","","","",""
"null","audio/beep-329314.mp3","null","audio-keyboard-response","161","2.1.0","281016","F=YES, J=NO","878a0hebmn","0","83","75","90","","","","","","","","","","","","","","","",""
"null","audio/van1.wav","null","audio-keyboard-response","162","2.1.0","281566","F=YES, J=NO","878a0hebmn","0","83","75","90","","","","","","","","","","","","","","","",""
"1372","
          <p id=""word"" style=""font-size: 40px;"">push</p>
          <p style=""font-size: 16px;"">F = YES &nbsp;&nbsp;&nbsp; J = NO</p>
        ","f","html-keyboard-response","163","2.1.0","282939","F=YES, J=NO","878a0hebmn","0","83","75","90","","","","","","","","","push","van1","filler","filler","f","true","",""
"5502","
    <div style=""max-width: 800px; margin: auto; text-align: left;"">
      <h2>Part 2: Main Trials</h2>
      <p>Great job on the practice trials!</p>
      <p>You will now begin the <strong>main set of trials</strong>.</p>
      <p>Remember your key assignments:</p>
      <ul>
        <li><strong>F</strong> = YES (real English word)</li>
        <li><strong>J</strong> = NO (not a real English word)</li>
      </ul>
      <p>Try to respond as <strong>quickly and accurately</strong> as possible.</p>
      <p style=""margin-top: 2em;"">Press any key to begin the main trials.</p>
    </div>
  ","f","html-keyboard-response","164","2.1.0","288442","F=YES, J=NO","878a0hebmn","0","83","75","90","","","","","","","","","","","","","","","",""
"2804","<p>Starting main block 1 of 8. Press any key to continue.</p>","f","html-keyboard-response","165","2.1.0","291247","F=YES, J=NO","878a0hebmn","0","83","75","90","","","","","","","","","","","","","","","",""
"null","<p style=""font-size: 50px;"">+</p>","null","html-keyboard-response","166","2.1.0","291557","F=YES, J=NO","878a0hebmn","0","83","75","90","","","","","","","","","","","","","","","",""
"null","audio/beep-329314.mp3","null","audio-keyboard-response","167","2.1.0","293066","F=YES, J=NO","878a0hebmn","0","83","75","90","","","","","","","","","","","","","","","",""
"null","audio/voice.wav","null","audio-keyboard-response","168","2.1.0","293706","F=YES, J=NO","878a0hebmn","0","83","75","90","","","","","","","","","","","","","","","",""
"929","
          <p id=""word"" style=""font-size: 40px;"">grintle</p>
          <p style=""font-size: 16px;"">F = YES &nbsp;&nbsp;&nbsp; J = NO</p>
        ","f","html-keyboard-response","169","2.1.0","294636","F=YES, J=NO","878a0hebmn","0","83","75","90","","","","","","","","","grintle","voice","pseudoword","pseudoword","j","false","",""
"null","<p style=""font-size: 50px;"">+</p>","null","html-keyboard-response","170","2.1.0","294942","F=YES, J=NO","878a0hebmn","0","83","75","90","","","","","","","","","","","","","","","",""
"null","audio/beep-329314.mp3","null","audio-keyboard-response","171","2.1.0","296466","F=YES, J=NO","878a0hebmn","0","83","75","90","","","","","","","","","","","","","","","",""
"null","audio/ankle1.wav","null","audio-keyboard-response","172","2.1.0","297126","F=YES, J=NO","878a0hebmn","0","83","75","90","","","","","","","","","","","","","","","",""
"847","
          <p id=""word"" style=""font-size: 40px;"">switm</p>
          <p style=""font-size: 16px;"">F = YES &nbsp;&nbsp;&nbsp; J = NO</p>
        ","j","html-keyboard-response","173","2.1.0","297974","F=YES, J=NO","878a0hebmn","0","83","75","90","","","","","","","","","switm","ankle1","pseudoword","pseudoword","j","true","",""
"null","<p style=""font-size: 50px;"">+</p>","null","html-keyboard-response","174","2.1.0","298276","F=YES, J=NO","878a0hebmn","0","83","75","90","","","","","","","","","","","","","","","",""
"null","audio/beep-329314.mp3","null","audio-keyboard-response","175","2.1.0","299806","F=YES, J=NO","878a0hebmn","0","83","75","90","","","","","","","","","","","","","","","",""
"null","audio/budget1.wav","null","audio-keyboard-response","176","2.1.0","300467","F=YES, J=NO","878a0hebmn","0","83","75","90","","","","","","","","","","","","","","","",""
"766","
          <p id=""word"" style=""font-size: 40px;"">sulist</p>
          <p style=""font-size: 16px;"">F = YES &nbsp;&nbsp;&nbsp; J = NO</p>
        ","j","html-keyboard-response","177","2.1.0","301234","F=YES, J=NO","878a0hebmn","0","83","75","90","","","","","","","","","sulist","budget1","pseudoword","pseudoword","j","true","",""
"null","<p style=""font-size: 50px;"">+</p>","null","html-keyboard-response","178","2.1.0","301547","F=YES, J=NO","878a0hebmn","0","83","75","90","","","","","","","","","","","","","","","",""
"null","audio/beep-329314.mp3","null","audio-keyboard-response","179","2.1.0","303086","F=YES, J=NO","878a0hebmn","0","83","75","90","","","","","","","","","","","","","","","",""
"null","audio/ankle1.wav","null","audio-keyboard-response","180","2.1.0","303626","F=YES, J=NO","878a0hebmn","0","83","75","90","","","","","","","","","","","","","","","",""
"955","
          <p id=""word"" style=""font-size: 40px;"">kick</p>
          <p style=""font-size: 16px;"">F = YES &nbsp;&nbsp;&nbsp; J = NO</p>
        ","f","html-keyboard-response","181","2.1.0","304582","F=YES, J=NO","878a0hebmn","0","83","75","90","","","","","","","","","kick","ankle1","filler","filler","f","true","",""
"null","<p style=""font-size: 50px;"">+</p>","null","html-keyboard-response","182","2.1.0","304898","F=YES, J=NO","878a0hebmn","0","83","75","90","","","","","","","","","","","","","","","",""
"null","audio/beep-329314.mp3","null","audio-keyboard-response","183","2.1.0","306426","F=YES, J=NO","878a0hebmn","0","83","75","90","","","","","","","","","","","","","","","",""
"null","audio/mind.wav","null","audio-keyboard-response","184","2.1.0","307046","F=YES, J=NO","878a0hebmn","0","83","75","90","","","","","","","","","","","","","","","",""
"897","
          <p id=""word"" style=""font-size: 40px;"">crainate</p>
          <p style=""font-size: 16px;"">F = YES &nbsp;&nbsp;&nbsp; J = NO</p>
        ","j","html-keyboard-response","185","2.1.0","307944","F=YES, J=NO","878a0hebmn","0","83","75","90","","","","","","","","","crainate","mind","pseudoword","pseudoword","j","true","",""
"null","<p style=""font-size: 50px;"">+</p>","null","html-keyboard-response","186","2.1.0","308260","F=YES, J=NO","878a0hebmn","0","83","75","90","","","","","","","","","","","","","","","",""
"null","audio/beep-329314.mp3","null","audio-keyboard-response","187","2.1.0","309786","F=YES, J=NO","878a0hebmn","0","83","75","90","","","","","","","","","","","","","","","",""
"null","audio/scar.wav","null","audio-keyboard-response","188","2.1.0","310385","F=YES, J=NO","878a0hebmn","0","83","75","90","","","","","","","","","","","","","","","",""
"603","
          <p id=""word"" style=""font-size: 40px;"">hide</p>
          <p style=""font-size: 16px;"">F = YES &nbsp;&nbsp;&nbsp; J = NO</p>
        ","f","html-keyboard-response","189","2.1.0","310990","F=YES, J=NO","878a0hebmn","0","83","75","90","","","","","","","","","hide","scar","literal","experimental","f","true","",""
"null","<p style=""font-size: 50px;"">+</p>","null","html-keyboard-response","190","2.1.0","311304","F=YES, J=NO","878a0hebmn","0","83","75","90","","","","","","","","","","","","","","","",""
"null","audio/beep-329314.mp3","null","audio-keyboard-response","191","2.1.0","312847","F=YES, J=NO","878a0hebmn","0","83","75","90","","","","","","","","","","","","","","","",""
"null","audio/theory1.wav","null","audio-keyboard-response","192","2.1.0","313525","F=YES, J=NO","878a0hebmn","0","83","75","90","","","","","","","","","","","","","","","",""
"1084","
          <p id=""word"" style=""font-size: 40px;"">scolve</p>
          <p style=""font-size: 16px;"">F = YES &nbsp;&nbsp;&nbsp; J = NO</p>
        ","f","html-keyboard-response","193","2.1.0","314611","F=YES, J=NO","878a0hebmn","0","83","75","90","","","","","","","","","scolve","theory1","pseudoword","pseudoword","j","false","",""
"null","<p style=""font-size: 50px;"">+</p>","null","html-keyboard-response","194","2.1.0","314927","F=YES, J=NO","878a0hebmn","0","83","75","90","","","","","","","","","","","","","","","",""
"null","audio/beep-329314.mp3","null","audio-keyboard-response","195","2.1.0","316466","F=YES, J=NO","878a0hebmn","0","83","75","90","","","","","","","","","","","","","","","",""
"null","audio/golf1.wav","null","audio-keyboard-response","196","2.1.0","317166","F=YES, J=NO","878a0hebmn","0","83","75","90","","","","","","","","","","","","","","","",""
"859","
          <p id=""word"" style=""font-size: 40px;"">drabble</p>
          <p style=""font-size: 16px;"">F = YES &nbsp;&nbsp;&nbsp; J = NO</p>
        ","j","html-keyboard-response","197","2.1.0","318026","F=YES, J=NO","878a0hebmn","0","83","75","90","","","","","","","","","drabble","golf1","pseudoword","pseudoword","j","true","",""
"null","<p style=""font-size: 50px;"">+</p>","null","html-keyboard-response","198","2.1.0","318330","F=YES, J=NO","878a0hebmn","0","83","75","90","","","","","","","","","","","","","","","",""
"null","audio/beep-329314.mp3","null","audio-keyboard-response","199","2.1.0","319866","F=YES, J=NO","878a0hebmn","0","83","75","90","","","","","","","","","","","","","","","",""
"null","audio/sugar1.wav","null","audio-keyboard-response","200","2.1.0","320407","F=YES, J=NO","878a0hebmn","0","83","75","90","","","","","","","","","","","","","","","",""
"857","
          <p id=""word"" style=""font-size: 40px;"">glung</p>
          <p style=""font-size: 16px;"">F = YES &nbsp;&nbsp;&nbsp; J = NO</p>
        ","j","html-keyboard-response","201","2.1.0","321266","F=YES, J=NO","878a0hebmn","0","83","75","90","","","","","","","","","glung","sugar1","pseudoword","pseudoword","j","true","",""
"null","<p style=""font-size: 50px;"">+</p>","null","html-keyboard-response","202","2.1.0","321568","F=YES, J=NO","878a0hebmn","0","83","75","90","","","","","","","","","","","","","","","",""
"null","audio/beep-329314.mp3","null","audio-keyboard-response","203","2.1.0","323107","F=YES, J=NO","878a0hebmn","0","83","75","90","","","","","","","","","","","","","","","",""
"null","audio/emotion.wav","null","audio-keyboard-response","204","2.1.0","323805","F=YES, J=NO","878a0hebmn","0","83","75","90","","","","","","","","","","","","","","","",""
"629","
          <p id=""word"" style=""font-size: 40px;"">devering</p>
          <p style=""font-size: 16px;"">F = YES &nbsp;&nbsp;&nbsp; J = NO</p>
        ","j","html-keyboard-response","205","2.1.0","324436","F=YES, J=NO","878a0hebmn","0","83","75","90","","","","","","","","","devering","emotion","pseudoword","pseudoword","j","true","",""
"null","<p style=""font-size: 50px;"">+</p>","null","html-keyboard-response","206","2.1.0","324745","F=YES, J=NO","878a0hebmn","0","83","75","90","","","","","","","","","","","","","","","",""
"null","audio/beep-329314.mp3","null","audio-keyboard-response","207","2.1.0","326286","F=YES, J=NO","878a0hebmn","0","83","75","90","","","","","","","","","","","","","","","",""
"null","audio/topic.wav","null","audio-keyboard-response","208","2.1.0","326906","F=YES, J=NO","878a0hebmn","0","83","75","90","","","","","","","","","","","","","","","",""
"883","
          <p id=""word"" style=""font-size: 40px;"">infortuitist</p>
          <p style=""font-size: 16px;"">F = YES &nbsp;&nbsp;&nbsp; J = NO</p>
        ","f","html-keyboard-response","209","2.1.0","327790","F=YES, J=NO","878a0hebmn","0","83","75","90","","","","","","","","","infortuitist","topic","pseudoword","pseudoword","j","false","",""
"null","<p style=""font-size: 50px;"">+</p>","null","html-keyboard-response","210","2.1.0","328102","F=YES, J=NO","878a0hebmn","0","83","75","90","","","","","","","","","","","","","","","",""
"null","audio/beep-329314.mp3","null","audio-keyboard-response","211","2.1.0","329626","F=YES, J=NO","878a0hebmn","0","83","75","90","","","","","","","","","","","","","","","",""
"null","audio/pine.wav","null","audio-keyboard-response","212","2.1.0","330166","F=YES, J=NO","878a0hebmn","0","83","75","90","","","","","","","","","","","","","","","",""
"666","
          <p id=""word"" style=""font-size: 40px;"">weave</p>
          <p style=""font-size: 16px;"">F = YES &nbsp;&nbsp;&nbsp; J = NO</p>
        ","j","html-keyboard-response","213","2.1.0","330833","F=YES, J=NO","878a0hebmn","0","83","75","90","","","","","","","","","weave","pine","unrelated","experimental","f","false","",""
"null","<p style=""font-size: 50px;"">+</p>","null","html-keyboard-response","214","2.1.0","331149","F=YES, J=NO","878a0hebmn","0","83","75","90","","","","","","","","","","","","","","","",""
"null","audio/beep-329314.mp3","null","audio-keyboard-response","215","2.1.0","332686","F=YES, J=NO","878a0hebmn","0","83","75","90","","","","","","","","","","","","","","","",""
"null","audio/sand.wav","null","audio-keyboard-response","216","2.1.0","333385","F=YES, J=NO","878a0hebmn","0","83","75","90","","","","","","","","","","","","","","","",""
"991","
          <p id=""word"" style=""font-size: 40px;"">proted</p>
          <p style=""font-size: 16px;"">F = YES &nbsp;&nbsp;&nbsp; J = NO</p>
        ","j","html-keyboard-response","217","2.1.0","334378","F=YES, J=NO","878a0hebmn","0","83","75","90","","","","","","","","","proted","sand","pseudoword","pseudoword","j","true","",""
"null","<p style=""font-size: 50px;"">+</p>","null","html-keyboard-response","218","2.1.0","334693","F=YES, J=NO","878a0hebmn","0","83","75","90","","","","","","","","","","","","","","","",""
"null","audio/beep-329314.mp3","null","audio-keyboard-response","219","2.1.0","336227","F=YES, J=NO","878a0hebmn","0","83","75","90","","","","","","","","","","","","","","","",""
"null","audio/mile1.wav","null","audio-keyboard-response","220","2.1.0","336786","F=YES, J=NO","878a0hebmn","0","83","75","90","","","","","","","","","","","","","","","",""
"723","
          <p id=""word"" style=""font-size: 40px;"">writch</p>
          <p style=""font-size: 16px;"">F = YES &nbsp;&nbsp;&nbsp; J = NO</p>
        ","f","html-keyboard-response","221","2.1.0","337510","F=YES, J=NO","878a0hebmn","0","83","75","90","","","","","","","","","writch","mile1","pseudoword","pseudoword","j","false","",""
"null","<p style=""font-size: 50px;"">+</p>","null","html-keyboard-response","222","2.1.0","337824","F=YES, J=NO","878a0hebmn","0","83","75","90","","","","","","","","","","","","","","","",""
"null","audio/beep-329314.mp3","null","audio-keyboard-response","223","2.1.0","339366","F=YES, J=NO","878a0hebmn","0","83","75","90","","","","","","","","","","","","","","","",""
"null","audio/fence.wav","null","audio-keyboard-response","224","2.1.0","340065","F=YES, J=NO","878a0hebmn","0","83","75","90","","","","","","","","","","","","","","","",""
"848","
          <p id=""word"" style=""font-size: 40px;"">trim</p>
          <p style=""font-size: 16px;"">F = YES &nbsp;&nbsp;&nbsp; J = NO</p>
        ","f","html-keyboard-response","225","2.1.0","340915","F=YES, J=NO","878a0hebmn","0","83","75","90","","","","","","","","","trim","fence","filler","filler","f","true","",""
"null","<p style=""font-size: 50px;"">+</p>","null","html-keyboard-response","226","2.1.0","341223","F=YES, J=NO","878a0hebmn","0","83","75","90","","","","","","","","","","","","","","","",""
"null","audio/beep-329314.mp3","null","audio-keyboard-response","227","2.1.0","342746","F=YES, J=NO","878a0hebmn","0","83","75","90","","","","","","","","","","","","","","","",""
"null","audio/tax1.wav","null","audio-keyboard-response","228","2.1.0","343466","F=YES, J=NO","878a0hebmn","0","83","75","90","","","","","","","","","","","","","","","",""
"676","
          <p id=""word"" style=""font-size: 40px;"">scrap</p>
          <p style=""font-size: 16px;"">F = YES &nbsp;&nbsp;&nbsp; J = NO</p>
        ","f","html-keyboard-response","229","2.1.0","344144","F=YES, J=NO","878a0hebmn","0","83","75","90","","","","","","","","","scrap","tax1","metaphor","experimental","f","true","",""
"293202","<p>Excellent! You have finished block 1 of 8.</p>
                     <p>Feel free to take a 30 second break.</p>
                     <p>Press any key when you're ready to continue.</p>"," ","html-keyboard-response","230","2.1.0","637347","F=YES, J=NO","878a0hebmn","0","83","75","90","","","","","","","","","","","","","","","",""
"4925","<p>Starting main block 2 of 8. Press any key to continue.</p>","d","html-keyboard-response","231","2.1.0","642273","F=YES, J=NO","878a0hebmn","0","83","75","90","","","","","","","","","","","","","","","",""
"null","<p style=""font-size: 50px;"">+</p>","null","html-keyboard-response","232","2.1.0","642586","F=YES, J=NO","878a0hebmn","0","83","75","90","","","","","","","","","","","","","","","",""
"null","audio/beep-329314.mp3","null","audio-keyboard-response","233","2.1.0","644704","F=YES, J=NO","878a0hebmn","0","83","75","90","","","","","","","","","","","","","","","",""
"null","audio/pig.wav","null","audio-keyboard-response","234","2.1.0","645153","F=YES, J=NO","878a0hebmn","0","83","75","90","","","","","","","","","","","","","","","",""
"947","
          <p id=""word"" style=""font-size: 40px;"">tirlike</p>
          <p style=""font-size: 16px;"">F = YES &nbsp;&nbsp;&nbsp; J = NO</p>
        ","f","html-keyboard-response","235","2.1.0","646102","F=YES, J=NO","878a0hebmn","0","83","75","90","","","","","","","","","tirlike","pig","pseudoword","pseudoword","j","false","",""
"null","<p style=""font-size: 50px;"">+</p>","null","html-keyboard-response","236","2.1.0","646411","F=YES, J=NO","878a0hebmn","0","83","75","90","","","","","","","","","","","","","","","",""
"null","audio/beep-329314.mp3","null","audio-keyboard-response","237","2.1.0","647943","F=YES, J=NO","878a0hebmn","0","83","75","90","","","","","","","","","","","","","","","",""
"null","audio/test1.wav","null","audio-keyboard-response","238","2.1.0","648713","F=YES, J=NO","878a0hebmn","0","83","75","90","","","","","","","","","","","","","","","",""
"836","
          <p id=""word"" style=""font-size: 40px;"">twopch</p>
          <p style=""font-size: 16px;"">F = YES &nbsp;&nbsp;&nbsp; J = NO</p>
        ","j","html-keyboard-response","239","2.1.0","649550","F=YES, J=NO","878a0hebmn","0","83","75","90","","","","","","","","","twopch","test1","pseudoword","pseudoword","j","true","",""
"null","<p style=""font-size: 50px;"">+</p>","null","html-keyboard-response","240","2.1.0","649855","F=YES, J=NO","878a0hebmn","0","83","75","90","","","","","","","","","","","","","","","",""
"null","audio/beep-329314.mp3","null","audio-keyboard-response","241","2.1.0","651382","F=YES, J=NO","878a0hebmn","0","83","75","90","","","","","","","","","","","","","","","",""
"null","audio/winter.wav","null","audio-keyboard-response","242","2.1.0","652233","F=YES, J=NO","878a0hebmn","0","83","75","90","","","","","","","","","","","","","","","",""
"1002","
          <p id=""word"" style=""font-size: 40px;"">straven</p>
          <p style=""font-size: 16px;"">F = YES &nbsp;&nbsp;&nbsp; J = NO</p>
        ","j","html-keyboard-response","243","2.1.0","653236","F=YES, J=NO","878a0hebmn","0","83","75","90","","","","","","","","","straven","winter","pseudoword","pseudoword","j","true","",""
"null","<p style=""font-size: 50px;"">+</p>","null","html-keyboard-response","244","2.1.0","653544","F=YES, J=NO","878a0hebmn","0","83","75","90","","","","","","","","","","","","","","","",""
"null","audio/beep-329314.mp3","null","audio-keyboard-response","245","2.1.0","655084","F=YES, J=NO","878a0hebmn","0","83","75","90","","","","","","","","","","","","","","","",""
"null","audio/cave1.wav","null","audio-keyboard-response","246","2.1.0","655833","F=YES, J=NO","878a0hebmn","0","83","75","90","","","","","","","","","","","","","","","",""
"653","
          <p id=""word"" style=""font-size: 40px;"">blacket</p>
          <p style=""font-size: 16px;"">F = YES &nbsp;&nbsp;&nbsp; J = NO</p>
        ","f","html-keyboard-response","247","2.1.0","656487","F=YES, J=NO","878a0hebmn","0","83","75","90","","","","","","","","","blacket","cave1","pseudoword","pseudoword","j","false","",""
"null","<p style=""font-size: 50px;"">+</p>","null","html-keyboard-response","248","2.1.0","656798","F=YES, J=NO","878a0hebmn","0","83","75","90","","","","","","","","","","","","","","","",""
"null","audio/beep-329314.mp3","null","audio-keyboard-response","249","2.1.0","658324","F=YES, J=NO","878a0hebmn","0","83","75","90","","","","","","","","","","","","","","","",""
"null","audio/account1.wav","null","audio-keyboard-response","250","2.1.0","659293","F=YES, J=NO","878a0hebmn","0","83","75","90","","","","","","","","","","","","","","","",""
"639","
          <p id=""word"" style=""font-size: 40px;"">paint</p>
          <p style=""font-size: 16px;"">F = YES &nbsp;&nbsp;&nbsp; J = NO</p>
        ","f","html-keyboard-response","251","2.1.0","659934","F=YES, J=NO","878a0hebmn","0","83","75","90","","","","","","","","","paint","account1","filler","filler","f","true","",""
"null","<p style=""font-size: 50px;"">+</p>","null","html-keyboard-response","252","2.1.0","660237","F=YES, J=NO","878a0hebmn","0","83","75","90","","","","","","","","","","","","","","","",""
"null","audio/beep-329314.mp3","null","audio-keyboard-response","253","2.1.0","661763","F=YES, J=NO","878a0hebmn","0","83","75","90","","","","","","","","","","","","","","","",""
"null","audio/roof1.wav","null","audio-keyboard-response","254","2.1.0","662513","F=YES, J=NO","878a0hebmn","0","83","75","90","","","","","","","","","","","","","","","",""
"681","
          <p id=""word"" style=""font-size: 40px;"">wronb</p>
          <p style=""font-size: 16px;"">F = YES &nbsp;&nbsp;&nbsp; J = NO</p>
        ","j","html-keyboard-response","255","2.1.0","663196","F=YES, J=NO","878a0hebmn","0","83","75","90","","","","","","","","","wronb","roof1","pseudoword","pseudoword","j","true","",""
"null","<p style=""font-size: 50px;"">+</p>","null","html-keyboard-response","256","2.1.0","663506","F=YES, J=NO","878a0hebmn","0","83","75","90","","","","","","","","","","","","","","","",""
"null","audio/beep-329314.mp3","null","audio-keyboard-response","257","2.1.0","665043","F=YES, J=NO","878a0hebmn","0","83","75","90","","","","","","","","","","","","","","","",""
"null","audio/weight1.wav","null","audio-keyboard-response","258","2.1.0","665774","F=YES, J=NO","878a0hebmn","0","83","75","90","","","","","","","","","","","","","","","",""
"1110","
          <p id=""word"" style=""font-size: 40px;"">crimsh</p>
          <p style=""font-size: 16px;"">F = YES &nbsp;&nbsp;&nbsp; J = NO</p>
        ","j","html-keyboard-response","259","2.1.0","666885","F=YES, J=NO","878a0hebmn","0","83","75","90","","","","","","","","","crimsh","weight1","pseudoword","pseudoword","j","true","",""
"null","<p style=""font-size: 50px;"">+</p>","null","html-keyboard-response","260","2.1.0","667191","F=YES, J=NO","878a0hebmn","0","83","75","90","","","","","","","","","","","","","","","",""
"null","audio/beep-329314.mp3","null","audio-keyboard-response","261","2.1.0","668724","F=YES, J=NO","878a0hebmn","0","83","75","90","","","","","","","","","","","","","","","",""
"null","audio/bomb1.wav","null","audio-keyboard-response","262","2.1.0","669154","F=YES, J=NO","878a0hebmn","0","83","75","90","","","","","","","","","","","","","","","",""
"631","
          <p id=""word"" style=""font-size: 40px;"">clean</p>
          <p style=""font-size: 16px;"">F = YES &nbsp;&nbsp;&nbsp; J = NO</p>
        ","f","html-keyboard-response","263","2.1.0","669786","F=YES, J=NO","878a0hebmn","0","83","75","90","","","","","","","","","clean","bomb1","filler","filler","f","true","",""
"null","<p style=""font-size: 50px;"">+</p>","null","html-keyboard-response","264","2.1.0","670095","F=YES, J=NO","878a0hebmn","0","83","75","90","","","","","","","","","","","","","","","",""
"null","audio/beep-329314.mp3","null","audio-keyboard-response","265","2.1.0","671624","F=YES, J=NO","878a0hebmn","0","83","75","90","","","","","","","","","","","","","","","",""
"null","audio/gossip1.wav","null","audio-keyboard-response","266","2.1.0","672353","F=YES, J=NO","878a0hebmn","0","83","75","90","","","","","","","","","","","","","","","",""
"663","
          <p id=""word"" style=""font-size: 40px;"">camerish</p>
          <p style=""font-size: 16px;"">F = YES &nbsp;&nbsp;&nbsp; J = NO</p>
        ","j","html-keyboard-response","267","2.1.0","673017","F=YES, J=NO","878a0hebmn","0","83","75","90","","","","","","","","","camerish","gossip1","pseudoword","pseudoword","j","true","",""
"null","<p style=""font-size: 50px;"">+</p>","null","html-keyboard-response","268","2.1.0","673320","F=YES, J=NO","878a0hebmn","0","83","75","90","","","","","","","","","","","","","","","",""
"null","audio/beep-329314.mp3","null","audio-keyboard-response","269","2.1.0","674843","F=YES, J=NO","878a0hebmn","0","83","75","90","","","","","","","","","","","","","","","",""
"null","audio/bottle.wav","null","audio-keyboard-response","270","2.1.0","675533","F=YES, J=NO","878a0hebmn","0","83","75","90","","","","","","","","","","","","","","","",""
"615","
          <p id=""word"" style=""font-size: 40px;"">watch</p>
          <p style=""font-size: 16px;"">F = YES &nbsp;&nbsp;&nbsp; J = NO</p>
        ","f","html-keyboard-response","271","2.1.0","676150","F=YES, J=NO","878a0hebmn","0","83","75","90","","","","","","","","","watch","bottle","filler","filler","f","true","",""
"null","<p style=""font-size: 50px;"">+</p>","null","html-keyboard-response","272","2.1.0","676463","F=YES, J=NO","878a0hebmn","0","83","75","90","","","","","","","","","","","","","","","",""
"null","audio/beep-329314.mp3","null","audio-keyboard-response","273","2.1.0","678004","F=YES, J=NO","878a0hebmn","0","83","75","90","","","","","","","","","","","","","","","",""
"null","audio/bush1.wav","null","audio-keyboard-response","274","2.1.0","678573","F=YES, J=NO","878a0hebmn","0","83","75","90","","","","","","","","","","","","","","","",""
"696","
          <p id=""word"" style=""font-size: 40px;"">platined</p>
          <p style=""font-size: 16px;"">F = YES &nbsp;&nbsp;&nbsp; J = NO</p>
        ","f","html-keyboard-response","275","2.1.0","679270","F=YES, J=NO","878a0hebmn","0","83","75","90","","","","","","","","","platined","bush1","pseudoword","pseudoword","j","false","",""
"null","<p style=""font-size: 50px;"">+</p>","null","html-keyboard-response","276","2.1.0","679574","F=YES, J=NO","878a0hebmn","0","83","75","90","","","","","","","","","","","","","","","",""
"null","audio/beep-329314.mp3","null","audio-keyboard-response","277","2.1.0","681104","F=YES, J=NO","878a0hebmn","0","83","75","90","","","","","","","","","","","","","","","",""
"null","audio/dome.wav","null","audio-keyboard-response","278","2.1.0","681573","F=YES, J=NO","878a0hebmn","0","83","75","90","","","","","","","","","","","","","","","",""
"720","
          <p id=""word"" style=""font-size: 40px;"">scrupliness</p>
          <p style=""font-size: 16px;"">F = YES &nbsp;&nbsp;&nbsp; J = NO</p>
        ","j","html-keyboard-response","279","2.1.0","682294","F=YES, J=NO","878a0hebmn","0","83","75","90","","","","","","","","","scrupliness","dome","pseudoword","pseudoword","j","true","",""
"null","<p style=""font-size: 50px;"">+</p>","null","html-keyboard-response","280","2.1.0","682608","F=YES, J=NO","878a0hebmn","0","83","75","90","","","","","","","","","","","","","","","",""
"null","audio/beep-329314.mp3","null","audio-keyboard-response","281","2.1.0","684143","F=YES, J=NO","878a0hebmn","0","83","75","90","","","","","","","","","","","","","","","",""
"null","audio/farm1.wav","null","audio-keyboard-response","282","2.1.0","684913","F=YES, J=NO","878a0hebmn","0","83","75","90","","","","","","","","","","","","","","","",""
"516","
          <p id=""word"" style=""font-size: 40px;"">catch</p>
          <p style=""font-size: 16px;"">F = YES &nbsp;&nbsp;&nbsp; J = NO</p>
        ","f","html-keyboard-response","283","2.1.0","685431","F=YES, J=NO","878a0hebmn","0","83","75","90","","","","","","","","","catch","farm1","unrelated","experimental","f","true","",""
"null","<p style=""font-size: 50px;"">+</p>","null","html-keyboard-response","284","2.1.0","685748","F=YES, J=NO","878a0hebmn","0","83","75","90","","","","","","","","","","","","","","","",""
"null","audio/beep-329314.mp3","null","audio-keyboard-response","285","2.1.0","687284","F=YES, J=NO","878a0hebmn","0","83","75","90","","","","","","","","","","","","","","","",""
"null","audio/trust.wav","null","audio-keyboard-response","286","2.1.0","688113","F=YES, J=NO","878a0hebmn","0","83","75","90","","","","","","","","","","","","","","","",""
"751","
          <p id=""word"" style=""font-size: 40px;"">swint</p>
          <p style=""font-size: 16px;"">F = YES &nbsp;&nbsp;&nbsp; J = NO</p>
        ","j","html-keyboard-response","287","2.1.0","688866","F=YES, J=NO","878a0hebmn","0","83","75","90","","","","","","","","","swint","trust","pseudoword","pseudoword","j","true","",""
"null","<p style=""font-size: 50px;"">+</p>","null","html-keyboard-response","288","2.1.0","689168","F=YES, J=NO","878a0hebmn","0","83","75","90","","","","","","","","","","","","","","","",""
"null","audio/beep-329314.mp3","null","audio-keyboard-response","289","2.1.0","690703","F=YES, J=NO","878a0hebmn","0","83","75","90","","","","","","","","","","","","","","","",""
"null","audio/battle1.wav","null","audio-keyboard-response","290","2.1.0","691354","F=YES, J=NO","878a0hebmn","0","83","75","90","","","","","","","","","","","","","","","",""
"559","
          <p id=""word"" style=""font-size: 40px;"">boil</p>
          <p style=""font-size: 16px;"">F = YES &nbsp;&nbsp;&nbsp; J = NO</p>
        ","f","html-keyboard-response","291","2.1.0","691914","F=YES, J=NO","878a0hebmn","0","83","75","90","","","","","","","","","boil","battle1","filler","filler","f","true","",""
"null","<p style=""font-size: 50px;"">+</p>","null","html-keyboard-response","292","2.1.0","692228","F=YES, J=NO","878a0hebmn","0","83","75","90","","","","","","","","","","","","","","","",""
"null","audio/beep-329314.mp3","null","audio-keyboard-response","293","2.1.0","693763","F=YES, J=NO","878a0hebmn","0","83","75","90","","","","","","","","","","","","","","","",""
"null","audio/uncle1.wav","null","audio-keyboard-response","294","2.1.0","694333","F=YES, J=NO","878a0hebmn","0","83","75","90","","","","","","","","","","","","","","","",""
"738","
          <p id=""word"" style=""font-size: 40px;"">dramble</p>
          <p style=""font-size: 16px;"">F = YES &nbsp;&nbsp;&nbsp; J = NO</p>
        ","j","html-keyboard-response","295","2.1.0","695073","F=YES, J=NO","878a0hebmn","0","83","75","90","","","","","","","","","dramble","uncle1","pseudoword","pseudoword","j","true","",""
"11066","<p>Excellent! You have finished block 2 of 8.</p>
                     <p>Feel free to take a 30 second break.</p>
                     <p>Press any key when you're ready to continue.</p>"," ","html-keyboard-response","296","2.1.0","706140","F=YES, J=NO","878a0hebmn","0","83","75","90","","","","","","","","","","","","","","","",""
"2836","<p>Starting main block 3 of 8. Press any key to continue.</p>","f","html-keyboard-response","297","2.1.0","708978","F=YES, J=NO","878a0hebmn","0","83","75","90","","","","","","","","","","","","","","","",""
"null","<p style=""font-size: 50px;"">+</p>","null","html-keyboard-response","298","2.1.0","709291","F=YES, J=NO","878a0hebmn","0","83","75","90","","","","","","","","","","","","","","","",""
"null","audio/beep-329314.mp3","null","audio-keyboard-response","299","2.1.0","710839","F=YES, J=NO","878a0hebmn","0","83","75","90","","","","","","","","","","","","","","","",""
"null","audio/foot1.wav","null","audio-keyboard-response","300","2.1.0","711539","F=YES, J=NO","878a0hebmn","0","83","75","90","","","","","","","","","","","","","","","",""
"719","
          <p id=""word"" style=""font-size: 40px;"">thrutt</p>
          <p style=""font-size: 16px;"">F = YES &nbsp;&nbsp;&nbsp; J = NO</p>
        ","j","html-keyboard-response","301","2.1.0","712260","F=YES, J=NO","878a0hebmn","0","83","75","90","","","","","","","","","thrutt","foot1","pseudoword","pseudoword","j","true","",""
"null","<p style=""font-size: 50px;"">+</p>","null","html-keyboard-response","302","2.1.0","712574","F=YES, J=NO","878a0hebmn","0","83","75","90","","","","","","","","","","","","","","","",""
"null","audio/beep-329314.mp3","null","audio-keyboard-response","303","2.1.0","714099","F=YES, J=NO","878a0hebmn","0","83","75","90","","","","","","","","","","","","","","","",""
"null","audio/breath.wav","null","audio-keyboard-response","304","2.1.0","714660","F=YES, J=NO","878a0hebmn","0","83","75","90","","","","","","","","","","","","","","","",""
"507","
          <p id=""word"" style=""font-size: 40px;"">construct</p>
          <p style=""font-size: 16px;"">F = YES &nbsp;&nbsp;&nbsp; J = NO</p>
        ","f","html-keyboard-response","305","2.1.0","715169","F=YES, J=NO","878a0hebmn","0","83","75","90","","","","","","","","","construct","breath","unrelated","experimental","f","true","",""
"null","<p style=""font-size: 50px;"">+</p>","null","html-keyboard-response","306","2.1.0","715483","F=YES, J=NO","878a0hebmn","0","83","75","90","","","","","","","","","","","","","","","",""
"null","audio/beep-329314.mp3","null","audio-keyboard-response","307","2.1.0","717019","F=YES, J=NO","878a0hebmn","0","83","75","90","","","","","","","","","","","","","","","",""
"null","audio/truth1.wav","null","audio-keyboard-response","308","2.1.0","717659","F=YES, J=NO","878a0hebmn","0","83","75","90","","","","","","","","","","","","","","","",""
"641","
          <p id=""word"" style=""font-size: 40px;"">calitom</p>
          <p style=""font-size: 16px;"">F = YES &nbsp;&nbsp;&nbsp; J = NO</p>
        ","j","html-keyboard-response","309","2.1.0","718301","F=YES, J=NO","878a0hebmn","0","83","75","90","","","","","","","","","calitom","truth1","pseudoword","pseudoword","j","true","",""
"null","<p style=""font-size: 50px;"">+</p>","null","html-keyboard-response","310","2.1.0","718611","F=YES, J=NO","878a0hebmn","0","83","75","90","","","","","","","","","","","","","","","",""
"null","audio/beep-329314.mp3","null","audio-keyboard-response","311","2.1.0","720139","F=YES, J=NO","878a0hebmn","0","83","75","90","","","","","","","","","","","","","","","",""
"null","audio/price.wav","null","audio-keyboard-response","312","2.1.0","720998","F=YES, J=NO","878a0hebmn","0","83","75","90","","","","","","","","","","","","","","","",""
"502","
          <p id=""word"" style=""font-size: 40px;"">drop</p>
          <p style=""font-size: 16px;"">F = YES &nbsp;&nbsp;&nbsp; J = NO</p>
        ","f","html-keyboard-response","313","2.1.0","721501","F=YES, J=NO","878a0hebmn","0","83","75","90","","","","","","","","","drop","price","metaphor","experimental","f","true","",""
"null","<p style=""font-size: 50px;"">+</p>","null","html-keyboard-response","314","2.1.0","721804","F=YES, J=NO","878a0hebmn","0","83","75","90","","","","","","","","","","","","","","","",""
"null","audio/beep-329314.mp3","null","audio-keyboard-response","315","2.1.0","723339","F=YES, J=NO","878a0hebmn","0","83","75","90","","","","","","","","","","","","","","","",""
"null","audio/tax1.wav","null","audio-keyboard-response","316","2.1.0","723958","F=YES, J=NO","878a0hebmn","0","83","75","90","","","","","","","","","","","","","","","",""
"745","
          <p id=""word"" style=""font-size: 40px;"">snate</p>
          <p style=""font-size: 16px;"">F = YES &nbsp;&nbsp;&nbsp; J = NO</p>
        ","j","html-keyboard-response","317","2.1.0","724705","F=YES, J=NO","878a0hebmn","0","83","75","90","","","","","","","","","snate","tax1","pseudoword","pseudoword","j","true","",""
"null","<p style=""font-size: 50px;"">+</p>","null","html-keyboard-response","318","2.1.0","725020","F=YES, J=NO","878a0hebmn","0","83","75","90","","","","","","","","","","","","","","","",""
"null","audio/beep-329314.mp3","null","audio-keyboard-response","319","2.1.0","726559","F=YES, J=NO","878a0hebmn","0","83","75","90","","","","","","","","","","","","","","","",""
"null","audio/table1.wav","null","audio-keyboard-response","320","2.1.0","727118","F=YES, J=NO","878a0hebmn","0","83","75","90","","","","","","","","","","","","","","","",""
"595","
          <p id=""word"" style=""font-size: 40px;"">clear</p>
          <p style=""font-size: 16px;"">F = YES &nbsp;&nbsp;&nbsp; J = NO</p>
        ","f","html-keyboard-response","321","2.1.0","727714","F=YES, J=NO","878a0hebmn","0","83","75","90","","","","","","","","","clear","table1","literal","experimental","f","true","",""
"null","<p style=""font-size: 50px;"">+</p>","null","html-keyboard-response","322","2.1.0","728018","F=YES, J=NO","878a0hebmn","0","83","75","90","","","","","","","","","","","","","","","",""
"null","audio/beep-329314.mp3","null","audio-keyboard-response","323","2.1.0","729557","F=YES, J=NO","878a0hebmn","0","83","75","90","","","","","","","","","","","","","","","",""
"null","audio/novel.wav","null","audio-keyboard-response","324","2.1.0","730058","F=YES, J=NO","878a0hebmn","0","83","75","90","","","","","","","","","","","","","","","",""
"864","
          <p id=""word"" style=""font-size: 40px;"">devour</p>
          <p style=""font-size: 16px;"">F = YES &nbsp;&nbsp;&nbsp; J = NO</p>
        ","f","html-keyboard-response","325","2.1.0","730923","F=YES, J=NO","878a0hebmn","0","83","75","90","","","","","","","","","devour","novel","metaphor","experimental","f","true","",""
"null","<p style=""font-size: 50px;"">+</p>","null","html-keyboard-response","326","2.1.0","731230","F=YES, J=NO","878a0hebmn","0","83","75","90","","","","","","","","","","","","","","","",""
"null","audio/beep-329314.mp3","null","audio-keyboard-response","327","2.1.0","732758","F=YES, J=NO","878a0hebmn","0","83","75","90","","","","","","","","","","","","","","","",""
"null","audio/floor.wav","null","audio-keyboard-response","328","2.1.0","733518","F=YES, J=NO","878a0hebmn","0","83","75","90","","","","","","","","","","","","","","","",""
"784","
          <p id=""word"" style=""font-size: 40px;"">mop</p>
          <p style=""font-size: 16px;"">F = YES &nbsp;&nbsp;&nbsp; J = NO</p>
        ","f","html-keyboard-response","329","2.1.0","734303","F=YES, J=NO","878a0hebmn","0","83","75","90","","","","","","","","","mop","floor","filler","filler","f","true","",""
"null","<p style=""font-size: 50px;"">+</p>","null","html-keyboard-response","330","2.1.0","734614","F=YES, J=NO","878a0hebmn","0","83","75","90","","","","","","","","","","","","","","","",""
"null","audio/beep-329314.mp3","null","audio-keyboard-response","331","2.1.0","736138","F=YES, J=NO","878a0hebmn","0","83","75","90","","","","","","","","","","","","","","","",""
"null","audio/mouth1.wav","null","audio-keyboard-response","332","2.1.0","736778","F=YES, J=NO","878a0hebmn","0","83","75","90","","","","","","","","","","","","","","","",""
"673","
          <p id=""word"" style=""font-size: 40px;"">spolial</p>
          <p style=""font-size: 16px;"">F = YES &nbsp;&nbsp;&nbsp; J = NO</p>
        ","j","html-keyboard-response","333","2.1.0","737452","F=YES, J=NO","878a0hebmn","0","83","75","90","","","","","","","","","spolial","mouth1","pseudoword","pseudoword","j","true","",""
"null","<p style=""font-size: 50px;"">+</p>","null","html-keyboard-response","334","2.1.0","737768","F=YES, J=NO","878a0hebmn","0","83","75","90","","","","","","","","","","","","","","","",""
"null","audio/beep-329314.mp3","null","audio-keyboard-response","335","2.1.0","739299","F=YES, J=NO","878a0hebmn","0","83","75","90","","","","","","","","","","","","","","","",""
"null","audio/truth1.wav","null","audio-keyboard-response","336","2.1.0","739858","F=YES, J=NO","878a0hebmn","0","83","75","90","","","","","","","","","","","","","","","",""
"541","
          <p id=""word"" style=""font-size: 40px;"">expose</p>
          <p style=""font-size: 16px;"">F = YES &nbsp;&nbsp;&nbsp; J = NO</p>
        ","f","html-keyboard-response","337","2.1.0","740400","F=YES, J=NO","878a0hebmn","0","83","75","90","","","","","","","","","expose","truth1","metaphor","experimental","f","true","",""
"null","<p style=""font-size: 50px;"">+</p>","null","html-keyboard-response","338","2.1.0","740704","F=YES, J=NO","878a0hebmn","0","83","75","90","","","","","","","","","","","","","","","",""
"null","audio/beep-329314.mp3","null","audio-keyboard-response","339","2.1.0","742238","F=YES, J=NO","878a0hebmn","0","83","75","90","","","","","","","","","","","","","","","",""
"null","audio/pine.wav","null","audio-keyboard-response","340","2.1.0","742738","F=YES, J=NO","878a0hebmn","0","83","75","90","","","","","","","","","","","","","","","",""
"690","
          <p id=""word"" style=""font-size: 40px;"">crebble</p>
          <p style=""font-size: 16px;"">F = YES &nbsp;&nbsp;&nbsp; J = NO</p>
        ","j","html-keyboard-response","341","2.1.0","743429","F=YES, J=NO","878a0hebmn","0","83","75","90","","","","","","","","","crebble","pine","pseudoword","pseudoword","j","true","",""
"null","<p style=""font-size: 50px;"">+</p>","null","html-keyboard-response","342","2.1.0","743735","F=YES, J=NO","878a0hebmn","0","83","75","90","","","","","","","","","","","","","","","",""
"null","audio/beep-329314.mp3","null","audio-keyboard-response","343","2.1.0","745258","F=YES, J=NO","878a0hebmn","0","83","75","90","","","","","","","","","","","","","","","",""
"null","audio/ground.wav","null","audio-keyboard-response","344","2.1.0","746138","F=YES, J=NO","878a0hebmn","0","83","75","90","","","","","","","","","","","","","","","",""
"510","
          <p id=""word"" style=""font-size: 40px;"">touch</p>
          <p style=""font-size: 16px;"">F = YES &nbsp;&nbsp;&nbsp; J = NO</p>
        ","f","html-keyboard-response","345","2.1.0","746650","F=YES, J=NO","878a0hebmn","0","83","75","90","","","","","","","","","touch","ground","literal","experimental","f","true","",""
"null","<p style=""font-size: 50px;"">+</p>","null","html-keyboard-response","346","2.1.0","746955","F=YES, J=NO","878a0hebmn","0","83","75","90","","","","","","","","","","","","","","","",""
"null","audio/beep-329314.mp3","null","audio-keyboard-response","347","2.1.0","748479","F=YES, J=NO","878a0hebmn","0","83","75","90","","","","","","","","","","","","","","","",""
"null","audio/grass.wav","null","audio-keyboard-response","348","2.1.0","749238","F=YES, J=NO","878a0hebmn","0","83","75","90","","","","","","","","","","","","","","","",""
"655","
          <p id=""word"" style=""font-size: 40px;"">milames</p>
          <p style=""font-size: 16px;"">F = YES &nbsp;&nbsp;&nbsp; J = NO</p>
        ","j","html-keyboard-response","349","2.1.0","749894","F=YES, J=NO","878a0hebmn","0","83","75","90","","","","","","","","","milames","grass","pseudoword","pseudoword","j","true","",""
"null","<p style=""font-size: 50px;"">+</p>","null","html-keyboard-response","350","2.1.0","750210","F=YES, J=NO","878a0hebmn","0","83","75","90","","","","","","","","","","","","","","","",""
"null","audio/beep-329314.mp3","null","audio-keyboard-response","351","2.1.0","751739","F=YES, J=NO","878a0hebmn","0","83","75","90","","","","","","","","","","","","","","","",""
"null","audio/brain.wav","null","audio-keyboard-response","352","2.1.0","752319","F=YES, J=NO","878a0hebmn","0","83","75","90","","","","","","","","","","","","","","","",""
"678","
          <p id=""word"" style=""font-size: 40px;"">throw</p>
          <p style=""font-size: 16px;"">F = YES &nbsp;&nbsp;&nbsp; J = NO</p>
        ","f","html-keyboard-response","353","2.1.0","752998","F=YES, J=NO","878a0hebmn","0","83","75","90","","","","","","","","","throw","brain","filler","filler","f","true","",""
"null","<p style=""font-size: 50px;"">+</p>","null","html-keyboard-response","354","2.1.0","753308","F=YES, J=NO","878a0hebmn","0","83","75","90","","","","","","","","","","","","","","","",""
"null","audio/beep-329314.mp3","null","audio-keyboard-response","355","2.1.0","754839","F=YES, J=NO","878a0hebmn","0","83","75","90","","","","","","","","","","","","","","","",""
"null","audio/ankle1.wav","null","audio-keyboard-response","356","2.1.0","755379","F=YES, J=NO","878a0hebmn","0","83","75","90","","","","","","","","","","","","","","","",""
"507","
          <p id=""word"" style=""font-size: 40px;"">hurt</p>
          <p style=""font-size: 16px;"">F = YES &nbsp;&nbsp;&nbsp; J = NO</p>
        ","f","html-keyboard-response","357","2.1.0","755887","F=YES, J=NO","878a0hebmn","0","83","75","90","","","","","","","","","hurt","ankle1","literal","experimental","f","true","",""
"null","<p style=""font-size: 50px;"">+</p>","null","html-keyboard-response","358","2.1.0","756191","F=YES, J=NO","878a0hebmn","0","83","75","90","","","","","","","","","","","","","","","",""
"null","audio/beep-329314.mp3","null","audio-keyboard-response","359","2.1.0","757719","F=YES, J=NO","878a0hebmn","0","83","75","90","","","","","","","","","","","","","","","",""
"null","audio/beach1.wav","null","audio-keyboard-response","360","2.1.0","758319","F=YES, J=NO","878a0hebmn","0","83","75","90","","","","","","","","","","","","","","","",""
"557","
          <p id=""word"" style=""font-size: 40px;"">cut</p>
          <p style=""font-size: 16px;"">F = YES &nbsp;&nbsp;&nbsp; J = NO</p>
        ","f","html-keyboard-response","361","2.1.0","758877","F=YES, J=NO","878a0hebmn","0","83","75","90","","","","","","","","","cut","beach1","unrelated","experimental","f","true","",""
"2412","<p>Excellent! You have finished block 3 of 8.</p>
                     <p>Feel free to take a 30 second break.</p>
                     <p>Press any key when you're ready to continue.</p>"," ","html-keyboard-response","362","2.1.0","761290","F=YES, J=NO","878a0hebmn","0","83","75","90","","","","","","","","","","","","","","","",""
"1616","<p>Starting main block 4 of 8. Press any key to continue.</p>","f","html-keyboard-response","363","2.1.0","762907","F=YES, J=NO","878a0hebmn","0","83","75","90","","","","","","","","","","","","","","","",""
"null","<p style=""font-size: 50px;"">+</p>","null","html-keyboard-response","364","2.1.0","763223","F=YES, J=NO","878a0hebmn","0","83","75","90","","","","","","","","","","","","","","","",""
"null","audio/beep-329314.mp3","null","audio-keyboard-response","365","2.1.0","764759","F=YES, J=NO","878a0hebmn","0","83","75","90","","","","","","","","","","","","","","","",""
"null","audio/corpse1.wav","null","audio-keyboard-response","366","2.1.0","765539","F=YES, J=NO","878a0hebmn","0","83","75","90","","","","","","","","","","","","","","","",""
"688","
          <p id=""word"" style=""font-size: 40px;"">bury</p>
          <p style=""font-size: 16px;"">F = YES &nbsp;&nbsp;&nbsp; J = NO</p>
        ","f","html-keyboard-response","367","2.1.0","766229","F=YES, J=NO","878a0hebmn","0","83","75","90","","","","","","","","","bury","corpse1","literal","experimental","f","true","",""
"null","<p style=""font-size: 50px;"">+</p>","null","html-keyboard-response","368","2.1.0","766547","F=YES, J=NO","878a0hebmn","0","83","75","90","","","","","","","","","","","","","","","",""
"null","audio/beep-329314.mp3","null","audio-keyboard-response","369","2.1.0","768080","F=YES, J=NO","878a0hebmn","0","83","75","90","","","","","","","","","","","","","","","",""
"null","audio/storm1.wav","null","audio-keyboard-response","370","2.1.0","768898","F=YES, J=NO","878a0hebmn","0","83","75","90","","","","","","","","","","","","","","","",""
"529","
          <p id=""word"" style=""font-size: 40px;"">climb</p>
          <p style=""font-size: 16px;"">F = YES &nbsp;&nbsp;&nbsp; J = NO</p>
        ","f","html-keyboard-response","371","2.1.0","769429","F=YES, J=NO","878a0hebmn","0","83","75","90","","","","","","","","","climb","storm1","unrelated","experimental","f","true","",""
"null","<p style=""font-size: 50px;"">+</p>","null","html-keyboard-response","372","2.1.0","769734","F=YES, J=NO","878a0hebmn","0","83","75","90","","","","","","","","","","","","","","","",""
"null","audio/beep-329314.mp3","null","audio-keyboard-response","373","2.1.0","771258","F=YES, J=NO","878a0hebmn","0","83","75","90","","","","","","","","","","","","","","","",""
"null","audio/cinema1.wav","null","audio-keyboard-response","374","2.1.0","771958","F=YES, J=NO","878a0hebmn","0","83","75","90","","","","","","","","","","","","","","","",""
"566","
          <p id=""word"" style=""font-size: 40px;"">grow</p>
          <p style=""font-size: 16px;"">F = YES &nbsp;&nbsp;&nbsp; J = NO</p>
        ","f","html-keyboard-response","375","2.1.0","772526","F=YES, J=NO","878a0hebmn","0","83","75","90","","","","","","","","","grow","cinema1","unrelated","experimental","f","true","",""
"null","<p style=""font-size: 50px;"">+</p>","null","html-keyboard-response","376","2.1.0","772838","F=YES, J=NO","878a0hebmn","0","83","75","90","","","","","","","","","","","","","","","",""
"null","audio/beep-329314.mp3","null","audio-keyboard-response","377","2.1.0","774380","F=YES, J=NO","878a0hebmn","0","83","75","90","","","","","","","","","","","","","","","",""
"null","audio/meal.wav","null","audio-keyboard-response","378","2.1.0","774919","F=YES, J=NO","878a0hebmn","0","83","75","90","","","","","","","","","","","","","","","",""
"509","
          <p id=""word"" style=""font-size: 40px;"">share</p>
          <p style=""font-size: 16px;"">F = YES &nbsp;&nbsp;&nbsp; J = NO</p>
        ","f","html-keyboard-response","379","2.1.0","775429","F=YES, J=NO","878a0hebmn","0","83","75","90","","","","","","","","","share","meal","literal","experimental","f","true","",""
"null","<p style=""font-size: 50px;"">+</p>","null","html-keyboard-response","380","2.1.0","775735","F=YES, J=NO","878a0hebmn","0","83","75","90","","","","","","","","","","","","","","","",""
"null","audio/beep-329314.mp3","null","audio-keyboard-response","381","2.1.0","777258","F=YES, J=NO","878a0hebmn","0","83","75","90","","","","","","","","","","","","","","","",""
"null","audio/demon1.wav","null","audio-keyboard-response","382","2.1.0","777838","F=YES, J=NO","878a0hebmn","0","83","75","90","","","","","","","","","","","","","","","",""
"530","
          <p id=""word"" style=""font-size: 40px;"">wrestle</p>
          <p style=""font-size: 16px;"">F = YES &nbsp;&nbsp;&nbsp; J = NO</p>
        ","f","html-keyboard-response","383","2.1.0","778370","F=YES, J=NO","878a0hebmn","0","83","75","90","","","","","","","","","wrestle","demon1","metaphor","experimental","f","true","",""
"null","<p style=""font-size: 50px;"">+</p>","null","html-keyboard-response","384","2.1.0","778683","F=YES, J=NO","878a0hebmn","0","83","75","90","","","","","","","","","","","","","","","",""
"null","audio/beep-329314.mp3","null","audio-keyboard-response","385","2.1.0","780219","F=YES, J=NO","878a0hebmn","0","83","75","90","","","","","","","","","","","","","","","",""
"null","audio/mouth1.wav","null","audio-keyboard-response","386","2.1.0","780798","F=YES, J=NO","878a0hebmn","0","83","75","90","","","","","","","","","","","","","","","",""
"442","
          <p id=""word"" style=""font-size: 40px;"">close</p>
          <p style=""font-size: 16px;"">F = YES &nbsp;&nbsp;&nbsp; J = NO</p>
        ","f","html-keyboard-response","387","2.1.0","781242","F=YES, J=NO","878a0hebmn","0","83","75","90","","","","","","","","","close","mouth1","literal","experimental","f","true","",""
"null","<p style=""font-size: 50px;"">+</p>","null","html-keyboard-response","388","2.1.0","781556","F=YES, J=NO","878a0hebmn","0","83","75","90","","","","","","","","","","","","","","","",""
"null","audio/beep-329314.mp3","null","audio-keyboard-response","389","2.1.0","783099","F=YES, J=NO","878a0hebmn","0","83","75","90","","","","","","","","","","","","","","","",""
"null","audio/soul.wav","null","audio-keyboard-response","390","2.1.0","783899","F=YES, J=NO","878a0hebmn","0","83","75","90","","","","","","","","","","","","","","","",""
"494","
          <p id=""word"" style=""font-size: 40px;"">sell</p>
          <p style=""font-size: 16px;"">F = YES &nbsp;&nbsp;&nbsp; J = NO</p>
        ","f","html-keyboard-response","391","2.1.0","784395","F=YES, J=NO","878a0hebmn","0","83","75","90","","","","","","","","","sell","soul","metaphor","experimental","f","true","",""
