"rt","stimulus","response","trial_type","trial_index","plugin_version","time_elapsed","response_mapping","subject_id","list_index","lextale_score","lextale_word_score","lextale_nonword_score","success","timeout","failed_images","failed_audio","failed_video","task","isWord","isDummy","target","prime","prime_type","stimulus_type","correct_response","correct","section","question_order"
"3680","
    <div style=""max-width: 800px; margin: auto; text-align: left;"">
      <h2>STANFORD UNIVERSITY</h2>
      <h3>Research Information Sheet</h3>
      <p><strong>Protocol Director:</strong> Robert Hawkins<br>
      <strong>Protocol Title:</strong> Communication and social cognition in natural audiovisual contexts<br>
      <strong>IRB#:</strong> 77226</p>

      <p><strong>DESCRIPTION:</strong> You are invited to participate in a research study about language and communication. The purpose of the research is to understand how you interact and communicate with other people in naturalistic settings as a fluent English speaker. This research will be conducted through the Prolific platform, including participants from the US, UK, and Canada. If you decide to participate in this research, you will play a communication game in a group with one or more partners.</p>

      <p><strong>TIME INVOLVEMENT:</strong> The task will last the amount of time advertised on Prolific. You are free to withdraw from the study at any time.</p>

      <p><strong>RISKS AND BENEFITS:</strong> You may become frustrated if your partner gets distracted, or experience discomfort if other participants in your group send text that is inappropriate for the task. We ask you to please be respectful of other participants you might be interacting with to mitigate these risks. You may also experience discomfort when being asked to discuss or challenge emotionally salient political beliefs. Study data will be stored securely, in compliance with Stanford University standards, minimizing the risk of confidentiality breach. This study advances our scientific understanding of how people communicate and collaborate in naturalistic settings. This study may lead to further insights about what can go wrong in teamwork, suggest potential interventions to overcome these barriers, and help to develop assistive technologies that collaborate with human partners. We cannot and do not guarantee or promise that you will receive any benefits from this study.</p>

      <p><strong>PAYMENTS:</strong> You will receive payment in the amount advertised on Prolific. If you do not complete this study, you will receive prorated payment based on the time that you have spent. Additionally, you may be eligible for bonus payments as described in the instructions.</p>

      <p><strong>PARTICIPANT’S RIGHTS:</strong> If you have read this form and have decided to participate in this project, please understand your participation is voluntary and you have the right to withdraw your consent or discontinue participation at any time without penalty or loss of benefits to which you are otherwise entitled. The alternative is not to participate. You have the right to refuse to answer particular questions. The results of this research study may be presented at scientific or professional meetings or published in scientific journals. Your individual privacy will be maintained in all published and written data resulting from the study. In accordance with scientific norms, the data from this study may be used or shared with other researchers for future research (after removing personally identifying information) without additional consent from you.</p>

      <p><strong>CONTACT INFORMATION:</strong><br>
      Questions: If you have any questions, concerns or complaints about this research, its procedures, risks and benefits, contact the Protocol Director, Robert Hawkins (<a href=""mailto:rdhawkins@stanford.edu"">rdhawkins@stanford.edu</a>, 217-549-6923).<br>
      Independent Contact: If you are not satisfied with how this study is being conducted, or if you have any concerns, complaints, or general questions about the research or your rights as a participant, please contact the Stanford Institutional Review Board (IRB) to speak to someone independent of the research team at 650-723-2480 or toll free at 1-866-680-2906, or email at <a href=""mailto:irbnon-med@stanford.edu"">irbnon-med@stanford.edu</a>. You can also write to the Stanford IRB, Stanford University, 1705 El Camino Real, Palo Alto, CA 94306.</p>

      <p><strong>Please save or print a copy of this page for your records.</strong></p>
      <p>If you agree to participate in this research, click ""Continue"" below.</p>
    </div>
  ","0","html-button-response","0","2.1.0","3687","J=YES, F=NO","8g7qjb0kkn","1","78","85","70","","","","","","","","","","","","","","","",""
"11000","
    <div style=""max-width: 800px; margin: auto; text-align: left;"">
      <h2>Welcome!</h2>
      <p>Thank you for participating in this study. The experiment consists of three parts:</p>
      <ol>
        <li>An English vocabulary test</li>
        <li>A main task in which you will hear and see words, and decide whether the written word is a real English word</li>
        <li>A brief survey about your background</li>
      </ol>
      <p>Each part will be introduced before it begins.</p>
      <p>Please make sure you are in a quiet environment and can hear audio clearly for the final task.</p>
      <p style=""margin-top: 2em;"">Press any key to begin.</p>
    </div>
  ","Enter","html-keyboard-response","1","2.1.0","14688","J=YES, F=NO","8g7qjb0kkn","1","78","85","70","","","","","","","","","","","","","","","",""
"","","","preload","2","2.1.0","15616","J=YES, F=NO","8g7qjb0kkn","1","78","85","70","true","false","[]","[]","[]","","","","","","","","","","",""
"10684","
    <div style=""max-width: 800px; margin: auto; text-align: left;"">
      <h2>Part 1: Vocabulary Test</h2>
      <p>You will now complete the first part of the study: a short English vocabulary test.</p>
      <p>This test is called <strong>LexTALE</strong> and helps us get a general sense of your English proficiency.</p>
      <p style=""margin-top: 2em;"">Press any key to continue.</p>
    </div>
  "," ","html-keyboard-response","3","2.1.0","26301","J=YES, F=NO","8g7qjb0kkn","1","78","85","70","","","","","","","","","","","","","","","",""
"13886","
    <div style=""max-width: 800px; margin: auto; text-align: left;"">
      <h2>LexTALE Vocabulary Test</h2>
      <p>In this test, you will see a series of letter strings—one at a time.</p>
      <p>Your task is to decide whether each string is a real English word.</p>
      <p><strong>Key responses:</strong></p>
      <ul>
        <li><strong>J</strong> = YES (real English word)</li>
        <li><strong>F</strong> = NO (not a real English word)</li>
      </ul>
      <p>There is no time limit, but please try to be accurate.</p>
      <p style=""margin-top: 2em;"">Press any key to begin.</p>
    </div>
  "," ","html-keyboard-response","4","2.1.0","40188","J=YES, F=NO","8g7qjb0kkn","1","78","85","70","","","","","","","","","","","","","","","",""
"2392","
  <p style=""font-size: 40px;"">platery</p>
  <p style=""font-size: 16px;"">J = YES &nbsp;&nbsp;&nbsp; F = NO</p>
","f","html-keyboard-response","5","2.1.0","42581","J=YES, F=NO","8g7qjb0kkn","1","78","85","70","","","","","","lextale","false","true","","","","","","","",""
"1276","
  <p style=""font-size: 40px;"">denial</p>
  <p style=""font-size: 16px;"">J = YES &nbsp;&nbsp;&nbsp; F = NO</p>
","j","html-keyboard-response","6","2.1.0","43858","J=YES, F=NO","8g7qjb0kkn","1","78","85","70","","","","","","lextale","true","true","","","","","","","",""
"1399","
  <p style=""font-size: 40px;"">marrit</p>
  <p style=""font-size: 16px;"">J = YES &nbsp;&nbsp;&nbsp; F = NO</p>
","f","html-keyboard-response","7","2.1.0","45258","J=YES, F=NO","8g7qjb0kkn","1","78","85","70","","","","","","lextale","false","true","","","","","","","",""
"1027","
  <p style=""font-size: 40px;"">bottle</p>
  <p style=""font-size: 16px;"">J = YES &nbsp;&nbsp;&nbsp; F = NO</p>
","j","html-keyboard-response","8","2.1.0","46285","J=YES, F=NO","8g7qjb0kkn","1","78","85","70","","","","","","lextale","true","false","","","","","","","",""
"1553","
  <p style=""font-size: 40px;"">birst</p>
  <p style=""font-size: 16px;"">J = YES &nbsp;&nbsp;&nbsp; F = NO</p>
","f","html-keyboard-response","9","2.1.0","47839","J=YES, F=NO","8g7qjb0kkn","1","78","85","70","","","","","","lextale","false","false","","","","","","","",""
"934","
  <p style=""font-size: 40px;"">envy</p>
  <p style=""font-size: 16px;"">J = YES &nbsp;&nbsp;&nbsp; F = NO</p>
","j","html-keyboard-response","10","2.1.0","48774","J=YES, F=NO","8g7qjb0kkn","1","78","85","70","","","","","","lextale","true","false","","","","","","","",""
"1334","
  <p style=""font-size: 40px;"">brang</p>
  <p style=""font-size: 16px;"">J = YES &nbsp;&nbsp;&nbsp; F = NO</p>
","f","html-keyboard-response","11","2.1.0","50109","J=YES, F=NO","8g7qjb0kkn","1","78","85","70","","","","","","lextale","false","false","","","","","","","",""
"648","
  <p style=""font-size: 40px;"">huge</p>
  <p style=""font-size: 16px;"">J = YES &nbsp;&nbsp;&nbsp; F = NO</p>
","j","html-keyboard-response","12","2.1.0","50757","J=YES, F=NO","8g7qjb0kkn","1","78","85","70","","","","","","lextale","true","false","","","","","","","",""
"1040","
  <p style=""font-size: 40px;"">plove</p>
  <p style=""font-size: 16px;"">J = YES &nbsp;&nbsp;&nbsp; F = NO</p>
","f","html-keyboard-response","13","2.1.0","51798","J=YES, F=NO","8g7qjb0kkn","1","78","85","70","","","","","","lextale","false","false","","","","","","","",""
"541","
  <p style=""font-size: 40px;"">border</p>
  <p style=""font-size: 16px;"">J = YES &nbsp;&nbsp;&nbsp; F = NO</p>
","j","html-keyboard-response","14","2.1.0","52339","J=YES, F=NO","8g7qjb0kkn","1","78","85","70","","","","","","lextale","true","false","","","","","","","",""
"4336","
  <p style=""font-size: 40px;"">flimsy</p>
  <p style=""font-size: 16px;"">J = YES &nbsp;&nbsp;&nbsp; F = NO</p>
","j","html-keyboard-response","15","2.1.0","56676","J=YES, F=NO","8g7qjb0kkn","1","78","85","70","","","","","","lextale","true","false","","","","","","","",""
"742","
  <p style=""font-size: 40px;"">drain</p>
  <p style=""font-size: 16px;"">J = YES &nbsp;&nbsp;&nbsp; F = NO</p>
","j","html-keyboard-response","16","2.1.0","57419","J=YES, F=NO","8g7qjb0kkn","1","78","85","70","","","","","","lextale","true","false","","","","","","","",""
"543","
  <p style=""font-size: 40px;"">twindle</p>
  <p style=""font-size: 16px;"">J = YES &nbsp;&nbsp;&nbsp; F = NO</p>
","j","html-keyboard-response","17","2.1.0","57963","J=YES, F=NO","8g7qjb0kkn","1","78","85","70","","","","","","lextale","false","false","","","","","","","",""
"690","
  <p style=""font-size: 40px;"">propose</p>
  <p style=""font-size: 16px;"">J = YES &nbsp;&nbsp;&nbsp; F = NO</p>
","j","html-keyboard-response","18","2.1.0","58654","J=YES, F=NO","8g7qjb0kkn","1","78","85","70","","","","","","lextale","true","false","","","","","","","",""
"1020","
  <p style=""font-size: 40px;"">forlay</p>
  <p style=""font-size: 16px;"">J = YES &nbsp;&nbsp;&nbsp; F = NO</p>
","j","html-keyboard-response","19","2.1.0","59675","J=YES, F=NO","8g7qjb0kkn","1","78","85","70","","","","","","lextale","false","false","","","","","","","",""
"768","
  <p style=""font-size: 40px;"">tenant</p>
  <p style=""font-size: 16px;"">J = YES &nbsp;&nbsp;&nbsp; F = NO</p>
","j","html-keyboard-response","20","2.1.0","60444","J=YES, F=NO","8g7qjb0kkn","1","78","85","70","","","","","","lextale","true","false","","","","","","","",""
"708","
  <p style=""font-size: 40px;"">strain</p>
  <p style=""font-size: 16px;"">J = YES &nbsp;&nbsp;&nbsp; F = NO</p>
","j","html-keyboard-response","21","2.1.0","61152","J=YES, F=NO","8g7qjb0kkn","1","78","85","70","","","","","","lextale","true","false","","","","","","","",""
"670","
  <p style=""font-size: 40px;"">holster</p>
  <p style=""font-size: 16px;"">J = YES &nbsp;&nbsp;&nbsp; F = NO</p>
","j","html-keyboard-response","22","2.1.0","61823","J=YES, F=NO","8g7qjb0kkn","1","78","85","70","","","","","","lextale","true","false","","","","","","","",""
"783","
  <p style=""font-size: 40px;"">hinder</p>
  <p style=""font-size: 16px;"">J = YES &nbsp;&nbsp;&nbsp; F = NO</p>
","j","html-keyboard-response","23","2.1.0","62606","J=YES, F=NO","8g7qjb0kkn","1","78","85","70","","","","","","lextale","true","false","","","","","","","",""
"1015","
  <p style=""font-size: 40px;"">swindle</p>
  <p style=""font-size: 16px;"">J = YES &nbsp;&nbsp;&nbsp; F = NO</p>
","j","html-keyboard-response","24","2.1.0","63621","J=YES, F=NO","8g7qjb0kkn","1","78","85","70","","","","","","lextale","true","false","","","","","","","",""
"1410","
  <p style=""font-size: 40px;"">nuder</p>
  <p style=""font-size: 16px;"">J = YES &nbsp;&nbsp;&nbsp; F = NO</p>
","f","html-keyboard-response","25","2.1.0","65032","J=YES, F=NO","8g7qjb0kkn","1","78","85","70","","","","","","lextale","false","false","","","","","","","",""
"1349","
  <p style=""font-size: 40px;"">pillow</p>
  <p style=""font-size: 16px;"">J = YES &nbsp;&nbsp;&nbsp; F = NO</p>
","j","html-keyboard-response","26","2.1.0","66382","J=YES, F=NO","8g7qjb0kkn","1","78","85","70","","","","","","lextale","true","false","","","","","","","",""
"4242","
  <p style=""font-size: 40px;"">shumble</p>
  <p style=""font-size: 16px;"">J = YES &nbsp;&nbsp;&nbsp; F = NO</p>
","f","html-keyboard-response","27","2.1.0","70624","J=YES, F=NO","8g7qjb0kkn","1","78","85","70","","","","","","lextale","false","false","","","","","","","",""
"1119","
  <p style=""font-size: 40px;"">thirst</p>
  <p style=""font-size: 16px;"">J = YES &nbsp;&nbsp;&nbsp; F = NO</p>
","j","html-keyboard-response","28","2.1.0","71743","J=YES, F=NO","8g7qjb0kkn","1","78","85","70","","","","","","lextale","true","false","","","","","","","",""
"1504","
  <p style=""font-size: 40px;"">unsail</p>
  <p style=""font-size: 16px;"">J = YES &nbsp;&nbsp;&nbsp; F = NO</p>
","f","html-keyboard-response","29","2.1.0","73247","J=YES, F=NO","8g7qjb0kkn","1","78","85","70","","","","","","lextale","false","false","","","","","","","",""
"835","
  <p style=""font-size: 40px;"">rifle</p>
  <p style=""font-size: 16px;"">J = YES &nbsp;&nbsp;&nbsp; F = NO</p>
","j","html-keyboard-response","30","2.1.0","74083","J=YES, F=NO","8g7qjb0kkn","1","78","85","70","","","","","","lextale","true","false","","","","","","","",""
"965","
  <p style=""font-size: 40px;"">mush</p>
  <p style=""font-size: 16px;"">J = YES &nbsp;&nbsp;&nbsp; F = NO</p>
","j","html-keyboard-response","31","2.1.0","75049","J=YES, F=NO","8g7qjb0kkn","1","78","85","70","","","","","","lextale","false","false","","","","","","","",""
"717","
  <p style=""font-size: 40px;"">drench</p>
  <p style=""font-size: 16px;"">J = YES &nbsp;&nbsp;&nbsp; F = NO</p>
","j","html-keyboard-response","32","2.1.0","75766","J=YES, F=NO","8g7qjb0kkn","1","78","85","70","","","","","","lextale","true","false","","","","","","","",""
"1009","
  <p style=""font-size: 40px;"">snirt</p>
  <p style=""font-size: 16px;"">J = YES &nbsp;&nbsp;&nbsp; F = NO</p>
","f","html-keyboard-response","33","2.1.0","76775","J=YES, F=NO","8g7qjb0kkn","1","78","85","70","","","","","","lextale","false","false","","","","","","","",""
"864","
  <p style=""font-size: 40px;"">bitter</p>
  <p style=""font-size: 16px;"">J = YES &nbsp;&nbsp;&nbsp; F = NO</p>
","j","html-keyboard-response","34","2.1.0","77639","J=YES, F=NO","8g7qjb0kkn","1","78","85","70","","","","","","lextale","true","false","","","","","","","",""
"1674","
  <p style=""font-size: 40px;"">pliff</p>
  <p style=""font-size: 16px;"">J = YES &nbsp;&nbsp;&nbsp; F = NO</p>
","f","html-keyboard-response","35","2.1.0","79314","J=YES, F=NO","8g7qjb0kkn","1","78","85","70","","","","","","lextale","false","false","","","","","","","",""
"1912","
  <p style=""font-size: 40px;"">tablet</p>
  <p style=""font-size: 16px;"">J = YES &nbsp;&nbsp;&nbsp; F = NO</p>
","j","html-keyboard-response","36","2.1.0","81226","J=YES, F=NO","8g7qjb0kkn","1","78","85","70","","","","","","lextale","true","false","","","","","","","",""
"659","
  <p style=""font-size: 40px;"">glimmer</p>
  <p style=""font-size: 16px;"">J = YES &nbsp;&nbsp;&nbsp; F = NO</p>
","j","html-keyboard-response","37","2.1.0","81886","J=YES, F=NO","8g7qjb0kkn","1","78","85","70","","","","","","lextale","true","false","","","","","","","",""
"1521","
  <p style=""font-size: 40px;"">slink</p>
  <p style=""font-size: 16px;"">J = YES &nbsp;&nbsp;&nbsp; F = NO</p>
","j","html-keyboard-response","38","2.1.0","83407","J=YES, F=NO","8g7qjb0kkn","1","78","85","70","","","","","","lextale","true","false","","","","","","","",""
"522","
  <p style=""font-size: 40px;"">clever</p>
  <p style=""font-size: 16px;"">J = YES &nbsp;&nbsp;&nbsp; F = NO</p>
","j","html-keyboard-response","39","2.1.0","83930","J=YES, F=NO","8g7qjb0kkn","1","78","85","70","","","","","","lextale","true","false","","","","","","","",""
"1664","
  <p style=""font-size: 40px;"">grum</p>
  <p style=""font-size: 16px;"">J = YES &nbsp;&nbsp;&nbsp; F = NO</p>
","f","html-keyboard-response","40","2.1.0","85595","J=YES, F=NO","8g7qjb0kkn","1","78","85","70","","","","","","lextale","false","false","","","","","","","",""
"669","
  <p style=""font-size: 40px;"">string</p>
  <p style=""font-size: 16px;"">J = YES &nbsp;&nbsp;&nbsp; F = NO</p>
","j","html-keyboard-response","41","2.1.0","86264","J=YES, F=NO","8g7qjb0kkn","1","78","85","70","","","","","","lextale","true","false","","","","","","","",""
"942","
  <p style=""font-size: 40px;"">plim</p>
  <p style=""font-size: 16px;"">J = YES &nbsp;&nbsp;&nbsp; F = NO</p>
","f","html-keyboard-response","42","2.1.0","87206","J=YES, F=NO","8g7qjb0kkn","1","78","85","70","","","","","","lextale","false","false","","","","","","","",""
"652","
  <p style=""font-size: 40px;"">cable</p>
  <p style=""font-size: 16px;"">J = YES &nbsp;&nbsp;&nbsp; F = NO</p>
","j","html-keyboard-response","43","2.1.0","87859","J=YES, F=NO","8g7qjb0kkn","1","78","85","70","","","","","","lextale","true","false","","","","","","","",""
"884","
  <p style=""font-size: 40px;"">shrivel</p>
  <p style=""font-size: 16px;"">J = YES &nbsp;&nbsp;&nbsp; F = NO</p>
","j","html-keyboard-response","44","2.1.0","88744","J=YES, F=NO","8g7qjb0kkn","1","78","85","70","","","","","","lextale","true","false","","","","","","","",""
"1507","
  <p style=""font-size: 40px;"">tarnish</p>
  <p style=""font-size: 16px;"">J = YES &nbsp;&nbsp;&nbsp; F = NO</p>
","j","html-keyboard-response","45","2.1.0","90252","J=YES, F=NO","8g7qjb0kkn","1","78","85","70","","","","","","lextale","true","false","","","","","","","",""
"1516","
  <p style=""font-size: 40px;"">blim</p>
  <p style=""font-size: 16px;"">J = YES &nbsp;&nbsp;&nbsp; F = NO</p>
","f","html-keyboard-response","46","2.1.0","91769","J=YES, F=NO","8g7qjb0kkn","1","78","85","70","","","","","","lextale","false","false","","","","","","","",""
"1142","
  <p style=""font-size: 40px;"">stifle</p>
  <p style=""font-size: 16px;"">J = YES &nbsp;&nbsp;&nbsp; F = NO</p>
","j","html-keyboard-response","47","2.1.0","92911","J=YES, F=NO","8g7qjb0kkn","1","78","85","70","","","","","","lextale","true","false","","","","","","","",""
"919","
  <p style=""font-size: 40px;"">bint</p>
  <p style=""font-size: 16px;"">J = YES &nbsp;&nbsp;&nbsp; F = NO</p>
","f","html-keyboard-response","48","2.1.0","93831","J=YES, F=NO","8g7qjb0kkn","1","78","85","70","","","","","","lextale","false","false","","","","","","","",""
"565","
  <p style=""font-size: 40px;"">purple</p>
  <p style=""font-size: 16px;"">J = YES &nbsp;&nbsp;&nbsp; F = NO</p>
","j","html-keyboard-response","49","2.1.0","94397","J=YES, F=NO","8g7qjb0kkn","1","78","85","70","","","","","","lextale","true","false","","","","","","","",""
"672","
  <p style=""font-size: 40px;"">wriggle</p>
  <p style=""font-size: 16px;"">J = YES &nbsp;&nbsp;&nbsp; F = NO</p>
","j","html-keyboard-response","50","2.1.0","95070","J=YES, F=NO","8g7qjb0kkn","1","78","85","70","","","","","","lextale","true","false","","","","","","","",""
"1087","
  <p style=""font-size: 40px;"">mangle</p>
  <p style=""font-size: 16px;"">J = YES &nbsp;&nbsp;&nbsp; F = NO</p>
","j","html-keyboard-response","51","2.1.0","96158","J=YES, F=NO","8g7qjb0kkn","1","78","85","70","","","","","","lextale","true","false","","","","","","","",""
"699","
  <p style=""font-size: 40px;"">shramp</p>
  <p style=""font-size: 16px;"">J = YES &nbsp;&nbsp;&nbsp; F = NO</p>
","j","html-keyboard-response","52","2.1.0","96858","J=YES, F=NO","8g7qjb0kkn","1","78","85","70","","","","","","lextale","false","false","","","","","","","",""
"1806","
  <p style=""font-size: 40px;"">flirt</p>
  <p style=""font-size: 16px;"">J = YES &nbsp;&nbsp;&nbsp; F = NO</p>
","j","html-keyboard-response","53","2.1.0","98664","J=YES, F=NO","8g7qjb0kkn","1","78","85","70","","","","","","lextale","true","false","","","","","","","",""
"1028","
  <p style=""font-size: 40px;"">frip</p>
  <p style=""font-size: 16px;"">J = YES &nbsp;&nbsp;&nbsp; F = NO</p>
","f","html-keyboard-response","54","2.1.0","99693","J=YES, F=NO","8g7qjb0kkn","1","78","85","70","","","","","","lextale","false","false","","","","","","","",""
"623","
  <p style=""font-size: 40px;"">tangle</p>
  <p style=""font-size: 16px;"">J = YES &nbsp;&nbsp;&nbsp; F = NO</p>
","j","html-keyboard-response","55","2.1.0","100317","J=YES, F=NO","8g7qjb0kkn","1","78","85","70","","","","","","lextale","true","false","","","","","","","",""
"742","
  <p style=""font-size: 40px;"">crumble</p>
  <p style=""font-size: 16px;"">J = YES &nbsp;&nbsp;&nbsp; F = NO</p>
","j","html-keyboard-response","56","2.1.0","101059","J=YES, F=NO","8g7qjb0kkn","1","78","85","70","","","","","","lextale","true","false","","","","","","","",""
"682","
  <p style=""font-size: 40px;"">wrinkle</p>
  <p style=""font-size: 16px;"">J = YES &nbsp;&nbsp;&nbsp; F = NO</p>
","j","html-keyboard-response","57","2.1.0","101743","J=YES, F=NO","8g7qjb0kkn","1","78","85","70","","","","","","lextale","true","false","","","","","","","",""
"920","
  <p style=""font-size: 40px;"">slumb</p>
  <p style=""font-size: 16px;"">J = YES &nbsp;&nbsp;&nbsp; F = NO</p>
","f","html-keyboard-response","58","2.1.0","102664","J=YES, F=NO","8g7qjb0kkn","1","78","85","70","","","","","","lextale","false","false","","","","","","","",""
"630","
  <p style=""font-size: 40px;"">jungle</p>
  <p style=""font-size: 16px;"">J = YES &nbsp;&nbsp;&nbsp; F = NO</p>
","j","html-keyboard-response","59","2.1.0","103294","J=YES, F=NO","8g7qjb0kkn","1","78","85","70","","","","","","lextale","true","false","","","","","","","",""
"2168","
  <p style=""font-size: 40px;"">frolick</p>
  <p style=""font-size: 16px;"">J = YES &nbsp;&nbsp;&nbsp; F = NO</p>
","j","html-keyboard-response","60","2.1.0","105462","J=YES, F=NO","8g7qjb0kkn","1","78","85","70","","","","","","lextale","false","false","","","","","","","",""
"2747","
      <h2>LexTALE Test Completed</h2>
      <p>Your LexTALE vocabulary score is: <strong>78%</strong></p>
      <p>Press any key to continue.</p>
    "," ","html-keyboard-response","61","2.1.0","108210","J=YES, F=NO","8g7qjb0kkn","1","78","85","70","","","","","","","","","","","","","","","",""
"2594","
    <div style=""max-width: 800px; margin: auto; text-align: left;"">
      <h2>Break Time</h2>
      <p>You have completed the first part of the study.</p>
      <p>You may take a short <strong>30-second break</strong> before continuing.</p>
      <p>When you’re ready, press any key to continue to the final task.</p>
    </div>
  "," ","html-keyboard-response","62","2.1.0","110805","J=YES, F=NO","8g7qjb0kkn","1","78","85","70","","","","","","","","","","","","","","","",""
"7963","
    <div style=""max-width: 800px; margin: auto; text-align: left;"">
      <h2>Part 2: Lexical Decision Task</h2>
      <p>You will now begin the second part of the study.</p>
      <p>Each trial will follow this sequence:</p>
      <ul>
        <li>A fixation cross (+) appears at the center of the screen.</li>
        <li>You will hear a short beep followed by a spoken word.</li>
        <li>A written word will appear briefly on the screen.</li>
      </ul>
      <p>Your task is to judge whether the <strong>written word</strong> is a real English word.</p>
      <p style=""margin-top: 1em;""><strong>Key responses:</strong></p>
      <ul>
        <li><strong>J</strong> = YES (real English word)</li>
        <li><strong>F</strong> = NO (not a real English word)</li>
      </ul>
      <p>Please respond as quickly and accurately as you can.</p>
      <p style=""margin-top: 2em;"">Press any key to continue.</p>
    </div>
  "," ","html-keyboard-response","63","2.1.0","118768","J=YES, F=NO","8g7qjb0kkn","1","78","85","70","","","","","","","","","","","","","","","",""
"5523","
    <div style=""max-width: 800px; margin: auto; text-align: left;"">
      <h2>Before You Begin</h2>
      <p>Make sure your sound is turned on.</p>
      <p>You will hear audio during each trial, but your decision should be based only on the <strong>written word</strong> you see on the screen.</p>
      <p><strong>Reminder:</strong></p>
      <ul>
        <li><strong>J</strong> = YES (real English word)</li>
        <li><strong>F</strong> = NO (not a real English word)</li>
      </ul>
      <p style=""margin-top: 2em;"">Press any key when you are ready to begin.</p>
    </div>
  "," ","html-keyboard-response","64","2.1.0","124292","J=YES, F=NO","8g7qjb0kkn","1","78","85","70","","","","","","","","","","","","","","","",""
"3547","
    <div style=""max-width: 800px; margin: auto; text-align: left;"">
      <h2>Part 2: Practice Trials</h2>
      <p>You will now complete a few <strong>practice trials</strong> to get familiar with the task.</p>
      <p>These trials are <strong>not scored</strong> and are only to help you get used to the format.</p>
      <p style=""margin-top: 2em;"">Press any key to begin.</p>
    </div>
  "," ","html-keyboard-response","65","2.1.0","127840","J=YES, F=NO","8g7qjb0kkn","1","78","85","70","","","","","","","","","","","","","","","",""
"1694","<p>Starting practice block 1 of 2. Press any key to continue.</p>"," ","html-keyboard-response","66","2.1.0","129534","J=YES, F=NO","8g7qjb0kkn","1","78","85","70","","","","","","","","","","","","","","","",""
"null","<p style=""font-size: 50px;"">+</p>","null","html-keyboard-response","67","2.1.0","129849","J=YES, F=NO","8g7qjb0kkn","1","78","85","70","","","","","","","","","","","","","","","",""
"null","audio/beep-329314.mp3","null","audio-keyboard-response","68","2.1.0","131376","J=YES, F=NO","8g7qjb0kkn","1","78","85","70","","","","","","","","","","","","","","","",""
"null","audio/bomb1.wav","null","audio-keyboard-response","69","2.1.0","131907","J=YES, F=NO","8g7qjb0kkn","1","78","85","70","","","","","","","","","","","","","","","",""
"null","
          <p id=""word"" style=""font-size: 40px;"">clean</p>
          <p style=""font-size: 16px;"">J = YES &nbsp;&nbsp;&nbsp; F = NO</p>
        ","null","html-keyboard-response","70","2.1.0","133408","J=YES, F=NO","8g7qjb0kkn","1","78","85","70","","","","","","","","","clean","bomb1","filler","filler","j","false","",""
"null","<p style=""font-size: 50px;"">+</p>","null","html-keyboard-response","71","2.1.0","133718","J=YES, F=NO","8g7qjb0kkn","1","78","85","70","","","","","","","","","","","","","","","",""
"null","audio/beep-329314.mp3","null","audio-keyboard-response","72","2.1.0","135256","J=YES, F=NO","8g7qjb0kkn","1","78","85","70","","","","","","","","","","","","","","","",""
"null","audio/purpose.wav","null","audio-keyboard-response","73","2.1.0","135987","J=YES, F=NO","8g7qjb0kkn","1","78","85","70","","","","","","","","","","","","","","","",""
"1137","
          <p id=""word"" style=""font-size: 40px;"">whigm</p>
          <p style=""font-size: 16px;"">J = YES &nbsp;&nbsp;&nbsp; F = NO</p>
        ","j","html-keyboard-response","74","2.1.0","137124","J=YES, F=NO","8g7qjb0kkn","1","78","85","70","","","","","","","","","whigm","purpose","pseudoword","pseudoword","f","false","",""
"null","<p style=""font-size: 50px;"">+</p>","null","html-keyboard-response","75","2.1.0","137430","J=YES, F=NO","8g7qjb0kkn","1","78","85","70","","","","","","","","","","","","","","","",""
"null","audio/beep-329314.mp3","null","audio-keyboard-response","76","2.1.0","138977","J=YES, F=NO","8g7qjb0kkn","1","78","85","70","","","","","","","","","","","","","","","",""
"null","audio/meal.wav","null","audio-keyboard-response","77","2.1.0","139467","J=YES, F=NO","8g7qjb0kkn","1","78","85","70","","","","","","","","","","","","","","","",""
"null","
          <p id=""word"" style=""font-size: 40px;"">gallite</p>
          <p style=""font-size: 16px;"">J = YES &nbsp;&nbsp;&nbsp; F = NO</p>
        ","null","html-keyboard-response","78","2.1.0","140969","J=YES, F=NO","8g7qjb0kkn","1","78","85","70","","","","","","","","","gallite","meal","pseudoword","pseudoword","f","false","",""
"null","<p style=""font-size: 50px;"">+</p>","null","html-keyboard-response","79","2.1.0","141279","J=YES, F=NO","8g7qjb0kkn","1","78","85","70","","","","","","","","","","","","","","","",""
"null","audio/beep-329314.mp3","null","audio-keyboard-response","80","2.1.0","142817","J=YES, F=NO","8g7qjb0kkn","1","78","85","70","","","","","","","","","","","","","","","",""
"null","audio/mouth1.wav","null","audio-keyboard-response","81","2.1.0","143406","J=YES, F=NO","8g7qjb0kkn","1","78","85","70","","","","","","","","","","","","","","","",""
"989","
          <p id=""word"" style=""font-size: 40px;"">spolial</p>
          <p style=""font-size: 16px;"">J = YES &nbsp;&nbsp;&nbsp; F = NO</p>
        ","f","html-keyboard-response","82","2.1.0","144395","J=YES, F=NO","8g7qjb0kkn","1","78","85","70","","","","","","","","","spolial","mouth1","pseudoword","pseudoword","f","true","",""
"null","<p style=""font-size: 50px;"">+</p>","null","html-keyboard-response","83","2.1.0","144703","J=YES, F=NO","8g7qjb0kkn","1","78","85","70","","","","","","","","","","","","","","","",""
"null","audio/beep-329314.mp3","null","audio-keyboard-response","84","2.1.0","146237","J=YES, F=NO","8g7qjb0kkn","1","78","85","70","","","","","","","","","","","","","","","",""
"null","audio/breath.wav","null","audio-keyboard-response","85","2.1.0","146806","J=YES, F=NO","8g7qjb0kkn","1","78","85","70","","","","","","","","","","","","","","","",""
"853","
          <p id=""word"" style=""font-size: 40px;"">pack</p>
          <p style=""font-size: 16px;"">J = YES &nbsp;&nbsp;&nbsp; F = NO</p>
        ","j","html-keyboard-response","86","2.1.0","147660","J=YES, F=NO","8g7qjb0kkn","1","78","85","70","","","","","","","","","pack","breath","filler","filler","j","true","",""
"null","<p style=""font-size: 50px;"">+</p>","null","html-keyboard-response","87","2.1.0","147975","J=YES, F=NO","8g7qjb0kkn","1","78","85","70","","","","","","","","","","","","","","","",""
"null","audio/beep-329314.mp3","null","audio-keyboard-response","88","2.1.0","149497","J=YES, F=NO","8g7qjb0kkn","1","78","85","70","","","","","","","","","","","","","","","",""
"null","audio/van1.wav","null","audio-keyboard-response","89","2.1.0","150027","J=YES, F=NO","8g7qjb0kkn","1","78","85","70","","","","","","","","","","","","","","","",""
"919","
          <p id=""word"" style=""font-size: 40px;"">push</p>
          <p style=""font-size: 16px;"">J = YES &nbsp;&nbsp;&nbsp; F = NO</p>
        ","j","html-keyboard-response","90","2.1.0","150946","J=YES, F=NO","8g7qjb0kkn","1","78","85","70","","","","","","","","","push","van1","filler","filler","j","true","",""
"null","<p style=""font-size: 50px;"">+</p>","null","html-keyboard-response","91","2.1.0","151251","J=YES, F=NO","8g7qjb0kkn","1","78","85","70","","","","","","","","","","","","","","","",""
"null","audio/beep-329314.mp3","null","audio-keyboard-response","92","2.1.0","152776","J=YES, F=NO","8g7qjb0kkn","1","78","85","70","","","","","","","","","","","","","","","",""
"null","audio/radio1.wav","null","audio-keyboard-response","93","2.1.0","153427","J=YES, F=NO","8g7qjb0kkn","1","78","85","70","","","","","","","","","","","","","","","",""
"867","
          <p id=""word"" style=""font-size: 40px;"">blanter</p>
          <p style=""font-size: 16px;"">J = YES &nbsp;&nbsp;&nbsp; F = NO</p>
        ","f","html-keyboard-response","94","2.1.0","154294","J=YES, F=NO","8g7qjb0kkn","1","78","85","70","","","","","","","","","blanter","radio1","pseudoword","pseudoword","f","true","",""
"null","<p style=""font-size: 50px;"">+</p>","null","html-keyboard-response","95","2.1.0","154607","J=YES, F=NO","8g7qjb0kkn","1","78","85","70","","","","","","","","","","","","","","","",""
"null","audio/beep-329314.mp3","null","audio-keyboard-response","96","2.1.0","156136","J=YES, F=NO","8g7qjb0kkn","1","78","85","70","","","","","","","","","","","","","","","",""
"null","audio/terrain.wav","null","audio-keyboard-response","97","2.1.0","156726","J=YES, F=NO","8g7qjb0kkn","1","78","85","70","","","","","","","","","","","","","","","",""
"1207","
          <p id=""word"" style=""font-size: 40px;"">twist</p>
          <p style=""font-size: 16px;"">J = YES &nbsp;&nbsp;&nbsp; F = NO</p>
        ","j","html-keyboard-response","98","2.1.0","157933","J=YES, F=NO","8g7qjb0kkn","1","78","85","70","","","","","","","","","twist","terrain","filler","filler","j","true","",""
"null","<p style=""font-size: 50px;"">+</p>","null","html-keyboard-response","99","2.1.0","158241","J=YES, F=NO","8g7qjb0kkn","1","78","85","70","","","","","","","","","","","","","","","",""
"null","audio/beep-329314.mp3","null","audio-keyboard-response","100","2.1.0","159777","J=YES, F=NO","8g7qjb0kkn","1","78","85","70","","","","","","","","","","","","","","","",""
"null","audio/birth1.wav","null","audio-keyboard-response","101","2.1.0","160327","J=YES, F=NO","8g7qjb0kkn","1","78","85","70","","","","","","","","","","","","","","","",""
"979","
          <p id=""word"" style=""font-size: 40px;"">peel</p>
          <p style=""font-size: 16px;"">J = YES &nbsp;&nbsp;&nbsp; F = NO</p>
        ","j","html-keyboard-response","102","2.1.0","161307","J=YES, F=NO","8g7qjb0kkn","1","78","85","70","","","","","","","","","peel","birth1","filler","filler","j","true","",""
"null","<p style=""font-size: 50px;"">+</p>","null","html-keyboard-response","103","2.1.0","161608","J=YES, F=NO","8g7qjb0kkn","1","78","85","70","","","","","","","","","","","","","","","",""
"null","audio/beep-329314.mp3","null","audio-keyboard-response","104","2.1.0","163137","J=YES, F=NO","8g7qjb0kkn","1","78","85","70","","","","","","","","","","","","","","","",""
"null","audio/mind.wav","null","audio-keyboard-response","105","2.1.0","163766","J=YES, F=NO","8g7qjb0kkn","1","78","85","70","","","","","","","","","","","","","","","",""
"803","
          <p id=""word"" style=""font-size: 40px;"">crainate</p>
          <p style=""font-size: 16px;"">J = YES &nbsp;&nbsp;&nbsp; F = NO</p>
        ","f","html-keyboard-response","106","2.1.0","164570","J=YES, F=NO","8g7qjb0kkn","1","78","85","70","","","","","","","","","crainate","mind","pseudoword","pseudoword","f","true","",""
"null","<p style=""font-size: 50px;"">+</p>","null","html-keyboard-response","107","2.1.0","164872","J=YES, F=NO","8g7qjb0kkn","1","78","85","70","","","","","","","","","","","","","","","",""
"null","audio/beep-329314.mp3","null","audio-keyboard-response","108","2.1.0","166396","J=YES, F=NO","8g7qjb0kkn","1","78","85","70","","","","","","","","","","","","","","","",""
"null","audio/menu.wav","null","audio-keyboard-response","109","2.1.0","167006","J=YES, F=NO","8g7qjb0kkn","1","78","85","70","","","","","","","","","","","","","","","",""
"743","
          <p id=""word"" style=""font-size: 40px;"">slice</p>
          <p style=""font-size: 16px;"">J = YES &nbsp;&nbsp;&nbsp; F = NO</p>
        ","j","html-keyboard-response","110","2.1.0","167750","J=YES, F=NO","8g7qjb0kkn","1","78","85","70","","","","","","","","","slice","menu","filler","filler","j","true","",""
"null","<p style=""font-size: 50px;"">+</p>","null","html-keyboard-response","111","2.1.0","168057","J=YES, F=NO","8g7qjb0kkn","1","78","85","70","","","","","","","","","","","","","","","",""
"null","audio/beep-329314.mp3","null","audio-keyboard-response","112","2.1.0","169596","J=YES, F=NO","8g7qjb0kkn","1","78","85","70","","","","","","","","","","","","","","","",""
"null","audio/life1.wav","null","audio-keyboard-response","113","2.1.0","170166","J=YES, F=NO","8g7qjb0kkn","1","78","85","70","","","","","","","","","","","","","","","",""
"1043","
          <p id=""word"" style=""font-size: 40px;"">flimch</p>
          <p style=""font-size: 16px;"">J = YES &nbsp;&nbsp;&nbsp; F = NO</p>
        ","f","html-keyboard-response","114","2.1.0","171210","J=YES, F=NO","8g7qjb0kkn","1","78","85","70","","","","","","","","","flimch","life1","pseudoword","pseudoword","f","true","",""
"1920","<p>Starting practice block 2 of 2. Press any key to continue.</p>"," ","html-keyboard-response","115","2.1.0","173130","J=YES, F=NO","8g7qjb0kkn","1","78","85","70","","","","","","","","","","","","","","","",""
"null","<p style=""font-size: 50px;"">+</p>","null","html-keyboard-response","116","2.1.0","173436","J=YES, F=NO","8g7qjb0kkn","1","78","85","70","","","","","","","","","","","","","","","",""
"null","audio/beep-329314.mp3","null","audio-keyboard-response","117","2.1.0","174976","J=YES, F=NO","8g7qjb0kkn","1","78","85","70","","","","","","","","","","","","","","","",""
"null","audio/foot1.wav","null","audio-keyboard-response","118","2.1.0","175566","J=YES, F=NO","8g7qjb0kkn","1","78","85","70","","","","","","","","","","","","","","","",""
"1172","
          <p id=""word"" style=""font-size: 40px;"">thrutt</p>
          <p style=""font-size: 16px;"">J = YES &nbsp;&nbsp;&nbsp; F = NO</p>
        ","f","html-keyboard-response","119","2.1.0","176739","J=YES, F=NO","8g7qjb0kkn","1","78","85","70","","","","","","","","","thrutt","foot1","pseudoword","pseudoword","f","true","",""
"null","<p style=""font-size: 50px;"">+</p>","null","html-keyboard-response","120","2.1.0","177042","J=YES, F=NO","8g7qjb0kkn","1","78","85","70","","","","","","","","","","","","","","","",""
"null","audio/beep-329314.mp3","null","audio-keyboard-response","121","2.1.0","178576","J=YES, F=NO","8g7qjb0kkn","1","78","85","70","","","","","","","","","","","","","","","",""
"null","audio/age1.wav","null","audio-keyboard-response","122","2.1.0","179146","J=YES, F=NO","8g7qjb0kkn","1","78","85","70","","","","","","","","","","","","","","","",""
"728","
          <p id=""word"" style=""font-size: 40px;"">bake</p>
          <p style=""font-size: 16px;"">J = YES &nbsp;&nbsp;&nbsp; F = NO</p>
        ","j","html-keyboard-response","123","2.1.0","179876","J=YES, F=NO","8g7qjb0kkn","1","78","85","70","","","","","","","","","bake","age1","filler","filler","j","true","",""
"null","<p style=""font-size: 50px;"">+</p>","null","html-keyboard-response","124","2.1.0","180188","J=YES, F=NO","8g7qjb0kkn","1","78","85","70","","","","","","","","","","","","","","","",""
"null","audio/beep-329314.mp3","null","audio-keyboard-response","125","2.1.0","181717","J=YES, F=NO","8g7qjb0kkn","1","78","85","70","","","","","","","","","","","","","","","",""
"null","audio/novel.wav","null","audio-keyboard-response","126","2.1.0","182246","J=YES, F=NO","8g7qjb0kkn","1","78","85","70","","","","","","","","","","","","","","","",""
"1154","
          <p id=""word"" style=""font-size: 40px;"">type</p>
          <p style=""font-size: 16px;"">J = YES &nbsp;&nbsp;&nbsp; F = NO</p>
        ","j","html-keyboard-response","127","2.1.0","183401","J=YES, F=NO","8g7qjb0kkn","1","78","85","70","","","","","","","","","type","novel","filler","filler","j","true","",""
"null","<p style=""font-size: 50px;"">+</p>","null","html-keyboard-response","128","2.1.0","183716","J=YES, F=NO","8g7qjb0kkn","1","78","85","70","","","","","","","","","","","","","","","",""
"null","audio/beep-329314.mp3","null","audio-keyboard-response","129","2.1.0","185276","J=YES, F=NO","8g7qjb0kkn","1","78","85","70","","","","","","","","","","","","","","","",""
"null","audio/tomato.wav","null","audio-keyboard-response","130","2.1.0","185966","J=YES, F=NO","8g7qjb0kkn","1","78","85","70","","","","","","","","","","","","","","","",""
"741","
          <p id=""word"" style=""font-size: 40px;"">gladies</p>
          <p style=""font-size: 16px;"">J = YES &nbsp;&nbsp;&nbsp; F = NO</p>
        ","f","html-keyboard-response","131","2.1.0","186708","J=YES, F=NO","8g7qjb0kkn","1","78","85","70","","","","","","","","","gladies","tomato","pseudoword","pseudoword","f","true","",""
"null","<p style=""font-size: 50px;"">+</p>","null","html-keyboard-response","132","2.1.0","187020","J=YES, F=NO","8g7qjb0kkn","1","78","85","70","","","","","","","","","","","","","","","",""
"null","audio/beep-329314.mp3","null","audio-keyboard-response","133","2.1.0","188557","J=YES, F=NO","8g7qjb0kkn","1","78","85","70","","","","","","","","","","","","","","","",""
"null","audio/test1.wav","null","audio-keyboard-response","134","2.1.0","189147","J=YES, F=NO","8g7qjb0kkn","1","78","85","70","","","","","","","","","","","","","","","",""
"685","
          <p id=""word"" style=""font-size: 40px;"">twopch</p>
          <p style=""font-size: 16px;"">J = YES &nbsp;&nbsp;&nbsp; F = NO</p>
        ","f","html-keyboard-response","135","2.1.0","189832","J=YES, F=NO","8g7qjb0kkn","1","78","85","70","","","","","","","","","twopch","test1","pseudoword","pseudoword","f","true","",""
"null","<p style=""font-size: 50px;"">+</p>","null","html-keyboard-response","136","2.1.0","190149","J=YES, F=NO","8g7qjb0kkn","1","78","85","70","","","","","","","","","","","","","","","",""
"null","audio/beep-329314.mp3","null","audio-keyboard-response","137","2.1.0","191676","J=YES, F=NO","8g7qjb0kkn","1","78","85","70","","","","","","","","","","","","","","","",""
"null","audio/bishop1.wav","null","audio-keyboard-response","138","2.1.0","192286","J=YES, F=NO","8g7qjb0kkn","1","78","85","70","","","","","","","","","","","","","","","",""
"613","
          <p id=""word"" style=""font-size: 40px;"">play</p>
          <p style=""font-size: 16px;"">J = YES &nbsp;&nbsp;&nbsp; F = NO</p>
        ","j","html-keyboard-response","139","2.1.0","192900","J=YES, F=NO","8g7qjb0kkn","1","78","85","70","","","","","","","","","play","bishop1","filler","filler","j","true","",""
"null","<p style=""font-size: 50px;"">+</p>","null","html-keyboard-response","140","2.1.0","193206","J=YES, F=NO","8g7qjb0kkn","1","78","85","70","","","","","","","","","","","","","","","",""
"null","audio/beep-329314.mp3","null","audio-keyboard-response","141","2.1.0","194737","J=YES, F=NO","8g7qjb0kkn","1","78","85","70","","","","","","","","","","","","","","","",""
"null","audio/corpse1.wav","null","audio-keyboard-response","142","2.1.0","195426","J=YES, F=NO","8g7qjb0kkn","1","78","85","70","","","","","","","","","","","","","","","",""
"708","
          <p id=""word"" style=""font-size: 40px;"">glonet</p>
          <p style=""font-size: 16px;"">J = YES &nbsp;&nbsp;&nbsp; F = NO</p>
        ","f","html-keyboard-response","143","2.1.0","196135","J=YES, F=NO","8g7qjb0kkn","1","78","85","70","","","","","","","","","glonet","corpse1","pseudoword","pseudoword","f","true","",""
"null","<p style=""font-size: 50px;"">+</p>","null","html-keyboard-response","144","2.1.0","196448","J=YES, F=NO","8g7qjb0kkn","1","78","85","70","","","","","","","","","","","","","","","",""
"null","audio/beep-329314.mp3","null","audio-keyboard-response","145","2.1.0","197976","J=YES, F=NO","8g7qjb0kkn","1","78","85","70","","","","","","","","","","","","","","","",""
"null","audio/beach1.wav","null","audio-keyboard-response","146","2.1.0","198726","J=YES, F=NO","8g7qjb0kkn","1","78","85","70","","","","","","","","","","","","","","","",""
"723","
          <p id=""word"" style=""font-size: 40px;"">drive</p>
          <p style=""font-size: 16px;"">J = YES &nbsp;&nbsp;&nbsp; F = NO</p>
        ","j","html-keyboard-response","147","2.1.0","199450","J=YES, F=NO","8g7qjb0kkn","1","78","85","70","","","","","","","","","drive","beach1","filler","filler","j","true","",""
"null","<p style=""font-size: 50px;"">+</p>","null","html-keyboard-response","148","2.1.0","199756","J=YES, F=NO","8g7qjb0kkn","1","78","85","70","","","","","","","","","","","","","","","",""
"null","audio/beep-329314.mp3","null","audio-keyboard-response","149","2.1.0","201316","J=YES, F=NO","8g7qjb0kkn","1","78","85","70","","","","","","","","","","","","","","","",""
"null","audio/empire.wav","null","audio-keyboard-response","150","2.1.0","202006","J=YES, F=NO","8g7qjb0kkn","1","78","85","70","","","","","","","","","","","","","","","",""
"736","
          <p id=""word"" style=""font-size: 40px;"">slorby</p>
          <p style=""font-size: 16px;"">J = YES &nbsp;&nbsp;&nbsp; F = NO</p>
        ","f","html-keyboard-response","151","2.1.0","202742","J=YES, F=NO","8g7qjb0kkn","1","78","85","70","","","","","","","","","slorby","empire","pseudoword","pseudoword","f","true","",""
"null","<p style=""font-size: 50px;"">+</p>","null","html-keyboard-response","152","2.1.0","203049","J=YES, F=NO","8g7qjb0kkn","1","78","85","70","","","","","","","","","","","","","","","",""
"null","audio/beep-329314.mp3","null","audio-keyboard-response","153","2.1.0","204577","J=YES, F=NO","8g7qjb0kkn","1","78","85","70","","","","","","","","","","","","","","","",""
"null","audio/floor.wav","null","audio-keyboard-response","154","2.1.0","205146","J=YES, F=NO","8g7qjb0kkn","1","78","85","70","","","","","","","","","","","","","","","",""
"961","
          <p id=""word"" style=""font-size: 40px;"">mop</p>
          <p style=""font-size: 16px;"">J = YES &nbsp;&nbsp;&nbsp; F = NO</p>
        ","j","html-keyboard-response","155","2.1.0","206107","J=YES, F=NO","8g7qjb0kkn","1","78","85","70","","","","","","","","","mop","floor","filler","filler","j","true","",""
"null","<p style=""font-size: 50px;"">+</p>","null","html-keyboard-response","156","2.1.0","206418","J=YES, F=NO","8g7qjb0kkn","1","78","85","70","","","","","","","","","","","","","","","",""
"null","audio/beep-329314.mp3","null","audio-keyboard-response","157","2.1.0","207956","J=YES, F=NO","8g7qjb0kkn","1","78","85","70","","","","","","","","","","","","","","","",""
"null","audio/account1.wav","null","audio-keyboard-response","158","2.1.0","208806","J=YES, F=NO","8g7qjb0kkn","1","78","85","70","","","","","","","","","","","","","","","",""
"619","
          <p id=""word"" style=""font-size: 40px;"">paint</p>
          <p style=""font-size: 16px;"">J = YES &nbsp;&nbsp;&nbsp; F = NO</p>
        ","j","html-keyboard-response","159","2.1.0","209426","J=YES, F=NO","8g7qjb0kkn","1","78","85","70","","","","","","","","","paint","account1","filler","filler","j","true","",""
"null","<p style=""font-size: 50px;"">+</p>","null","html-keyboard-response","160","2.1.0","209736","J=YES, F=NO","8g7qjb0kkn","1","78","85","70","","","","","","","","","","","","","","","",""
"null","audio/beep-329314.mp3","null","audio-keyboard-response","161","2.1.0","211276","J=YES, F=NO","8g7qjb0kkn","1","78","85","70","","","","","","","","","","","","","","","",""
"null","audio/holiday1.wav","null","audio-keyboard-response","162","2.1.0","211966","J=YES, F=NO","8g7qjb0kkn","1","78","85","70","","","","","","","","","","","","","","","",""
"824","
          <p id=""word"" style=""font-size: 40px;"">drivets</p>
          <p style=""font-size: 16px;"">J = YES &nbsp;&nbsp;&nbsp; F = NO</p>
        ","f","html-keyboard-response","163","2.1.0","212791","J=YES, F=NO","8g7qjb0kkn","1","78","85","70","","","","","","","","","drivets","holiday1","pseudoword","pseudoword","f","true","",""
"4908","
    <div style=""max-width: 800px; margin: auto; text-align: left;"">
      <h2>Part 2: Main Trials</h2>
      <p>Great job on the practice trials!</p>
      <p>You will now begin the <strong>main set of trials</strong>.</p>
      <p>Remember your key assignments:</p>
      <ul>
        <li><strong>J</strong> = YES (real English word)</li>
        <li><strong>F</strong> = NO (not a real English word)</li>
      </ul>
      <p>Try to respond as <strong>quickly and accurately</strong> as possible.</p>
      <p style=""margin-top: 2em;"">Press any key to begin the main trials.</p>
    </div>
  "," ","html-keyboard-response","164","2.1.0","217700","J=YES, F=NO","8g7qjb0kkn","1","78","85","70","","","","","","","","","","","","","","","",""
"1912","<p>Starting main block 1 of 8. Press any key to continue.</p>"," ","html-keyboard-response","165","2.1.0","219612","J=YES, F=NO","8g7qjb0kkn","1","78","85","70","","","","","","","","","","","","","","","",""
"null","<p style=""font-size: 50px;"">+</p>","null","html-keyboard-response","166","2.1.0","219924","J=YES, F=NO","8g7qjb0kkn","1","78","85","70","","","","","","","","","","","","","","","",""
"null","audio/beep-329314.mp3","null","audio-keyboard-response","167","2.1.0","221476","J=YES, F=NO","8g7qjb0kkn","1","78","85","70","","","","","","","","","","","","","","","",""
"null","audio/cloud1.wav","null","audio-keyboard-response","168","2.1.0","222046","J=YES, F=NO","8g7qjb0kkn","1","78","85","70","","","","","","","","","","","","","","","",""
"959","
          <p id=""word"" style=""font-size: 40px;"">brotant</p>
          <p style=""font-size: 16px;"">J = YES &nbsp;&nbsp;&nbsp; F = NO</p>
        ","f","html-keyboard-response","169","2.1.0","223006","J=YES, F=NO","8g7qjb0kkn","1","78","85","70","","","","","","","","","brotant","cloud1","pseudoword","pseudoword","f","true","",""
"null","<p style=""font-size: 50px;"">+</p>","null","html-keyboard-response","170","2.1.0","223319","J=YES, F=NO","8g7qjb0kkn","1","78","85","70","","","","","","","","","","","","","","","",""
"null","audio/beep-329314.mp3","null","audio-keyboard-response","171","2.1.0","224856","J=YES, F=NO","8g7qjb0kkn","1","78","85","70","","","","","","","","","","","","","","","",""
"null","audio/trust.wav","null","audio-keyboard-response","172","2.1.0","225507","J=YES, F=NO","8g7qjb0kkn","1","78","85","70","","","","","","","","","","","","","","","",""
"782","
          <p id=""word"" style=""font-size: 40px;"">swint</p>
          <p style=""font-size: 16px;"">J = YES &nbsp;&nbsp;&nbsp; F = NO</p>
        ","f","html-keyboard-response","173","2.1.0","226289","J=YES, F=NO","8g7qjb0kkn","1","78","85","70","","","","","","","","","swint","trust","pseudoword","pseudoword","f","true","",""
"null","<p style=""font-size: 50px;"">+</p>","null","html-keyboard-response","174","2.1.0","226596","J=YES, F=NO","8g7qjb0kkn","1","78","85","70","","","","","","","","","","","","","","","",""
"null","audio/beep-329314.mp3","null","audio-keyboard-response","175","2.1.0","228157","J=YES, F=NO","8g7qjb0kkn","1","78","85","70","","","","","","","","","","","","","","","",""
"null","audio/baby.wav","null","audio-keyboard-response","176","2.1.0","228647","J=YES, F=NO","8g7qjb0kkn","1","78","85","70","","","","","","","","","","","","","","","",""
"724","
          <p id=""word"" style=""font-size: 40px;"">lift</p>
          <p style=""font-size: 16px;"">J = YES &nbsp;&nbsp;&nbsp; F = NO</p>
        ","j","html-keyboard-response","177","2.1.0","229371","J=YES, F=NO","8g7qjb0kkn","1","78","85","70","","","","","","","","","lift","baby","filler","filler","j","true","",""
"null","<p style=""font-size: 50px;"">+</p>","null","html-keyboard-response","178","2.1.0","229677","J=YES, F=NO","8g7qjb0kkn","1","78","85","70","","","","","","","","","","","","","","","",""
"null","audio/beep-329314.mp3","null","audio-keyboard-response","179","2.1.0","231237","J=YES, F=NO","8g7qjb0kkn","1","78","85","70","","","","","","","","","","","","","","","",""
"null","audio/stain.wav","null","audio-keyboard-response","180","2.1.0","231906","J=YES, F=NO","8g7qjb0kkn","1","78","85","70","","","","","","","","","","","","","","","",""
"666","
          <p id=""word"" style=""font-size: 40px;"">rumpsied</p>
          <p style=""font-size: 16px;"">J = YES &nbsp;&nbsp;&nbsp; F = NO</p>
        ","f","html-keyboard-response","181","2.1.0","232572","J=YES, F=NO","8g7qjb0kkn","1","78","85","70","","","","","","","","","rumpsied","stain","pseudoword","pseudoword","f","true","",""
"null","<p style=""font-size: 50px;"">+</p>","null","html-keyboard-response","182","2.1.0","232887","J=YES, F=NO","8g7qjb0kkn","1","78","85","70","","","","","","","","","","","","","","","",""
"null","audio/beep-329314.mp3","null","audio-keyboard-response","183","2.1.0","234417","J=YES, F=NO","8g7qjb0kkn","1","78","85","70","","","","","","","","","","","","","","","",""
"null","audio/camera1.wav","null","audio-keyboard-response","184","2.1.0","234927","J=YES, F=NO","8g7qjb0kkn","1","78","85","70","","","","","","","","","","","","","","","",""
"916","
          <p id=""word"" style=""font-size: 40px;"">stir</p>
          <p style=""font-size: 16px;"">J = YES &nbsp;&nbsp;&nbsp; F = NO</p>
        ","j","html-keyboard-response","185","2.1.0","235844","J=YES, F=NO","8g7qjb0kkn","1","78","85","70","","","","","","","","","stir","camera1","filler","filler","j","true","",""
"null","<p style=""font-size: 50px;"">+</p>","null","html-keyboard-response","186","2.1.0","236152","J=YES, F=NO","8g7qjb0kkn","1","78","85","70","","","","","","","","","","","","","","","",""
"null","audio/beep-329314.mp3","null","audio-keyboard-response","187","2.1.0","237696","J=YES, F=NO","8g7qjb0kkn","1","78","85","70","","","","","","","","","","","","","","","",""
"null","audio/fence.wav","null","audio-keyboard-response","188","2.1.0","238366","J=YES, F=NO","8g7qjb0kkn","1","78","85","70","","","","","","","","","","","","","","","",""
"767","
          <p id=""word"" style=""font-size: 40px;"">trim</p>
          <p style=""font-size: 16px;"">J = YES &nbsp;&nbsp;&nbsp; F = NO</p>
        ","j","html-keyboard-response","189","2.1.0","239135","J=YES, F=NO","8g7qjb0kkn","1","78","85","70","","","","","","","","","trim","fence","filler","filler","j","true","",""
"null","<p style=""font-size: 50px;"">+</p>","null","html-keyboard-response","190","2.1.0","239438","J=YES, F=NO","8g7qjb0kkn","1","78","85","70","","","","","","","","","","","","","","","",""
"null","audio/beep-329314.mp3","null","audio-keyboard-response","191","2.1.0","240977","J=YES, F=NO","8g7qjb0kkn","1","78","85","70","","","","","","","","","","","","","","","",""
"null","audio/truth1.wav","null","audio-keyboard-response","192","2.1.0","241546","J=YES, F=NO","8g7qjb0kkn","1","78","85","70","","","","","","","","","","","","","","","",""
"821","
          <p id=""word"" style=""font-size: 40px;"">calitom</p>
          <p style=""font-size: 16px;"">J = YES &nbsp;&nbsp;&nbsp; F = NO</p>
        ","f","html-keyboard-response","193","2.1.0","242368","J=YES, F=NO","8g7qjb0kkn","1","78","85","70","","","","","","","","","calitom","truth1","pseudoword","pseudoword","f","true","",""
"null","<p style=""font-size: 50px;"">+</p>","null","html-keyboard-response","194","2.1.0","242680","J=YES, F=NO","8g7qjb0kkn","1","78","85","70","","","","","","","","","","","","","","","",""
"null","audio/beep-329314.mp3","null","audio-keyboard-response","195","2.1.0","244216","J=YES, F=NO","8g7qjb0kkn","1","78","85","70","","","","","","","","","","","","","","","",""
"null","audio/seat.wav","null","audio-keyboard-response","196","2.1.0","244866","J=YES, F=NO","8g7qjb0kkn","1","78","85","70","","","","","","","","","","","","","","","",""
"654","
          <p id=""word"" style=""font-size: 40px;"">digest</p>
          <p style=""font-size: 16px;"">J = YES &nbsp;&nbsp;&nbsp; F = NO</p>
        ","j","html-keyboard-response","197","2.1.0","245521","J=YES, F=NO","8g7qjb0kkn","1","78","85","70","","","","","","","","","digest","seat","unrelated","experimental","j","true","",""
"null","<p style=""font-size: 50px;"">+</p>","null","html-keyboard-response","198","2.1.0","245827","J=YES, F=NO","8g7qjb0kkn","1","78","85","70","","","","","","","","","","","","","","","",""
"null","audio/beep-329314.mp3","null","audio-keyboard-response","199","2.1.0","247356","J=YES, F=NO","8g7qjb0kkn","1","78","85","70","","","","","","","","","","","","","","","",""
"null","audio/battle1.wav","null","audio-keyboard-response","200","2.1.0","247966","J=YES, F=NO","8g7qjb0kkn","1","78","85","70","","","","","","","","","","","","","","","",""
"730","
          <p id=""word"" style=""font-size: 40px;"">boil</p>
          <p style=""font-size: 16px;"">J = YES &nbsp;&nbsp;&nbsp; F = NO</p>
        ","j","html-keyboard-response","201","2.1.0","248697","J=YES, F=NO","8g7qjb0kkn","1","78","85","70","","","","","","","","","boil","battle1","filler","filler","j","true","",""
"null","<p style=""font-size: 50px;"">+</p>","null","html-keyboard-response","202","2.1.0","249012","J=YES, F=NO","8g7qjb0kkn","1","78","85","70","","","","","","","","","","","","","","","",""
"null","audio/beep-329314.mp3","null","audio-keyboard-response","203","2.1.0","250556","J=YES, F=NO","8g7qjb0kkn","1","78","85","70","","","","","","","","","","","","","","","",""
"null","audio/gossip1.wav","null","audio-keyboard-response","204","2.1.0","251346","J=YES, F=NO","8g7qjb0kkn","1","78","85","70","","","","","","","","","","","","","","","",""
"838","
          <p id=""word"" style=""font-size: 40px;"">camerish</p>
          <p style=""font-size: 16px;"">J = YES &nbsp;&nbsp;&nbsp; F = NO</p>
        ","f","html-keyboard-response","205","2.1.0","252185","J=YES, F=NO","8g7qjb0kkn","1","78","85","70","","","","","","","","","camerish","gossip1","pseudoword","pseudoword","f","true","",""
"null","<p style=""font-size: 50px;"">+</p>","null","html-keyboard-response","206","2.1.0","252493","J=YES, F=NO","8g7qjb0kkn","1","78","85","70","","","","","","","","","","","","","","","",""
"null","audio/beep-329314.mp3","null","audio-keyboard-response","207","2.1.0","254016","J=YES, F=NO","8g7qjb0kkn","1","78","85","70","","","","","","","","","","","","","","","",""
"null","audio/floor.wav","null","audio-keyboard-response","208","2.1.0","254566","J=YES, F=NO","8g7qjb0kkn","1","78","85","70","","","","","","","","","","","","","","","",""
"866","
          <p id=""word"" style=""font-size: 40px;"">cover</p>
          <p style=""font-size: 16px;"">J = YES &nbsp;&nbsp;&nbsp; F = NO</p>
        ","j","html-keyboard-response","209","2.1.0","255433","J=YES, F=NO","8g7qjb0kkn","1","78","85","70","","","","","","","","","cover","floor","literal","experimental","j","true","",""
"null","<p style=""font-size: 50px;"">+</p>","null","html-keyboard-response","210","2.1.0","255742","J=YES, F=NO","8g7qjb0kkn","1","78","85","70","","","","","","","","","","","","","","","",""
"null","audio/beep-329314.mp3","null","audio-keyboard-response","211","2.1.0","257276","J=YES, F=NO","8g7qjb0kkn","1","78","85","70","","","","","","","","","","","","","","","",""
"null","audio/handle.wav","null","audio-keyboard-response","212","2.1.0","257926","J=YES, F=NO","8g7qjb0kkn","1","78","85","70","","","","","","","","","","","","","","","",""
"943","
          <p id=""word"" style=""font-size: 40px;"">grasp</p>
          <p style=""font-size: 16px;"">J = YES &nbsp;&nbsp;&nbsp; F = NO</p>
        ","j","html-keyboard-response","213","2.1.0","258869","J=YES, F=NO","8g7qjb0kkn","1","78","85","70","","","","","","","","","grasp","handle","literal","experimental","j","true","",""
"null","<p style=""font-size: 50px;"">+</p>","null","html-keyboard-response","214","2.1.0","259178","J=YES, F=NO","8g7qjb0kkn","1","78","85","70","","","","","","","","","","","","","","","",""
"null","audio/beep-329314.mp3","null","audio-keyboard-response","215","2.1.0","260716","J=YES, F=NO","8g7qjb0kkn","1","78","85","70","","","","","","","","","","","","","","","",""
"null","audio/hawk1.wav","null","audio-keyboard-response","216","2.1.0","261466","J=YES, F=NO","8g7qjb0kkn","1","78","85","70","","","","","","","","","","","","","","","",""
"925","
          <p id=""word"" style=""font-size: 40px;"">ostach</p>
          <p style=""font-size: 16px;"">J = YES &nbsp;&nbsp;&nbsp; F = NO</p>
        ","f","html-keyboard-response","217","2.1.0","262391","J=YES, F=NO","8g7qjb0kkn","1","78","85","70","","","","","","","","","ostach","hawk1","pseudoword","pseudoword","f","true","",""
"null","<p style=""font-size: 50px;"">+</p>","null","html-keyboard-response","218","2.1.0","262704","J=YES, F=NO","8g7qjb0kkn","1","78","85","70","","","","","","","","","","","","","","","",""
"null","audio/beep-329314.mp3","null","audio-keyboard-response","219","2.1.0","264236","J=YES, F=NO","8g7qjb0kkn","1","78","85","70","","","","","","","","","","","","","","","",""
"null","audio/weight1.wav","null","audio-keyboard-response","220","2.1.0","264926","J=YES, F=NO","8g7qjb0kkn","1","78","85","70","","","","","","","","","","","","","","","",""
"807","
          <p id=""word"" style=""font-size: 40px;"">support</p>
          <p style=""font-size: 16px;"">J = YES &nbsp;&nbsp;&nbsp; F = NO</p>
        ","j","html-keyboard-response","221","2.1.0","265734","J=YES, F=NO","8g7qjb0kkn","1","78","85","70","","","","","","","","","support","weight1","literal","experimental","j","true","",""
"null","<p style=""font-size: 50px;"">+</p>","null","html-keyboard-response","222","2.1.0","266039","J=YES, F=NO","8g7qjb0kkn","1","78","85","70","","","","","","","","","","","","","","","",""
"null","audio/beep-329314.mp3","null","audio-keyboard-response","223","2.1.0","267577","J=YES, F=NO","8g7qjb0kkn","1","78","85","70","","","","","","","","","","","","","","","",""
"null","audio/foe1.wav","null","audio-keyboard-response","224","2.1.0","268246","J=YES, F=NO","8g7qjb0kkn","1","78","85","70","","","","","","","","","","","","","","","",""
"832","
          <p id=""word"" style=""font-size: 40px;"">creth</p>
          <p style=""font-size: 16px;"">J = YES &nbsp;&nbsp;&nbsp; F = NO</p>
        ","f","html-keyboard-response","225","2.1.0","269079","J=YES, F=NO","8g7qjb0kkn","1","78","85","70","","","","","","","","","creth","foe1","pseudoword","pseudoword","f","true","",""
"null","<p style=""font-size: 50px;"">+</p>","null","html-keyboard-response","226","2.1.0","269388","J=YES, F=NO","8g7qjb0kkn","1","78","85","70","","","","","","","","","","","","","","","",""
"null","audio/beep-329314.mp3","null","audio-keyboard-response","227","2.1.0","270936","J=YES, F=NO","8g7qjb0kkn","1","78","85","70","","","","","","","","","","","","","","","",""
"null","audio/sugar1.wav","null","audio-keyboard-response","228","2.1.0","271586","J=YES, F=NO","8g7qjb0kkn","1","78","85","70","","","","","","","","","","","","","","","",""
"855","
          <p id=""word"" style=""font-size: 40px;"">glung</p>
          <p style=""font-size: 16px;"">J = YES &nbsp;&nbsp;&nbsp; F = NO</p>
        ","f","html-keyboard-response","229","2.1.0","272442","J=YES, F=NO","8g7qjb0kkn","1","78","85","70","","","","","","","","","glung","sugar1","pseudoword","pseudoword","f","true","",""
"4506","<p>Excellent! You have finished block 1 of 8.</p>
                     <p>Feel free to take a 30 second break.</p>
                     <p>Press any key when you're ready to continue.</p>"," ","html-keyboard-response","230","2.1.0","276948","J=YES, F=NO","8g7qjb0kkn","1","78","85","70","","","","","","","","","","","","","","","",""
"1208","<p>Starting main block 2 of 8. Press any key to continue.</p>"," ","html-keyboard-response","231","2.1.0","278156","J=YES, F=NO","8g7qjb0kkn","1","78","85","70","","","","","","","","","","","","","","","",""
"null","<p style=""font-size: 50px;"">+</p>","null","html-keyboard-response","232","2.1.0","278462","J=YES, F=NO","8g7qjb0kkn","1","78","85","70","","","","","","","","","","","","","","","",""
"null","audio/beep-329314.mp3","null","audio-keyboard-response","233","2.1.0","279997","J=YES, F=NO","8g7qjb0kkn","1","78","85","70","","","","","","","","","","","","","","","",""
"null","audio/cash1.wav","null","audio-keyboard-response","234","2.1.0","280707","J=YES, F=NO","8g7qjb0kkn","1","78","85","70","","","","","","","","","","","","","","","",""
"1337","
          <p id=""word"" style=""font-size: 40px;"">splear</p>
          <p style=""font-size: 16px;"">J = YES &nbsp;&nbsp;&nbsp; F = NO</p>
        ","f","html-keyboard-response","235","2.1.0","282045","J=YES, F=NO","8g7qjb0kkn","1","78","85","70","","","","","","","","","splear","cash1","pseudoword","pseudoword","f","true","",""
"null","<p style=""font-size: 50px;"">+</p>","null","html-keyboard-response","236","2.1.0","282353","J=YES, F=NO","8g7qjb0kkn","1","78","85","70","","","","","","","","","","","","","","","",""
"null","audio/beep-329314.mp3","null","audio-keyboard-response","237","2.1.0","283877","J=YES, F=NO","8g7qjb0kkn","1","78","85","70","","","","","","","","","","","","","","","",""
"null","audio/alarm1.wav","null","audio-keyboard-response","238","2.1.0","284606","J=YES, F=NO","8g7qjb0kkn","1","78","85","70","","","","","","","","","","","","","","","",""
"874","
          <p id=""word"" style=""font-size: 40px;"">lock</p>
          <p style=""font-size: 16px;"">J = YES &nbsp;&nbsp;&nbsp; F = NO</p>
        ","j","html-keyboard-response","239","2.1.0","285480","J=YES, F=NO","8g7qjb0kkn","1","78","85","70","","","","","","","","","lock","alarm1","filler","filler","j","true","",""
"null","<p style=""font-size: 50px;"">+</p>","null","html-keyboard-response","240","2.1.0","285781","J=YES, F=NO","8g7qjb0kkn","1","78","85","70","","","","","","","","","","","","","","","",""
"null","audio/beep-329314.mp3","null","audio-keyboard-response","241","2.1.0","287317","J=YES, F=NO","8g7qjb0kkn","1","78","85","70","","","","","","","","","","","","","","","",""
"null","audio/ground.wav","null","audio-keyboard-response","242","2.1.0","287926","J=YES, F=NO","8g7qjb0kkn","1","78","85","70","","","","","","","","","","","","","","","",""
"623","
          <p id=""word"" style=""font-size: 40px;"">touch</p>
          <p style=""font-size: 16px;"">J = YES &nbsp;&nbsp;&nbsp; F = NO</p>
        ","j","html-keyboard-response","243","2.1.0","288550","J=YES, F=NO","8g7qjb0kkn","1","78","85","70","","","","","","","","","touch","ground","literal","experimental","j","true","",""
"null","<p style=""font-size: 50px;"">+</p>","null","html-keyboard-response","244","2.1.0","288860","J=YES, F=NO","8g7qjb0kkn","1","78","85","70","","","","","","","","","","","","","","","",""
"null","audio/beep-329314.mp3","null","audio-keyboard-response","245","2.1.0","290396","J=YES, F=NO","8g7qjb0kkn","1","78","85","70","","","","","","","","","","","","","","","",""
"null","audio/trust.wav","null","audio-keyboard-response","246","2.1.0","291026","J=YES, F=NO","8g7qjb0kkn","1","78","85","70","","","","","","","","","","","","","","","",""
"576","
          <p id=""word"" style=""font-size: 40px;"">build</p>
          <p style=""font-size: 16px;"">J = YES &nbsp;&nbsp;&nbsp; F = NO</p>
        ","j","html-keyboard-response","247","2.1.0","291603","J=YES, F=NO","8g7qjb0kkn","1","78","85","70","","","","","","","","","build","trust","metaphor","experimental","j","true","",""
"null","<p style=""font-size: 50px;"">+</p>","null","html-keyboard-response","248","2.1.0","291905","J=YES, F=NO","8g7qjb0kkn","1","78","85","70","","","","","","","","","","","","","","","",""
"null","audio/beep-329314.mp3","null","audio-keyboard-response","249","2.1.0","293436","J=YES, F=NO","8g7qjb0kkn","1","78","85","70","","","","","","","","","","","","","","","",""
"null","audio/window1.wav","null","audio-keyboard-response","250","2.1.0","294206","J=YES, F=NO","8g7qjb0kkn","1","78","85","70","","","","","","","","","","","","","","","",""
"598","
          <p id=""word"" style=""font-size: 40px;"">break</p>
          <p style=""font-size: 16px;"">J = YES &nbsp;&nbsp;&nbsp; F = NO</p>
        ","j","html-keyboard-response","251","2.1.0","294805","J=YES, F=NO","8g7qjb0kkn","1","78","85","70","","","","","","","","","break","window1","literal","experimental","j","true","",""
"null","<p style=""font-size: 50px;"">+</p>","null","html-keyboard-response","252","2.1.0","295118","J=YES, F=NO","8g7qjb0kkn","1","78","85","70","","","","","","","","","","","","","","","",""
"null","audio/beep-329314.mp3","null","audio-keyboard-response","253","2.1.0","296677","J=YES, F=NO","8g7qjb0kkn","1","78","85","70","","","","","","","","","","","","","","","",""
"null","audio/table1.wav","null","audio-keyboard-response","254","2.1.0","297326","J=YES, F=NO","8g7qjb0kkn","1","78","85","70","","","","","","","","","","","","","","","",""
"1425","
          <p id=""word"" style=""font-size: 40px;"">stimb</p>
          <p style=""font-size: 16px;"">J = YES &nbsp;&nbsp;&nbsp; F = NO</p>
        ","f","html-keyboard-response","255","2.1.0","298752","J=YES, F=NO","8g7qjb0kkn","1","78","85","70","","","","","","","","","stimb","table1","pseudoword","pseudoword","f","true","",""
"null","<p style=""font-size: 50px;"">+</p>","null","html-keyboard-response","256","2.1.0","299059","J=YES, F=NO","8g7qjb0kkn","1","78","85","70","","","","","","","","","","","","","","","",""
"null","audio/beep-329314.mp3","null","audio-keyboard-response","257","2.1.0","300597","J=YES, F=NO","8g7qjb0kkn","1","78","85","70","","","","","","","","","","","","","","","",""
"null","audio/smirk1.wav","null","audio-keyboard-response","258","2.1.0","301466","J=YES, F=NO","8g7qjb0kkn","1","78","85","70","","","","","","","","","","","","","","","",""
"1150","
          <p id=""word"" style=""font-size: 40px;"">wipe</p>
          <p style=""font-size: 16px;"">J = YES &nbsp;&nbsp;&nbsp; F = NO</p>
        ","j","html-keyboard-response","259","2.1.0","302616","J=YES, F=NO","8g7qjb0kkn","1","78","85","70","","","","","","","","","wipe","smirk1","metaphor","experimental","j","true","",""
"null","<p style=""font-size: 50px;"">+</p>","null","html-keyboard-response","260","2.1.0","302921","J=YES, F=NO","8g7qjb0kkn","1","78","85","70","","","","","","","","","","","","","","","",""
"null","audio/beep-329314.mp3","null","audio-keyboard-response","261","2.1.0","304457","J=YES, F=NO","8g7qjb0kkn","1","78","85","70","","","","","","","","","","","","","","","",""
"null","audio/garden1.wav","null","audio-keyboard-response","262","2.1.0","305146","J=YES, F=NO","8g7qjb0kkn","1","78","85","70","","","","","","","","","","","","","","","",""
"954","
          <p id=""word"" style=""font-size: 40px;"">invest</p>
          <p style=""font-size: 16px;"">J = YES &nbsp;&nbsp;&nbsp; F = NO</p>
        ","j","html-keyboard-response","263","2.1.0","306101","J=YES, F=NO","8g7qjb0kkn","1","78","85","70","","","","","","","","","invest","garden1","unrelated","experimental","j","true","",""
"null","<p style=""font-size: 50px;"">+</p>","null","html-keyboard-response","264","2.1.0","306417","J=YES, F=NO","8g7qjb0kkn","1","78","85","70","","","","","","","","","","","","","","","",""
"null","audio/beep-329314.mp3","null","audio-keyboard-response","265","2.1.0","307957","J=YES, F=NO","8g7qjb0kkn","1","78","85","70","","","","","","","","","","","","","","","",""
"null","audio/strength.wav","null","audio-keyboard-response","266","2.1.0","308726","J=YES, F=NO","8g7qjb0kkn","1","78","85","70","","","","","","","","","","","","","","","",""
"668","
          <p id=""word"" style=""font-size: 40px;"">plabet</p>
          <p style=""font-size: 16px;"">J = YES &nbsp;&nbsp;&nbsp; F = NO</p>
        ","f","html-keyboard-response","267","2.1.0","309394","J=YES, F=NO","8g7qjb0kkn","1","78","85","70","","","","","","","","","plabet","strength","pseudoword","pseudoword","f","true","",""
"null","<p style=""font-size: 50px;"">+</p>","null","html-keyboard-response","268","2.1.0","309702","J=YES, F=NO","8g7qjb0kkn","1","78","85","70","","","","","","","","","","","","","","","",""
"null","audio/beep-329314.mp3","null","audio-keyboard-response","269","2.1.0","311236","J=YES, F=NO","8g7qjb0kkn","1","78","85","70","","","","","","","","","","","","","","","",""
"null","audio/alarm1.wav","null","audio-keyboard-response","270","2.1.0","311806","J=YES, F=NO","8g7qjb0kkn","1","78","85","70","","","","","","","","","","","","","","","",""
"1331","
          <p id=""word"" style=""font-size: 40px;"">swetp</p>
          <p style=""font-size: 16px;"">J = YES &nbsp;&nbsp;&nbsp; F = NO</p>
        ","f","html-keyboard-response","271","2.1.0","313138","J=YES, F=NO","8g7qjb0kkn","1","78","85","70","","","","","","","","","swetp","alarm1","pseudoword","pseudoword","f","true","",""
"null","<p style=""font-size: 50px;"">+</p>","null","html-keyboard-response","272","2.1.0","313443","J=YES, F=NO","8g7qjb0kkn","1","78","85","70","","","","","","","","","","","","","","","",""
"null","audio/beep-329314.mp3","null","audio-keyboard-response","273","2.1.0","314976","J=YES, F=NO","8g7qjb0kkn","1","78","85","70","","","","","","","","","","","","","","","",""
"null","audio/scar.wav","null","audio-keyboard-response","274","2.1.0","315767","J=YES, F=NO","8g7qjb0kkn","1","78","85","70","","","","","","","","","","","","","","","",""
"1119","
          <p id=""word"" style=""font-size: 40px;"">adelineate</p>
          <p style=""font-size: 16px;"">J = YES &nbsp;&nbsp;&nbsp; F = NO</p>
        ","f","html-keyboard-response","275","2.1.0","316887","J=YES, F=NO","8g7qjb0kkn","1","78","85","70","","","","","","","","","adelineate","scar","pseudoword","pseudoword","f","true","",""
"null","<p style=""font-size: 50px;"">+</p>","null","html-keyboard-response","276","2.1.0","317192","J=YES, F=NO","8g7qjb0kkn","1","78","85","70","","","","","","","","","","","","","","","",""
"null","audio/beep-329314.mp3","null","audio-keyboard-response","277","2.1.0","318717","J=YES, F=NO","8g7qjb0kkn","1","78","85","70","","","","","","","","","","","","","","","",""
"null","audio/terrain.wav","null","audio-keyboard-response","278","2.1.0","319286","J=YES, F=NO","8g7qjb0kkn","1","78","85","70","","","","","","","","","","","","","","","",""
"746","
          <p id=""word"" style=""font-size: 40px;"">navigate</p>
          <p style=""font-size: 16px;"">J = YES &nbsp;&nbsp;&nbsp; F = NO</p>
        ","j","html-keyboard-response","279","2.1.0","320034","J=YES, F=NO","8g7qjb0kkn","1","78","85","70","","","","","","","","","navigate","terrain","literal","experimental","j","true","",""
"null","<p style=""font-size: 50px;"">+</p>","null","html-keyboard-response","280","2.1.0","320342","J=YES, F=NO","8g7qjb0kkn","1","78","85","70","","","","","","","","","","","","","","","",""
"null","audio/beep-329314.mp3","null","audio-keyboard-response","281","2.1.0","321876","J=YES, F=NO","8g7qjb0kkn","1","78","85","70","","","","","","","","","","","","","","","",""
"null","audio/flaw.wav","null","audio-keyboard-response","282","2.1.0","322666","J=YES, F=NO","8g7qjb0kkn","1","78","85","70","","","","","","","","","","","","","","","",""
"789","
          <p id=""word"" style=""font-size: 40px;"">thwool</p>
          <p style=""font-size: 16px;"">J = YES &nbsp;&nbsp;&nbsp; F = NO</p>
        ","f","html-keyboard-response","283","2.1.0","323456","J=YES, F=NO","8g7qjb0kkn","1","78","85","70","","","","","","","","","thwool","flaw","pseudoword","pseudoword","f","true","",""
"null","<p style=""font-size: 50px;"">+</p>","null","html-keyboard-response","284","2.1.0","323759","J=YES, F=NO","8g7qjb0kkn","1","78","85","70","","","","","","","","","","","","","","","",""
"null","audio/beep-329314.mp3","null","audio-keyboard-response","285","2.1.0","325296","J=YES, F=NO","8g7qjb0kkn","1","78","85","70","","","","","","","","","","","","","","","",""
"null","audio/test1.wav","null","audio-keyboard-response","286","2.1.0","325866","J=YES, F=NO","8g7qjb0kkn","1","78","85","70","","","","","","","","","","","","","","","",""
"826","
          <p id=""word"" style=""font-size: 40px;"">run</p>
          <p style=""font-size: 16px;"">J = YES &nbsp;&nbsp;&nbsp; F = NO</p>
        ","j","html-keyboard-response","287","2.1.0","326693","J=YES, F=NO","8g7qjb0kkn","1","78","85","70","","","","","","","","","run","test1","metaphor","experimental","j","true","",""
"null","<p style=""font-size: 50px;"">+</p>","null","html-keyboard-response","288","2.1.0","327001","J=YES, F=NO","8g7qjb0kkn","1","78","85","70","","","","","","","","","","","","","","","",""
"null","audio/beep-329314.mp3","null","audio-keyboard-response","289","2.1.0","328537","J=YES, F=NO","8g7qjb0kkn","1","78","85","70","","","","","","","","","","","","","","","",""
"null","audio/voice.wav","null","audio-keyboard-response","290","2.1.0","329306","J=YES, F=NO","8g7qjb0kkn","1","78","85","70","","","","","","","","","","","","","","","",""
"846","
          <p id=""word"" style=""font-size: 40px;"">flood</p>
          <p style=""font-size: 16px;"">J = YES &nbsp;&nbsp;&nbsp; F = NO</p>
        ","j","html-keyboard-response","291","2.1.0","330152","J=YES, F=NO","8g7qjb0kkn","1","78","85","70","","","","","","","","","flood","voice","unrelated","experimental","j","true","",""
"null","<p style=""font-size: 50px;"">+</p>","null","html-keyboard-response","292","2.1.0","330456","J=YES, F=NO","8g7qjb0kkn","1","78","85","70","","","","","","","","","","","","","","","",""
"null","audio/beep-329314.mp3","null","audio-keyboard-response","293","2.1.0","331996","J=YES, F=NO","8g7qjb0kkn","1","78","85","70","","","","","","","","","","","","","","","",""
"null","audio/foe1.wav","null","audio-keyboard-response","294","2.1.0","332506","J=YES, F=NO","8g7qjb0kkn","1","78","85","70","","","","","","","","","","","","","","","",""
"1095","
          <p id=""word"" style=""font-size: 40px;"">conquer</p>
          <p style=""font-size: 16px;"">J = YES &nbsp;&nbsp;&nbsp; F = NO</p>
        ","j","html-keyboard-response","295","2.1.0","333602","J=YES, F=NO","8g7qjb0kkn","1","78","85","70","","","","","","","","","conquer","foe1","literal","experimental","j","true","",""
"1174","<p>Excellent! You have finished block 2 of 8.</p>
                     <p>Feel free to take a 30 second break.</p>
                     <p>Press any key when you're ready to continue.</p>"," ","html-keyboard-response","296","2.1.0","334777","J=YES, F=NO","8g7qjb0kkn","1","78","85","70","","","","","","","","","","","","","","","",""
"1614","<p>Starting main block 3 of 8. Press any key to continue.</p>"," ","html-keyboard-response","297","2.1.0","336392","J=YES, F=NO","8g7qjb0kkn","1","78","85","70","","","","","","","","","","","","","","","",""
"null","<p style=""font-size: 50px;"">+</p>","null","html-keyboard-response","298","2.1.0","336700","J=YES, F=NO","8g7qjb0kkn","1","78","85","70","","","","","","","","","","","","","","","",""
"null","audio/beep-329314.mp3","null","audio-keyboard-response","299","2.1.0","338237","J=YES, F=NO","8g7qjb0kkn","1","78","85","70","","","","","","","","","","","","","","","",""
"null","audio/gossip1.wav","null","audio-keyboard-response","300","2.1.0","338866","J=YES, F=NO","8g7qjb0kkn","1","78","85","70","","","","","","","","","","","","","","","",""
"642","
          <p id=""word"" style=""font-size: 40px;"">wrestle</p>
          <p style=""font-size: 16px;"">J = YES &nbsp;&nbsp;&nbsp; F = NO</p>
        ","j","html-keyboard-response","301","2.1.0","339509","J=YES, F=NO","8g7qjb0kkn","1","78","85","70","","","","","","","","","wrestle","gossip1","unrelated","experimental","j","true","",""
"null","<p style=""font-size: 50px;"">+</p>","null","html-keyboard-response","302","2.1.0","339825","J=YES, F=NO","8g7qjb0kkn","1","78","85","70","","","","","","","","","","","","","","","",""
"null","audio/beep-329314.mp3","null","audio-keyboard-response","303","2.1.0","341357","J=YES, F=NO","8g7qjb0kkn","1","78","85","70","","","","","","","","","","","","","","","",""
"null","audio/cave1.wav","null","audio-keyboard-response","304","2.1.0","341926","J=YES, F=NO","8g7qjb0kkn","1","78","85","70","","","","","","","","","","","","","","","",""
"753","
          <p id=""word"" style=""font-size: 40px;"">blacket</p>
          <p style=""font-size: 16px;"">J = YES &nbsp;&nbsp;&nbsp; F = NO</p>
        ","j","html-keyboard-response","305","2.1.0","342680","J=YES, F=NO","8g7qjb0kkn","1","78","85","70","","","","","","","","","blacket","cave1","pseudoword","pseudoword","f","false","",""
"null","<p style=""font-size: 50px;"">+</p>","null","html-keyboard-response","306","2.1.0","342988","J=YES, F=NO","8g7qjb0kkn","1","78","85","70","","","","","","","","","","","","","","","",""
"null","audio/beep-329314.mp3","null","audio-keyboard-response","307","2.1.0","344516","J=YES, F=NO","8g7qjb0kkn","1","78","85","70","","","","","","","","","","","","","","","",""
"null","audio/pine.wav","null","audio-keyboard-response","308","2.1.0","345167","J=YES, F=NO","8g7qjb0kkn","1","78","85","70","","","","","","","","","","","","","","","",""
"728","
          <p id=""word"" style=""font-size: 40px;"">crebble</p>
          <p style=""font-size: 16px;"">J = YES &nbsp;&nbsp;&nbsp; F = NO</p>
        ","f","html-keyboard-response","309","2.1.0","345895","J=YES, F=NO","8g7qjb0kkn","1","78","85","70","","","","","","","","","crebble","pine","pseudoword","pseudoword","f","true","",""
"null","<p style=""font-size: 50px;"">+</p>","null","html-keyboard-response","310","2.1.0","346210","J=YES, F=NO","8g7qjb0kkn","1","78","85","70","","","","","","","","","","","","","","","",""
"null","audio/beep-329314.mp3","null","audio-keyboard-response","311","2.1.0","347757","J=YES, F=NO","8g7qjb0kkn","1","78","85","70","","","","","","","","","","","","","","","",""
"null","audio/belief.wav","null","audio-keyboard-response","312","2.1.0","348546","J=YES, F=NO","8g7qjb0kkn","1","78","85","70","","","","","","","","","","","","","","","",""
"542","
          <p id=""word"" style=""font-size: 40px;"">share</p>
          <p style=""font-size: 16px;"">J = YES &nbsp;&nbsp;&nbsp; F = NO</p>
        ","j","html-keyboard-response","313","2.1.0","349089","J=YES, F=NO","8g7qjb0kkn","1","78","85","70","","","","","","","","","share","belief","metaphor","experimental","j","true","",""
"null","<p style=""font-size: 50px;"">+</p>","null","html-keyboard-response","314","2.1.0","349401","J=YES, F=NO","8g7qjb0kkn","1","78","85","70","","","","","","","","","","","","","","","",""
"null","audio/beep-329314.mp3","null","audio-keyboard-response","315","2.1.0","350936","J=YES, F=NO","8g7qjb0kkn","1","78","85","70","","","","","","","","","","","","","","","",""
"null","audio/relief.wav","null","audio-keyboard-response","316","2.1.0","351746","J=YES, F=NO","8g7qjb0kkn","1","78","85","70","","","","","","","","","","","","","","","",""
"766","
          <p id=""word"" style=""font-size: 40px;"">bring</p>
          <p style=""font-size: 16px;"">J = YES &nbsp;&nbsp;&nbsp; F = NO</p>
        ","j","html-keyboard-response","317","2.1.0","352512","J=YES, F=NO","8g7qjb0kkn","1","78","85","70","","","","","","","","","bring","relief","metaphor","experimental","j","true","",""
"null","<p style=""font-size: 50px;"">+</p>","null","html-keyboard-response","318","2.1.0","352815","J=YES, F=NO","8g7qjb0kkn","1","78","85","70","","","","","","","","","","","","","","","",""
"null","audio/beep-329314.mp3","null","audio-keyboard-response","319","2.1.0","354336","J=YES, F=NO","8g7qjb0kkn","1","78","85","70","","","","","","","","","","","","","","","",""
"null","audio/gold1.wav","null","audio-keyboard-response","320","2.1.0","354887","J=YES, F=NO","8g7qjb0kkn","1","78","85","70","","","","","","","","","","","","","","","",""
"604","
          <p id=""word"" style=""font-size: 40px;"">sell</p>
          <p style=""font-size: 16px;"">J = YES &nbsp;&nbsp;&nbsp; F = NO</p>
        ","j","html-keyboard-response","321","2.1.0","355491","J=YES, F=NO","8g7qjb0kkn","1","78","85","70","","","","","","","","","sell","gold1","literal","experimental","j","true","",""
"null","<p style=""font-size: 50px;"">+</p>","null","html-keyboard-response","322","2.1.0","355794","J=YES, F=NO","8g7qjb0kkn","1","78","85","70","","","","","","","","","","","","","","","",""
"null","audio/beep-329314.mp3","null","audio-keyboard-response","323","2.1.0","357317","J=YES, F=NO","8g7qjb0kkn","1","78","85","70","","","","","","","","","","","","","","","",""
"null","audio/sugar1.wav","null","audio-keyboard-response","324","2.1.0","357806","J=YES, F=NO","8g7qjb0kkn","1","78","85","70","","","","","","","","","","","","","","","",""
"628","
          <p id=""word"" style=""font-size: 40px;"">approach</p>
          <p style=""font-size: 16px;"">J = YES &nbsp;&nbsp;&nbsp; F = NO</p>
        ","j","html-keyboard-response","325","2.1.0","358435","J=YES, F=NO","8g7qjb0kkn","1","78","85","70","","","","","","","","","approach","sugar1","unrelated","experimental","j","true","",""
"null","<p style=""font-size: 50px;"">+</p>","null","html-keyboard-response","326","2.1.0","358749","J=YES, F=NO","8g7qjb0kkn","1","78","85","70","","","","","","","","","","","","","","","",""
"null","audio/beep-329314.mp3","null","audio-keyboard-response","327","2.1.0","360277","J=YES, F=NO","8g7qjb0kkn","1","78","85","70","","","","","","","","","","","","","","","",""
"null","audio/smirk1.wav","null","audio-keyboard-response","328","2.1.0","360987","J=YES, F=NO","8g7qjb0kkn","1","78","85","70","","","","","","","","","","","","","","","",""
"694","
          <p id=""word"" style=""font-size: 40px;"">snopt</p>
          <p style=""font-size: 16px;"">J = YES &nbsp;&nbsp;&nbsp; F = NO</p>
        ","f","html-keyboard-response","329","2.1.0","361681","J=YES, F=NO","8g7qjb0kkn","1","78","85","70","","","","","","","","","snopt","smirk1","pseudoword","pseudoword","f","true","",""
"null","<p style=""font-size: 50px;"">+</p>","null","html-keyboard-response","330","2.1.0","361996","J=YES, F=NO","8g7qjb0kkn","1","78","85","70","","","","","","","","","","","","","","","",""
"null","audio/beep-329314.mp3","null","audio-keyboard-response","331","2.1.0","363536","J=YES, F=NO","8g7qjb0kkn","1","78","85","70","","","","","","","","","","","","","","","",""
"null","audio/birth1.wav","null","audio-keyboard-response","332","2.1.0","364066","J=YES, F=NO","8g7qjb0kkn","1","78","85","70","","","","","","","","","","","","","","","",""
"670","
          <p id=""word"" style=""font-size: 40px;"">drop</p>
          <p style=""font-size: 16px;"">J = YES &nbsp;&nbsp;&nbsp; F = NO</p>
        ","j","html-keyboard-response","333","2.1.0","364738","J=YES, F=NO","8g7qjb0kkn","1","78","85","70","","","","","","","","","drop","birth1","unrelated","experimental","j","true","",""
"null","<p style=""font-size: 50px;"">+</p>","null","html-keyboard-response","334","2.1.0","365049","J=YES, F=NO","8g7qjb0kkn","1","78","85","70","","","","","","","","","","","","","","","",""
"null","audio/beep-329314.mp3","null","audio-keyboard-response","335","2.1.0","366596","J=YES, F=NO","8g7qjb0kkn","1","78","85","70","","","","","","","","","","","","","","","",""
"null","audio/sand.wav","null","audio-keyboard-response","336","2.1.0","367406","J=YES, F=NO","8g7qjb0kkn","1","78","85","70","","","","","","","","","","","","","","","",""
"787","
          <p id=""word"" style=""font-size: 40px;"">proted</p>
          <p style=""font-size: 16px;"">J = YES &nbsp;&nbsp;&nbsp; F = NO</p>
        ","f","html-keyboard-response","337","2.1.0","368193","J=YES, F=NO","8g7qjb0kkn","1","78","85","70","","","","","","","","","proted","sand","pseudoword","pseudoword","f","true","",""
"null","<p style=""font-size: 50px;"">+</p>","null","html-keyboard-response","338","2.1.0","368498","J=YES, F=NO","8g7qjb0kkn","1","78","85","70","","","","","","","","","","","","","","","",""
"null","audio/beep-329314.mp3","null","audio-keyboard-response","339","2.1.0","370057","J=YES, F=NO","8g7qjb0kkn","1","78","85","70","","","","","","","","","","","","","","","",""
"null","audio/pig.wav","null","audio-keyboard-response","340","2.1.0","370466","J=YES, F=NO","8g7qjb0kkn","1","78","85","70","","","","","","","","","","","","","","","",""
"740","
          <p id=""word"" style=""font-size: 40px;"">tirlike</p>
          <p style=""font-size: 16px;"">J = YES &nbsp;&nbsp;&nbsp; F = NO</p>
        ","f","html-keyboard-response","341","2.1.0","371206","J=YES, F=NO","8g7qjb0kkn","1","78","85","70","","","","","","","","","tirlike","pig","pseudoword","pseudoword","f","true","",""
"null","<p style=""font-size: 50px;"">+</p>","null","html-keyboard-response","342","2.1.0","371508","J=YES, F=NO","8g7qjb0kkn","1","78","85","70","","","","","","","","","","","","","","","",""
"null","audio/beep-329314.mp3","null","audio-keyboard-response","343","2.1.0","373036","J=YES, F=NO","8g7qjb0kkn","1","78","85","70","","","","","","","","","","","","","","","",""
"null","audio/brain.wav","null","audio-keyboard-response","344","2.1.0","373546","J=YES, F=NO","8g7qjb0kkn","1","78","85","70","","","","","","","","","","","","","","","",""
"665","
          <p id=""word"" style=""font-size: 40px;"">throw</p>
          <p style=""font-size: 16px;"">J = YES &nbsp;&nbsp;&nbsp; F = NO</p>
        ","j","html-keyboard-response","345","2.1.0","374212","J=YES, F=NO","8g7qjb0kkn","1","78","85","70","","","","","","","","","throw","brain","filler","filler","j","true","",""
"null","<p style=""font-size: 50px;"">+</p>","null","html-keyboard-response","346","2.1.0","374521","J=YES, F=NO","8g7qjb0kkn","1","78","85","70","","","","","","","","","","","","","","","",""
"null","audio/beep-329314.mp3","null","audio-keyboard-response","347","2.1.0","376056","J=YES, F=NO","8g7qjb0kkn","1","78","85","70","","","","","","","","","","","","","","","",""
"null","audio/show.wav","null","audio-keyboard-response","348","2.1.0","376606","J=YES, F=NO","8g7qjb0kkn","1","78","85","70","","","","","","","","","","","","","","","",""
"1220","
          <p id=""word"" style=""font-size: 40px;"">smark</p>
          <p style=""font-size: 16px;"">J = YES &nbsp;&nbsp;&nbsp; F = NO</p>
        ","j","html-keyboard-response","349","2.1.0","377827","J=YES, F=NO","8g7qjb0kkn","1","78","85","70","","","","","","","","","smark","show","pseudoword","pseudoword","f","false","",""
"null","<p style=""font-size: 50px;"">+</p>","null","html-keyboard-response","350","2.1.0","378137","J=YES, F=NO","8g7qjb0kkn","1","78","85","70","","","","","","","","","","","","","","","",""
"null","audio/beep-329314.mp3","null","audio-keyboard-response","351","2.1.0","379677","J=YES, F=NO","8g7qjb0kkn","1","78","85","70","","","","","","","","","","","","","","","",""
"null","audio/breath.wav","null","audio-keyboard-response","352","2.1.0","380226","J=YES, F=NO","8g7qjb0kkn","1","78","85","70","","","","","","","","","","","","","","","",""
"722","
          <p id=""word"" style=""font-size: 40px;"">construct</p>
          <p style=""font-size: 16px;"">J = YES &nbsp;&nbsp;&nbsp; F = NO</p>
        ","j","html-keyboard-response","353","2.1.0","380949","J=YES, F=NO","8g7qjb0kkn","1","78","85","70","","","","","","","","","construct","breath","unrelated","experimental","j","true","",""
"null","<p style=""font-size: 50px;"">+</p>","null","html-keyboard-response","354","2.1.0","381254","J=YES, F=NO","8g7qjb0kkn","1","78","85","70","","","","","","","","","","","","","","","",""
"null","audio/beep-329314.mp3","null","audio-keyboard-response","355","2.1.0","382776","J=YES, F=NO","8g7qjb0kkn","1","78","85","70","","","","","","","","","","","","","","","",""
"null","audio/gift1.wav","null","audio-keyboard-response","356","2.1.0","383406","J=YES, F=NO","8g7qjb0kkn","1","78","85","70","","","","","","","","","","","","","","","",""
"725","
          <p id=""word"" style=""font-size: 40px;"">protsh</p>
          <p style=""font-size: 16px;"">J = YES &nbsp;&nbsp;&nbsp; F = NO</p>
        ","f","html-keyboard-response","357","2.1.0","384132","J=YES, F=NO","8g7qjb0kkn","1","78","85","70","","","","","","","","","protsh","gift1","pseudoword","pseudoword","f","true","",""
"null","<p style=""font-size: 50px;"">+</p>","null","html-keyboard-response","358","2.1.0","384438","J=YES, F=NO","8g7qjb0kkn","1","78","85","70","","","","","","","","","","","","","","","",""
"null","audio/beep-329314.mp3","null","audio-keyboard-response","359","2.1.0","385977","J=YES, F=NO","8g7qjb0kkn","1","78","85","70","","","","","","","","","","","","","","","",""
"null","audio/budget1.wav","null","audio-keyboard-response","360","2.1.0","386747","J=YES, F=NO","8g7qjb0kkn","1","78","85","70","","","","","","","","","","","","","","","",""
"582","
          <p id=""word"" style=""font-size: 40px;"">cut</p>
          <p style=""font-size: 16px;"">J = YES &nbsp;&nbsp;&nbsp; F = NO</p>
        ","j","html-keyboard-response","361","2.1.0","387330","J=YES, F=NO","8g7qjb0kkn","1","78","85","70","","","","","","","","","cut","budget1","metaphor","experimental","j","true","",""
"906","<p>Excellent! You have finished block 3 of 8.</p>
                     <p>Feel free to take a 30 second break.</p>
                     <p>Press any key when you're ready to continue.</p>"," ","html-keyboard-response","362","2.1.0","388236","J=YES, F=NO","8g7qjb0kkn","1","78","85","70","","","","","","","","","","","","","","","",""
"409","<p>Starting main block 4 of 8. Press any key to continue.</p>"," ","html-keyboard-response","363","2.1.0","388646","J=YES, F=NO","8g7qjb0kkn","1","78","85","70","","","","","","","","","","","","","","","",""
"null","<p style=""font-size: 50px;"">+</p>","null","html-keyboard-response","364","2.1.0","388961","J=YES, F=NO","8g7qjb0kkn","1","78","85","70","","","","","","","","","","","","","","","",""
"null","audio/beep-329314.mp3","null","audio-keyboard-response","365","2.1.0","390496","J=YES, F=NO","8g7qjb0kkn","1","78","85","70","","","","","","","","","","","","","","","",""
"null","audio/arm.wav","null","audio-keyboard-response","366","2.1.0","391186","J=YES, F=NO","8g7qjb0kkn","1","78","85","70","","","","","","","","","","","","","","","",""
"750","
          <p id=""word"" style=""font-size: 40px;"">fold</p>
          <p style=""font-size: 16px;"">J = YES &nbsp;&nbsp;&nbsp; F = NO</p>
        ","j","html-keyboard-response","367","2.1.0","391937","J=YES, F=NO","8g7qjb0kkn","1","78","85","70","","","","","","","","","fold","arm","filler","filler","j","true","",""
"null","<p style=""font-size: 50px;"">+</p>","null","html-keyboard-response","368","2.1.0","392252","J=YES, F=NO","8g7qjb0kkn","1","78","85","70","","","","","","","","","","","","","","","",""
"null","audio/beep-329314.mp3","null","audio-keyboard-response","369","2.1.0","393777","J=YES, F=NO","8g7qjb0kkn","1","78","85","70","","","","","","","","","","","","","","","",""
"null","audio/trout1.wav","null","audio-keyboard-response","370","2.1.0","394526","J=YES, F=NO","8g7qjb0kkn","1","78","85","70","","","","","","","","","","","","","","","",""
"593","
          <p id=""word"" style=""font-size: 40px;"">spimt</p>
          <p style=""font-size: 16px;"">J = YES &nbsp;&nbsp;&nbsp; F = NO</p>
        ","f","html-keyboard-response","371","2.1.0","395120","J=YES, F=NO","8g7qjb0kkn","1","78","85","70","","","","","","","","","spimt","trout1","pseudoword","pseudoword","f","true","",""
"null","<p style=""font-size: 50px;"">+</p>","null","html-keyboard-response","372","2.1.0","395426","J=YES, F=NO","8g7qjb0kkn","1","78","85","70","","","","","","","","","","","","","","","",""
"null","audio/beep-329314.mp3","null","audio-keyboard-response","373","2.1.0","396957","J=YES, F=NO","8g7qjb0kkn","1","78","85","70","","","","","","","","","","","","","","","",""
"null","audio/bishop1.wav","null","audio-keyboard-response","374","2.1.0","397547","J=YES, F=NO","8g7qjb0kkn","1","78","85","70","","","","","","","","","","","","","","","",""
"577","
          <p id=""word"" style=""font-size: 40px;"">devour</p>
          <p style=""font-size: 16px;"">J = YES &nbsp;&nbsp;&nbsp; F = NO</p>
        ","j","html-keyboard-response","375","2.1.0","398125","J=YES, F=NO","8g7qjb0kkn","1","78","85","70","","","","","","","","","devour","bishop1","unrelated","experimental","j","true","",""
"null","<p style=""font-size: 50px;"">+</p>","null","html-keyboard-response","376","2.1.0","398432","J=YES, F=NO","8g7qjb0kkn","1","78","85","70","","","","","","","","","","","","","","","",""
"null","audio/beep-329314.mp3","null","audio-keyboard-response","377","2.1.0","399957","J=YES, F=NO","8g7qjb0kkn","1","78","85","70","","","","","","","","","","","","","","","",""
"null","audio/grass.wav","null","audio-keyboard-response","378","2.1.0","400767","J=YES, F=NO","8g7qjb0kkn","1","78","85","70","","","","","","","","","","","","","","","",""
"654","
          <p id=""word"" style=""font-size: 40px;"">milames</p>
          <p style=""font-size: 16px;"">J = YES &nbsp;&nbsp;&nbsp; F = NO</p>
        ","f","html-keyboard-response","379","2.1.0","401421","J=YES, F=NO","8g7qjb0kkn","1","78","85","70","","","","","","","","","milames","grass","pseudoword","pseudoword","f","true","",""
"null","<p style=""font-size: 50px;"">+</p>","null","html-keyboard-response","380","2.1.0","401737","J=YES, F=NO","8g7qjb0kkn","1","78","85","70","","","","","","","","","","","","","","","",""
"null","audio/beep-329314.mp3","null","audio-keyboard-response","381","2.1.0","403277","J=YES, F=NO","8g7qjb0kkn","1","78","85","70","","","","","","","","","","","","","","","",""
"null","audio/butter1.wav","null","audio-keyboard-response","382","2.1.0","403926","J=YES, F=NO","8g7qjb0kkn","1","78","85","70","","","","","","","","","","","","","","","",""
"623","
          <p id=""word"" style=""font-size: 40px;"">chew</p>
          <p style=""font-size: 16px;"">J = YES &nbsp;&nbsp;&nbsp; F = NO</p>
        ","j","html-keyboard-response","383","2.1.0","404550","J=YES, F=NO","8g7qjb0kkn","1","78","85","70","","","","","","","","","chew","butter1","filler","filler","j","true","",""
"null","<p style=""font-size: 50px;"">+</p>","null","html-keyboard-response","384","2.1.0","404861","J=YES, F=NO","8g7qjb0kkn","1","78","85","70","","","","","","","","","","","","","","","",""
"null","audio/beep-329314.mp3","null","audio-keyboard-response","385","2.1.0","406397","J=YES, F=NO","8g7qjb0kkn","1","78","85","70","","","","","","","","","","","","","","","",""
"null","audio/emotion.wav","null","audio-keyboard-response","386","2.1.0","407088","J=YES, F=NO","8g7qjb0kkn","1","78","85","70","","","","","","","","","","","","","","","",""
"673","
          <p id=""word"" style=""font-size: 40px;"">devering</p>
          <p style=""font-size: 16px;"">J = YES &nbsp;&nbsp;&nbsp; F = NO</p>
        ","f","html-keyboard-response","387","2.1.0","407761","J=YES, F=NO","8g7qjb0kkn","1","78","85","70","","","","","","","","","devering","emotion","pseudoword","pseudoword","f","true","",""
"null","<p style=""font-size: 50px;"">+</p>","null","html-keyboard-response","388","2.1.0","408062","J=YES, F=NO","8g7qjb0kkn","1","78","85","70","","","","","","","","","","","","","","","",""
"null","audio/beep-329314.mp3","null","audio-keyboard-response","389","2.1.0","409596","J=YES, F=NO","8g7qjb0kkn","1","78","85","70","","","","","","","","","","","","","","","",""
"null","audio/life1.wav","null","audio-keyboard-response","390","2.1.0","410146","J=YES, F=NO","8g7qjb0kkn","1","78","85","70","","","","","","","","","","","","","","","",""
"637","
          <p id=""word"" style=""font-size: 40px;"">give</p>
          <p style=""font-size: 16px;"">J = YES &nbsp;&nbsp;&nbsp; F = NO</p>
        ","j","html-keyboard-response","391","2.1.0","410784","J=YES, F=NO","8g7qjb0kkn","1","78","85","70","","","","","","","","","give","life1","metaphor","experimental","j","true","",""
