"rt","stimulus","response","trial_type","trial_index","plugin_version","time_elapsed","response_mapping","subject_id","list_index","lextale_score","lextale_word_score","lextale_nonword_score","success","timeout","failed_images","failed_audio","failed_video","task","isWord","isDummy","target","prime","prime_type","stimulus_type","correct_response","correct","section","question_order"
"3825","
    <div style=""max-width: 800px; margin: auto; text-align: left;"">
      <h2>STANFORD UNIVERSITY</h2>
      <h3>Research Information Sheet</h3>
      <p><strong>Protocol Director:</strong> Robert Hawkins<br>
      <strong>Protocol Title:</strong> Communication and social cognition in natural audiovisual contexts<br>
      <strong>IRB#:</strong> 77226</p>

      <p><strong>DESCRIPTION:</strong> You are invited to participate in a research study about language and communication. The purpose of the research is to understand how you interact and communicate with other people in naturalistic settings as a fluent English speaker. This research will be conducted through the Prolific platform, including participants from the US, UK, and Canada. If you decide to participate in this research, you will play a communication game in a group with one or more partners.</p>

      <p><strong>TIME INVOLVEMENT:</strong> The task will last the amount of time advertised on Prolific. You are free to withdraw from the study at any time.</p>

      <p><strong>RISKS AND BENEFITS:</strong> You may become frustrated if your partner gets distracted, or experience discomfort if other participants in your group send text that is inappropriate for the task. We ask you to please be respectful of other participants you might be interacting with to mitigate these risks. You may also experience discomfort when being asked to discuss or challenge emotionally salient political beliefs. Study data will be stored securely, in compliance with Stanford University standards, minimizing the risk of confidentiality breach. This study advances our scientific understanding of how people communicate and collaborate in naturalistic settings. This study may lead to further insights about what can go wrong in teamwork, suggest potential interventions to overcome these barriers, and help to develop assistive technologies that collaborate with human partners. We cannot and do not guarantee or promise that you will receive any benefits from this study.</p>

      <p><strong>PAYMENTS:</strong> You will receive payment in the amount advertised on Prolific. If you do not complete this study, you will receive prorated payment based on the time that you have spent. Additionally, you may be eligible for bonus payments as described in the instructions.</p>

      <p><strong>PARTICIPANT’S RIGHTS:</strong> If you have read this form and have decided to participate in this project, please understand your participation is voluntary and you have the right to withdraw your consent or discontinue participation at any time without penalty or loss of benefits to which you are otherwise entitled. The alternative is not to participate. You have the right to refuse to answer particular questions. The results of this research study may be presented at scientific or professional meetings or published in scientific journals. Your individual privacy will be maintained in all published and written data resulting from the study. In accordance with scientific norms, the data from this study may be used or shared with other researchers for future research (after removing personally identifying information) without additional consent from you.</p>

      <p><strong>CONTACT INFORMATION:</strong><br>
      Questions: If you have any questions, concerns or complaints about this research, its procedures, risks and benefits, contact the Protocol Director, Robert Hawkins (<a href=""mailto:rdhawkins@stanford.edu"">rdhawkins@stanford.edu</a>, 217-549-6923).<br>
      Independent Contact: If you are not satisfied with how this study is being conducted, or if you have any concerns, complaints, or general questions about the research or your rights as a participant, please contact the Stanford Institutional Review Board (IRB) to speak to someone independent of the research team at 650-723-2480 or toll free at 1-866-680-2906, or email at <a href=""mailto:irbnon-med@stanford.edu"">irbnon-med@stanford.edu</a>. You can also write to the Stanford IRB, Stanford University, 1705 El Camino Real, Palo Alto, CA 94306.</p>

      <p><strong>Please save or print a copy of this page for your records.</strong></p>
      <p>If you agree to participate in this research, click ""Continue"" below.</p>
    </div>
  ","0","html-button-response","0","2.1.0","3835","F=YES, J=NO","8mqpzhhsh4","0","70","65","75","","","","","","","","","","","","","","","",""
"11952","
    <div style=""max-width: 800px; margin: auto; text-align: left;"">
      <h2>Welcome!</h2>
      <p>Thank you for participating in this study. The experiment consists of three parts:</p>
      <ol>
        <li>An English vocabulary test</li>
        <li>A main task in which you will hear and see words, and decide whether the written word is a real English word</li>
        <li>A brief survey about your background</li>
      </ol>
      <p>Each part will be introduced before it begins.</p>
      <p>Please make sure you are in a quiet environment and can hear audio clearly for the final task.</p>
      <p style=""margin-top: 2em;"">Press any key to begin.</p>
    </div>
  "," ","html-keyboard-response","1","2.1.0","15790","F=YES, J=NO","8mqpzhhsh4","0","70","65","75","","","","","","","","","","","","","","","",""
"","","","preload","2","2.1.0","17025","F=YES, J=NO","8mqpzhhsh4","0","70","65","75","true","false","[]","[]","[]","","","","","","","","","","",""
"5554","
    <div style=""max-width: 800px; margin: auto; text-align: left;"">
      <h2>Part 1: Vocabulary Test</h2>
      <p>You will now complete the first part of the study: a short English vocabulary test.</p>
      <p>This test is called <strong>LexTALE</strong> and helps us get a general sense of your English proficiency.</p>
      <p style=""margin-top: 2em;"">Press any key to continue.</p>
    </div>
  "," ","html-keyboard-response","3","2.1.0","22580","F=YES, J=NO","8mqpzhhsh4","0","70","65","75","","","","","","","","","","","","","","","",""
"19794","
    <div style=""max-width: 800px; margin: auto; text-align: left;"">
      <h2>LexTALE Vocabulary Test</h2>
      <p>In this test, you will see a series of letter strings—one at a time.</p>
      <p>Your task is to decide whether each string is a real English word.</p>
      <p><strong>Key responses:</strong></p>
      <ul>
        <li><strong>F</strong> = YES (real English word)</li>
        <li><strong>J</strong> = NO (not a real English word)</li>
      </ul>
      <p>There is no time limit, but please try to be accurate.</p>
      <p style=""margin-top: 2em;"">Press any key to begin.</p>
    </div>
  "," ","html-keyboard-response","4","2.1.0","42375","F=YES, J=NO","8mqpzhhsh4","0","70","65","75","","","","","","","","","","","","","","","",""
"1729","
  <p style=""font-size: 40px;"">platery</p>
  <p style=""font-size: 16px;"">F = YES &nbsp;&nbsp;&nbsp; J = NO</p>
","f","html-keyboard-response","5","2.1.0","44106","F=YES, J=NO","8mqpzhhsh4","0","70","65","75","","","","","","lextale","false","true","","","","","","","",""
"1431","
  <p style=""font-size: 40px;"">denial</p>
  <p style=""font-size: 16px;"">F = YES &nbsp;&nbsp;&nbsp; J = NO</p>
","f","html-keyboard-response","6","2.1.0","45538","F=YES, J=NO","8mqpzhhsh4","0","70","65","75","","","","","","lextale","true","true","","","","","","","",""
"916","
  <p style=""font-size: 40px;"">marrit</p>
  <p style=""font-size: 16px;"">F = YES &nbsp;&nbsp;&nbsp; J = NO</p>
","j","html-keyboard-response","7","2.1.0","46454","F=YES, J=NO","8mqpzhhsh4","0","70","65","75","","","","","","lextale","false","true","","","","","","","",""
"1724","
  <p style=""font-size: 40px;"">bottle</p>
  <p style=""font-size: 16px;"">F = YES &nbsp;&nbsp;&nbsp; J = NO</p>
","f","html-keyboard-response","8","2.1.0","48180","F=YES, J=NO","8mqpzhhsh4","0","70","65","75","","","","","","lextale","true","false","","","","","","","",""
"929","
  <p style=""font-size: 40px;"">birst</p>
  <p style=""font-size: 16px;"">F = YES &nbsp;&nbsp;&nbsp; J = NO</p>
","j","html-keyboard-response","9","2.1.0","49110","F=YES, J=NO","8mqpzhhsh4","0","70","65","75","","","","","","lextale","false","false","","","","","","","",""
"892","
  <p style=""font-size: 40px;"">envy</p>
  <p style=""font-size: 16px;"">F = YES &nbsp;&nbsp;&nbsp; J = NO</p>
","f","html-keyboard-response","10","2.1.0","50003","F=YES, J=NO","8mqpzhhsh4","0","70","65","75","","","","","","lextale","true","false","","","","","","","",""
"905","
  <p style=""font-size: 40px;"">brang</p>
  <p style=""font-size: 16px;"">F = YES &nbsp;&nbsp;&nbsp; J = NO</p>
","j","html-keyboard-response","11","2.1.0","50909","F=YES, J=NO","8mqpzhhsh4","0","70","65","75","","","","","","lextale","false","false","","","","","","","",""
"812","
  <p style=""font-size: 40px;"">huge</p>
  <p style=""font-size: 16px;"">F = YES &nbsp;&nbsp;&nbsp; J = NO</p>
","f","html-keyboard-response","12","2.1.0","51722","F=YES, J=NO","8mqpzhhsh4","0","70","65","75","","","","","","lextale","true","false","","","","","","","",""
"1258","
  <p style=""font-size: 40px;"">plove</p>
  <p style=""font-size: 16px;"">F = YES &nbsp;&nbsp;&nbsp; J = NO</p>
","j","html-keyboard-response","13","2.1.0","52981","F=YES, J=NO","8mqpzhhsh4","0","70","65","75","","","","","","lextale","false","false","","","","","","","",""
"682","
  <p style=""font-size: 40px;"">border</p>
  <p style=""font-size: 16px;"">F = YES &nbsp;&nbsp;&nbsp; J = NO</p>
","f","html-keyboard-response","14","2.1.0","53664","F=YES, J=NO","8mqpzhhsh4","0","70","65","75","","","","","","lextale","true","false","","","","","","","",""
"707","
  <p style=""font-size: 40px;"">flimsy</p>
  <p style=""font-size: 16px;"">F = YES &nbsp;&nbsp;&nbsp; J = NO</p>
","j","html-keyboard-response","15","2.1.0","54372","F=YES, J=NO","8mqpzhhsh4","0","70","65","75","","","","","","lextale","true","false","","","","","","","",""
"679","
  <p style=""font-size: 40px;"">drain</p>
  <p style=""font-size: 16px;"">F = YES &nbsp;&nbsp;&nbsp; J = NO</p>
","f","html-keyboard-response","16","2.1.0","55052","F=YES, J=NO","8mqpzhhsh4","0","70","65","75","","","","","","lextale","true","false","","","","","","","",""
"962","
  <p style=""font-size: 40px;"">twindle</p>
  <p style=""font-size: 16px;"">F = YES &nbsp;&nbsp;&nbsp; J = NO</p>
","j","html-keyboard-response","17","2.1.0","56015","F=YES, J=NO","8mqpzhhsh4","0","70","65","75","","","","","","lextale","false","false","","","","","","","",""
"1515","
  <p style=""font-size: 40px;"">propose</p>
  <p style=""font-size: 16px;"">F = YES &nbsp;&nbsp;&nbsp; J = NO</p>
","f","html-keyboard-response","18","2.1.0","57531","F=YES, J=NO","8mqpzhhsh4","0","70","65","75","","","","","","lextale","true","false","","","","","","","",""
"874","
  <p style=""font-size: 40px;"">forlay</p>
  <p style=""font-size: 16px;"">F = YES &nbsp;&nbsp;&nbsp; J = NO</p>
","f","html-keyboard-response","19","2.1.0","58406","F=YES, J=NO","8mqpzhhsh4","0","70","65","75","","","","","","lextale","false","false","","","","","","","",""
"1532","
  <p style=""font-size: 40px;"">tenant</p>
  <p style=""font-size: 16px;"">F = YES &nbsp;&nbsp;&nbsp; J = NO</p>
","f","html-keyboard-response","20","2.1.0","59938","F=YES, J=NO","8mqpzhhsh4","0","70","65","75","","","","","","lextale","true","false","","","","","","","",""
"703","
  <p style=""font-size: 40px;"">strain</p>
  <p style=""font-size: 16px;"">F = YES &nbsp;&nbsp;&nbsp; J = NO</p>
","f","html-keyboard-response","21","2.1.0","60642","F=YES, J=NO","8mqpzhhsh4","0","70","65","75","","","","","","lextale","true","false","","","","","","","",""
"973","
  <p style=""font-size: 40px;"">holster</p>
  <p style=""font-size: 16px;"">F = YES &nbsp;&nbsp;&nbsp; J = NO</p>
","f","html-keyboard-response","22","2.1.0","61615","F=YES, J=NO","8mqpzhhsh4","0","70","65","75","","","","","","lextale","true","false","","","","","","","",""
"1738","
  <p style=""font-size: 40px;"">hinder</p>
  <p style=""font-size: 16px;"">F = YES &nbsp;&nbsp;&nbsp; J = NO</p>
","f","html-keyboard-response","23","2.1.0","63354","F=YES, J=NO","8mqpzhhsh4","0","70","65","75","","","","","","lextale","true","false","","","","","","","",""
"1254","
  <p style=""font-size: 40px;"">swindle</p>
  <p style=""font-size: 16px;"">F = YES &nbsp;&nbsp;&nbsp; J = NO</p>
","j","html-keyboard-response","24","2.1.0","64609","F=YES, J=NO","8mqpzhhsh4","0","70","65","75","","","","","","lextale","true","false","","","","","","","",""
"778","
  <p style=""font-size: 40px;"">nuder</p>
  <p style=""font-size: 16px;"">F = YES &nbsp;&nbsp;&nbsp; J = NO</p>
","j","html-keyboard-response","25","2.1.0","65388","F=YES, J=NO","8mqpzhhsh4","0","70","65","75","","","","","","lextale","false","false","","","","","","","",""
"548","
  <p style=""font-size: 40px;"">pillow</p>
  <p style=""font-size: 16px;"">F = YES &nbsp;&nbsp;&nbsp; J = NO</p>
","f","html-keyboard-response","26","2.1.0","65936","F=YES, J=NO","8mqpzhhsh4","0","70","65","75","","","","","","lextale","true","false","","","","","","","",""
"914","
  <p style=""font-size: 40px;"">shumble</p>
  <p style=""font-size: 16px;"">F = YES &nbsp;&nbsp;&nbsp; J = NO</p>
","j","html-keyboard-response","27","2.1.0","66850","F=YES, J=NO","8mqpzhhsh4","0","70","65","75","","","","","","lextale","false","false","","","","","","","",""
"643","
  <p style=""font-size: 40px;"">thirst</p>
  <p style=""font-size: 16px;"">F = YES &nbsp;&nbsp;&nbsp; J = NO</p>
","f","html-keyboard-response","28","2.1.0","67494","F=YES, J=NO","8mqpzhhsh4","0","70","65","75","","","","","","lextale","true","false","","","","","","","",""
"905","
  <p style=""font-size: 40px;"">unsail</p>
  <p style=""font-size: 16px;"">F = YES &nbsp;&nbsp;&nbsp; J = NO</p>
","f","html-keyboard-response","29","2.1.0","68401","F=YES, J=NO","8mqpzhhsh4","0","70","65","75","","","","","","lextale","false","false","","","","","","","",""
"858","
  <p style=""font-size: 40px;"">rifle</p>
  <p style=""font-size: 16px;"">F = YES &nbsp;&nbsp;&nbsp; J = NO</p>
","f","html-keyboard-response","30","2.1.0","69259","F=YES, J=NO","8mqpzhhsh4","0","70","65","75","","","","","","lextale","true","false","","","","","","","",""
"1177","
  <p style=""font-size: 40px;"">mush</p>
  <p style=""font-size: 16px;"">F = YES &nbsp;&nbsp;&nbsp; J = NO</p>
","f","html-keyboard-response","31","2.1.0","70437","F=YES, J=NO","8mqpzhhsh4","0","70","65","75","","","","","","lextale","false","false","","","","","","","",""
"1567","
  <p style=""font-size: 40px;"">drench</p>
  <p style=""font-size: 16px;"">F = YES &nbsp;&nbsp;&nbsp; J = NO</p>
","f","html-keyboard-response","32","2.1.0","72005","F=YES, J=NO","8mqpzhhsh4","0","70","65","75","","","","","","lextale","true","false","","","","","","","",""
"905","
  <p style=""font-size: 40px;"">snirt</p>
  <p style=""font-size: 16px;"">F = YES &nbsp;&nbsp;&nbsp; J = NO</p>
","j","html-keyboard-response","33","2.1.0","72911","F=YES, J=NO","8mqpzhhsh4","0","70","65","75","","","","","","lextale","false","false","","","","","","","",""
"642","
  <p style=""font-size: 40px;"">bitter</p>
  <p style=""font-size: 16px;"">F = YES &nbsp;&nbsp;&nbsp; J = NO</p>
","f","html-keyboard-response","34","2.1.0","73554","F=YES, J=NO","8mqpzhhsh4","0","70","65","75","","","","","","lextale","true","false","","","","","","","",""
"870","
  <p style=""font-size: 40px;"">pliff</p>
  <p style=""font-size: 16px;"">F = YES &nbsp;&nbsp;&nbsp; J = NO</p>
","j","html-keyboard-response","35","2.1.0","74425","F=YES, J=NO","8mqpzhhsh4","0","70","65","75","","","","","","lextale","false","false","","","","","","","",""
"631","
  <p style=""font-size: 40px;"">tablet</p>
  <p style=""font-size: 16px;"">F = YES &nbsp;&nbsp;&nbsp; J = NO</p>
","f","html-keyboard-response","36","2.1.0","75057","F=YES, J=NO","8mqpzhhsh4","0","70","65","75","","","","","","lextale","true","false","","","","","","","",""
"1235","
  <p style=""font-size: 40px;"">glimmer</p>
  <p style=""font-size: 16px;"">F = YES &nbsp;&nbsp;&nbsp; J = NO</p>
","f","html-keyboard-response","37","2.1.0","76292","F=YES, J=NO","8mqpzhhsh4","0","70","65","75","","","","","","lextale","true","false","","","","","","","",""
"1099","
  <p style=""font-size: 40px;"">slink</p>
  <p style=""font-size: 16px;"">F = YES &nbsp;&nbsp;&nbsp; J = NO</p>
","j","html-keyboard-response","38","2.1.0","77392","F=YES, J=NO","8mqpzhhsh4","0","70","65","75","","","","","","lextale","true","false","","","","","","","",""
"677","
  <p style=""font-size: 40px;"">clever</p>
  <p style=""font-size: 16px;"">F = YES &nbsp;&nbsp;&nbsp; J = NO</p>
","f","html-keyboard-response","39","2.1.0","78070","F=YES, J=NO","8mqpzhhsh4","0","70","65","75","","","","","","lextale","true","false","","","","","","","",""
"703","
  <p style=""font-size: 40px;"">grum</p>
  <p style=""font-size: 16px;"">F = YES &nbsp;&nbsp;&nbsp; J = NO</p>
","j","html-keyboard-response","40","2.1.0","78774","F=YES, J=NO","8mqpzhhsh4","0","70","65","75","","","","","","lextale","false","false","","","","","","","",""
"709","
  <p style=""font-size: 40px;"">string</p>
  <p style=""font-size: 16px;"">F = YES &nbsp;&nbsp;&nbsp; J = NO</p>
","f","html-keyboard-response","41","2.1.0","79484","F=YES, J=NO","8mqpzhhsh4","0","70","65","75","","","","","","lextale","true","false","","","","","","","",""
"621","
  <p style=""font-size: 40px;"">plim</p>
  <p style=""font-size: 16px;"">F = YES &nbsp;&nbsp;&nbsp; J = NO</p>
","j","html-keyboard-response","42","2.1.0","80105","F=YES, J=NO","8mqpzhhsh4","0","70","65","75","","","","","","lextale","false","false","","","","","","","",""
"347","
  <p style=""font-size: 40px;"">cable</p>
  <p style=""font-size: 16px;"">F = YES &nbsp;&nbsp;&nbsp; J = NO</p>
","j","html-keyboard-response","43","2.1.0","80453","F=YES, J=NO","8mqpzhhsh4","0","70","65","75","","","","","","lextale","true","false","","","","","","","",""
"577","
  <p style=""font-size: 40px;"">shrivel</p>
  <p style=""font-size: 16px;"">F = YES &nbsp;&nbsp;&nbsp; J = NO</p>
","j","html-keyboard-response","44","2.1.0","81031","F=YES, J=NO","8mqpzhhsh4","0","70","65","75","","","","","","lextale","true","false","","","","","","","",""
"529","
  <p style=""font-size: 40px;"">tarnish</p>
  <p style=""font-size: 16px;"">F = YES &nbsp;&nbsp;&nbsp; J = NO</p>
","j","html-keyboard-response","45","2.1.0","81561","F=YES, J=NO","8mqpzhhsh4","0","70","65","75","","","","","","lextale","true","false","","","","","","","",""
"1275","
  <p style=""font-size: 40px;"">blim</p>
  <p style=""font-size: 16px;"">F = YES &nbsp;&nbsp;&nbsp; J = NO</p>
","j","html-keyboard-response","46","2.1.0","82837","F=YES, J=NO","8mqpzhhsh4","0","70","65","75","","","","","","lextale","false","false","","","","","","","",""
"873","
  <p style=""font-size: 40px;"">stifle</p>
  <p style=""font-size: 16px;"">F = YES &nbsp;&nbsp;&nbsp; J = NO</p>
","j","html-keyboard-response","47","2.1.0","83711","F=YES, J=NO","8mqpzhhsh4","0","70","65","75","","","","","","lextale","true","false","","","","","","","",""
"584","
  <p style=""font-size: 40px;"">bint</p>
  <p style=""font-size: 16px;"">F = YES &nbsp;&nbsp;&nbsp; J = NO</p>
","j","html-keyboard-response","48","2.1.0","84295","F=YES, J=NO","8mqpzhhsh4","0","70","65","75","","","","","","lextale","false","false","","","","","","","",""
"588","
  <p style=""font-size: 40px;"">purple</p>
  <p style=""font-size: 16px;"">F = YES &nbsp;&nbsp;&nbsp; J = NO</p>
","f","html-keyboard-response","49","2.1.0","84884","F=YES, J=NO","8mqpzhhsh4","0","70","65","75","","","","","","lextale","true","false","","","","","","","",""
"647","
  <p style=""font-size: 40px;"">wriggle</p>
  <p style=""font-size: 16px;"">F = YES &nbsp;&nbsp;&nbsp; J = NO</p>
","f","html-keyboard-response","50","2.1.0","85531","F=YES, J=NO","8mqpzhhsh4","0","70","65","75","","","","","","lextale","true","false","","","","","","","",""
"865","
  <p style=""font-size: 40px;"">mangle</p>
  <p style=""font-size: 16px;"">F = YES &nbsp;&nbsp;&nbsp; J = NO</p>
","j","html-keyboard-response","51","2.1.0","86397","F=YES, J=NO","8mqpzhhsh4","0","70","65","75","","","","","","lextale","true","false","","","","","","","",""
"593","
  <p style=""font-size: 40px;"">shramp</p>
  <p style=""font-size: 16px;"">F = YES &nbsp;&nbsp;&nbsp; J = NO</p>
","f","html-keyboard-response","52","2.1.0","86991","F=YES, J=NO","8mqpzhhsh4","0","70","65","75","","","","","","lextale","false","false","","","","","","","",""
"623","
  <p style=""font-size: 40px;"">flirt</p>
  <p style=""font-size: 16px;"">F = YES &nbsp;&nbsp;&nbsp; J = NO</p>
","f","html-keyboard-response","53","2.1.0","87615","F=YES, J=NO","8mqpzhhsh4","0","70","65","75","","","","","","lextale","true","false","","","","","","","",""
"904","
  <p style=""font-size: 40px;"">frip</p>
  <p style=""font-size: 16px;"">F = YES &nbsp;&nbsp;&nbsp; J = NO</p>
","j","html-keyboard-response","54","2.1.0","88519","F=YES, J=NO","8mqpzhhsh4","0","70","65","75","","","","","","lextale","false","false","","","","","","","",""
"929","
  <p style=""font-size: 40px;"">tangle</p>
  <p style=""font-size: 16px;"">F = YES &nbsp;&nbsp;&nbsp; J = NO</p>
","f","html-keyboard-response","55","2.1.0","89450","F=YES, J=NO","8mqpzhhsh4","0","70","65","75","","","","","","lextale","true","false","","","","","","","",""
"944","
  <p style=""font-size: 40px;"">crumble</p>
  <p style=""font-size: 16px;"">F = YES &nbsp;&nbsp;&nbsp; J = NO</p>
","f","html-keyboard-response","56","2.1.0","90394","F=YES, J=NO","8mqpzhhsh4","0","70","65","75","","","","","","lextale","true","false","","","","","","","",""
"754","
  <p style=""font-size: 40px;"">wrinkle</p>
  <p style=""font-size: 16px;"">F = YES &nbsp;&nbsp;&nbsp; J = NO</p>
","f","html-keyboard-response","57","2.1.0","91149","F=YES, J=NO","8mqpzhhsh4","0","70","65","75","","","","","","lextale","true","false","","","","","","","",""
"712","
  <p style=""font-size: 40px;"">slumb</p>
  <p style=""font-size: 16px;"">F = YES &nbsp;&nbsp;&nbsp; J = NO</p>
","j","html-keyboard-response","58","2.1.0","91862","F=YES, J=NO","8mqpzhhsh4","0","70","65","75","","","","","","lextale","false","false","","","","","","","",""
"573","
  <p style=""font-size: 40px;"">jungle</p>
  <p style=""font-size: 16px;"">F = YES &nbsp;&nbsp;&nbsp; J = NO</p>
","f","html-keyboard-response","59","2.1.0","92436","F=YES, J=NO","8mqpzhhsh4","0","70","65","75","","","","","","lextale","true","false","","","","","","","",""
"1069","
  <p style=""font-size: 40px;"">frolick</p>
  <p style=""font-size: 16px;"">F = YES &nbsp;&nbsp;&nbsp; J = NO</p>
","j","html-keyboard-response","60","2.1.0","93505","F=YES, J=NO","8mqpzhhsh4","0","70","65","75","","","","","","lextale","false","false","","","","","","","",""
"27738","
      <h2>LexTALE Test Completed</h2>
      <p>Your LexTALE vocabulary score is: <strong>70%</strong></p>
      <p>Press any key to continue.</p>
    "," ","html-keyboard-response","61","2.1.0","121245","F=YES, J=NO","8mqpzhhsh4","0","70","65","75","","","","","","","","","","","","","","","",""
"2946","
    <div style=""max-width: 800px; margin: auto; text-align: left;"">
      <h2>Break Time</h2>
      <p>You have completed the first part of the study.</p>
      <p>You may take a short <strong>30-second break</strong> before continuing.</p>
      <p>When you’re ready, press any key to continue to the final task.</p>
    </div>
  "," ","html-keyboard-response","62","2.1.0","124192","F=YES, J=NO","8mqpzhhsh4","0","70","65","75","","","","","","","","","","","","","","","",""
"16384","
    <div style=""max-width: 800px; margin: auto; text-align: left;"">
      <h2>Part 2: Lexical Decision Task</h2>
      <p>You will now begin the second part of the study.</p>
      <p>Each trial will follow this sequence:</p>
      <ul>
        <li>A fixation cross (+) appears at the center of the screen.</li>
        <li>You will hear a short beep followed by a spoken word.</li>
        <li>A written word will appear briefly on the screen.</li>
      </ul>
      <p>Your task is to judge whether the <strong>written word</strong> is a real English word.</p>
      <p style=""margin-top: 1em;""><strong>Key responses:</strong></p>
      <ul>
        <li><strong>F</strong> = YES (real English word)</li>
        <li><strong>J</strong> = NO (not a real English word)</li>
      </ul>
      <p>Please respond as quickly and accurately as you can.</p>
      <p style=""margin-top: 2em;"">Press any key to continue.</p>
    </div>
  ","AudioVolumeUp","html-keyboard-response","63","2.1.0","140576","F=YES, J=NO","8mqpzhhsh4","0","70","65","75","","","","","","","","","","","","","","","",""
"857","
    <div style=""max-width: 800px; margin: auto; text-align: left;"">
      <h2>Before You Begin</h2>
      <p>Make sure your sound is turned on.</p>
      <p>You will hear audio during each trial, but your decision should be based only on the <strong>written word</strong> you see on the screen.</p>
      <p><strong>Reminder:</strong></p>
      <ul>
        <li><strong>F</strong> = YES (real English word)</li>
        <li><strong>J</strong> = NO (not a real English word)</li>
      </ul>
      <p style=""margin-top: 2em;"">Press any key when you are ready to begin.</p>
    </div>
  ","AudioVolumeDown","html-keyboard-response","64","2.1.0","141435","F=YES, J=NO","8mqpzhhsh4","0","70","65","75","","","","","","","","","","","","","","","",""
"195","
    <div style=""max-width: 800px; margin: auto; text-align: left;"">
      <h2>Part 2: Practice Trials</h2>
      <p>You will now complete a few <strong>practice trials</strong> to get familiar with the task.</p>
      <p>These trials are <strong>not scored</strong> and are only to help you get used to the format.</p>
      <p style=""margin-top: 2em;"">Press any key to begin.</p>
    </div>
  ","AudioVolumeDown","html-keyboard-response","65","2.1.0","141630","F=YES, J=NO","8mqpzhhsh4","0","70","65","75","","","","","","","","","","","","","","","",""
"1813","<p>Starting practice block 1 of 2. Press any key to continue.</p>"," ","html-keyboard-response","66","2.1.0","143444","F=YES, J=NO","8mqpzhhsh4","0","70","65","75","","","","","","","","","","","","","","","",""
"null","<p style=""font-size: 50px;"">+</p>","null","html-keyboard-response","67","2.1.0","143748","F=YES, J=NO","8mqpzhhsh4","0","70","65","75","","","","","","","","","","","","","","","",""
"null","audio/beep-329314.mp3","null","audio-keyboard-response","68","2.1.0","145394","F=YES, J=NO","8mqpzhhsh4","0","70","65","75","","","","","","","","","","","","","","","",""
"null","audio/holiday1.wav","null","audio-keyboard-response","69","2.1.0","146033","F=YES, J=NO","8mqpzhhsh4","0","70","65","75","","","","","","","","","","","","","","","",""
"null","
          <p id=""word"" style=""font-size: 40px;"">drivets</p>
          <p style=""font-size: 16px;"">F = YES &nbsp;&nbsp;&nbsp; J = NO</p>
        ","null","html-keyboard-response","70","2.1.0","147542","F=YES, J=NO","8mqpzhhsh4","0","70","65","75","","","","","","","","","drivets","holiday1","pseudoword","pseudoword","j","false","",""
"null","<p style=""font-size: 50px;"">+</p>","null","html-keyboard-response","71","2.1.0","147857","F=YES, J=NO","8mqpzhhsh4","0","70","65","75","","","","","","","","","","","","","","","",""
"null","audio/beep-329314.mp3","null","audio-keyboard-response","72","2.1.0","149393","F=YES, J=NO","8mqpzhhsh4","0","70","65","75","","","","","","","","","","","","","","","",""
"null","audio/emotion.wav","null","audio-keyboard-response","73","2.1.0","150113","F=YES, J=NO","8mqpzhhsh4","0","70","65","75","","","","","","","","","","","","","","","",""
"null","
          <p id=""word"" style=""font-size: 40px;"">devering</p>
          <p style=""font-size: 16px;"">F = YES &nbsp;&nbsp;&nbsp; J = NO</p>
        ","null","html-keyboard-response","74","2.1.0","151631","F=YES, J=NO","8mqpzhhsh4","0","70","65","75","","","","","","","","","devering","emotion","pseudoword","pseudoword","j","false","",""
"null","<p style=""font-size: 50px;"">+</p>","null","html-keyboard-response","75","2.1.0","151951","F=YES, J=NO","8mqpzhhsh4","0","70","65","75","","","","","","","","","","","","","","","",""
"null","audio/beep-329314.mp3","null","audio-keyboard-response","76","2.1.0","153473","F=YES, J=NO","8mqpzhhsh4","0","70","65","75","","","","","","","","","","","","","","","",""
"null","audio/butter1.wav","null","audio-keyboard-response","77","2.1.0","153913","F=YES, J=NO","8mqpzhhsh4","0","70","65","75","","","","","","","","","","","","","","","",""
"1002","
          <p id=""word"" style=""font-size: 40px;"">chew</p>
          <p style=""font-size: 16px;"">F = YES &nbsp;&nbsp;&nbsp; J = NO</p>
        ","f","html-keyboard-response","78","2.1.0","154916","F=YES, J=NO","8mqpzhhsh4","0","70","65","75","","","","","","","","","chew","butter1","filler","filler","f","true","",""
"null","<p style=""font-size: 50px;"">+</p>","null","html-keyboard-response","79","2.1.0","155221","F=YES, J=NO","8mqpzhhsh4","0","70","65","75","","","","","","","","","","","","","","","",""
"null","audio/beep-329314.mp3","null","audio-keyboard-response","80","2.1.0","156753","F=YES, J=NO","8mqpzhhsh4","0","70","65","75","","","","","","","","","","","","","","","",""
"null","audio/account1.wav","null","audio-keyboard-response","81","2.1.0","157613","F=YES, J=NO","8mqpzhhsh4","0","70","65","75","","","","","","","","","","","","","","","",""
"594","
          <p id=""word"" style=""font-size: 40px;"">paint</p>
          <p style=""font-size: 16px;"">F = YES &nbsp;&nbsp;&nbsp; J = NO</p>
        ","f","html-keyboard-response","82","2.1.0","158208","F=YES, J=NO","8mqpzhhsh4","0","70","65","75","","","","","","","","","paint","account1","filler","filler","f","true","",""
"null","<p style=""font-size: 50px;"">+</p>","null","html-keyboard-response","83","2.1.0","158521","F=YES, J=NO","8mqpzhhsh4","0","70","65","75","","","","","","","","","","","","","","","",""
"null","audio/beep-329314.mp3","null","audio-keyboard-response","84","2.1.0","160053","F=YES, J=NO","8mqpzhhsh4","0","70","65","75","","","","","","","","","","","","","","","",""
"null","audio/client1.wav","null","audio-keyboard-response","85","2.1.0","160953","F=YES, J=NO","8mqpzhhsh4","0","70","65","75","","","","","","","","","","","","","","","",""
"748","
          <p id=""word"" style=""font-size: 40px;"">droothe</p>
          <p style=""font-size: 16px;"">F = YES &nbsp;&nbsp;&nbsp; J = NO</p>
        ","f","html-keyboard-response","86","2.1.0","161702","F=YES, J=NO","8mqpzhhsh4","0","70","65","75","","","","","","","","","droothe","client1","pseudoword","pseudoword","j","false","",""
"null","<p style=""font-size: 50px;"">+</p>","null","html-keyboard-response","87","2.1.0","162011","F=YES, J=NO","8mqpzhhsh4","0","70","65","75","","","","","","","","","","","","","","","",""
"null","audio/beep-329314.mp3","null","audio-keyboard-response","88","2.1.0","163533","F=YES, J=NO","8mqpzhhsh4","0","70","65","75","","","","","","","","","","","","","","","",""
"null","audio/belief.wav","null","audio-keyboard-response","89","2.1.0","164153","F=YES, J=NO","8mqpzhhsh4","0","70","65","75","","","","","","","","","","","","","","","",""
"532","
          <p id=""word"" style=""font-size: 40px;"">read</p>
          <p style=""font-size: 16px;"">F = YES &nbsp;&nbsp;&nbsp; J = NO</p>
        ","f","html-keyboard-response","90","2.1.0","164685","F=YES, J=NO","8mqpzhhsh4","0","70","65","75","","","","","","","","","read","belief","filler","filler","f","true","",""
"null","<p style=""font-size: 50px;"">+</p>","null","html-keyboard-response","91","2.1.0","164991","F=YES, J=NO","8mqpzhhsh4","0","70","65","75","","","","","","","","","","","","","","","",""
"null","audio/beep-329314.mp3","null","audio-keyboard-response","92","2.1.0","166513","F=YES, J=NO","8mqpzhhsh4","0","70","65","75","","","","","","","","","","","","","","","",""
"null","audio/ankle1.wav","null","audio-keyboard-response","93","2.1.0","167133","F=YES, J=NO","8mqpzhhsh4","0","70","65","75","","","","","","","","","","","","","","","",""
"594","
          <p id=""word"" style=""font-size: 40px;"">switm</p>
          <p style=""font-size: 16px;"">F = YES &nbsp;&nbsp;&nbsp; J = NO</p>
        ","j","html-keyboard-response","94","2.1.0","167728","F=YES, J=NO","8mqpzhhsh4","0","70","65","75","","","","","","","","","switm","ankle1","pseudoword","pseudoword","j","true","",""
"null","<p style=""font-size: 50px;"">+</p>","null","html-keyboard-response","95","2.1.0","168052","F=YES, J=NO","8mqpzhhsh4","0","70","65","75","","","","","","","","","","","","","","","",""
"null","audio/beep-329314.mp3","null","audio-keyboard-response","96","2.1.0","169573","F=YES, J=NO","8mqpzhhsh4","0","70","65","75","","","","","","","","","","","","","","","",""
"null","audio/ankle1.wav","null","audio-keyboard-response","97","2.1.0","170093","F=YES, J=NO","8mqpzhhsh4","0","70","65","75","","","","","","","","","","","","","","","",""
"571","
          <p id=""word"" style=""font-size: 40px;"">kick</p>
          <p style=""font-size: 16px;"">F = YES &nbsp;&nbsp;&nbsp; J = NO</p>
        ","f","html-keyboard-response","98","2.1.0","170665","F=YES, J=NO","8mqpzhhsh4","0","70","65","75","","","","","","","","","kick","ankle1","filler","filler","f","true","",""
"null","<p style=""font-size: 50px;"">+</p>","null","html-keyboard-response","99","2.1.0","170976","F=YES, J=NO","8mqpzhhsh4","0","70","65","75","","","","","","","","","","","","","","","",""
"null","audio/beep-329314.mp3","null","audio-keyboard-response","100","2.1.0","172513","F=YES, J=NO","8mqpzhhsh4","0","70","65","75","","","","","","","","","","","","","","","",""
"null","audio/beach1.wav","null","audio-keyboard-response","101","2.1.0","173193","F=YES, J=NO","8mqpzhhsh4","0","70","65","75","","","","","","","","","","","","","","","",""
"654","
          <p id=""word"" style=""font-size: 40px;"">drive</p>
          <p style=""font-size: 16px;"">F = YES &nbsp;&nbsp;&nbsp; J = NO</p>
        ","f","html-keyboard-response","102","2.1.0","173848","F=YES, J=NO","8mqpzhhsh4","0","70","65","75","","","","","","","","","drive","beach1","filler","filler","f","true","",""
"null","<p style=""font-size: 50px;"">+</p>","null","html-keyboard-response","103","2.1.0","174166","F=YES, J=NO","8mqpzhhsh4","0","70","65","75","","","","","","","","","","","","","","","",""
"null","audio/beep-329314.mp3","null","audio-keyboard-response","104","2.1.0","175693","F=YES, J=NO","8mqpzhhsh4","0","70","65","75","","","","","","","","","","","","","","","",""
"null","audio/show.wav","null","audio-keyboard-response","105","2.1.0","176293","F=YES, J=NO","8mqpzhhsh4","0","70","65","75","","","","","","","","","","","","","","","",""
"642","
          <p id=""word"" style=""font-size: 40px;"">smark</p>
          <p style=""font-size: 16px;"">F = YES &nbsp;&nbsp;&nbsp; J = NO</p>
        ","j","html-keyboard-response","106","2.1.0","176935","F=YES, J=NO","8mqpzhhsh4","0","70","65","75","","","","","","","","","smark","show","pseudoword","pseudoword","j","true","",""
"null","<p style=""font-size: 50px;"">+</p>","null","html-keyboard-response","107","2.1.0","177236","F=YES, J=NO","8mqpzhhsh4","0","70","65","75","","","","","","","","","","","","","","","",""
"null","audio/beep-329314.mp3","null","audio-keyboard-response","108","2.1.0","178773","F=YES, J=NO","8mqpzhhsh4","0","70","65","75","","","","","","","","","","","","","","","",""
"null","audio/tomato.wav","null","audio-keyboard-response","109","2.1.0","179493","F=YES, J=NO","8mqpzhhsh4","0","70","65","75","","","","","","","","","","","","","","","",""
"572","
          <p id=""word"" style=""font-size: 40px;"">gladies</p>
          <p style=""font-size: 16px;"">F = YES &nbsp;&nbsp;&nbsp; J = NO</p>
        ","j","html-keyboard-response","110","2.1.0","180065","F=YES, J=NO","8mqpzhhsh4","0","70","65","75","","","","","","","","","gladies","tomato","pseudoword","pseudoword","j","true","",""
"null","<p style=""font-size: 50px;"">+</p>","null","html-keyboard-response","111","2.1.0","180381","F=YES, J=NO","8mqpzhhsh4","0","70","65","75","","","","","","","","","","","","","","","",""
"null","audio/beep-329314.mp3","null","audio-keyboard-response","112","2.1.0","181913","F=YES, J=NO","8mqpzhhsh4","0","70","65","75","","","","","","","","","","","","","","","",""
"null","audio/mouth1.wav","null","audio-keyboard-response","113","2.1.0","182573","F=YES, J=NO","8mqpzhhsh4","0","70","65","75","","","","","","","","","","","","","","","",""
"571","
          <p id=""word"" style=""font-size: 40px;"">spolial</p>
          <p style=""font-size: 16px;"">F = YES &nbsp;&nbsp;&nbsp; J = NO</p>
        ","j","html-keyboard-response","114","2.1.0","183144","F=YES, J=NO","8mqpzhhsh4","0","70","65","75","","","","","","","","","spolial","mouth1","pseudoword","pseudoword","j","true","",""
"48358","<p>Starting practice block 2 of 2. Press any key to continue.</p>"," ","html-keyboard-response","115","2.1.0","231503","F=YES, J=NO","8mqpzhhsh4","0","70","65","75","","","","","","","","","","","","","","","",""
"null","<p style=""font-size: 50px;"">+</p>","null","html-keyboard-response","116","2.1.0","231813","F=YES, J=NO","8mqpzhhsh4","0","70","65","75","","","","","","","","","","","","","","","",""
"null","audio/beep-329314.mp3","null","audio-keyboard-response","117","2.1.0","233475","F=YES, J=NO","8mqpzhhsh4","0","70","65","75","","","","","","","","","","","","","","","",""
"null","audio/brain.wav","null","audio-keyboard-response","118","2.1.0","234015","F=YES, J=NO","8mqpzhhsh4","0","70","65","75","","","","","","","","","","","","","","","",""
"null","
          <p id=""word"" style=""font-size: 40px;"">throw</p>
          <p style=""font-size: 16px;"">F = YES &nbsp;&nbsp;&nbsp; J = NO</p>
        ","null","html-keyboard-response","119","2.1.0","235534","F=YES, J=NO","8mqpzhhsh4","0","70","65","75","","","","","","","","","throw","brain","filler","filler","f","false","",""
"null","<p style=""font-size: 50px;"">+</p>","null","html-keyboard-response","120","2.1.0","235853","F=YES, J=NO","8mqpzhhsh4","0","70","65","75","","","","","","","","","","","","","","","",""
"null","audio/beep-329314.mp3","null","audio-keyboard-response","121","2.1.0","237375","F=YES, J=NO","8mqpzhhsh4","0","70","65","75","","","","","","","","","","","","","","","",""
"null","audio/pattern.wav","null","audio-keyboard-response","122","2.1.0","237935","F=YES, J=NO","8mqpzhhsh4","0","70","65","75","","","","","","","","","","","","","","","",""
"null","
          <p id=""word"" style=""font-size: 40px;"">tug</p>
          <p style=""font-size: 16px;"">F = YES &nbsp;&nbsp;&nbsp; J = NO</p>
        ","null","html-keyboard-response","123","2.1.0","239439","F=YES, J=NO","8mqpzhhsh4","0","70","65","75","","","","","","","","","tug","pattern","filler","filler","f","false","",""
"null","<p style=""font-size: 50px;"">+</p>","null","html-keyboard-response","124","2.1.0","239753","F=YES, J=NO","8mqpzhhsh4","0","70","65","75","","","","","","","","","","","","","","","",""
"null","audio/beep-329314.mp3","null","audio-keyboard-response","125","2.1.0","241276","F=YES, J=NO","8mqpzhhsh4","0","70","65","75","","","","","","","","","","","","","","","",""
"null","audio/birth1.wav","null","audio-keyboard-response","126","2.1.0","241836","F=YES, J=NO","8mqpzhhsh4","0","70","65","75","","","","","","","","","","","","","","","",""
"null","
          <p id=""word"" style=""font-size: 40px;"">peel</p>
          <p style=""font-size: 16px;"">F = YES &nbsp;&nbsp;&nbsp; J = NO</p>
        ","null","html-keyboard-response","127","2.1.0","243353","F=YES, J=NO","8mqpzhhsh4","0","70","65","75","","","","","","","","","peel","birth1","filler","filler","f","false","",""
"null","<p style=""font-size: 50px;"">+</p>","null","html-keyboard-response","128","2.1.0","243673","F=YES, J=NO","8mqpzhhsh4","0","70","65","75","","","","","","","","","","","","","","","",""
"null","audio/beep-329314.mp3","null","audio-keyboard-response","129","2.1.0","245196","F=YES, J=NO","8mqpzhhsh4","0","70","65","75","","","","","","","","","","","","","","","",""
"null","audio/arm.wav","null","audio-keyboard-response","130","2.1.0","245756","F=YES, J=NO","8mqpzhhsh4","0","70","65","75","","","","","","","","","","","","","","","",""
"null","
          <p id=""word"" style=""font-size: 40px;"">pigne</p>
          <p style=""font-size: 16px;"">F = YES &nbsp;&nbsp;&nbsp; J = NO</p>
        ","null","html-keyboard-response","131","2.1.0","247264","F=YES, J=NO","8mqpzhhsh4","0","70","65","75","","","","","","","","","pigne","arm","pseudoword","pseudoword","j","false","",""
"null","<p style=""font-size: 50px;"">+</p>","null","html-keyboard-response","132","2.1.0","247569","F=YES, J=NO","8mqpzhhsh4","0","70","65","75","","","","","","","","","","","","","","","",""
"null","audio/beep-329314.mp3","null","audio-keyboard-response","133","2.1.0","249096","F=YES, J=NO","8mqpzhhsh4","0","70","65","75","","","","","","","","","","","","","","","",""
"null","audio/bishop1.wav","null","audio-keyboard-response","134","2.1.0","250536","F=YES, J=NO","8mqpzhhsh4","0","70","65","75","","","","","","","","","","","","","","","",""
"null","
          <p id=""word"" style=""font-size: 40px;"">play</p>
          <p style=""font-size: 16px;"">F = YES &nbsp;&nbsp;&nbsp; J = NO</p>
        ","null","html-keyboard-response","135","2.1.0","252044","F=YES, J=NO","8mqpzhhsh4","0","70","65","75","","","","","","","","","play","bishop1","filler","filler","f","false","",""
"null","<p style=""font-size: 50px;"">+</p>","null","html-keyboard-response","136","2.1.0","252354","F=YES, J=NO","8mqpzhhsh4","0","70","65","75","","","","","","","","","","","","","","","",""
"null","audio/beep-329314.mp3","null","audio-keyboard-response","137","2.1.0","253876","F=YES, J=NO","8mqpzhhsh4","0","70","65","75","","","","","","","","","","","","","","","",""
"null","audio/cave1.wav","null","audio-keyboard-response","138","2.1.0","254497","F=YES, J=NO","8mqpzhhsh4","0","70","65","75","","","","","","","","","","","","","","","",""
"623","
          <p id=""word"" style=""font-size: 40px;"">blacket</p>
          <p style=""font-size: 16px;"">F = YES &nbsp;&nbsp;&nbsp; J = NO</p>
        ","f","html-keyboard-response","139","2.1.0","255121","F=YES, J=NO","8mqpzhhsh4","0","70","65","75","","","","","","","","","blacket","cave1","pseudoword","pseudoword","j","false","",""
"null","<p style=""font-size: 50px;"">+</p>","null","html-keyboard-response","140","2.1.0","255434","F=YES, J=NO","8mqpzhhsh4","0","70","65","75","","","","","","","","","","","","","","","",""
"null","audio/beep-329314.mp3","null","audio-keyboard-response","141","2.1.0","256956","F=YES, J=NO","8mqpzhhsh4","0","70","65","75","","","","","","","","","","","","","","","",""
"null","audio/strength.wav","null","audio-keyboard-response","142","2.1.0","257856","F=YES, J=NO","8mqpzhhsh4","0","70","65","75","","","","","","","","","","","","","","","",""
"657","
          <p id=""word"" style=""font-size: 40px;"">plabet</p>
          <p style=""font-size: 16px;"">F = YES &nbsp;&nbsp;&nbsp; J = NO</p>
        ","j","html-keyboard-response","143","2.1.0","258514","F=YES, J=NO","8mqpzhhsh4","0","70","65","75","","","","","","","","","plabet","strength","pseudoword","pseudoword","j","true","",""
"null","<p style=""font-size: 50px;"">+</p>","null","html-keyboard-response","144","2.1.0","258819","F=YES, J=NO","8mqpzhhsh4","0","70","65","75","","","","","","","","","","","","","","","",""
"null","audio/beep-329314.mp3","null","audio-keyboard-response","145","2.1.0","260356","F=YES, J=NO","8mqpzhhsh4","0","70","65","75","","","","","","","","","","","","","","","",""
"null","audio/bomb1.wav","null","audio-keyboard-response","146","2.1.0","260916","F=YES, J=NO","8mqpzhhsh4","0","70","65","75","","","","","","","","","","","","","","","",""
"570","
          <p id=""word"" style=""font-size: 40px;"">clean</p>
          <p style=""font-size: 16px;"">F = YES &nbsp;&nbsp;&nbsp; J = NO</p>
        ","f","html-keyboard-response","147","2.1.0","261489","F=YES, J=NO","8mqpzhhsh4","0","70","65","75","","","","","","","","","clean","bomb1","filler","filler","f","true","",""
"null","<p style=""font-size: 50px;"">+</p>","null","html-keyboard-response","148","2.1.0","261794","F=YES, J=NO","8mqpzhhsh4","0","70","65","75","","","","","","","","","","","","","","","",""
"null","audio/beep-329314.mp3","null","audio-keyboard-response","149","2.1.0","263316","F=YES, J=NO","8mqpzhhsh4","0","70","65","75","","","","","","","","","","","","","","","",""
"null","audio/truth1.wav","null","audio-keyboard-response","150","2.1.0","264036","F=YES, J=NO","8mqpzhhsh4","0","70","65","75","","","","","","","","","","","","","","","",""
"520","
          <p id=""word"" style=""font-size: 40px;"">calitom</p>
          <p style=""font-size: 16px;"">F = YES &nbsp;&nbsp;&nbsp; J = NO</p>
        ","j","html-keyboard-response","151","2.1.0","264558","F=YES, J=NO","8mqpzhhsh4","0","70","65","75","","","","","","","","","calitom","truth1","pseudoword","pseudoword","j","true","",""
"null","<p style=""font-size: 50px;"">+</p>","null","html-keyboard-response","152","2.1.0","264868","F=YES, J=NO","8mqpzhhsh4","0","70","65","75","","","","","","","","","","","","","","","",""
"null","audio/beep-329314.mp3","null","audio-keyboard-response","153","2.1.0","266396","F=YES, J=NO","8mqpzhhsh4","0","70","65","75","","","","","","","","","","","","","","","",""
"null","audio/fence.wav","null","audio-keyboard-response","154","2.1.0","267236","F=YES, J=NO","8mqpzhhsh4","0","70","65","75","","","","","","","","","","","","","","","",""
"595","
          <p id=""word"" style=""font-size: 40px;"">trim</p>
          <p style=""font-size: 16px;"">F = YES &nbsp;&nbsp;&nbsp; J = NO</p>
        ","f","html-keyboard-response","155","2.1.0","267832","F=YES, J=NO","8mqpzhhsh4","0","70","65","75","","","","","","","","","trim","fence","filler","filler","f","true","",""
"null","<p style=""font-size: 50px;"">+</p>","null","html-keyboard-response","156","2.1.0","268154","F=YES, J=NO","8mqpzhhsh4","0","70","65","75","","","","","","","","","","","","","","","",""
"null","audio/beep-329314.mp3","null","audio-keyboard-response","157","2.1.0","269676","F=YES, J=NO","8mqpzhhsh4","0","70","65","75","","","","","","","","","","","","","","","",""
"null","audio/kettle1.wav","null","audio-keyboard-response","158","2.1.0","270298","F=YES, J=NO","8mqpzhhsh4","0","70","65","75","","","","","","","","","","","","","","","",""
"593","
          <p id=""word"" style=""font-size: 40px;"">wrap</p>
          <p style=""font-size: 16px;"">F = YES &nbsp;&nbsp;&nbsp; J = NO</p>
        ","f","html-keyboard-response","159","2.1.0","270892","F=YES, J=NO","8mqpzhhsh4","0","70","65","75","","","","","","","","","wrap","kettle1","filler","filler","f","true","",""
"null","<p style=""font-size: 50px;"">+</p>","null","html-keyboard-response","160","2.1.0","271203","F=YES, J=NO","8mqpzhhsh4","0","70","65","75","","","","","","","","","","","","","","","",""
"null","audio/beep-329314.mp3","null","audio-keyboard-response","161","2.1.0","272736","F=YES, J=NO","8mqpzhhsh4","0","70","65","75","","","","","","","","","","","","","","","",""
"null","audio/handle.wav","null","audio-keyboard-response","162","2.1.0","273536","F=YES, J=NO","8mqpzhhsh4","0","70","65","75","","","","","","","","","","","","","","","",""
"775","
          <p id=""word"" style=""font-size: 40px;"">moutes</p>
          <p style=""font-size: 16px;"">F = YES &nbsp;&nbsp;&nbsp; J = NO</p>
        ","j","html-keyboard-response","163","2.1.0","274312","F=YES, J=NO","8mqpzhhsh4","0","70","65","75","","","","","","","","","moutes","handle","pseudoword","pseudoword","j","true","",""
"12931","
    <div style=""max-width: 800px; margin: auto; text-align: left;"">
      <h2>Part 2: Main Trials</h2>
      <p>Great job on the practice trials!</p>
      <p>You will now begin the <strong>main set of trials</strong>.</p>
      <p>Remember your key assignments:</p>
      <ul>
        <li><strong>F</strong> = YES (real English word)</li>
        <li><strong>J</strong> = NO (not a real English word)</li>
      </ul>
      <p>Try to respond as <strong>quickly and accurately</strong> as possible.</p>
      <p style=""margin-top: 2em;"">Press any key to begin the main trials.</p>
    </div>
  "," ","html-keyboard-response","164","2.1.0","287245","F=YES, J=NO","8mqpzhhsh4","0","70","65","75","","","","","","","","","","","","","","","",""
"1624","<p>Starting main block 1 of 8. Press any key to continue.</p>"," ","html-keyboard-response","165","2.1.0","288870","F=YES, J=NO","8mqpzhhsh4","0","70","65","75","","","","","","","","","","","","","","","",""
"null","<p style=""font-size: 50px;"">+</p>","null","html-keyboard-response","166","2.1.0","289179","F=YES, J=NO","8mqpzhhsh4","0","70","65","75","","","","","","","","","","","","","","","",""
"null","audio/beep-329314.mp3","null","audio-keyboard-response","167","2.1.0","290898","F=YES, J=NO","8mqpzhhsh4","0","70","65","75","","","","","","","","","","","","","","","",""
"null","audio/breath.wav","null","audio-keyboard-response","168","2.1.0","291518","F=YES, J=NO","8mqpzhhsh4","0","70","65","75","","","","","","","","","","","","","","","",""
"1419","
          <p id=""word"" style=""font-size: 40px;"">twets</p>
          <p style=""font-size: 16px;"">F = YES &nbsp;&nbsp;&nbsp; J = NO</p>
        ","f","html-keyboard-response","169","2.1.0","292939","F=YES, J=NO","8mqpzhhsh4","0","70","65","75","","","","","","","","","twets","breath","pseudoword","pseudoword","j","false","",""
"null","<p style=""font-size: 50px;"">+</p>","null","html-keyboard-response","170","2.1.0","293246","F=YES, J=NO","8mqpzhhsh4","0","70","65","75","","","","","","","","","","","","","","","",""
"null","audio/beep-329314.mp3","null","audio-keyboard-response","171","2.1.0","294778","F=YES, J=NO","8mqpzhhsh4","0","70","65","75","","","","","","","","","","","","","","","",""
"null","audio/cancer1.wav","null","audio-keyboard-response","172","2.1.0","295338","F=YES, J=NO","8mqpzhhsh4","0","70","65","75","","","","","","","","","","","","","","","",""
"635","
          <p id=""word"" style=""font-size: 40px;"">fight</p>
          <p style=""font-size: 16px;"">F = YES &nbsp;&nbsp;&nbsp; J = NO</p>
        ","f","html-keyboard-response","173","2.1.0","295975","F=YES, J=NO","8mqpzhhsh4","0","70","65","75","","","","","","","","","fight","cancer1","metaphor","experimental","f","true","",""
"null","<p style=""font-size: 50px;"">+</p>","null","html-keyboard-response","174","2.1.0","296286","F=YES, J=NO","8mqpzhhsh4","0","70","65","75","","","","","","","","","","","","","","","",""
"null","audio/beep-329314.mp3","null","audio-keyboard-response","175","2.1.0","297819","F=YES, J=NO","8mqpzhhsh4","0","70","65","75","","","","","","","","","","","","","","","",""
"null","audio/weight1.wav","null","audio-keyboard-response","176","2.1.0","298358","F=YES, J=NO","8mqpzhhsh4","0","70","65","75","","","","","","","","","","","","","","","",""
"559","
          <p id=""word"" style=""font-size: 40px;"">crimsh</p>
          <p style=""font-size: 16px;"">F = YES &nbsp;&nbsp;&nbsp; J = NO</p>
        ","j","html-keyboard-response","177","2.1.0","298919","F=YES, J=NO","8mqpzhhsh4","0","70","65","75","","","","","","","","","crimsh","weight1","pseudoword","pseudoword","j","true","",""
"null","<p style=""font-size: 50px;"">+</p>","null","html-keyboard-response","178","2.1.0","299226","F=YES, J=NO","8mqpzhhsh4","0","70","65","75","","","","","","","","","","","","","","","",""
"null","audio/beep-329314.mp3","null","audio-keyboard-response","179","2.1.0","300758","F=YES, J=NO","8mqpzhhsh4","0","70","65","75","","","","","","","","","","","","","","","",""
"null","audio/age1.wav","null","audio-keyboard-response","180","2.1.0","301318","F=YES, J=NO","8mqpzhhsh4","0","70","65","75","","","","","","","","","","","","","","","",""
"529","
          <p id=""word"" style=""font-size: 40px;"">bake</p>
          <p style=""font-size: 16px;"">F = YES &nbsp;&nbsp;&nbsp; J = NO</p>
        ","f","html-keyboard-response","181","2.1.0","301848","F=YES, J=NO","8mqpzhhsh4","0","70","65","75","","","","","","","","","bake","age1","filler","filler","f","true","",""
"null","<p style=""font-size: 50px;"">+</p>","null","html-keyboard-response","182","2.1.0","302166","F=YES, J=NO","8mqpzhhsh4","0","70","65","75","","","","","","","","","","","","","","","",""
"null","audio/beep-329314.mp3","null","audio-keyboard-response","183","2.1.0","303698","F=YES, J=NO","8mqpzhhsh4","0","70","65","75","","","","","","","","","","","","","","","",""
"null","audio/alarm1.wav","null","audio-keyboard-response","184","2.1.0","304299","F=YES, J=NO","8mqpzhhsh4","0","70","65","75","","","","","","","","","","","","","","","",""
"556","
          <p id=""word"" style=""font-size: 40px;"">swetp</p>
          <p style=""font-size: 16px;"">F = YES &nbsp;&nbsp;&nbsp; J = NO</p>
        ","j","html-keyboard-response","185","2.1.0","304857","F=YES, J=NO","8mqpzhhsh4","0","70","65","75","","","","","","","","","swetp","alarm1","pseudoword","pseudoword","j","true","",""
"null","<p style=""font-size: 50px;"">+</p>","null","html-keyboard-response","186","2.1.0","305176","F=YES, J=NO","8mqpzhhsh4","0","70","65","75","","","","","","","","","","","","","","","",""
"null","audio/beep-329314.mp3","null","audio-keyboard-response","187","2.1.0","306719","F=YES, J=NO","8mqpzhhsh4","0","70","65","75","","","","","","","","","","","","","","","",""
"null","audio/dollar.wav","null","audio-keyboard-response","188","2.1.0","307098","F=YES, J=NO","8mqpzhhsh4","0","70","65","75","","","","","","","","","","","","","","","",""
"506","
          <p id=""word"" style=""font-size: 40px;"">gliptism</p>
          <p style=""font-size: 16px;"">F = YES &nbsp;&nbsp;&nbsp; J = NO</p>
        ","j","html-keyboard-response","189","2.1.0","307606","F=YES, J=NO","8mqpzhhsh4","0","70","65","75","","","","","","","","","gliptism","dollar","pseudoword","pseudoword","j","true","",""
"null","<p style=""font-size: 50px;"">+</p>","null","html-keyboard-response","190","2.1.0","307916","F=YES, J=NO","8mqpzhhsh4","0","70","65","75","","","","","","","","","","","","","","","",""
"null","audio/beep-329314.mp3","null","audio-keyboard-response","191","2.1.0","309459","F=YES, J=NO","8mqpzhhsh4","0","70","65","75","","","","","","","","","","","","","","","",""
"null","audio/golf1.wav","null","audio-keyboard-response","192","2.1.0","310038","F=YES, J=NO","8mqpzhhsh4","0","70","65","75","","","","","","","","","","","","","","","",""
"563","
          <p id=""word"" style=""font-size: 40px;"">drabble</p>
          <p style=""font-size: 16px;"">F = YES &nbsp;&nbsp;&nbsp; J = NO</p>
        ","j","html-keyboard-response","193","2.1.0","310602","F=YES, J=NO","8mqpzhhsh4","0","70","65","75","","","","","","","","","drabble","golf1","pseudoword","pseudoword","j","true","",""
"null","<p style=""font-size: 50px;"">+</p>","null","html-keyboard-response","194","2.1.0","310906","F=YES, J=NO","8mqpzhhsh4","0","70","65","75","","","","","","","","","","","","","","","",""
"null","audio/beep-329314.mp3","null","audio-keyboard-response","195","2.1.0","312439","F=YES, J=NO","8mqpzhhsh4","0","70","65","75","","","","","","","","","","","","","","","",""
"null","audio/garden1.wav","null","audio-keyboard-response","196","2.1.0","312979","F=YES, J=NO","8mqpzhhsh4","0","70","65","75","","","","","","","","","","","","","","","",""
"637","
          <p id=""word"" style=""font-size: 40px;"">invest</p>
          <p style=""font-size: 16px;"">F = YES &nbsp;&nbsp;&nbsp; J = NO</p>
        ","f","html-keyboard-response","197","2.1.0","313617","F=YES, J=NO","8mqpzhhsh4","0","70","65","75","","","","","","","","","invest","garden1","unrelated","experimental","f","true","",""
"null","<p style=""font-size: 50px;"">+</p>","null","html-keyboard-response","198","2.1.0","313926","F=YES, J=NO","8mqpzhhsh4","0","70","65","75","","","","","","","","","","","","","","","",""
"null","audio/beep-329314.mp3","null","audio-keyboard-response","199","2.1.0","315459","F=YES, J=NO","8mqpzhhsh4","0","70","65","75","","","","","","","","","","","","","","","",""
"null","audio/winter.wav","null","audio-keyboard-response","200","2.1.0","316038","F=YES, J=NO","8mqpzhhsh4","0","70","65","75","","","","","","","","","","","","","","","",""
"628","
          <p id=""word"" style=""font-size: 40px;"">straven</p>
          <p style=""font-size: 16px;"">F = YES &nbsp;&nbsp;&nbsp; J = NO</p>
        ","j","html-keyboard-response","201","2.1.0","316668","F=YES, J=NO","8mqpzhhsh4","0","70","65","75","","","","","","","","","straven","winter","pseudoword","pseudoword","j","true","",""
"null","<p style=""font-size: 50px;"">+</p>","null","html-keyboard-response","202","2.1.0","316977","F=YES, J=NO","8mqpzhhsh4","0","70","65","75","","","","","","","","","","","","","","","",""
"null","audio/beep-329314.mp3","null","audio-keyboard-response","203","2.1.0","318519","F=YES, J=NO","8mqpzhhsh4","0","70","65","75","","","","","","","","","","","","","","","",""
"null","audio/lion1.wav","null","audio-keyboard-response","204","2.1.0","319078","F=YES, J=NO","8mqpzhhsh4","0","70","65","75","","","","","","","","","","","","","","","",""
"814","
          <p id=""word"" style=""font-size: 40px;"">wrestle</p>
          <p style=""font-size: 16px;"">F = YES &nbsp;&nbsp;&nbsp; J = NO</p>
        ","f","html-keyboard-response","205","2.1.0","319893","F=YES, J=NO","8mqpzhhsh4","0","70","65","75","","","","","","","","","wrestle","lion1","literal","experimental","f","true","",""
"null","<p style=""font-size: 50px;"">+</p>","null","html-keyboard-response","206","2.1.0","320206","F=YES, J=NO","8mqpzhhsh4","0","70","65","75","","","","","","","","","","","","","","","",""
"null","audio/beep-329314.mp3","null","audio-keyboard-response","207","2.1.0","321738","F=YES, J=NO","8mqpzhhsh4","0","70","65","75","","","","","","","","","","","","","","","",""
"null","audio/neck.wav","null","audio-keyboard-response","208","2.1.0","322299","F=YES, J=NO","8mqpzhhsh4","0","70","65","75","","","","","","","","","","","","","","","",""
"1246","
          <p id=""word"" style=""font-size: 40px;"">werling</p>
          <p style=""font-size: 16px;"">F = YES &nbsp;&nbsp;&nbsp; J = NO</p>
        ","j","html-keyboard-response","209","2.1.0","323546","F=YES, J=NO","8mqpzhhsh4","0","70","65","75","","","","","","","","","werling","neck","pseudoword","pseudoword","j","true","",""
"null","<p style=""font-size: 50px;"">+</p>","null","html-keyboard-response","210","2.1.0","323856","F=YES, J=NO","8mqpzhhsh4","0","70","65","75","","","","","","","","","","","","","","","",""
"null","audio/beep-329314.mp3","null","audio-keyboard-response","211","2.1.0","325379","F=YES, J=NO","8mqpzhhsh4","0","70","65","75","","","","","","","","","","","","","","","",""
"null","audio/bush1.wav","null","audio-keyboard-response","212","2.1.0","325858","F=YES, J=NO","8mqpzhhsh4","0","70","65","75","","","","","","","","","","","","","","","",""
"594","
          <p id=""word"" style=""font-size: 40px;"">platined</p>
          <p style=""font-size: 16px;"">F = YES &nbsp;&nbsp;&nbsp; J = NO</p>
        ","f","html-keyboard-response","213","2.1.0","326453","F=YES, J=NO","8mqpzhhsh4","0","70","65","75","","","","","","","","","platined","bush1","pseudoword","pseudoword","j","false","",""
"null","<p style=""font-size: 50px;"">+</p>","null","html-keyboard-response","214","2.1.0","326766","F=YES, J=NO","8mqpzhhsh4","0","70","65","75","","","","","","","","","","","","","","","",""
"null","audio/beep-329314.mp3","null","audio-keyboard-response","215","2.1.0","328299","F=YES, J=NO","8mqpzhhsh4","0","70","65","75","","","","","","","","","","","","","","","",""
"null","audio/pain1.wav","null","audio-keyboard-response","216","2.1.0","328758","F=YES, J=NO","8mqpzhhsh4","0","70","65","75","","","","","","","","","","","","","","","",""
"563","
          <p id=""word"" style=""font-size: 40px;"">tritted</p>
          <p style=""font-size: 16px;"">F = YES &nbsp;&nbsp;&nbsp; J = NO</p>
        ","j","html-keyboard-response","217","2.1.0","329322","F=YES, J=NO","8mqpzhhsh4","0","70","65","75","","","","","","","","","tritted","pain1","pseudoword","pseudoword","j","true","",""
"null","<p style=""font-size: 50px;"">+</p>","null","html-keyboard-response","218","2.1.0","329626","F=YES, J=NO","8mqpzhhsh4","0","70","65","75","","","","","","","","","","","","","","","",""
"null","audio/beep-329314.mp3","null","audio-keyboard-response","219","2.1.0","331159","F=YES, J=NO","8mqpzhhsh4","0","70","65","75","","","","","","","","","","","","","","","",""
"null","audio/trout1.wav","null","audio-keyboard-response","220","2.1.0","331758","F=YES, J=NO","8mqpzhhsh4","0","70","65","75","","","","","","","","","","","","","","","",""
"579","
          <p id=""word"" style=""font-size: 40px;"">spimt</p>
          <p style=""font-size: 16px;"">F = YES &nbsp;&nbsp;&nbsp; J = NO</p>
        ","j","html-keyboard-response","221","2.1.0","332339","F=YES, J=NO","8mqpzhhsh4","0","70","65","75","","","","","","","","","spimt","trout1","pseudoword","pseudoword","j","true","",""
"null","<p style=""font-size: 50px;"">+</p>","null","html-keyboard-response","222","2.1.0","332657","F=YES, J=NO","8mqpzhhsh4","0","70","65","75","","","","","","","","","","","","","","","",""
"null","audio/beep-329314.mp3","null","audio-keyboard-response","223","2.1.0","334199","F=YES, J=NO","8mqpzhhsh4","0","70","65","75","","","","","","","","","","","","","","","",""
"null","audio/gift1.wav","null","audio-keyboard-response","224","2.1.0","334678","F=YES, J=NO","8mqpzhhsh4","0","70","65","75","","","","","","","","","","","","","","","",""
"674","
          <p id=""word"" style=""font-size: 40px;"">give</p>
          <p style=""font-size: 16px;"">F = YES &nbsp;&nbsp;&nbsp; J = NO</p>
        ","f","html-keyboard-response","225","2.1.0","335353","F=YES, J=NO","8mqpzhhsh4","0","70","65","75","","","","","","","","","give","gift1","literal","experimental","f","true","",""
"null","<p style=""font-size: 50px;"">+</p>","null","html-keyboard-response","226","2.1.0","335666","F=YES, J=NO","8mqpzhhsh4","0","70","65","75","","","","","","","","","","","","","","","",""
"null","audio/beep-329314.mp3","null","audio-keyboard-response","227","2.1.0","337198","F=YES, J=NO","8mqpzhhsh4","0","70","65","75","","","","","","","","","","","","","","","",""
"null","audio/burden.wav","null","audio-keyboard-response","228","2.1.0","337718","F=YES, J=NO","8mqpzhhsh4","0","70","65","75","","","","","","","","","","","","","","","",""
"468","
          <p id=""word"" style=""font-size: 40px;"">whotth</p>
          <p style=""font-size: 16px;"">F = YES &nbsp;&nbsp;&nbsp; J = NO</p>
        ","j","html-keyboard-response","229","2.1.0","338188","F=YES, J=NO","8mqpzhhsh4","0","70","65","75","","","","","","","","","whotth","burden","pseudoword","pseudoword","j","true","",""
"1270","<p>Excellent! You have finished block 1 of 8.</p>
                     <p>Feel free to take a 30 second break.</p>
                     <p>Press any key when you're ready to continue.</p>"," ","html-keyboard-response","230","2.1.0","339460","F=YES, J=NO","8mqpzhhsh4","0","70","65","75","","","","","","","","","","","","","","","",""
"568","<p>Starting main block 2 of 8. Press any key to continue.</p>"," ","html-keyboard-response","231","2.1.0","340030","F=YES, J=NO","8mqpzhhsh4","0","70","65","75","","","","","","","","","","","","","","","",""
"null","<p style=""font-size: 50px;"">+</p>","null","html-keyboard-response","232","2.1.0","340336","F=YES, J=NO","8mqpzhhsh4","0","70","65","75","","","","","","","","","","","","","","","",""
"null","audio/beep-329314.mp3","null","audio-keyboard-response","233","2.1.0","341859","F=YES, J=NO","8mqpzhhsh4","0","70","65","75","","","","","","","","","","","","","","","",""
"null","audio/camera1.wav","null","audio-keyboard-response","234","2.1.0","342359","F=YES, J=NO","8mqpzhhsh4","0","70","65","75","","","","","","","","","","","","","","","",""
"645","
          <p id=""word"" style=""font-size: 40px;"">stir</p>
          <p style=""font-size: 16px;"">F = YES &nbsp;&nbsp;&nbsp; J = NO</p>
        ","f","html-keyboard-response","235","2.1.0","343005","F=YES, J=NO","8mqpzhhsh4","0","70","65","75","","","","","","","","","stir","camera1","filler","filler","f","true","",""
"null","<p style=""font-size: 50px;"">+</p>","null","html-keyboard-response","236","2.1.0","343317","F=YES, J=NO","8mqpzhhsh4","0","70","65","75","","","","","","","","","","","","","","","",""
"null","audio/beep-329314.mp3","null","audio-keyboard-response","237","2.1.0","344858","F=YES, J=NO","8mqpzhhsh4","0","70","65","75","","","","","","","","","","","","","","","",""
"null","audio/wool1.wav","null","audio-keyboard-response","238","2.1.0","345238","F=YES, J=NO","8mqpzhhsh4","0","70","65","75","","","","","","","","","","","","","","","",""
"859","
          <p id=""word"" style=""font-size: 40px;"">weave</p>
          <p style=""font-size: 16px;"">F = YES &nbsp;&nbsp;&nbsp; J = NO</p>
        ","j","html-keyboard-response","239","2.1.0","346098","F=YES, J=NO","8mqpzhhsh4","0","70","65","75","","","","","","","","","weave","wool1","literal","experimental","f","false","",""
"null","<p style=""font-size: 50px;"">+</p>","null","html-keyboard-response","240","2.1.0","346406","F=YES, J=NO","8mqpzhhsh4","0","70","65","75","","","","","","","","","","","","","","","",""
"null","audio/beep-329314.mp3","null","audio-keyboard-response","241","2.1.0","347939","F=YES, J=NO","8mqpzhhsh4","0","70","65","75","","","","","","","","","","","","","","","",""
"null","audio/size1.wav","null","audio-keyboard-response","242","2.1.0","348698","F=YES, J=NO","8mqpzhhsh4","0","70","65","75","","","","","","","","","","","","","","","",""
"688","
          <p id=""word"" style=""font-size: 40px;"">clear</p>
          <p style=""font-size: 16px;"">F = YES &nbsp;&nbsp;&nbsp; J = NO</p>
        ","f","html-keyboard-response","243","2.1.0","349388","F=YES, J=NO","8mqpzhhsh4","0","70","65","75","","","","","","","","","clear","size1","unrelated","experimental","f","true","",""
"null","<p style=""font-size: 50px;"">+</p>","null","html-keyboard-response","244","2.1.0","349702","F=YES, J=NO","8mqpzhhsh4","0","70","65","75","","","","","","","","","","","","","","","",""
"null","audio/beep-329314.mp3","null","audio-keyboard-response","245","2.1.0","351239","F=YES, J=NO","8mqpzhhsh4","0","70","65","75","","","","","","","","","","","","","","","",""
"null","audio/gift1.wav","null","audio-keyboard-response","246","2.1.0","351698","F=YES, J=NO","8mqpzhhsh4","0","70","65","75","","","","","","","","","","","","","","","",""
"978","
          <p id=""word"" style=""font-size: 40px;"">protsh</p>
          <p style=""font-size: 16px;"">F = YES &nbsp;&nbsp;&nbsp; J = NO</p>
        ","j","html-keyboard-response","247","2.1.0","352678","F=YES, J=NO","8mqpzhhsh4","0","70","65","75","","","","","","","","","protsh","gift1","pseudoword","pseudoword","j","true","",""
"null","<p style=""font-size: 50px;"">+</p>","null","html-keyboard-response","248","2.1.0","352986","F=YES, J=NO","8mqpzhhsh4","0","70","65","75","","","","","","","","","","","","","","","",""
"null","audio/beep-329314.mp3","null","audio-keyboard-response","249","2.1.0","354518","F=YES, J=NO","8mqpzhhsh4","0","70","65","75","","","","","","","","","","","","","","","",""
"null","audio/pride1.wav","null","audio-keyboard-response","250","2.1.0","355078","F=YES, J=NO","8mqpzhhsh4","0","70","65","75","","","","","","","","","","","","","","","",""
"552","
          <p id=""word"" style=""font-size: 40px;"">hurt</p>
          <p style=""font-size: 16px;"">F = YES &nbsp;&nbsp;&nbsp; J = NO</p>
        ","f","html-keyboard-response","251","2.1.0","355632","F=YES, J=NO","8mqpzhhsh4","0","70","65","75","","","","","","","","","hurt","pride1","metaphor","experimental","f","true","",""
"null","<p style=""font-size: 50px;"">+</p>","null","html-keyboard-response","252","2.1.0","355946","F=YES, J=NO","8mqpzhhsh4","0","70","65","75","","","","","","","","","","","","","","","",""
"null","audio/beep-329314.mp3","null","audio-keyboard-response","253","2.1.0","357478","F=YES, J=NO","8mqpzhhsh4","0","70","65","75","","","","","","","","","","","","","","","",""
"null","audio/scar.wav","null","audio-keyboard-response","254","2.1.0","358078","F=YES, J=NO","8mqpzhhsh4","0","70","65","75","","","","","","","","","","","","","","","",""
"569","
          <p id=""word"" style=""font-size: 40px;"">adelineate</p>
          <p style=""font-size: 16px;"">F = YES &nbsp;&nbsp;&nbsp; J = NO</p>
        ","j","html-keyboard-response","255","2.1.0","358649","F=YES, J=NO","8mqpzhhsh4","0","70","65","75","","","","","","","","","adelineate","scar","pseudoword","pseudoword","j","true","",""
"null","<p style=""font-size: 50px;"">+</p>","null","html-keyboard-response","256","2.1.0","358956","F=YES, J=NO","8mqpzhhsh4","0","70","65","75","","","","","","","","","","","","","","","",""
"null","audio/beep-329314.mp3","null","audio-keyboard-response","257","2.1.0","360499","F=YES, J=NO","8mqpzhhsh4","0","70","65","75","","","","","","","","","","","","","","","",""
"null","audio/bottle.wav","null","audio-keyboard-response","258","2.1.0","360978","F=YES, J=NO","8mqpzhhsh4","0","70","65","75","","","","","","","","","","","","","","","",""
"527","
          <p id=""word"" style=""font-size: 40px;"">watch</p>
          <p style=""font-size: 16px;"">F = YES &nbsp;&nbsp;&nbsp; J = NO</p>
        ","f","html-keyboard-response","259","2.1.0","361507","F=YES, J=NO","8mqpzhhsh4","0","70","65","75","","","","","","","","","watch","bottle","filler","filler","f","true","",""
"null","<p style=""font-size: 50px;"">+</p>","null","html-keyboard-response","260","2.1.0","361826","F=YES, J=NO","8mqpzhhsh4","0","70","65","75","","","","","","","","","","","","","","","",""
"null","audio/beep-329314.mp3","null","audio-keyboard-response","261","2.1.0","363358","F=YES, J=NO","8mqpzhhsh4","0","70","65","75","","","","","","","","","","","","","","","",""
"null","audio/sand.wav","null","audio-keyboard-response","262","2.1.0","364019","F=YES, J=NO","8mqpzhhsh4","0","70","65","75","","","","","","","","","","","","","","","",""
"738","
          <p id=""word"" style=""font-size: 40px;"">proted</p>
          <p style=""font-size: 16px;"">F = YES &nbsp;&nbsp;&nbsp; J = NO</p>
        ","f","html-keyboard-response","263","2.1.0","364758","F=YES, J=NO","8mqpzhhsh4","0","70","65","75","","","","","","","","","proted","sand","pseudoword","pseudoword","j","false","",""
"null","<p style=""font-size: 50px;"">+</p>","null","html-keyboard-response","264","2.1.0","365071","F=YES, J=NO","8mqpzhhsh4","0","70","65","75","","","","","","","","","","","","","","","",""
"null","audio/beep-329314.mp3","null","audio-keyboard-response","265","2.1.0","366599","F=YES, J=NO","8mqpzhhsh4","0","70","65","75","","","","","","","","","","","","","","","",""
"null","audio/foot1.wav","null","audio-keyboard-response","266","2.1.0","367158","F=YES, J=NO","8mqpzhhsh4","0","70","65","75","","","","","","","","","","","","","","","",""
"603","
          <p id=""word"" style=""font-size: 40px;"">close</p>
          <p style=""font-size: 16px;"">F = YES &nbsp;&nbsp;&nbsp; J = NO</p>
        ","f","html-keyboard-response","267","2.1.0","367763","F=YES, J=NO","8mqpzhhsh4","0","70","65","75","","","","","","","","","close","foot1","unrelated","experimental","f","true","",""
"null","<p style=""font-size: 50px;"">+</p>","null","html-keyboard-response","268","2.1.0","368067","F=YES, J=NO","8mqpzhhsh4","0","70","65","75","","","","","","","","","","","","","","","",""
"null","audio/beep-329314.mp3","null","audio-keyboard-response","269","2.1.0","369598","F=YES, J=NO","8mqpzhhsh4","0","70","65","75","","","","","","","","","","","","","","","",""
"null","audio/desire.wav","null","audio-keyboard-response","270","2.1.0","370218","F=YES, J=NO","8mqpzhhsh4","0","70","65","75","","","","","","","","","","","","","","","",""
"631","
          <p id=""word"" style=""font-size: 40px;"">nophed</p>
          <p style=""font-size: 16px;"">F = YES &nbsp;&nbsp;&nbsp; J = NO</p>
        ","j","html-keyboard-response","271","2.1.0","370851","F=YES, J=NO","8mqpzhhsh4","0","70","65","75","","","","","","","","","nophed","desire","pseudoword","pseudoword","j","true","",""
"null","<p style=""font-size: 50px;"">+</p>","null","html-keyboard-response","272","2.1.0","371156","F=YES, J=NO","8mqpzhhsh4","0","70","65","75","","","","","","","","","","","","","","","",""
"null","audio/beep-329314.mp3","null","audio-keyboard-response","273","2.1.0","372699","F=YES, J=NO","8mqpzhhsh4","0","70","65","75","","","","","","","","","","","","","","","",""
"null","audio/alarm1.wav","null","audio-keyboard-response","274","2.1.0","373278","F=YES, J=NO","8mqpzhhsh4","0","70","65","75","","","","","","","","","","","","","","","",""
"657","
          <p id=""word"" style=""font-size: 40px;"">lock</p>
          <p style=""font-size: 16px;"">F = YES &nbsp;&nbsp;&nbsp; J = NO</p>
        ","f","html-keyboard-response","275","2.1.0","373937","F=YES, J=NO","8mqpzhhsh4","0","70","65","75","","","","","","","","","lock","alarm1","filler","filler","f","true","",""
"null","<p style=""font-size: 50px;"">+</p>","null","html-keyboard-response","276","2.1.0","374242","F=YES, J=NO","8mqpzhhsh4","0","70","65","75","","","","","","","","","","","","","","","",""
"null","audio/beep-329314.mp3","null","audio-keyboard-response","277","2.1.0","375778","F=YES, J=NO","8mqpzhhsh4","0","70","65","75","","","","","","","","","","","","","","","",""
"null","audio/test1.wav","null","audio-keyboard-response","278","2.1.0","376358","F=YES, J=NO","8mqpzhhsh4","0","70","65","75","","","","","","","","","","","","","","","",""
"625","
          <p id=""word"" style=""font-size: 40px;"">twopch</p>
          <p style=""font-size: 16px;"">F = YES &nbsp;&nbsp;&nbsp; J = NO</p>
        ","j","html-keyboard-response","279","2.1.0","376984","F=YES, J=NO","8mqpzhhsh4","0","70","65","75","","","","","","","","","twopch","test1","pseudoword","pseudoword","j","true","",""
"null","<p style=""font-size: 50px;"">+</p>","null","html-keyboard-response","280","2.1.0","377296","F=YES, J=NO","8mqpzhhsh4","0","70","65","75","","","","","","","","","","","","","","","",""
"null","audio/beep-329314.mp3","null","audio-keyboard-response","281","2.1.0","378819","F=YES, J=NO","8mqpzhhsh4","0","70","65","75","","","","","","","","","","","","","","","",""
"null","audio/vehicle1.wav","null","audio-keyboard-response","282","2.1.0","379478","F=YES, J=NO","8mqpzhhsh4","0","70","65","75","","","","","","","","","","","","","","","",""
"816","
          <p id=""word"" style=""font-size: 40px;"">dropt</p>
          <p style=""font-size: 16px;"">F = YES &nbsp;&nbsp;&nbsp; J = NO</p>
        ","j","html-keyboard-response","283","2.1.0","380295","F=YES, J=NO","8mqpzhhsh4","0","70","65","75","","","","","","","","","dropt","vehicle1","pseudoword","pseudoword","j","true","",""
"null","<p style=""font-size: 50px;"">+</p>","null","html-keyboard-response","284","2.1.0","380606","F=YES, J=NO","8mqpzhhsh4","0","70","65","75","","","","","","","","","","","","","","","",""
"null","audio/beep-329314.mp3","null","audio-keyboard-response","285","2.1.0","382138","F=YES, J=NO","8mqpzhhsh4","0","70","65","75","","","","","","","","","","","","","","","",""
"null","audio/plot1.wav","null","audio-keyboard-response","286","2.1.0","382698","F=YES, J=NO","8mqpzhhsh4","0","70","65","75","","","","","","","","","","","","","","","",""
"1302","
          <p id=""word"" style=""font-size: 40px;"">glenter</p>
          <p style=""font-size: 16px;"">F = YES &nbsp;&nbsp;&nbsp; J = NO</p>
        ","f","html-keyboard-response","287","2.1.0","384002","F=YES, J=NO","8mqpzhhsh4","0","70","65","75","","","","","","","","","glenter","plot1","pseudoword","pseudoword","j","false","",""
"null","<p style=""font-size: 50px;"">+</p>","null","html-keyboard-response","288","2.1.0","384306","F=YES, J=NO","8mqpzhhsh4","0","70","65","75","","","","","","","","","","","","","","","",""
"null","audio/beep-329314.mp3","null","audio-keyboard-response","289","2.1.0","385839","F=YES, J=NO","8mqpzhhsh4","0","70","65","75","","","","","","","","","","","","","","","",""
"null","audio/budget1.wav","null","audio-keyboard-response","290","2.1.0","386458","F=YES, J=NO","8mqpzhhsh4","0","70","65","75","","","","","","","","","","","","","","","",""
"580","
          <p id=""word"" style=""font-size: 40px;"">sulist</p>
          <p style=""font-size: 16px;"">F = YES &nbsp;&nbsp;&nbsp; J = NO</p>
        ","j","html-keyboard-response","291","2.1.0","387039","F=YES, J=NO","8mqpzhhsh4","0","70","65","75","","","","","","","","","sulist","budget1","pseudoword","pseudoword","j","true","",""
"null","<p style=""font-size: 50px;"">+</p>","null","html-keyboard-response","292","2.1.0","387356","F=YES, J=NO","8mqpzhhsh4","0","70","65","75","","","","","","","","","","","","","","","",""
"null","audio/beep-329314.mp3","null","audio-keyboard-response","293","2.1.0","388879","F=YES, J=NO","8mqpzhhsh4","0","70","65","75","","","","","","","","","","","","","","","",""
"null","audio/pig.wav","null","audio-keyboard-response","294","2.1.0","389258","F=YES, J=NO","8mqpzhhsh4","0","70","65","75","","","","","","","","","","","","","","","",""
"668","
          <p id=""word"" style=""font-size: 40px;"">tirlike</p>
          <p style=""font-size: 16px;"">F = YES &nbsp;&nbsp;&nbsp; J = NO</p>
        ","j","html-keyboard-response","295","2.1.0","389929","F=YES, J=NO","8mqpzhhsh4","0","70","65","75","","","","","","","","","tirlike","pig","pseudoword","pseudoword","j","true","",""
"1481","<p>Excellent! You have finished block 2 of 8.</p>
                     <p>Feel free to take a 30 second break.</p>
                     <p>Press any key when you're ready to continue.</p>"," ","html-keyboard-response","296","2.1.0","391410","F=YES, J=NO","8mqpzhhsh4","0","70","65","75","","","","","","","","","","","","","","","",""
"371","<p>Starting main block 3 of 8. Press any key to continue.</p>"," ","html-keyboard-response","297","2.1.0","391782","F=YES, J=NO","8mqpzhhsh4","0","70","65","75","","","","","","","","","","","","","","","",""
"null","<p style=""font-size: 50px;"">+</p>","null","html-keyboard-response","298","2.1.0","392085","F=YES, J=NO","8mqpzhhsh4","0","70","65","75","","","","","","","","","","","","","","","",""
"null","audio/beep-329314.mp3","null","audio-keyboard-response","299","2.1.0","393619","F=YES, J=NO","8mqpzhhsh4","0","70","65","75","","","","","","","","","","","","","","","",""
"null","audio/survey1.wav","null","audio-keyboard-response","300","2.1.0","394358","F=YES, J=NO","8mqpzhhsh4","0","70","65","75","","","","","","","","","","","","","","","",""
"584","
          <p id=""word"" style=""font-size: 40px;"">imploth</p>
          <p style=""font-size: 16px;"">F = YES &nbsp;&nbsp;&nbsp; J = NO</p>
        ","j","html-keyboard-response","301","2.1.0","394943","F=YES, J=NO","8mqpzhhsh4","0","70","65","75","","","","","","","","","imploth","survey1","pseudoword","pseudoword","j","true","",""
"null","<p style=""font-size: 50px;"">+</p>","null","html-keyboard-response","302","2.1.0","395256","F=YES, J=NO","8mqpzhhsh4","0","70","65","75","","","","","","","","","","","","","","","",""
"null","audio/beep-329314.mp3","null","audio-keyboard-response","303","2.1.0","396798","F=YES, J=NO","8mqpzhhsh4","0","70","65","75","","","","","","","","","","","","","","","",""
"null","audio/floor.wav","null","audio-keyboard-response","304","2.1.0","397358","F=YES, J=NO","8mqpzhhsh4","0","70","65","75","","","","","","","","","","","","","","","",""
"425","
          <p id=""word"" style=""font-size: 40px;"">mop</p>
          <p style=""font-size: 16px;"">F = YES &nbsp;&nbsp;&nbsp; J = NO</p>
        ","f","html-keyboard-response","305","2.1.0","397785","F=YES, J=NO","8mqpzhhsh4","0","70","65","75","","","","","","","","","mop","floor","filler","filler","f","true","",""
"null","<p style=""font-size: 50px;"">+</p>","null","html-keyboard-response","306","2.1.0","398096","F=YES, J=NO","8mqpzhhsh4","0","70","65","75","","","","","","","","","","","","","","","",""
"null","audio/beep-329314.mp3","null","audio-keyboard-response","307","2.1.0","399619","F=YES, J=NO","8mqpzhhsh4","0","70","65","75","","","","","","","","","","","","","","","",""
"null","audio/topic.wav","null","audio-keyboard-response","308","2.1.0","400198","F=YES, J=NO","8mqpzhhsh4","0","70","65","75","","","","","","","","","","","","","","","",""
"670","
          <p id=""word"" style=""font-size: 40px;"">infortuitist</p>
          <p style=""font-size: 16px;"">F = YES &nbsp;&nbsp;&nbsp; J = NO</p>
        ","f","html-keyboard-response","309","2.1.0","400869","F=YES, J=NO","8mqpzhhsh4","0","70","65","75","","","","","","","","","infortuitist","topic","pseudoword","pseudoword","j","false","",""
"null","<p style=""font-size: 50px;"">+</p>","null","html-keyboard-response","310","2.1.0","401186","F=YES, J=NO","8mqpzhhsh4","0","70","65","75","","","","","","","","","","","","","","","",""
"null","audio/beep-329314.mp3","null","audio-keyboard-response","311","2.1.0","402718","F=YES, J=NO","8mqpzhhsh4","0","70","65","75","","","","","","","","","","","","","","","",""
"null","audio/radio1.wav","null","audio-keyboard-response","312","2.1.0","403318","F=YES, J=NO","8mqpzhhsh4","0","70","65","75","","","","","","","","","","","","","","","",""
"634","
          <p id=""word"" style=""font-size: 40px;"">blanter</p>
          <p style=""font-size: 16px;"">F = YES &nbsp;&nbsp;&nbsp; J = NO</p>
        ","f","html-keyboard-response","313","2.1.0","403953","F=YES, J=NO","8mqpzhhsh4","0","70","65","75","","","","","","","","","blanter","radio1","pseudoword","pseudoword","j","false","",""
"null","<p style=""font-size: 50px;"">+</p>","null","html-keyboard-response","314","2.1.0","404256","F=YES, J=NO","8mqpzhhsh4","0","70","65","75","","","","","","","","","","","","","","","",""
"null","audio/beep-329314.mp3","null","audio-keyboard-response","315","2.1.0","405779","F=YES, J=NO","8mqpzhhsh4","0","70","65","75","","","","","","","","","","","","","","","",""
"null","audio/planet1.wav","null","audio-keyboard-response","316","2.1.0","406378","F=YES, J=NO","8mqpzhhsh4","0","70","65","75","","","","","","","","","","","","","","","",""
"472","
          <p id=""word"" style=""font-size: 40px;"">save</p>
          <p style=""font-size: 16px;"">F = YES &nbsp;&nbsp;&nbsp; J = NO</p>
        ","f","html-keyboard-response","317","2.1.0","406851","F=YES, J=NO","8mqpzhhsh4","0","70","65","75","","","","","","","","","save","planet1","metaphor","experimental","f","true","",""
"null","<p style=""font-size: 50px;"">+</p>","null","html-keyboard-response","318","2.1.0","407166","F=YES, J=NO","8mqpzhhsh4","0","70","65","75","","","","","","","","","","","","","","","",""
"null","audio/beep-329314.mp3","null","audio-keyboard-response","319","2.1.0","408699","F=YES, J=NO","8mqpzhhsh4","0","70","65","75","","","","","","","","","","","","","","","",""
"null","audio/cloud1.wav","null","audio-keyboard-response","320","2.1.0","409258","F=YES, J=NO","8mqpzhhsh4","0","70","65","75","","","","","","","","","","","","","","","",""
"568","
          <p id=""word"" style=""font-size: 40px;"">brotant</p>
          <p style=""font-size: 16px;"">F = YES &nbsp;&nbsp;&nbsp; J = NO</p>
        ","j","html-keyboard-response","321","2.1.0","409828","F=YES, J=NO","8mqpzhhsh4","0","70","65","75","","","","","","","","","brotant","cloud1","pseudoword","pseudoword","j","true","",""
"null","<p style=""font-size: 50px;"">+</p>","null","html-keyboard-response","322","2.1.0","410136","F=YES, J=NO","8mqpzhhsh4","0","70","65","75","","","","","","","","","","","","","","","",""
"null","audio/beep-329314.mp3","null","audio-keyboard-response","323","2.1.0","411679","F=YES, J=NO","8mqpzhhsh4","0","70","65","75","","","","","","","","","","","","","","","",""
"null","audio/prisoner.wav","null","audio-keyboard-response","324","2.1.0","412198","F=YES, J=NO","8mqpzhhsh4","0","70","65","75","","","","","","","","","","","","","","","",""
"944","
          <p id=""word"" style=""font-size: 40px;"">egotian</p>
          <p style=""font-size: 16px;"">F = YES &nbsp;&nbsp;&nbsp; J = NO</p>
        ","j","html-keyboard-response","325","2.1.0","413144","F=YES, J=NO","8mqpzhhsh4","0","70","65","75","","","","","","","","","egotian","prisoner","pseudoword","pseudoword","j","true","",""
"null","<p style=""font-size: 50px;"">+</p>","null","html-keyboard-response","326","2.1.0","413456","F=YES, J=NO","8mqpzhhsh4","0","70","65","75","","","","","","","","","","","","","","","",""
"null","audio/beep-329314.mp3","null","audio-keyboard-response","327","2.1.0","414979","F=YES, J=NO","8mqpzhhsh4","0","70","65","75","","","","","","","","","","","","","","","",""
"null","audio/bridge.wav","null","audio-keyboard-response","328","2.1.0","415538","F=YES, J=NO","8mqpzhhsh4","0","70","65","75","","","","","","","","","","","","","","","",""
"456","
          <p id=""word"" style=""font-size: 40px;"">crack</p>
          <p style=""font-size: 16px;"">F = YES &nbsp;&nbsp;&nbsp; J = NO</p>
        ","f","html-keyboard-response","329","2.1.0","415996","F=YES, J=NO","8mqpzhhsh4","0","70","65","75","","","","","","","","","crack","bridge","filler","filler","f","true","",""
"null","<p style=""font-size: 50px;"">+</p>","null","html-keyboard-response","330","2.1.0","416306","F=YES, J=NO","8mqpzhhsh4","0","70","65","75","","","","","","","","","","","","","","","",""
"null","audio/beep-329314.mp3","null","audio-keyboard-response","331","2.1.0","417838","F=YES, J=NO","8mqpzhhsh4","0","70","65","75","","","","","","","","","","","","","","","",""
"null","audio/smirk1.wav","null","audio-keyboard-response","332","2.1.0","418578","F=YES, J=NO","8mqpzhhsh4","0","70","65","75","","","","","","","","","","","","","","","",""
"607","
          <p id=""word"" style=""font-size: 40px;"">snopt</p>
          <p style=""font-size: 16px;"">F = YES &nbsp;&nbsp;&nbsp; J = NO</p>
        ","j","html-keyboard-response","333","2.1.0","419187","F=YES, J=NO","8mqpzhhsh4","0","70","65","75","","","","","","","","","snopt","smirk1","pseudoword","pseudoword","j","true","",""
"null","<p style=""font-size: 50px;"">+</p>","null","html-keyboard-response","334","2.1.0","419496","F=YES, J=NO","8mqpzhhsh4","0","70","65","75","","","","","","","","","","","","","","","",""
"null","audio/beep-329314.mp3","null","audio-keyboard-response","335","2.1.0","421019","F=YES, J=NO","8mqpzhhsh4","0","70","65","75","","","","","","","","","","","","","","","",""
"null","audio/hawk1.wav","null","audio-keyboard-response","336","2.1.0","421618","F=YES, J=NO","8mqpzhhsh4","0","70","65","75","","","","","","","","","","","","","","","",""
"671","
          <p id=""word"" style=""font-size: 40px;"">ostach</p>
          <p style=""font-size: 16px;"">F = YES &nbsp;&nbsp;&nbsp; J = NO</p>
        ","j","html-keyboard-response","337","2.1.0","422291","F=YES, J=NO","8mqpzhhsh4","0","70","65","75","","","","","","","","","ostach","hawk1","pseudoword","pseudoword","j","true","",""
"null","<p style=""font-size: 50px;"">+</p>","null","html-keyboard-response","338","2.1.0","422606","F=YES, J=NO","8mqpzhhsh4","0","70","65","75","","","","","","","","","","","","","","","",""
"null","audio/beep-329314.mp3","null","audio-keyboard-response","339","2.1.0","424139","F=YES, J=NO","8mqpzhhsh4","0","70","65","75","","","","","","","","","","","","","","","",""
"null","audio/mind.wav","null","audio-keyboard-response","340","2.1.0","424718","F=YES, J=NO","8mqpzhhsh4","0","70","65","75","","","","","","","","","","","","","","","",""
"873","
          <p id=""word"" style=""font-size: 40px;"">crainate</p>
          <p style=""font-size: 16px;"">F = YES &nbsp;&nbsp;&nbsp; J = NO</p>
        ","j","html-keyboard-response","341","2.1.0","425593","F=YES, J=NO","8mqpzhhsh4","0","70","65","75","","","","","","","","","crainate","mind","pseudoword","pseudoword","j","true","",""
"null","<p style=""font-size: 50px;"">+</p>","null","html-keyboard-response","342","2.1.0","425906","F=YES, J=NO","8mqpzhhsh4","0","70","65","75","","","","","","","","","","","","","","","",""
"null","audio/beep-329314.mp3","null","audio-keyboard-response","343","2.1.0","427438","F=YES, J=NO","8mqpzhhsh4","0","70","65","75","","","","","","","","","","","","","","","",""
"null","audio/inch1.wav","null","audio-keyboard-response","344","2.1.0","428038","F=YES, J=NO","8mqpzhhsh4","0","70","65","75","","","","","","","","","","","","","","","",""
"480","
          <p id=""word"" style=""font-size: 40px;"">lose</p>
          <p style=""font-size: 16px;"">F = YES &nbsp;&nbsp;&nbsp; J = NO</p>
        ","f","html-keyboard-response","345","2.1.0","428520","F=YES, J=NO","8mqpzhhsh4","0","70","65","75","","","","","","","","","lose","inch1","metaphor","experimental","f","true","",""
"null","<p style=""font-size: 50px;"">+</p>","null","html-keyboard-response","346","2.1.0","428827","F=YES, J=NO","8mqpzhhsh4","0","70","65","75","","","","","","","","","","","","","","","",""
"null","audio/beep-329314.mp3","null","audio-keyboard-response","347","2.1.0","430358","F=YES, J=NO","8mqpzhhsh4","0","70","65","75","","","","","","","","","","","","","","","",""
"null","audio/terrain.wav","null","audio-keyboard-response","348","2.1.0","430958","F=YES, J=NO","8mqpzhhsh4","0","70","65","75","","","","","","","","","","","","","","","",""
"578","
          <p id=""word"" style=""font-size: 40px;"">navigate</p>
          <p style=""font-size: 16px;"">F = YES &nbsp;&nbsp;&nbsp; J = NO</p>
        ","f","html-keyboard-response","349","2.1.0","431538","F=YES, J=NO","8mqpzhhsh4","0","70","65","75","","","","","","","","","navigate","terrain","literal","experimental","f","true","",""
"null","<p style=""font-size: 50px;"">+</p>","null","html-keyboard-response","350","2.1.0","431846","F=YES, J=NO","8mqpzhhsh4","0","70","65","75","","","","","","","","","","","","","","","",""
"null","audio/beep-329314.mp3","null","audio-keyboard-response","351","2.1.0","433379","F=YES, J=NO","8mqpzhhsh4","0","70","65","75","","","","","","","","","","","","","","","",""
"null","audio/mile1.wav","null","audio-keyboard-response","352","2.1.0","433878","F=YES, J=NO","8mqpzhhsh4","0","70","65","75","","","","","","","","","","","","","","","",""
"739","
          <p id=""word"" style=""font-size: 40px;"">writch</p>
          <p style=""font-size: 16px;"">F = YES &nbsp;&nbsp;&nbsp; J = NO</p>
        ","j","html-keyboard-response","353","2.1.0","434619","F=YES, J=NO","8mqpzhhsh4","0","70","65","75","","","","","","","","","writch","mile1","pseudoword","pseudoword","j","true","",""
"null","<p style=""font-size: 50px;"">+</p>","null","html-keyboard-response","354","2.1.0","434936","F=YES, J=NO","8mqpzhhsh4","0","70","65","75","","","","","","","","","","","","","","","",""
"null","audio/beep-329314.mp3","null","audio-keyboard-response","355","2.1.0","436459","F=YES, J=NO","8mqpzhhsh4","0","70","65","75","","","","","","","","","","","","","","","",""
"null","audio/key1.wav","null","audio-keyboard-response","356","2.1.0","436838","F=YES, J=NO","8mqpzhhsh4","0","70","65","75","","","","","","","","","","","","","","","",""
"616","
          <p id=""word"" style=""font-size: 40px;"">sminsh</p>
          <p style=""font-size: 16px;"">F = YES &nbsp;&nbsp;&nbsp; J = NO</p>
        ","j","html-keyboard-response","357","2.1.0","437456","F=YES, J=NO","8mqpzhhsh4","0","70","65","75","","","","","","","","","sminsh","key1","pseudoword","pseudoword","j","true","",""
"null","<p style=""font-size: 50px;"">+</p>","null","html-keyboard-response","358","2.1.0","437777","F=YES, J=NO","8mqpzhhsh4","0","70","65","75","","","","","","","","","","","","","","","",""
"null","audio/beep-329314.mp3","null","audio-keyboard-response","359","2.1.0","439319","F=YES, J=NO","8mqpzhhsh4","0","70","65","75","","","","","","","","","","","","","","","",""
"null","audio/holiday1.wav","null","audio-keyboard-response","360","2.1.0","439938","F=YES, J=NO","8mqpzhhsh4","0","70","65","75","","","","","","","","","","","","","","","",""
"642","
          <p id=""word"" style=""font-size: 40px;"">spend</p>
          <p style=""font-size: 16px;"">F = YES &nbsp;&nbsp;&nbsp; J = NO</p>
        ","f","html-keyboard-response","361","2.1.0","440582","F=YES, J=NO","8mqpzhhsh4","0","70","65","75","","","","","","","","","spend","holiday1","metaphor","experimental","f","true","",""
"3051","<p>Excellent! You have finished block 3 of 8.</p>
                     <p>Feel free to take a 30 second break.</p>
                     <p>Press any key when you're ready to continue.</p>"," ","html-keyboard-response","362","2.1.0","443634","F=YES, J=NO","8mqpzhhsh4","0","70","65","75","","","","","","","","","","","","","","","",""
"889","<p>Starting main block 4 of 8. Press any key to continue.</p>"," ","html-keyboard-response","363","2.1.0","444525","F=YES, J=NO","8mqpzhhsh4","0","70","65","75","","","","","","","","","","","","","","","",""
"null","<p style=""font-size: 50px;"">+</p>","null","html-keyboard-response","364","2.1.0","444831","F=YES, J=NO","8mqpzhhsh4","0","70","65","75","","","","","","","","","","","","","","","",""
"null","audio/beep-329314.mp3","null","audio-keyboard-response","365","2.1.0","446358","F=YES, J=NO","8mqpzhhsh4","0","70","65","75","","","","","","","","","","","","","","","",""
"null","audio/wealth1.wav","null","audio-keyboard-response","366","2.1.0","446938","F=YES, J=NO","8mqpzhhsh4","0","70","65","75","","","","","","","","","","","","","","","",""
"607","
          <p id=""word"" style=""font-size: 40px;"">possess</p>
          <p style=""font-size: 16px;"">F = YES &nbsp;&nbsp;&nbsp; J = NO</p>
        ","f","html-keyboard-response","367","2.1.0","447546","F=YES, J=NO","8mqpzhhsh4","0","70","65","75","","","","","","","","","possess","wealth1","literal","experimental","f","true","",""
"null","<p style=""font-size: 50px;"">+</p>","null","html-keyboard-response","368","2.1.0","447867","F=YES, J=NO","8mqpzhhsh4","0","70","65","75","","","","","","","","","","","","","","","",""
"null","audio/beep-329314.mp3","null","audio-keyboard-response","369","2.1.0","449399","F=YES, J=NO","8mqpzhhsh4","0","70","65","75","","","","","","","","","","","","","","","",""
"null","audio/window1.wav","null","audio-keyboard-response","370","2.1.0","450018","F=YES, J=NO","8mqpzhhsh4","0","70","65","75","","","","","","","","","","","","","","","",""
"418","
          <p id=""word"" style=""font-size: 40px;"">break</p>
          <p style=""font-size: 16px;"">F = YES &nbsp;&nbsp;&nbsp; J = NO</p>
        ","f","html-keyboard-response","371","2.1.0","450438","F=YES, J=NO","8mqpzhhsh4","0","70","65","75","","","","","","","","","break","window1","literal","experimental","f","true","",""
"null","<p style=""font-size: 50px;"">+</p>","null","html-keyboard-response","372","2.1.0","450756","F=YES, J=NO","8mqpzhhsh4","0","70","65","75","","","","","","","","","","","","","","","",""
"null","audio/beep-329314.mp3","null","audio-keyboard-response","373","2.1.0","452278","F=YES, J=NO","8mqpzhhsh4","0","70","65","75","","","","","","","","","","","","","","","",""
"null","audio/smirk1.wav","null","audio-keyboard-response","374","2.1.0","452999","F=YES, J=NO","8mqpzhhsh4","0","70","65","75","","","","","","","","","","","","","","","",""
"563","
          <p id=""word"" style=""font-size: 40px;"">wipe</p>
          <p style=""font-size: 16px;"">F = YES &nbsp;&nbsp;&nbsp; J = NO</p>
        ","f","html-keyboard-response","375","2.1.0","453563","F=YES, J=NO","8mqpzhhsh4","0","70","65","75","","","","","","","","","wipe","smirk1","metaphor","experimental","f","true","",""
"null","<p style=""font-size: 50px;"">+</p>","null","html-keyboard-response","376","2.1.0","453866","F=YES, J=NO","8mqpzhhsh4","0","70","65","75","","","","","","","","","","","","","","","",""
"null","audio/beep-329314.mp3","null","audio-keyboard-response","377","2.1.0","455398","F=YES, J=NO","8mqpzhhsh4","0","70","65","75","","","","","","","","","","","","","","","",""
"null","audio/hotel1.wav","null","audio-keyboard-response","378","2.1.0","456038","F=YES, J=NO","8mqpzhhsh4","0","70","65","75","","","","","","","","","","","","","","","",""
"598","
          <p id=""word"" style=""font-size: 40px;"">flanter</p>
          <p style=""font-size: 16px;"">F = YES &nbsp;&nbsp;&nbsp; J = NO</p>
        ","f","html-keyboard-response","379","2.1.0","456638","F=YES, J=NO","8mqpzhhsh4","0","70","65","75","","","","","","","","","flanter","hotel1","pseudoword","pseudoword","j","false","",""
"null","<p style=""font-size: 50px;"">+</p>","null","html-keyboard-response","380","2.1.0","456946","F=YES, J=NO","8mqpzhhsh4","0","70","65","75","","","","","","","","","","","","","","","",""
"null","audio/beep-329314.mp3","null","audio-keyboard-response","381","2.1.0","458478","F=YES, J=NO","8mqpzhhsh4","0","70","65","75","","","","","","","","","","","","","","","",""
"null","audio/budget1.wav","null","audio-keyboard-response","382","2.1.0","459078","F=YES, J=NO","8mqpzhhsh4","0","70","65","75","","","","","","","","","","","","","","","",""
"430","
          <p id=""word"" style=""font-size: 40px;"">cut</p>
          <p style=""font-size: 16px;"">F = YES &nbsp;&nbsp;&nbsp; J = NO</p>
        ","f","html-keyboard-response","383","2.1.0","459510","F=YES, J=NO","8mqpzhhsh4","0","70","65","75","","","","","","","","","cut","budget1","metaphor","experimental","f","true","",""
"null","<p style=""font-size: 50px;"">+</p>","null","html-keyboard-response","384","2.1.0","459827","F=YES, J=NO","8mqpzhhsh4","0","70","65","75","","","","","","","","","","","","","","","",""
"null","audio/beep-329314.mp3","null","audio-keyboard-response","385","2.1.0","461358","F=YES, J=NO","8mqpzhhsh4","0","70","65","75","","","","","","","","","","","","","","","",""
"null","audio/planet1.wav","null","audio-keyboard-response","386","2.1.0","461938","F=YES, J=NO","8mqpzhhsh4","0","70","65","75","","","","","","","","","","","","","","","",""
"659","
          <p id=""word"" style=""font-size: 40px;"">cratched</p>
          <p style=""font-size: 16px;"">F = YES &nbsp;&nbsp;&nbsp; J = NO</p>
        ","f","html-keyboard-response","387","2.1.0","462599","F=YES, J=NO","8mqpzhhsh4","0","70","65","75","","","","","","","","","cratched","planet1","pseudoword","pseudoword","j","false","",""
"null","<p style=""font-size: 50px;"">+</p>","null","html-keyboard-response","388","2.1.0","462907","F=YES, J=NO","8mqpzhhsh4","0","70","65","75","","","","","","","","","","","","","","","",""
"null","audio/beep-329314.mp3","null","audio-keyboard-response","389","2.1.0","464439","F=YES, J=NO","8mqpzhhsh4","0","70","65","75","","","","","","","","","","","","","","","",""
"null","audio/skin1.wav","null","audio-keyboard-response","390","2.1.0","465019","F=YES, J=NO","8mqpzhhsh4","0","70","65","75","","","","","","","","","","","","","","","",""
"514","
          <p id=""word"" style=""font-size: 40px;"">expose</p>
          <p style=""font-size: 16px;"">F = YES &nbsp;&nbsp;&nbsp; J = NO</p>
