"rt","stimulus","response","trial_type","trial_index","plugin_version","time_elapsed","response_mapping","subject_id","list_index","lextale_score","lextale_word_score","lextale_nonword_score","success","timeout","failed_images","failed_audio","failed_video","task","isWord","isDummy","target","prime","prime_type","stimulus_type","correct_response","correct","section","question_order"
"26368","
    <div style=""max-width: 800px; margin: auto; text-align: left;"">
      <h2>STANFORD UNIVERSITY</h2>
      <h3>Research Information Sheet</h3>
      <p><strong>Protocol Director:</strong> Robert Hawkins<br>
      <strong>Protocol Title:</strong> Communication and social cognition in natural audiovisual contexts<br>
      <strong>IRB#:</strong> 77226</p>

      <p><strong>DESCRIPTION:</strong> You are invited to participate in a research study about language and communication. The purpose of the research is to understand how you interact and communicate with other people in naturalistic settings as a fluent English speaker. This research will be conducted through the Prolific platform, including participants from the US, UK, and Canada. If you decide to participate in this research, you will play a communication game in a group with one or more partners.</p>

      <p><strong>TIME INVOLVEMENT:</strong> The task will last the amount of time advertised on Prolific. You are free to withdraw from the study at any time.</p>

      <p><strong>RISKS AND BENEFITS:</strong> You may become frustrated if your partner gets distracted, or experience discomfort if other participants in your group send text that is inappropriate for the task. We ask you to please be respectful of other participants you might be interacting with to mitigate these risks. You may also experience discomfort when being asked to discuss or challenge emotionally salient political beliefs. Study data will be stored securely, in compliance with Stanford University standards, minimizing the risk of confidentiality breach. This study advances our scientific understanding of how people communicate and collaborate in naturalistic settings. This study may lead to further insights about what can go wrong in teamwork, suggest potential interventions to overcome these barriers, and help to develop assistive technologies that collaborate with human partners. We cannot and do not guarantee or promise that you will receive any benefits from this study.</p>

      <p><strong>PAYMENTS:</strong> You will receive payment in the amount advertised on Prolific. If you do not complete this study, you will receive prorated payment based on the time that you have spent. Additionally, you may be eligible for bonus payments as described in the instructions.</p>

      <p><strong>PARTICIPANT’S RIGHTS:</strong> If you have read this form and have decided to participate in this project, please understand your participation is voluntary and you have the right to withdraw your consent or discontinue participation at any time without penalty or loss of benefits to which you are otherwise entitled. The alternative is not to participate. You have the right to refuse to answer particular questions. The results of this research study may be presented at scientific or professional meetings or published in scientific journals. Your individual privacy will be maintained in all published and written data resulting from the study. In accordance with scientific norms, the data from this study may be used or shared with other researchers for future research (after removing personally identifying information) without additional consent from you.</p>

      <p><strong>CONTACT INFORMATION:</strong><br>
      Questions: If you have any questions, concerns or complaints about this research, its procedures, risks and benefits, contact the Protocol Director, Robert Hawkins (<a href=""mailto:rdhawkins@stanford.edu"">rdhawkins@stanford.edu</a>, 217-549-6923).<br>
      Independent Contact: If you are not satisfied with how this study is being conducted, or if you have any concerns, complaints, or general questions about the research or your rights as a participant, please contact the Stanford Institutional Review Board (IRB) to speak to someone independent of the research team at 650-723-2480 or toll free at 1-866-680-2906, or email at <a href=""mailto:irbnon-med@stanford.edu"">irbnon-med@stanford.edu</a>. You can also write to the Stanford IRB, Stanford University, 1705 El Camino Real, Palo Alto, CA 94306.</p>

      <p><strong>Please save or print a copy of this page for your records.</strong></p>
      <p>If you agree to participate in this research, click ""Continue"" below.</p>
    </div>
  ","0","html-button-response","0","2.1.0","26375","F=YES, J=NO","8mudjabrem","1","60","65","55","","","","","","","","","","","","","","","",""
"16128","
    <div style=""max-width: 800px; margin: auto; text-align: left;"">
      <h2>Welcome!</h2>
      <p>Thank you for participating in this study. The experiment consists of three parts:</p>
      <ol>
        <li>An English vocabulary test</li>
        <li>A main task in which you will hear and see words, and decide whether the written word is a real English word</li>
        <li>A brief survey about your background</li>
      </ol>
      <p>Each part will be introduced before it begins.</p>
      <p>Please make sure you are in a quiet environment and can hear audio clearly for the final task.</p>
      <p style=""margin-top: 2em;"">Press any key to begin.</p>
    </div>
  "," ","html-keyboard-response","1","2.1.0","42505","F=YES, J=NO","8mudjabrem","1","60","65","55","","","","","","","","","","","","","","","",""
"","","","preload","2","2.1.0","43240","F=YES, J=NO","8mudjabrem","1","60","65","55","true","false","[]","[]","[]","","","","","","","","","","",""
"6573","
    <div style=""max-width: 800px; margin: auto; text-align: left;"">
      <h2>Part 1: Vocabulary Test</h2>
      <p>You will now complete the first part of the study: a short English vocabulary test.</p>
      <p>This test is called <strong>LexTALE</strong> and helps us get a general sense of your English proficiency.</p>
      <p style=""margin-top: 2em;"">Press any key to continue.</p>
    </div>
  "," ","html-keyboard-response","3","2.1.0","49814","F=YES, J=NO","8mudjabrem","1","60","65","55","","","","","","","","","","","","","","","",""
"18870","
    <div style=""max-width: 800px; margin: auto; text-align: left;"">
      <h2>LexTALE Vocabulary Test</h2>
      <p>In this test, you will see a series of letter strings—one at a time.</p>
      <p>Your task is to decide whether each string is a real English word.</p>
      <p><strong>Key responses:</strong></p>
      <ul>
        <li><strong>F</strong> = YES (real English word)</li>
        <li><strong>J</strong> = NO (not a real English word)</li>
      </ul>
      <p>There is no time limit, but please try to be accurate.</p>
      <p style=""margin-top: 2em;"">Press any key to begin.</p>
    </div>
  "," ","html-keyboard-response","4","2.1.0","68687","F=YES, J=NO","8mudjabrem","1","60","65","55","","","","","","","","","","","","","","","",""
"2353","
  <p style=""font-size: 40px;"">platery</p>
  <p style=""font-size: 16px;"">F = YES &nbsp;&nbsp;&nbsp; J = NO</p>
","f","html-keyboard-response","5","2.1.0","71042","F=YES, J=NO","8mudjabrem","1","60","65","55","","","","","","lextale","false","true","","","","","","","",""
"1577","
  <p style=""font-size: 40px;"">denial</p>
  <p style=""font-size: 16px;"">F = YES &nbsp;&nbsp;&nbsp; J = NO</p>
","f","html-keyboard-response","6","2.1.0","72622","F=YES, J=NO","8mudjabrem","1","60","65","55","","","","","","lextale","true","true","","","","","","","",""
"1406","
  <p style=""font-size: 40px;"">marrit</p>
  <p style=""font-size: 16px;"">F = YES &nbsp;&nbsp;&nbsp; J = NO</p>
","j","html-keyboard-response","7","2.1.0","74030","F=YES, J=NO","8mudjabrem","1","60","65","55","","","","","","lextale","false","true","","","","","","","",""
"662","
  <p style=""font-size: 40px;"">bottle</p>
  <p style=""font-size: 16px;"">F = YES &nbsp;&nbsp;&nbsp; J = NO</p>
","f","html-keyboard-response","8","2.1.0","74694","F=YES, J=NO","8mudjabrem","1","60","65","55","","","","","","lextale","true","false","","","","","","","",""
"1394","
  <p style=""font-size: 40px;"">birst</p>
  <p style=""font-size: 16px;"">F = YES &nbsp;&nbsp;&nbsp; J = NO</p>
","f","html-keyboard-response","9","2.1.0","76090","F=YES, J=NO","8mudjabrem","1","60","65","55","","","","","","lextale","false","false","","","","","","","",""
"1090","
  <p style=""font-size: 40px;"">envy</p>
  <p style=""font-size: 16px;"">F = YES &nbsp;&nbsp;&nbsp; J = NO</p>
","f","html-keyboard-response","10","2.1.0","77182","F=YES, J=NO","8mudjabrem","1","60","65","55","","","","","","lextale","true","false","","","","","","","",""
"921","
  <p style=""font-size: 40px;"">brang</p>
  <p style=""font-size: 16px;"">F = YES &nbsp;&nbsp;&nbsp; J = NO</p>
","j","html-keyboard-response","11","2.1.0","78104","F=YES, J=NO","8mudjabrem","1","60","65","55","","","","","","lextale","false","false","","","","","","","",""
"757","
  <p style=""font-size: 40px;"">huge</p>
  <p style=""font-size: 16px;"">F = YES &nbsp;&nbsp;&nbsp; J = NO</p>
","f","html-keyboard-response","12","2.1.0","78862","F=YES, J=NO","8mudjabrem","1","60","65","55","","","","","","lextale","true","false","","","","","","","",""
"833","
  <p style=""font-size: 40px;"">plove</p>
  <p style=""font-size: 16px;"">F = YES &nbsp;&nbsp;&nbsp; J = NO</p>
","j","html-keyboard-response","13","2.1.0","79696","F=YES, J=NO","8mudjabrem","1","60","65","55","","","","","","lextale","false","false","","","","","","","",""
"675","
  <p style=""font-size: 40px;"">border</p>
  <p style=""font-size: 16px;"">F = YES &nbsp;&nbsp;&nbsp; J = NO</p>
","f","html-keyboard-response","14","2.1.0","80372","F=YES, J=NO","8mudjabrem","1","60","65","55","","","","","","lextale","true","false","","","","","","","",""
"1413","
  <p style=""font-size: 40px;"">flimsy</p>
  <p style=""font-size: 16px;"">F = YES &nbsp;&nbsp;&nbsp; J = NO</p>
","j","html-keyboard-response","15","2.1.0","81785","F=YES, J=NO","8mudjabrem","1","60","65","55","","","","","","lextale","true","false","","","","","","","",""
"609","
  <p style=""font-size: 40px;"">drain</p>
  <p style=""font-size: 16px;"">F = YES &nbsp;&nbsp;&nbsp; J = NO</p>
","f","html-keyboard-response","16","2.1.0","82396","F=YES, J=NO","8mudjabrem","1","60","65","55","","","","","","lextale","true","false","","","","","","","",""
"1477","
  <p style=""font-size: 40px;"">twindle</p>
  <p style=""font-size: 16px;"">F = YES &nbsp;&nbsp;&nbsp; J = NO</p>
","f","html-keyboard-response","17","2.1.0","83874","F=YES, J=NO","8mudjabrem","1","60","65","55","","","","","","lextale","false","false","","","","","","","",""
"830","
  <p style=""font-size: 40px;"">propose</p>
  <p style=""font-size: 16px;"">F = YES &nbsp;&nbsp;&nbsp; J = NO</p>
","f","html-keyboard-response","18","2.1.0","84705","F=YES, J=NO","8mudjabrem","1","60","65","55","","","","","","lextale","true","false","","","","","","","",""
"1041","
  <p style=""font-size: 40px;"">forlay</p>
  <p style=""font-size: 16px;"">F = YES &nbsp;&nbsp;&nbsp; J = NO</p>
","j","html-keyboard-response","19","2.1.0","85748","F=YES, J=NO","8mudjabrem","1","60","65","55","","","","","","lextale","false","false","","","","","","","",""
"1200","
  <p style=""font-size: 40px;"">tenant</p>
  <p style=""font-size: 16px;"">F = YES &nbsp;&nbsp;&nbsp; J = NO</p>
","j","html-keyboard-response","20","2.1.0","86948","F=YES, J=NO","8mudjabrem","1","60","65","55","","","","","","lextale","true","false","","","","","","","",""
"1004","
  <p style=""font-size: 40px;"">strain</p>
  <p style=""font-size: 16px;"">F = YES &nbsp;&nbsp;&nbsp; J = NO</p>
","f","html-keyboard-response","21","2.1.0","87952","F=YES, J=NO","8mudjabrem","1","60","65","55","","","","","","lextale","true","false","","","","","","","",""
"1108","
  <p style=""font-size: 40px;"">holster</p>
  <p style=""font-size: 16px;"">F = YES &nbsp;&nbsp;&nbsp; J = NO</p>
","f","html-keyboard-response","22","2.1.0","89062","F=YES, J=NO","8mudjabrem","1","60","65","55","","","","","","lextale","true","false","","","","","","","",""
"801","
  <p style=""font-size: 40px;"">hinder</p>
  <p style=""font-size: 16px;"">F = YES &nbsp;&nbsp;&nbsp; J = NO</p>
","f","html-keyboard-response","23","2.1.0","89864","F=YES, J=NO","8mudjabrem","1","60","65","55","","","","","","lextale","true","false","","","","","","","",""
"1109","
  <p style=""font-size: 40px;"">swindle</p>
  <p style=""font-size: 16px;"">F = YES &nbsp;&nbsp;&nbsp; J = NO</p>
","j","html-keyboard-response","24","2.1.0","90974","F=YES, J=NO","8mudjabrem","1","60","65","55","","","","","","lextale","true","false","","","","","","","",""
"2918","
  <p style=""font-size: 40px;"">nuder</p>
  <p style=""font-size: 16px;"">F = YES &nbsp;&nbsp;&nbsp; J = NO</p>
","f","html-keyboard-response","25","2.1.0","93893","F=YES, J=NO","8mudjabrem","1","60","65","55","","","","","","lextale","false","false","","","","","","","",""
"770","
  <p style=""font-size: 40px;"">pillow</p>
  <p style=""font-size: 16px;"">F = YES &nbsp;&nbsp;&nbsp; J = NO</p>
","f","html-keyboard-response","26","2.1.0","94664","F=YES, J=NO","8mudjabrem","1","60","65","55","","","","","","lextale","true","false","","","","","","","",""
"1353","
  <p style=""font-size: 40px;"">shumble</p>
  <p style=""font-size: 16px;"">F = YES &nbsp;&nbsp;&nbsp; J = NO</p>
","j","html-keyboard-response","27","2.1.0","96018","F=YES, J=NO","8mudjabrem","1","60","65","55","","","","","","lextale","false","false","","","","","","","",""
"721","
  <p style=""font-size: 40px;"">thirst</p>
  <p style=""font-size: 16px;"">F = YES &nbsp;&nbsp;&nbsp; J = NO</p>
","f","html-keyboard-response","28","2.1.0","96740","F=YES, J=NO","8mudjabrem","1","60","65","55","","","","","","lextale","true","false","","","","","","","",""
"3307","
  <p style=""font-size: 40px;"">unsail</p>
  <p style=""font-size: 16px;"">F = YES &nbsp;&nbsp;&nbsp; J = NO</p>
","f","html-keyboard-response","29","2.1.0","100048","F=YES, J=NO","8mudjabrem","1","60","65","55","","","","","","lextale","false","false","","","","","","","",""
"1113","
  <p style=""font-size: 40px;"">rifle</p>
  <p style=""font-size: 16px;"">F = YES &nbsp;&nbsp;&nbsp; J = NO</p>
","f","html-keyboard-response","30","2.1.0","101162","F=YES, J=NO","8mudjabrem","1","60","65","55","","","","","","lextale","true","false","","","","","","","",""
"969","
  <p style=""font-size: 40px;"">mush</p>
  <p style=""font-size: 16px;"">F = YES &nbsp;&nbsp;&nbsp; J = NO</p>
","f","html-keyboard-response","31","2.1.0","102132","F=YES, J=NO","8mudjabrem","1","60","65","55","","","","","","lextale","false","false","","","","","","","",""
"806","
  <p style=""font-size: 40px;"">drench</p>
  <p style=""font-size: 16px;"">F = YES &nbsp;&nbsp;&nbsp; J = NO</p>
","j","html-keyboard-response","32","2.1.0","102938","F=YES, J=NO","8mudjabrem","1","60","65","55","","","","","","lextale","true","false","","","","","","","",""
"1265","
  <p style=""font-size: 40px;"">snirt</p>
  <p style=""font-size: 16px;"">F = YES &nbsp;&nbsp;&nbsp; J = NO</p>
","j","html-keyboard-response","33","2.1.0","104205","F=YES, J=NO","8mudjabrem","1","60","65","55","","","","","","lextale","false","false","","","","","","","",""
"880","
  <p style=""font-size: 40px;"">bitter</p>
  <p style=""font-size: 16px;"">F = YES &nbsp;&nbsp;&nbsp; J = NO</p>
","f","html-keyboard-response","34","2.1.0","105086","F=YES, J=NO","8mudjabrem","1","60","65","55","","","","","","lextale","true","false","","","","","","","",""
"1588","
  <p style=""font-size: 40px;"">pliff</p>
  <p style=""font-size: 16px;"">F = YES &nbsp;&nbsp;&nbsp; J = NO</p>
","f","html-keyboard-response","35","2.1.0","106676","F=YES, J=NO","8mudjabrem","1","60","65","55","","","","","","lextale","false","false","","","","","","","",""
"717","
  <p style=""font-size: 40px;"">tablet</p>
  <p style=""font-size: 16px;"">F = YES &nbsp;&nbsp;&nbsp; J = NO</p>
","f","html-keyboard-response","36","2.1.0","107394","F=YES, J=NO","8mudjabrem","1","60","65","55","","","","","","lextale","true","false","","","","","","","",""
"1053","
  <p style=""font-size: 40px;"">glimmer</p>
  <p style=""font-size: 16px;"">F = YES &nbsp;&nbsp;&nbsp; J = NO</p>
","f","html-keyboard-response","37","2.1.0","108449","F=YES, J=NO","8mudjabrem","1","60","65","55","","","","","","lextale","true","false","","","","","","","",""
"1116","
  <p style=""font-size: 40px;"">slink</p>
  <p style=""font-size: 16px;"">F = YES &nbsp;&nbsp;&nbsp; J = NO</p>
","f","html-keyboard-response","38","2.1.0","109566","F=YES, J=NO","8mudjabrem","1","60","65","55","","","","","","lextale","true","false","","","","","","","",""
"673","
  <p style=""font-size: 40px;"">clever</p>
  <p style=""font-size: 16px;"">F = YES &nbsp;&nbsp;&nbsp; J = NO</p>
","f","html-keyboard-response","39","2.1.0","110240","F=YES, J=NO","8mudjabrem","1","60","65","55","","","","","","lextale","true","false","","","","","","","",""
"849","
  <p style=""font-size: 40px;"">grum</p>
  <p style=""font-size: 16px;"">F = YES &nbsp;&nbsp;&nbsp; J = NO</p>
","j","html-keyboard-response","40","2.1.0","111090","F=YES, J=NO","8mudjabrem","1","60","65","55","","","","","","lextale","false","false","","","","","","","",""
"748","
  <p style=""font-size: 40px;"">string</p>
  <p style=""font-size: 16px;"">F = YES &nbsp;&nbsp;&nbsp; J = NO</p>
","f","html-keyboard-response","41","2.1.0","111839","F=YES, J=NO","8mudjabrem","1","60","65","55","","","","","","lextale","true","false","","","","","","","",""
"1085","
  <p style=""font-size: 40px;"">plim</p>
  <p style=""font-size: 16px;"">F = YES &nbsp;&nbsp;&nbsp; J = NO</p>
","j","html-keyboard-response","42","2.1.0","112925","F=YES, J=NO","8mudjabrem","1","60","65","55","","","","","","lextale","false","false","","","","","","","",""
"567","
  <p style=""font-size: 40px;"">cable</p>
  <p style=""font-size: 16px;"">F = YES &nbsp;&nbsp;&nbsp; J = NO</p>
","f","html-keyboard-response","43","2.1.0","113494","F=YES, J=NO","8mudjabrem","1","60","65","55","","","","","","lextale","true","false","","","","","","","",""
"1176","
  <p style=""font-size: 40px;"">shrivel</p>
  <p style=""font-size: 16px;"">F = YES &nbsp;&nbsp;&nbsp; J = NO</p>
","j","html-keyboard-response","44","2.1.0","114671","F=YES, J=NO","8mudjabrem","1","60","65","55","","","","","","lextale","true","false","","","","","","","",""
"1048","
  <p style=""font-size: 40px;"">tarnish</p>
  <p style=""font-size: 16px;"">F = YES &nbsp;&nbsp;&nbsp; J = NO</p>
","j","html-keyboard-response","45","2.1.0","115720","F=YES, J=NO","8mudjabrem","1","60","65","55","","","","","","lextale","true","false","","","","","","","",""
"768","
  <p style=""font-size: 40px;"">blim</p>
  <p style=""font-size: 16px;"">F = YES &nbsp;&nbsp;&nbsp; J = NO</p>
","f","html-keyboard-response","46","2.1.0","116489","F=YES, J=NO","8mudjabrem","1","60","65","55","","","","","","lextale","false","false","","","","","","","",""
"899","
  <p style=""font-size: 40px;"">stifle</p>
  <p style=""font-size: 16px;"">F = YES &nbsp;&nbsp;&nbsp; J = NO</p>
","j","html-keyboard-response","47","2.1.0","117390","F=YES, J=NO","8mudjabrem","1","60","65","55","","","","","","lextale","true","false","","","","","","","",""
"790","
  <p style=""font-size: 40px;"">bint</p>
  <p style=""font-size: 16px;"">F = YES &nbsp;&nbsp;&nbsp; J = NO</p>
","j","html-keyboard-response","48","2.1.0","118182","F=YES, J=NO","8mudjabrem","1","60","65","55","","","","","","lextale","false","false","","","","","","","",""
"866","
  <p style=""font-size: 40px;"">purple</p>
  <p style=""font-size: 16px;"">F = YES &nbsp;&nbsp;&nbsp; J = NO</p>
","f","html-keyboard-response","49","2.1.0","119049","F=YES, J=NO","8mudjabrem","1","60","65","55","","","","","","lextale","true","false","","","","","","","",""
"1010","
  <p style=""font-size: 40px;"">wriggle</p>
  <p style=""font-size: 16px;"">F = YES &nbsp;&nbsp;&nbsp; J = NO</p>
","f","html-keyboard-response","50","2.1.0","120061","F=YES, J=NO","8mudjabrem","1","60","65","55","","","","","","lextale","true","false","","","","","","","",""
"746","
  <p style=""font-size: 40px;"">mangle</p>
  <p style=""font-size: 16px;"">F = YES &nbsp;&nbsp;&nbsp; J = NO</p>
","f","html-keyboard-response","51","2.1.0","120808","F=YES, J=NO","8mudjabrem","1","60","65","55","","","","","","lextale","true","false","","","","","","","",""
"1568","
  <p style=""font-size: 40px;"">shramp</p>
  <p style=""font-size: 16px;"">F = YES &nbsp;&nbsp;&nbsp; J = NO</p>
","j","html-keyboard-response","52","2.1.0","122377","F=YES, J=NO","8mudjabrem","1","60","65","55","","","","","","lextale","false","false","","","","","","","",""
"705","
  <p style=""font-size: 40px;"">flirt</p>
  <p style=""font-size: 16px;"">F = YES &nbsp;&nbsp;&nbsp; J = NO</p>
","f","html-keyboard-response","53","2.1.0","123083","F=YES, J=NO","8mudjabrem","1","60","65","55","","","","","","lextale","true","false","","","","","","","",""
"1267","
  <p style=""font-size: 40px;"">frip</p>
  <p style=""font-size: 16px;"">F = YES &nbsp;&nbsp;&nbsp; J = NO</p>
","j","html-keyboard-response","54","2.1.0","124352","F=YES, J=NO","8mudjabrem","1","60","65","55","","","","","","lextale","false","false","","","","","","","",""
"1107","
  <p style=""font-size: 40px;"">tangle</p>
  <p style=""font-size: 16px;"">F = YES &nbsp;&nbsp;&nbsp; J = NO</p>
","f","html-keyboard-response","55","2.1.0","125460","F=YES, J=NO","8mudjabrem","1","60","65","55","","","","","","lextale","true","false","","","","","","","",""
"824","
  <p style=""font-size: 40px;"">crumble</p>
  <p style=""font-size: 16px;"">F = YES &nbsp;&nbsp;&nbsp; J = NO</p>
","j","html-keyboard-response","56","2.1.0","126285","F=YES, J=NO","8mudjabrem","1","60","65","55","","","","","","lextale","true","false","","","","","","","",""
"753","
  <p style=""font-size: 40px;"">wrinkle</p>
  <p style=""font-size: 16px;"">F = YES &nbsp;&nbsp;&nbsp; J = NO</p>
","f","html-keyboard-response","57","2.1.0","127040","F=YES, J=NO","8mudjabrem","1","60","65","55","","","","","","lextale","true","false","","","","","","","",""
"1585","
  <p style=""font-size: 40px;"">slumb</p>
  <p style=""font-size: 16px;"">F = YES &nbsp;&nbsp;&nbsp; J = NO</p>
","f","html-keyboard-response","58","2.1.0","128626","F=YES, J=NO","8mudjabrem","1","60","65","55","","","","","","lextale","false","false","","","","","","","",""
"929","
  <p style=""font-size: 40px;"">jungle</p>
  <p style=""font-size: 16px;"">F = YES &nbsp;&nbsp;&nbsp; J = NO</p>
","f","html-keyboard-response","59","2.1.0","129556","F=YES, J=NO","8mudjabrem","1","60","65","55","","","","","","lextale","true","false","","","","","","","",""
"1831","
  <p style=""font-size: 40px;"">frolick</p>
  <p style=""font-size: 16px;"">F = YES &nbsp;&nbsp;&nbsp; J = NO</p>
","j","html-keyboard-response","60","2.1.0","131388","F=YES, J=NO","8mudjabrem","1","60","65","55","","","","","","lextale","false","false","","","","","","","",""
"2971","
      <h2>LexTALE Test Completed</h2>
      <p>Your LexTALE vocabulary score is: <strong>60%</strong></p>
      <p>Press any key to continue.</p>
    "," ","html-keyboard-response","61","2.1.0","134360","F=YES, J=NO","8mudjabrem","1","60","65","55","","","","","","","","","","","","","","","",""
"5208","
    <div style=""max-width: 800px; margin: auto; text-align: left;"">
      <h2>Break Time</h2>
      <p>You have completed the first part of the study.</p>
      <p>You may take a short <strong>30-second break</strong> before continuing.</p>
      <p>When you’re ready, press any key to continue to the final task.</p>
    </div>
  "," ","html-keyboard-response","62","2.1.0","139569","F=YES, J=NO","8mudjabrem","1","60","65","55","","","","","","","","","","","","","","","",""
"1202","
    <div style=""max-width: 800px; margin: auto; text-align: left;"">
      <h2>Part 2: Lexical Decision Task</h2>
      <p>You will now begin the second part of the study.</p>
      <p>Each trial will follow this sequence:</p>
      <ul>
        <li>A fixation cross (+) appears at the center of the screen.</li>
        <li>You will hear a short beep followed by a spoken word.</li>
        <li>A written word will appear briefly on the screen.</li>
      </ul>
      <p>Your task is to judge whether the <strong>written word</strong> is a real English word.</p>
      <p style=""margin-top: 1em;""><strong>Key responses:</strong></p>
      <ul>
        <li><strong>F</strong> = YES (real English word)</li>
        <li><strong>J</strong> = NO (not a real English word)</li>
      </ul>
      <p>Please respond as quickly and accurately as you can.</p>
      <p style=""margin-top: 2em;"">Press any key to continue.</p>
    </div>
  "," ","html-keyboard-response","63","2.1.0","140774","F=YES, J=NO","8mudjabrem","1","60","65","55","","","","","","","","","","","","","","","",""
"11580","
    <div style=""max-width: 800px; margin: auto; text-align: left;"">
      <h2>Before You Begin</h2>
      <p>Make sure your sound is turned on.</p>
      <p>You will hear audio during each trial, but your decision should be based only on the <strong>written word</strong> you see on the screen.</p>
      <p><strong>Reminder:</strong></p>
      <ul>
        <li><strong>F</strong> = YES (real English word)</li>
        <li><strong>J</strong> = NO (not a real English word)</li>
      </ul>
      <p style=""margin-top: 2em;"">Press any key when you are ready to begin.</p>
    </div>
  "," ","html-keyboard-response","64","2.1.0","152356","F=YES, J=NO","8mudjabrem","1","60","65","55","","","","","","","","","","","","","","","",""
"5144","
    <div style=""max-width: 800px; margin: auto; text-align: left;"">
      <h2>Part 2: Practice Trials</h2>
      <p>You will now complete a few <strong>practice trials</strong> to get familiar with the task.</p>
      <p>These trials are <strong>not scored</strong> and are only to help you get used to the format.</p>
      <p style=""margin-top: 2em;"">Press any key to begin.</p>
    </div>
  "," ","html-keyboard-response","65","2.1.0","157502","F=YES, J=NO","8mudjabrem","1","60","65","55","","","","","","","","","","","","","","","",""
"2102","<p>Starting practice block 1 of 2. Press any key to continue.</p>"," ","html-keyboard-response","66","2.1.0","159605","F=YES, J=NO","8mudjabrem","1","60","65","55","","","","","","","","","","","","","","","",""
"null","<p style=""font-size: 50px;"">+</p>","null","html-keyboard-response","67","2.1.0","159923","F=YES, J=NO","8mudjabrem","1","60","65","55","","","","","","","","","","","","","","","",""
"null","audio/beep-329314.mp3","null","audio-keyboard-response","68","2.1.0","161455","F=YES, J=NO","8mudjabrem","1","60","65","55","","","","","","","","","","","","","","","",""
"null","audio/grass.wav","null","audio-keyboard-response","69","2.1.0","162273","F=YES, J=NO","8mudjabrem","1","60","65","55","","","","","","","","","","","","","","","",""
"607","
          <p id=""word"" style=""font-size: 40px;"">milames</p>
          <p style=""font-size: 16px;"">F = YES &nbsp;&nbsp;&nbsp; J = NO</p>
        ","f","html-keyboard-response","70","2.1.0","162882","F=YES, J=NO","8mudjabrem","1","60","65","55","","","","","","","","","milames","grass","pseudoword","pseudoword","j","false","",""
"null","<p style=""font-size: 50px;"">+</p>","null","html-keyboard-response","71","2.1.0","163194","F=YES, J=NO","8mudjabrem","1","60","65","55","","","","","","","","","","","","","","","",""
"null","audio/beep-329314.mp3","null","audio-keyboard-response","72","2.1.0","164736","F=YES, J=NO","8mudjabrem","1","60","65","55","","","","","","","","","","","","","","","",""
"null","audio/belief.wav","null","audio-keyboard-response","73","2.1.0","165535","F=YES, J=NO","8mudjabrem","1","60","65","55","","","","","","","","","","","","","","","",""
"1013","
          <p id=""word"" style=""font-size: 40px;"">read</p>
          <p style=""font-size: 16px;"">F = YES &nbsp;&nbsp;&nbsp; J = NO</p>
        ","f","html-keyboard-response","74","2.1.0","166549","F=YES, J=NO","8mudjabrem","1","60","65","55","","","","","","","","","read","belief","filler","filler","f","true","",""
"null","<p style=""font-size: 50px;"">+</p>","null","html-keyboard-response","75","2.1.0","166862","F=YES, J=NO","8mudjabrem","1","60","65","55","","","","","","","","","","","","","","","",""
"null","audio/beep-329314.mp3","null","audio-keyboard-response","76","2.1.0","168394","F=YES, J=NO","8mudjabrem","1","60","65","55","","","","","","","","","","","","","","","",""
"null","audio/emotion.wav","null","audio-keyboard-response","77","2.1.0","169213","F=YES, J=NO","8mudjabrem","1","60","65","55","","","","","","","","","","","","","","","",""
"683","
          <p id=""word"" style=""font-size: 40px;"">devering</p>
          <p style=""font-size: 16px;"">F = YES &nbsp;&nbsp;&nbsp; J = NO</p>
        ","j","html-keyboard-response","78","2.1.0","169897","F=YES, J=NO","8mudjabrem","1","60","65","55","","","","","","","","","devering","emotion","pseudoword","pseudoword","j","true","",""
"null","<p style=""font-size: 50px;"">+</p>","null","html-keyboard-response","79","2.1.0","170206","F=YES, J=NO","8mudjabrem","1","60","65","55","","","","","","","","","","","","","","","",""
"null","audio/beep-329314.mp3","null","audio-keyboard-response","80","2.1.0","171735","F=YES, J=NO","8mudjabrem","1","60","65","55","","","","","","","","","","","","","","","",""
"null","audio/kettle1.wav","null","audio-keyboard-response","81","2.1.0","172353","F=YES, J=NO","8mudjabrem","1","60","65","55","","","","","","","","","","","","","","","",""
"824","
          <p id=""word"" style=""font-size: 40px;"">wrap</p>
          <p style=""font-size: 16px;"">F = YES &nbsp;&nbsp;&nbsp; J = NO</p>
        ","j","html-keyboard-response","82","2.1.0","173178","F=YES, J=NO","8mudjabrem","1","60","65","55","","","","","","","","","wrap","kettle1","filler","filler","f","false","",""
"null","<p style=""font-size: 50px;"">+</p>","null","html-keyboard-response","83","2.1.0","173482","F=YES, J=NO","8mudjabrem","1","60","65","55","","","","","","","","","","","","","","","",""
"null","audio/beep-329314.mp3","null","audio-keyboard-response","84","2.1.0","175015","F=YES, J=NO","8mudjabrem","1","60","65","55","","","","","","","","","","","","","","","",""
"null","audio/mouth1.wav","null","audio-keyboard-response","85","2.1.0","175754","F=YES, J=NO","8mudjabrem","1","60","65","55","","","","","","","","","","","","","","","",""
"914","
          <p id=""word"" style=""font-size: 40px;"">spolial</p>
          <p style=""font-size: 16px;"">F = YES &nbsp;&nbsp;&nbsp; J = NO</p>
        ","j","html-keyboard-response","86","2.1.0","176669","F=YES, J=NO","8mudjabrem","1","60","65","55","","","","","","","","","spolial","mouth1","pseudoword","pseudoword","j","true","",""
"null","<p style=""font-size: 50px;"">+</p>","null","html-keyboard-response","87","2.1.0","176972","F=YES, J=NO","8mudjabrem","1","60","65","55","","","","","","","","","","","","","","","",""
"null","audio/beep-329314.mp3","null","audio-keyboard-response","88","2.1.0","178495","F=YES, J=NO","8mudjabrem","1","60","65","55","","","","","","","","","","","","","","","",""
"null","audio/ego.wav","null","audio-keyboard-response","89","2.1.0","179215","F=YES, J=NO","8mudjabrem","1","60","65","55","","","","","","","","","","","","","","","",""
"1203","
          <p id=""word"" style=""font-size: 40px;"">bruite</p>
          <p style=""font-size: 16px;"">F = YES &nbsp;&nbsp;&nbsp; J = NO</p>
        ","j","html-keyboard-response","90","2.1.0","180420","F=YES, J=NO","8mudjabrem","1","60","65","55","","","","","","","","","bruite","ego","pseudoword","pseudoword","j","true","",""
"null","<p style=""font-size: 50px;"">+</p>","null","html-keyboard-response","91","2.1.0","180732","F=YES, J=NO","8mudjabrem","1","60","65","55","","","","","","","","","","","","","","","",""
"null","audio/beep-329314.mp3","null","audio-keyboard-response","92","2.1.0","182254","F=YES, J=NO","8mudjabrem","1","60","65","55","","","","","","","","","","","","","","","",""
"null","audio/menu.wav","null","audio-keyboard-response","93","2.1.0","182975","F=YES, J=NO","8mudjabrem","1","60","65","55","","","","","","","","","","","","","","","",""
"834","
          <p id=""word"" style=""font-size: 40px;"">slice</p>
          <p style=""font-size: 16px;"">F = YES &nbsp;&nbsp;&nbsp; J = NO</p>
        ","f","html-keyboard-response","94","2.1.0","183810","F=YES, J=NO","8mudjabrem","1","60","65","55","","","","","","","","","slice","menu","filler","filler","f","true","",""
"null","<p style=""font-size: 50px;"">+</p>","null","html-keyboard-response","95","2.1.0","184127","F=YES, J=NO","8mudjabrem","1","60","65","55","","","","","","","","","","","","","","","",""
"null","audio/beep-329314.mp3","null","audio-keyboard-response","96","2.1.0","185656","F=YES, J=NO","8mudjabrem","1","60","65","55","","","","","","","","","","","","","","","",""
"null","audio/cancer1.wav","null","audio-keyboard-response","97","2.1.0","186394","F=YES, J=NO","8mudjabrem","1","60","65","55","","","","","","","","","","","","","","","",""
"1319","
          <p id=""word"" style=""font-size: 40px;"">draw</p>
          <p style=""font-size: 16px;"">F = YES &nbsp;&nbsp;&nbsp; J = NO</p>
        ","f","html-keyboard-response","98","2.1.0","187714","F=YES, J=NO","8mudjabrem","1","60","65","55","","","","","","","","","draw","cancer1","filler","filler","f","true","",""
"null","<p style=""font-size: 50px;"">+</p>","null","html-keyboard-response","99","2.1.0","188026","F=YES, J=NO","8mudjabrem","1","60","65","55","","","","","","","","","","","","","","","",""
"null","audio/beep-329314.mp3","null","audio-keyboard-response","100","2.1.0","189553","F=YES, J=NO","8mudjabrem","1","60","65","55","","","","","","","","","","","","","","","",""
"null","audio/alarm1.wav","null","audio-keyboard-response","101","2.1.0","190135","F=YES, J=NO","8mudjabrem","1","60","65","55","","","","","","","","","","","","","","","",""
"721","
          <p id=""word"" style=""font-size: 40px;"">lock</p>
          <p style=""font-size: 16px;"">F = YES &nbsp;&nbsp;&nbsp; J = NO</p>
        ","j","html-keyboard-response","102","2.1.0","190858","F=YES, J=NO","8mudjabrem","1","60","65","55","","","","","","","","","lock","alarm1","filler","filler","f","false","",""
"null","<p style=""font-size: 50px;"">+</p>","null","html-keyboard-response","103","2.1.0","191167","F=YES, J=NO","8mudjabrem","1","60","65","55","","","","","","","","","","","","","","","",""
"null","audio/beep-329314.mp3","null","audio-keyboard-response","104","2.1.0","192696","F=YES, J=NO","8mudjabrem","1","60","65","55","","","","","","","","","","","","","","","",""
"null","audio/bomb1.wav","null","audio-keyboard-response","105","2.1.0","193075","F=YES, J=NO","8mudjabrem","1","60","65","55","","","","","","","","","","","","","","","",""
"744","
          <p id=""word"" style=""font-size: 40px;"">clean</p>
          <p style=""font-size: 16px;"">F = YES &nbsp;&nbsp;&nbsp; J = NO</p>
        ","f","html-keyboard-response","106","2.1.0","193821","F=YES, J=NO","8mudjabrem","1","60","65","55","","","","","","","","","clean","bomb1","filler","filler","f","true","",""
"null","<p style=""font-size: 50px;"">+</p>","null","html-keyboard-response","107","2.1.0","194125","F=YES, J=NO","8mudjabrem","1","60","65","55","","","","","","","","","","","","","","","",""
"null","audio/beep-329314.mp3","null","audio-keyboard-response","108","2.1.0","195653","F=YES, J=NO","8mudjabrem","1","60","65","55","","","","","","","","","","","","","","","",""
"null","audio/smirk1.wav","null","audio-keyboard-response","109","2.1.0","196374","F=YES, J=NO","8mudjabrem","1","60","65","55","","","","","","","","","","","","","","","",""
"709","
          <p id=""word"" style=""font-size: 40px;"">snopt</p>
          <p style=""font-size: 16px;"">F = YES &nbsp;&nbsp;&nbsp; J = NO</p>
        ","j","html-keyboard-response","110","2.1.0","197084","F=YES, J=NO","8mudjabrem","1","60","65","55","","","","","","","","","snopt","smirk1","pseudoword","pseudoword","j","true","",""
"null","<p style=""font-size: 50px;"">+</p>","null","html-keyboard-response","111","2.1.0","197396","F=YES, J=NO","8mudjabrem","1","60","65","55","","","","","","","","","","","","","","","",""
"null","audio/beep-329314.mp3","null","audio-keyboard-response","112","2.1.0","198934","F=YES, J=NO","8mudjabrem","1","60","65","55","","","","","","","","","","","","","","","",""
"null","audio/flaw.wav","null","audio-keyboard-response","113","2.1.0","199715","F=YES, J=NO","8mudjabrem","1","60","65","55","","","","","","","","","","","","","","","",""
"780","
          <p id=""word"" style=""font-size: 40px;"">thwool</p>
          <p style=""font-size: 16px;"">F = YES &nbsp;&nbsp;&nbsp; J = NO</p>
        ","j","html-keyboard-response","114","2.1.0","200497","F=YES, J=NO","8mudjabrem","1","60","65","55","","","","","","","","","thwool","flaw","pseudoword","pseudoword","j","true","",""
"1486","<p>Starting practice block 2 of 2. Press any key to continue.</p>"," ","html-keyboard-response","115","2.1.0","201985","F=YES, J=NO","8mudjabrem","1","60","65","55","","","","","","","","","","","","","","","",""
"null","<p style=""font-size: 50px;"">+</p>","null","html-keyboard-response","116","2.1.0","202298","F=YES, J=NO","8mudjabrem","1","60","65","55","","","","","","","","","","","","","","","",""
"null","audio/beep-329314.mp3","null","audio-keyboard-response","117","2.1.0","203834","F=YES, J=NO","8mudjabrem","1","60","65","55","","","","","","","","","","","","","","","",""
"null","audio/fence.wav","null","audio-keyboard-response","118","2.1.0","204475","F=YES, J=NO","8mudjabrem","1","60","65","55","","","","","","","","","","","","","","","",""
"688","
          <p id=""word"" style=""font-size: 40px;"">trim</p>
          <p style=""font-size: 16px;"">F = YES &nbsp;&nbsp;&nbsp; J = NO</p>
        ","j","html-keyboard-response","119","2.1.0","205165","F=YES, J=NO","8mudjabrem","1","60","65","55","","","","","","","","","trim","fence","filler","filler","f","false","",""
"null","<p style=""font-size: 50px;"">+</p>","null","html-keyboard-response","120","2.1.0","205480","F=YES, J=NO","8mudjabrem","1","60","65","55","","","","","","","","","","","","","","","",""
"null","audio/beep-329314.mp3","null","audio-keyboard-response","121","2.1.0","207015","F=YES, J=NO","8mudjabrem","1","60","65","55","","","","","","","","","","","","","","","",""
"null","audio/pattern.wav","null","audio-keyboard-response","122","2.1.0","207713","F=YES, J=NO","8mudjabrem","1","60","65","55","","","","","","","","","","","","","","","",""
"925","
          <p id=""word"" style=""font-size: 40px;"">tug</p>
          <p style=""font-size: 16px;"">F = YES &nbsp;&nbsp;&nbsp; J = NO</p>
        ","j","html-keyboard-response","123","2.1.0","208639","F=YES, J=NO","8mudjabrem","1","60","65","55","","","","","","","","","tug","pattern","filler","filler","f","false","",""
"null","<p style=""font-size: 50px;"">+</p>","null","html-keyboard-response","124","2.1.0","208953","F=YES, J=NO","8mudjabrem","1","60","65","55","","","","","","","","","","","","","","","",""
"null","audio/beep-329314.mp3","null","audio-keyboard-response","125","2.1.0","210496","F=YES, J=NO","8mudjabrem","1","60","65","55","","","","","","","","","","","","","","","",""
"null","audio/brain.wav","null","audio-keyboard-response","126","2.1.0","210974","F=YES, J=NO","8mudjabrem","1","60","65","55","","","","","","","","","","","","","","","",""
"785","
          <p id=""word"" style=""font-size: 40px;"">throw</p>
          <p style=""font-size: 16px;"">F = YES &nbsp;&nbsp;&nbsp; J = NO</p>
        ","f","html-keyboard-response","127","2.1.0","211759","F=YES, J=NO","8mudjabrem","1","60","65","55","","","","","","","","","throw","brain","filler","filler","f","true","",""
"null","<p style=""font-size: 50px;"">+</p>","null","html-keyboard-response","128","2.1.0","212061","F=YES, J=NO","8mudjabrem","1","60","65","55","","","","","","","","","","","","","","","",""
"null","audio/beep-329314.mp3","null","audio-keyboard-response","129","2.1.0","213594","F=YES, J=NO","8mudjabrem","1","60","65","55","","","","","","","","","","","","","","","",""
"null","audio/pain1.wav","null","audio-keyboard-response","130","2.1.0","214114","F=YES, J=NO","8mudjabrem","1","60","65","55","","","","","","","","","","","","","","","",""
"null","
          <p id=""word"" style=""font-size: 40px;"">tritted</p>
          <p style=""font-size: 16px;"">F = YES &nbsp;&nbsp;&nbsp; J = NO</p>
        ","null","html-keyboard-response","131","2.1.0","215622","F=YES, J=NO","8mudjabrem","1","60","65","55","","","","","","","","","tritted","pain1","pseudoword","pseudoword","j","false","",""
"null","<p style=""font-size: 50px;"">+</p>","null","html-keyboard-response","132","2.1.0","215924","F=YES, J=NO","8mudjabrem","1","60","65","55","","","","","","","","","","","","","","","",""
"null","audio/beep-329314.mp3","null","audio-keyboard-response","133","2.1.0","217456","F=YES, J=NO","8mudjabrem","1","60","65","55","","","","","","","","","","","","","","","",""
"null","audio/holiday1.wav","null","audio-keyboard-response","134","2.1.0","218135","F=YES, J=NO","8mudjabrem","1","60","65","55","","","","","","","","","","","","","","","",""
"810","
          <p id=""word"" style=""font-size: 40px;"">drivets</p>
          <p style=""font-size: 16px;"">F = YES &nbsp;&nbsp;&nbsp; J = NO</p>
        ","j","html-keyboard-response","135","2.1.0","218947","F=YES, J=NO","8mudjabrem","1","60","65","55","","","","","","","","","drivets","holiday1","pseudoword","pseudoword","j","true","",""
"null","<p style=""font-size: 50px;"">+</p>","null","html-keyboard-response","136","2.1.0","219253","F=YES, J=NO","8mudjabrem","1","60","65","55","","","","","","","","","","","","","","","",""
"null","audio/beep-329314.mp3","null","audio-keyboard-response","137","2.1.0","220793","F=YES, J=NO","8mudjabrem","1","60","65","55","","","","","","","","","","","","","","","",""
"null","audio/beach1.wav","null","audio-keyboard-response","138","2.1.0","221375","F=YES, J=NO","8mudjabrem","1","60","65","55","","","","","","","","","","","","","","","",""
"961","
          <p id=""word"" style=""font-size: 40px;"">drive</p>
          <p style=""font-size: 16px;"">F = YES &nbsp;&nbsp;&nbsp; J = NO</p>
        ","f","html-keyboard-response","139","2.1.0","222337","F=YES, J=NO","8mudjabrem","1","60","65","55","","","","","","","","","drive","beach1","filler","filler","f","true","",""
"null","<p style=""font-size: 50px;"">+</p>","null","html-keyboard-response","140","2.1.0","222640","F=YES, J=NO","8mudjabrem","1","60","65","55","","","","","","","","","","","","","","","",""
"null","audio/beep-329314.mp3","null","audio-keyboard-response","141","2.1.0","224174","F=YES, J=NO","8mudjabrem","1","60","65","55","","","","","","","","","","","","","","","",""
"null","audio/bottle.wav","null","audio-keyboard-response","142","2.1.0","224636","F=YES, J=NO","8mudjabrem","1","60","65","55","","","","","","","","","","","","","","","",""
"608","
          <p id=""word"" style=""font-size: 40px;"">watch</p>
          <p style=""font-size: 16px;"">F = YES &nbsp;&nbsp;&nbsp; J = NO</p>
        ","f","html-keyboard-response","143","2.1.0","225246","F=YES, J=NO","8mudjabrem","1","60","65","55","","","","","","","","","watch","bottle","filler","filler","f","true","",""
"null","<p style=""font-size: 50px;"">+</p>","null","html-keyboard-response","144","2.1.0","225551","F=YES, J=NO","8mudjabrem","1","60","65","55","","","","","","","","","","","","","","","",""
"null","audio/beep-329314.mp3","null","audio-keyboard-response","145","2.1.0","227074","F=YES, J=NO","8mudjabrem","1","60","65","55","","","","","","","","","","","","","","","",""
"null","audio/mind.wav","null","audio-keyboard-response","146","2.1.0","227693","F=YES, J=NO","8mudjabrem","1","60","65","55","","","","","","","","","","","","","","","",""
"670","
          <p id=""word"" style=""font-size: 40px;"">crainate</p>
          <p style=""font-size: 16px;"">F = YES &nbsp;&nbsp;&nbsp; J = NO</p>
        ","j","html-keyboard-response","147","2.1.0","228365","F=YES, J=NO","8mudjabrem","1","60","65","55","","","","","","","","","crainate","mind","pseudoword","pseudoword","j","true","",""
"null","<p style=""font-size: 50px;"">+</p>","null","html-keyboard-response","148","2.1.0","228680","F=YES, J=NO","8mudjabrem","1","60","65","55","","","","","","","","","","","","","","","",""
"null","audio/beep-329314.mp3","null","audio-keyboard-response","149","2.1.0","230215","F=YES, J=NO","8mudjabrem","1","60","65","55","","","","","","","","","","","","","","","",""
"null","audio/empire.wav","null","audio-keyboard-response","150","2.1.0","230873","F=YES, J=NO","8mudjabrem","1","60","65","55","","","","","","","","","","","","","","","",""
"774","
          <p id=""word"" style=""font-size: 40px;"">slorby</p>
          <p style=""font-size: 16px;"">F = YES &nbsp;&nbsp;&nbsp; J = NO</p>
        ","j","html-keyboard-response","151","2.1.0","231648","F=YES, J=NO","8mudjabrem","1","60","65","55","","","","","","","","","slorby","empire","pseudoword","pseudoword","j","true","",""
"null","<p style=""font-size: 50px;"">+</p>","null","html-keyboard-response","152","2.1.0","231958","F=YES, J=NO","8mudjabrem","1","60","65","55","","","","","","","","","","","","","","","",""
"null","audio/beep-329314.mp3","null","audio-keyboard-response","153","2.1.0","233495","F=YES, J=NO","8mudjabrem","1","60","65","55","","","","","","","","","","","","","","","",""
"null","audio/strength.wav","null","audio-keyboard-response","154","2.1.0","234274","F=YES, J=NO","8mudjabrem","1","60","65","55","","","","","","","","","","","","","","","",""
"717","
          <p id=""word"" style=""font-size: 40px;"">plabet</p>
          <p style=""font-size: 16px;"">F = YES &nbsp;&nbsp;&nbsp; J = NO</p>
        ","j","html-keyboard-response","155","2.1.0","234991","F=YES, J=NO","8mudjabrem","1","60","65","55","","","","","","","","","plabet","strength","pseudoword","pseudoword","j","true","",""
"null","<p style=""font-size: 50px;"">+</p>","null","html-keyboard-response","156","2.1.0","235306","F=YES, J=NO","8mudjabrem","1","60","65","55","","","","","","","","","","","","","","","",""
"null","audio/beep-329314.mp3","null","audio-keyboard-response","157","2.1.0","236836","F=YES, J=NO","8mudjabrem","1","60","65","55","","","","","","","","","","","","","","","",""
"null","audio/baby.wav","null","audio-keyboard-response","158","2.1.0","237355","F=YES, J=NO","8mudjabrem","1","60","65","55","","","","","","","","","","","","","","","",""
"735","
          <p id=""word"" style=""font-size: 40px;"">lift</p>
          <p style=""font-size: 16px;"">F = YES &nbsp;&nbsp;&nbsp; J = NO</p>
        ","f","html-keyboard-response","159","2.1.0","238091","F=YES, J=NO","8mudjabrem","1","60","65","55","","","","","","","","","lift","baby","filler","filler","f","true","",""
"null","<p style=""font-size: 50px;"">+</p>","null","html-keyboard-response","160","2.1.0","238393","F=YES, J=NO","8mudjabrem","1","60","65","55","","","","","","","","","","","","","","","",""
"null","audio/beep-329314.mp3","null","audio-keyboard-response","161","2.1.0","239936","F=YES, J=NO","8mudjabrem","1","60","65","55","","","","","","","","","","","","","","","",""
"null","audio/breath.wav","null","audio-keyboard-response","162","2.1.0","240494","F=YES, J=NO","8mudjabrem","1","60","65","55","","","","","","","","","","","","","","","",""
"981","
          <p id=""word"" style=""font-size: 40px;"">twets</p>
          <p style=""font-size: 16px;"">F = YES &nbsp;&nbsp;&nbsp; J = NO</p>
        ","j","html-keyboard-response","163","2.1.0","241476","F=YES, J=NO","8mudjabrem","1","60","65","55","","","","","","","","","twets","breath","pseudoword","pseudoword","j","true","",""
"14381","
    <div style=""max-width: 800px; margin: auto; text-align: left;"">
      <h2>Part 2: Main Trials</h2>
      <p>Great job on the practice trials!</p>
      <p>You will now begin the <strong>main set of trials</strong>.</p>
      <p>Remember your key assignments:</p>
      <ul>
        <li><strong>F</strong> = YES (real English word)</li>
        <li><strong>J</strong> = NO (not a real English word)</li>
      </ul>
      <p>Try to respond as <strong>quickly and accurately</strong> as possible.</p>
      <p style=""margin-top: 2em;"">Press any key to begin the main trials.</p>
    </div>
  "," ","html-keyboard-response","164","2.1.0","255858","F=YES, J=NO","8mudjabrem","1","60","65","55","","","","","","","","","","","","","","","",""
"1506","<p>Starting main block 1 of 8. Press any key to continue.</p>"," ","html-keyboard-response","165","2.1.0","257365","F=YES, J=NO","8mudjabrem","1","60","65","55","","","","","","","","","","","","","","","",""
"null","<p style=""font-size: 50px;"">+</p>","null","html-keyboard-response","166","2.1.0","257682","F=YES, J=NO","8mudjabrem","1","60","65","55","","","","","","","","","","","","","","","",""
"null","audio/beep-329314.mp3","null","audio-keyboard-response","167","2.1.0","259200","F=YES, J=NO","8mudjabrem","1","60","65","55","","","","","","","","","","","","","","","",""
"null","audio/fortune1.wav","null","audio-keyboard-response","168","2.1.0","259942","F=YES, J=NO","8mudjabrem","1","60","65","55","","","","","","","","","","","","","","","",""
"1276","
          <p id=""word"" style=""font-size: 40px;"">spend</p>
          <p style=""font-size: 16px;"">F = YES &nbsp;&nbsp;&nbsp; J = NO</p>
        ","f","html-keyboard-response","169","2.1.0","261219","F=YES, J=NO","8mudjabrem","1","60","65","55","","","","","","","","","spend","fortune1","literal","experimental","f","true","",""
"null","<p style=""font-size: 50px;"">+</p>","null","html-keyboard-response","170","2.1.0","261534","F=YES, J=NO","8mudjabrem","1","60","65","55","","","","","","","","","","","","","","","",""
"null","audio/beep-329314.mp3","null","audio-keyboard-response","171","2.1.0","263062","F=YES, J=NO","8mudjabrem","1","60","65","55","","","","","","","","","","","","","","","",""
"null","audio/brain.wav","null","audio-keyboard-response","172","2.1.0","263542","F=YES, J=NO","8mudjabrem","1","60","65","55","","","","","","","","","","","","","","","",""
"1250","
          <p id=""word"" style=""font-size: 40px;"">flood</p>
          <p style=""font-size: 16px;"">F = YES &nbsp;&nbsp;&nbsp; J = NO</p>
        ","j","html-keyboard-response","173","2.1.0","264793","F=YES, J=NO","8mudjabrem","1","60","65","55","","","","","","","","","flood","brain","metaphor","experimental","f","false","",""
"null","<p style=""font-size: 50px;"">+</p>","null","html-keyboard-response","174","2.1.0","265099","F=YES, J=NO","8mudjabrem","1","60","65","55","","","","","","","","","","","","","","","",""
"null","audio/beep-329314.mp3","null","audio-keyboard-response","175","2.1.0","266621","F=YES, J=NO","8mudjabrem","1","60","65","55","","","","","","","","","","","","","","","",""
"null","audio/terrain.wav","null","audio-keyboard-response","176","2.1.0","267202","F=YES, J=NO","8mudjabrem","1","60","65","55","","","","","","","","","","","","","","","",""
"1136","
          <p id=""word"" style=""font-size: 40px;"">twist</p>
          <p style=""font-size: 16px;"">F = YES &nbsp;&nbsp;&nbsp; J = NO</p>
        ","f","html-keyboard-response","177","2.1.0","268339","F=YES, J=NO","8mudjabrem","1","60","65","55","","","","","","","","","twist","terrain","filler","filler","f","true","",""
"null","<p style=""font-size: 50px;"">+</p>","null","html-keyboard-response","178","2.1.0","268642","F=YES, J=NO","8mudjabrem","1","60","65","55","","","","","","","","","","","","","","","",""
"null","audio/beep-329314.mp3","null","audio-keyboard-response","179","2.1.0","270182","F=YES, J=NO","8mudjabrem","1","60","65","55","","","","","","","","","","","","","","","",""
"null","audio/dome.wav","null","audio-keyboard-response","180","2.1.0","270602","F=YES, J=NO","8mudjabrem","1","60","65","55","","","","","","","","","","","","","","","",""
"622","
          <p id=""word"" style=""font-size: 40px;"">scrupliness</p>
          <p style=""font-size: 16px;"">F = YES &nbsp;&nbsp;&nbsp; J = NO</p>
        ","j","html-keyboard-response","181","2.1.0","271225","F=YES, J=NO","8mudjabrem","1","60","65","55","","","","","","","","","scrupliness","dome","pseudoword","pseudoword","j","true","",""
"null","<p style=""font-size: 50px;"">+</p>","null","html-keyboard-response","182","2.1.0","271538","F=YES, J=NO","8mudjabrem","1","60","65","55","","","","","","","","","","","","","","","",""
"null","audio/beep-329314.mp3","null","audio-keyboard-response","183","2.1.0","273060","F=YES, J=NO","8mudjabrem","1","60","65","55","","","","","","","","","","","","","","","",""
"null","audio/relief.wav","null","audio-keyboard-response","184","2.1.0","273702","F=YES, J=NO","8mudjabrem","1","60","65","55","","","","","","","","","","","","","","","",""
"860","
          <p id=""word"" style=""font-size: 40px;"">grigg</p>
          <p style=""font-size: 16px;"">F = YES &nbsp;&nbsp;&nbsp; J = NO</p>
        ","j","html-keyboard-response","185","2.1.0","274564","F=YES, J=NO","8mudjabrem","1","60","65","55","","","","","","","","","grigg","relief","pseudoword","pseudoword","j","true","",""
"null","<p style=""font-size: 50px;"">+</p>","null","html-keyboard-response","186","2.1.0","274868","F=YES, J=NO","8mudjabrem","1","60","65","55","","","","","","","","","","","","","","","",""
"null","audio/beep-329314.mp3","null","audio-keyboard-response","187","2.1.0","276400","F=YES, J=NO","8mudjabrem","1","60","65","55","","","","","","","","","","","","","","","",""
"null","audio/alarm1.wav","null","audio-keyboard-response","188","2.1.0","276980","F=YES, J=NO","8mudjabrem","1","60","65","55","","","","","","","","","","","","","","","",""
"883","
          <p id=""word"" style=""font-size: 40px;"">save</p>
          <p style=""font-size: 16px;"">F = YES &nbsp;&nbsp;&nbsp; J = NO</p>
        ","f","html-keyboard-response","189","2.1.0","277864","F=YES, J=NO","8mudjabrem","1","60","65","55","","","","","","","","","save","alarm1","unrelated","experimental","f","true","",""
"null","<p style=""font-size: 50px;"">+</p>","null","html-keyboard-response","190","2.1.0","278181","F=YES, J=NO","8mudjabrem","1","60","65","55","","","","","","","","","","","","","","","",""
"null","audio/beep-329314.mp3","null","audio-keyboard-response","191","2.1.0","279722","F=YES, J=NO","8mudjabrem","1","60","65","55","","","","","","","","","","","","","","","",""
"null","audio/golf1.wav","null","audio-keyboard-response","192","2.1.0","280282","F=YES, J=NO","8mudjabrem","1","60","65","55","","","","","","","","","","","","","","","",""
"729","
          <p id=""word"" style=""font-size: 40px;"">bury</p>
          <p style=""font-size: 16px;"">F = YES &nbsp;&nbsp;&nbsp; J = NO</p>
        ","j","html-keyboard-response","193","2.1.0","281013","F=YES, J=NO","8mudjabrem","1","60","65","55","","","","","","","","","bury","golf1","unrelated","experimental","f","false","",""
"null","<p style=""font-size: 50px;"">+</p>","null","html-keyboard-response","194","2.1.0","281328","F=YES, J=NO","8mudjabrem","1","60","65","55","","","","","","","","","","","","","","","",""
"null","audio/beep-329314.mp3","null","audio-keyboard-response","195","2.1.0","282862","F=YES, J=NO","8mudjabrem","1","60","65","55","","","","","","","","","","","","","","","",""
"null","audio/theory1.wav","null","audio-keyboard-response","196","2.1.0","283500","F=YES, J=NO","8mudjabrem","1","60","65","55","","","","","","","","","","","","","","","",""
"1066","
          <p id=""word"" style=""font-size: 40px;"">scolve</p>
          <p style=""font-size: 16px;"">F = YES &nbsp;&nbsp;&nbsp; J = NO</p>
        ","j","html-keyboard-response","197","2.1.0","284567","F=YES, J=NO","8mudjabrem","1","60","65","55","","","","","","","","","scolve","theory1","pseudoword","pseudoword","j","true","",""
"null","<p style=""font-size: 50px;"">+</p>","null","html-keyboard-response","198","2.1.0","284872","F=YES, J=NO","8mudjabrem","1","60","65","55","","","","","","","","","","","","","","","",""
"null","audio/beep-329314.mp3","null","audio-keyboard-response","199","2.1.0","286402","F=YES, J=NO","8mudjabrem","1","60","65","55","","","","","","","","","","","","","","","",""
"null","audio/window1.wav","null","audio-keyboard-response","200","2.1.0","287001","F=YES, J=NO","8mudjabrem","1","60","65","55","","","","","","","","","","","","","","","",""
"763","
          <p id=""word"" style=""font-size: 40px;"">toss</p>
          <p style=""font-size: 16px;"">F = YES &nbsp;&nbsp;&nbsp; J = NO</p>
        ","j","html-keyboard-response","201","2.1.0","287765","F=YES, J=NO","8mudjabrem","1","60","65","55","","","","","","","","","toss","window1","filler","filler","f","false","",""
"null","<p style=""font-size: 50px;"">+</p>","null","html-keyboard-response","202","2.1.0","288080","F=YES, J=NO","8mudjabrem","1","60","65","55","","","","","","","","","","","","","","","",""
"null","audio/beep-329314.mp3","null","audio-keyboard-response","203","2.1.0","289620","F=YES, J=NO","8mudjabrem","1","60","65","55","","","","","","","","","","","","","","","",""
"null","audio/gossip1.wav","null","audio-keyboard-response","204","2.1.0","290242","F=YES, J=NO","8mudjabrem","1","60","65","55","","","","","","","","","","","","","","","",""
"849","
          <p id=""word"" style=""font-size: 40px;"">camerish</p>
          <p style=""font-size: 16px;"">F = YES &nbsp;&nbsp;&nbsp; J = NO</p>
        ","j","html-keyboard-response","205","2.1.0","291093","F=YES, J=NO","8mudjabrem","1","60","65","55","","","","","","","","","camerish","gossip1","pseudoword","pseudoword","j","true","",""
"null","<p style=""font-size: 50px;"">+</p>","null","html-keyboard-response","206","2.1.0","291407","F=YES, J=NO","8mudjabrem","1","60","65","55","","","","","","","","","","","","","","","",""
"null","audio/beep-329314.mp3","null","audio-keyboard-response","207","2.1.0","292942","F=YES, J=NO","8mudjabrem","1","60","65","55","","","","","","","","","","","","","","","",""
"null","audio/dollar.wav","null","audio-keyboard-response","208","2.1.0","293322","F=YES, J=NO","8mudjabrem","1","60","65","55","","","","","","","","","","","","","","","",""
"896","
          <p id=""word"" style=""font-size: 40px;"">gliptism</p>
          <p style=""font-size: 16px;"">F = YES &nbsp;&nbsp;&nbsp; J = NO</p>
        ","j","html-keyboard-response","209","2.1.0","294220","F=YES, J=NO","8mudjabrem","1","60","65","55","","","","","","","","","gliptism","dollar","pseudoword","pseudoword","j","true","",""
"null","<p style=""font-size: 50px;"">+</p>","null","html-keyboard-response","210","2.1.0","294535","F=YES, J=NO","8mudjabrem","1","60","65","55","","","","","","","","","","","","","","","",""
"null","audio/beep-329314.mp3","null","audio-keyboard-response","211","2.1.0","296061","F=YES, J=NO","8mudjabrem","1","60","65","55","","","","","","","","","","","","","","","",""
"null","audio/hawk1.wav","null","audio-keyboard-response","212","2.1.0","296640","F=YES, J=NO","8mudjabrem","1","60","65","55","","","","","","","","","","","","","","","",""
"648","
          <p id=""word"" style=""font-size: 40px;"">ostach</p>
          <p style=""font-size: 16px;"">F = YES &nbsp;&nbsp;&nbsp; J = NO</p>
        ","j","html-keyboard-response","213","2.1.0","297289","F=YES, J=NO","8mudjabrem","1","60","65","55","","","","","","","","","ostach","hawk1","pseudoword","pseudoword","j","true","",""
"null","<p style=""font-size: 50px;"">+</p>","null","html-keyboard-response","214","2.1.0","297606","F=YES, J=NO","8mudjabrem","1","60","65","55","","","","","","","","","","","","","","","",""
"null","audio/beep-329314.mp3","null","audio-keyboard-response","215","2.1.0","299141","F=YES, J=NO","8mudjabrem","1","60","65","55","","","","","","","","","","","","","","","",""
"null","audio/bishop1.wav","null","audio-keyboard-response","216","2.1.0","299720","F=YES, J=NO","8mudjabrem","1","60","65","55","","","","","","","","","","","","","","","",""
"605","
          <p id=""word"" style=""font-size: 40px;"">devour</p>
          <p style=""font-size: 16px;"">F = YES &nbsp;&nbsp;&nbsp; J = NO</p>
        ","f","html-keyboard-response","217","2.1.0","300325","F=YES, J=NO","8mudjabrem","1","60","65","55","","","","","","","","","devour","bishop1","unrelated","experimental","f","true","",""
"null","<p style=""font-size: 50px;"">+</p>","null","html-keyboard-response","218","2.1.0","300636","F=YES, J=NO","8mudjabrem","1","60","65","55","","","","","","","","","","","","","","","",""
"null","audio/beep-329314.mp3","null","audio-keyboard-response","219","2.1.0","302162","F=YES, J=NO","8mudjabrem","1","60","65","55","","","","","","","","","","","","","","","",""
"null","audio/revenue1.wav","null","audio-keyboard-response","220","2.1.0","302820","F=YES, J=NO","8mudjabrem","1","60","65","55","","","","","","","","","","","","","","","",""
"716","
          <p id=""word"" style=""font-size: 40px;"">grow</p>
          <p style=""font-size: 16px;"">F = YES &nbsp;&nbsp;&nbsp; J = NO</p>
        ","f","html-keyboard-response","221","2.1.0","303538","F=YES, J=NO","8mudjabrem","1","60","65","55","","","","","","","","","grow","revenue1","metaphor","experimental","f","true","",""
"null","<p style=""font-size: 50px;"">+</p>","null","html-keyboard-response","222","2.1.0","303843","F=YES, J=NO","8mudjabrem","1","60","65","55","","","","","","","","","","","","","","","",""
"null","audio/beep-329314.mp3","null","audio-keyboard-response","223","2.1.0","305382","F=YES, J=NO","8mudjabrem","1","60","65","55","","","","","","","","","","","","","","","",""
"null","audio/scar.wav","null","audio-keyboard-response","224","2.1.0","305960","F=YES, J=NO","8mudjabrem","1","60","65","55","","","","","","","","","","","","","","","",""
"596","
          <p id=""word"" style=""font-size: 40px;"">hide</p>
          <p style=""font-size: 16px;"">F = YES &nbsp;&nbsp;&nbsp; J = NO</p>
        ","j","html-keyboard-response","225","2.1.0","306557","F=YES, J=NO","8mudjabrem","1","60","65","55","","","","","","","","","hide","scar","literal","experimental","f","false","",""
"null","<p style=""font-size: 50px;"">+</p>","null","html-keyboard-response","226","2.1.0","306870","F=YES, J=NO","8mudjabrem","1","60","65","55","","","","","","","","","","","","","","","",""
"null","audio/beep-329314.mp3","null","audio-keyboard-response","227","2.1.0","308402","F=YES, J=NO","8mudjabrem","1","60","65","55","","","","","","","","","","","","","","","",""
"null","audio/test1.wav","null","audio-keyboard-response","228","2.1.0","308961","F=YES, J=NO","8mudjabrem","1","60","65","55","","","","","","","","","","","","","","","",""
"757","
          <p id=""word"" style=""font-size: 40px;"">twopch</p>
          <p style=""font-size: 16px;"">F = YES &nbsp;&nbsp;&nbsp; J = NO</p>
        ","j","html-keyboard-response","229","2.1.0","309720","F=YES, J=NO","8mudjabrem","1","60","65","55","","","","","","","","","twopch","test1","pseudoword","pseudoword","j","true","",""
"21581","<p>Excellent! You have finished block 1 of 8.</p>
                     <p>Feel free to take a 30 second break.</p>
                     <p>Press any key when you're ready to continue.</p>"," ","html-keyboard-response","230","2.1.0","331301","F=YES, J=NO","8mudjabrem","1","60","65","55","","","","","","","","","","","","","","","",""
"2311","<p>Starting main block 2 of 8. Press any key to continue.</p>"," ","html-keyboard-response","231","2.1.0","333613","F=YES, J=NO","8mudjabrem","1","60","65","55","","","","","","","","","","","","","","","",""
"null","<p style=""font-size: 50px;"">+</p>","null","html-keyboard-response","232","2.1.0","333929","F=YES, J=NO","8mudjabrem","1","60","65","55","","","","","","","","","","","","","","","",""
"null","audio/beep-329314.mp3","null","audio-keyboard-response","233","2.1.0","335446","F=YES, J=NO","8mudjabrem","1","60","65","55","","","","","","","","","","","","","","","",""
"null","audio/dome.wav","null","audio-keyboard-response","234","2.1.0","335846","F=YES, J=NO","8mudjabrem","1","60","65","55","","","","","","","","","","","","","","","",""
"1168","
          <p id=""word"" style=""font-size: 40px;"">feed</p>
          <p style=""font-size: 16px;"">F = YES &nbsp;&nbsp;&nbsp; J = NO</p>
        ","j","html-keyboard-response","235","2.1.0","337015","F=YES, J=NO","8mudjabrem","1","60","65","55","","","","","","","","","feed","dome","unrelated","experimental","f","false","",""
"null","<p style=""font-size: 50px;"">+</p>","null","html-keyboard-response","236","2.1.0","337318","F=YES, J=NO","8mudjabrem","1","60","65","55","","","","","","","","","","","","","","","",""
"null","audio/beep-329314.mp3","null","audio-keyboard-response","237","2.1.0","338846","F=YES, J=NO","8mudjabrem","1","60","65","55","","","","","","","","","","","","","","","",""
"null","audio/key1.wav","null","audio-keyboard-response","238","2.1.0","339205","F=YES, J=NO","8mudjabrem","1","60","65","55","","","","","","","","","","","","","","","",""
"842","
          <p id=""word"" style=""font-size: 40px;"">sminsh</p>
          <p style=""font-size: 16px;"">F = YES &nbsp;&nbsp;&nbsp; J = NO</p>
        ","j","html-keyboard-response","239","2.1.0","340047","F=YES, J=NO","8mudjabrem","1","60","65","55","","","","","","","","","sminsh","key1","pseudoword","pseudoword","j","true","",""
"null","<p style=""font-size: 50px;"">+</p>","null","html-keyboard-response","240","2.1.0","340354","F=YES, J=NO","8mudjabrem","1","60","65","55","","","","","","","","","","","","","","","",""
"null","audio/beep-329314.mp3","null","audio-keyboard-response","241","2.1.0","341886","F=YES, J=NO","8mudjabrem","1","60","65","55","","","","","","","","","","","","","","","",""
"null","audio/client1.wav","null","audio-keyboard-response","242","2.1.0","342586","F=YES, J=NO","8mudjabrem","1","60","65","55","","","","","","","","","","","","","","","",""
"678","
          <p id=""word"" style=""font-size: 40px;"">droothe</p>
          <p style=""font-size: 16px;"">F = YES &nbsp;&nbsp;&nbsp; J = NO</p>
        ","j","html-keyboard-response","243","2.1.0","343265","F=YES, J=NO","8mudjabrem","1","60","65","55","","","","","","","","","droothe","client1","pseudoword","pseudoword","j","true","",""
"null","<p style=""font-size: 50px;"">+</p>","null","html-keyboard-response","244","2.1.0","343578","F=YES, J=NO","8mudjabrem","1","60","65","55","","","","","","","","","","","","","","","",""
"null","audio/beep-329314.mp3","null","audio-keyboard-response","245","2.1.0","345104","F=YES, J=NO","8mudjabrem","1","60","65","55","","","","","","","","","","","","","","","",""
"null","audio/wealth1.wav","null","audio-keyboard-response","246","2.1.0","345666","F=YES, J=NO","8mudjabrem","1","60","65","55","","","","","","","","","","","","","","","",""
"876","
          <p id=""word"" style=""font-size: 40px;"">possess</p>
          <p style=""font-size: 16px;"">F = YES &nbsp;&nbsp;&nbsp; J = NO</p>
        ","f","html-keyboard-response","247","2.1.0","346544","F=YES, J=NO","8mudjabrem","1","60","65","55","","","","","","","","","possess","wealth1","literal","experimental","f","true","",""
"null","<p style=""font-size: 50px;"">+</p>","null","html-keyboard-response","248","2.1.0","346857","F=YES, J=NO","8mudjabrem","1","60","65","55","","","","","","","","","","","","","","","",""
"null","audio/beep-329314.mp3","null","audio-keyboard-response","249","2.1.0","348386","F=YES, J=NO","8mudjabrem","1","60","65","55","","","","","","","","","","","","","","","",""
"null","audio/plot1.wav","null","audio-keyboard-response","250","2.1.0","348924","F=YES, J=NO","8mudjabrem","1","60","65","55","","","","","","","","","","","","","","","",""
"890","
          <p id=""word"" style=""font-size: 40px;"">glenter</p>
          <p style=""font-size: 16px;"">F = YES &nbsp;&nbsp;&nbsp; J = NO</p>
        ","j","html-keyboard-response","251","2.1.0","349815","F=YES, J=NO","8mudjabrem","1","60","65","55","","","","","","","","","glenter","plot1","pseudoword","pseudoword","j","true","",""
"null","<p style=""font-size: 50px;"">+</p>","null","html-keyboard-response","252","2.1.0","350129","F=YES, J=NO","8mudjabrem","1","60","65","55","","","","","","","","","","","","","","","",""
"null","audio/beep-329314.mp3","null","audio-keyboard-response","253","2.1.0","351666","F=YES, J=NO","8mudjabrem","1","60","65","55","","","","","","","","","","","","","","","",""
"null","audio/roof1.wav","null","audio-keyboard-response","254","2.1.0","352204","F=YES, J=NO","8mudjabrem","1","60","65","55","","","","","","","","","","","","","","","",""
"930","
          <p id=""word"" style=""font-size: 40px;"">wronb</p>
          <p style=""font-size: 16px;"">F = YES &nbsp;&nbsp;&nbsp; J = NO</p>
        ","j","html-keyboard-response","255","2.1.0","353135","F=YES, J=NO","8mudjabrem","1","60","65","55","","","","","","","","","wronb","roof1","pseudoword","pseudoword","j","true","",""
"null","<p style=""font-size: 50px;"">+</p>","null","html-keyboard-response","256","2.1.0","353440","F=YES, J=NO","8mudjabrem","1","60","65","55","","","","","","","","","","","","","","","",""
"null","audio/beep-329314.mp3","null","audio-keyboard-response","257","2.1.0","354967","F=YES, J=NO","8mudjabrem","1","60","65","55","","","","","","","","","","","","","","","",""
"null","audio/noise1.wav","null","audio-keyboard-response","258","2.1.0","355566","F=YES, J=NO","8mudjabrem","1","60","65","55","","","","","","","","","","","","","","","",""
"1265","
          <p id=""word"" style=""font-size: 40px;"">slintered</p>
          <p style=""font-size: 16px;"">F = YES &nbsp;&nbsp;&nbsp; J = NO</p>
        ","f","html-keyboard-response","259","2.1.0","356833","F=YES, J=NO","8mudjabrem","1","60","65","55","","","","","","","","","slintered","noise1","pseudoword","pseudoword","j","false","",""
"null","<p style=""font-size: 50px;"">+</p>","null","html-keyboard-response","260","2.1.0","357137","F=YES, J=NO","8mudjabrem","1","60","65","55","","","","","","","","","","","","","","","",""
"null","audio/beep-329314.mp3","null","audio-keyboard-response","261","2.1.0","358665","F=YES, J=NO","8mudjabrem","1","60","65","55","","","","","","","","","","","","","","","",""
"null","audio/life1.wav","null","audio-keyboard-response","262","2.1.0","359224","F=YES, J=NO","8mudjabrem","1","60","65","55","","","","","","","","","","","","","","","",""
"893","
          <p id=""word"" style=""font-size: 40px;"">flimch</p>
          <p style=""font-size: 16px;"">F = YES &nbsp;&nbsp;&nbsp; J = NO</p>
        ","j","html-keyboard-response","263","2.1.0","360118","F=YES, J=NO","8mudjabrem","1","60","65","55","","","","","","","","","flimch","life1","pseudoword","pseudoword","j","true","",""
"null","<p style=""font-size: 50px;"">+</p>","null","html-keyboard-response","264","2.1.0","360428","F=YES, J=NO","8mudjabrem","1","60","65","55","","","","","","","","","","","","","","","",""
"null","audio/beep-329314.mp3","null","audio-keyboard-response","265","2.1.0","361965","F=YES, J=NO","8mudjabrem","1","60","65","55","","","","","","","","","","","","","","","",""
"null","audio/radio1.wav","null","audio-keyboard-response","266","2.1.0","362546","F=YES, J=NO","8mudjabrem","1","60","65","55","","","","","","","","","","","","","","","",""
"932","
          <p id=""word"" style=""font-size: 40px;"">blanter</p>
          <p style=""font-size: 16px;"">F = YES &nbsp;&nbsp;&nbsp; J = NO</p>
        ","j","html-keyboard-response","267","2.1.0","363480","F=YES, J=NO","8mudjabrem","1","60","65","55","","","","","","","","","blanter","radio1","pseudoword","pseudoword","j","true","",""
"null","<p style=""font-size: 50px;"">+</p>","null","html-keyboard-response","268","2.1.0","363789","F=YES, J=NO","8mudjabrem","1","60","65","55","","","","","","","","","","","","","","","",""
"null","audio/beep-329314.mp3","null","audio-keyboard-response","269","2.1.0","365324","F=YES, J=NO","8mudjabrem","1","60","65","55","","","","","","","","","","","","","","","",""
"null","audio/arm.wav","null","audio-keyboard-response","270","2.1.0","365866","F=YES, J=NO","8mudjabrem","1","60","65","55","","","","","","","","","","","","","","","",""
"662","
          <p id=""word"" style=""font-size: 40px;"">pigne</p>
          <p style=""font-size: 16px;"">F = YES &nbsp;&nbsp;&nbsp; J = NO</p>
        ","j","html-keyboard-response","271","2.1.0","366529","F=YES, J=NO","8mudjabrem","1","60","65","55","","","","","","","","","pigne","arm","pseudoword","pseudoword","j","true","",""
"null","<p style=""font-size: 50px;"">+</p>","null","html-keyboard-response","272","2.1.0","366844","F=YES, J=NO","8mudjabrem","1","60","65","55","","","","","","","","","","","","","","","",""
"null","audio/beep-329314.mp3","null","audio-keyboard-response","273","2.1.0","368384","F=YES, J=NO","8mudjabrem","1","60","65","55","","","","","","","","","","","","","","","",""
"null","audio/bush1.wav","null","audio-keyboard-response","274","2.1.0","368845","F=YES, J=NO","8mudjabrem","1","60","65","55","","","","","","","","","","","","","","","",""
"880","
          <p id=""word"" style=""font-size: 40px;"">platined</p>
          <p style=""font-size: 16px;"">F = YES &nbsp;&nbsp;&nbsp; J = NO</p>
        ","f","html-keyboard-response","275","2.1.0","369725","F=YES, J=NO","8mudjabrem","1","60","65","55","","","","","","","","","platined","bush1","pseudoword","pseudoword","j","false","",""
"null","<p style=""font-size: 50px;"">+</p>","null","html-keyboard-response","276","2.1.0","370036","F=YES, J=NO","8mudjabrem","1","60","65","55","","","","","","","","","","","","","","","",""
"null","audio/beep-329314.mp3","null","audio-keyboard-response","277","2.1.0","371566","F=YES, J=NO","8mudjabrem","1","60","65","55","","","","","","","","","","","","","","","",""
"null","audio/mirror1.wav","null","audio-keyboard-response","278","2.1.0","372006","F=YES, J=NO","8mudjabrem","1","60","65","55","","","","","","","","","","","","","","","",""
"null","
          <p id=""word"" style=""font-size: 40px;"">fight</p>
          <p style=""font-size: 16px;"">F = YES &nbsp;&nbsp;&nbsp; J = NO</p>
        ","null","html-keyboard-response","279","2.1.0","373519","F=YES, J=NO","8mudjabrem","1","60","65","55","","","","","","","","","fight","mirror1","unrelated","experimental","f","false","",""
"null","<p style=""font-size: 50px;"">+</p>","null","html-keyboard-response","280","2.1.0","373834","F=YES, J=NO","8mudjabrem","1","60","65","55","","","","","","","","","","","","","","","",""
"null","audio/beep-329314.mp3","null","audio-keyboard-response","281","2.1.0","375364","F=YES, J=NO","8mudjabrem","1","60","65","55","","","","","","","","","","","","","","","",""
"null","audio/goal.wav","null","audio-keyboard-response","282","2.1.0","375766","F=YES, J=NO","8mudjabrem","1","60","65","55","","","","","","","","","","","","","","","",""
"1429","
          <p id=""word"" style=""font-size: 40px;"">support</p>
          <p style=""font-size: 16px;"">F = YES &nbsp;&nbsp;&nbsp; J = NO</p>
        ","j","html-keyboard-response","283","2.1.0","377197","F=YES, J=NO","8mudjabrem","1","60","65","55","","","","","","","","","support","goal","metaphor","experimental","f","false","",""
"null","<p style=""font-size: 50px;"">+</p>","null","html-keyboard-response","284","2.1.0","377508","F=YES, J=NO","8mudjabrem","1","60","65","55","","","","","","","","","","","","","","","",""
"null","audio/beep-329314.mp3","null","audio-keyboard-response","285","2.1.0","379046","F=YES, J=NO","8mudjabrem","1","60","65","55","","","","","","","","","","","","","","","",""
"null","audio/foe1.wav","null","audio-keyboard-response","286","2.1.0","379544","F=YES, J=NO","8mudjabrem","1","60","65","55","","","","","","","","","","","","","","","",""
"784","
          <p id=""word"" style=""font-size: 40px;"">creth</p>
          <p style=""font-size: 16px;"">F = YES &nbsp;&nbsp;&nbsp; J = NO</p>
        ","j","html-keyboard-response","287","2.1.0","380329","F=YES, J=NO","8mudjabrem","1","60","65","55","","","","","","","","","creth","foe1","pseudoword","pseudoword","j","true","",""
"null","<p style=""font-size: 50px;"">+</p>","null","html-keyboard-response","288","2.1.0","380646","F=YES, J=NO","8mudjabrem","1","60","65","55","","","","","","","","","","","","","","","",""
"null","audio/beep-329314.mp3","null","audio-keyboard-response","289","2.1.0","382186","F=YES, J=NO","8mudjabrem","1","60","65","55","","","","","","","","","","","","","","","",""
"null","audio/heart1.wav","null","audio-keyboard-response","290","2.1.0","382806","F=YES, J=NO","8mudjabrem","1","60","65","55","","","","","","","","","","","","","","","",""
"672","
          <p id=""word"" style=""font-size: 40px;"">dralm</p>
          <p style=""font-size: 16px;"">F = YES &nbsp;&nbsp;&nbsp; J = NO</p>
        ","j","html-keyboard-response","291","2.1.0","383479","F=YES, J=NO","8mudjabrem","1","60","65","55","","","","","","","","","dralm","heart1","pseudoword","pseudoword","j","true","",""
"null","<p style=""font-size: 50px;"">+</p>","null","html-keyboard-response","292","2.1.0","383790","F=YES, J=NO","8mudjabrem","1","60","65","55","","","","","","","","","","","","","","","",""
"null","audio/beep-329314.mp3","null","audio-keyboard-response","293","2.1.0","385327","F=YES, J=NO","8mudjabrem","1","60","65","55","","","","","","","","","","","","","","","",""
"null","audio/corpse1.wav","null","audio-keyboard-response","294","2.1.0","385966","F=YES, J=NO","8mudjabrem","1","60","65","55","","","","","","","","","","","","","","","",""
"476","
          <p id=""word"" style=""font-size: 40px;"">glonet</p>
          <p style=""font-size: 16px;"">F = YES &nbsp;&nbsp;&nbsp; J = NO</p>
        ","j","html-keyboard-response","295","2.1.0","386443","F=YES, J=NO","8mudjabrem","1","60","65","55","","","","","","","","","glonet","corpse1","pseudoword","pseudoword","j","true","",""
"941","<p>Excellent! You have finished block 2 of 8.</p>
                     <p>Feel free to take a 30 second break.</p>
                     <p>Press any key when you're ready to continue.</p>"," ","html-keyboard-response","296","2.1.0","387386","F=YES, J=NO","8mudjabrem","1","60","65","55","","","","","","","","","","","","","","","",""
"568","<p>Starting main block 3 of 8. Press any key to continue.</p>"," ","html-keyboard-response","297","2.1.0","387955","F=YES, J=NO","8mudjabrem","1","60","65","55","","","","","","","","","","","","","","","",""
"null","<p style=""font-size: 50px;"">+</p>","null","html-keyboard-response","298","2.1.0","388259","F=YES, J=NO","8mudjabrem","1","60","65","55","","","","","","","","","","","","","","","",""
"null","audio/beep-329314.mp3","null","audio-keyboard-response","299","2.1.0","389787","F=YES, J=NO","8mudjabrem","1","60","65","55","","","","","","","","","","","","","","","",""
"null","audio/cinema1.wav","null","audio-keyboard-response","300","2.1.0","390386","F=YES, J=NO","8mudjabrem","1","60","65","55","","","","","","","","","","","","","","","",""
"718","
          <p id=""word"" style=""font-size: 40px;"">murple</p>
          <p style=""font-size: 16px;"">F = YES &nbsp;&nbsp;&nbsp; J = NO</p>
        ","j","html-keyboard-response","301","2.1.0","391106","F=YES, J=NO","8mudjabrem","1","60","65","55","","","","","","","","","murple","cinema1","pseudoword","pseudoword","j","true","",""
"null","<p style=""font-size: 50px;"">+</p>","null","html-keyboard-response","302","2.1.0","391415","F=YES, J=NO","8mudjabrem","1","60","65","55","","","","","","","","","","","","","","","",""
"null","audio/beep-329314.mp3","null","audio-keyboard-response","303","2.1.0","392945","F=YES, J=NO","8mudjabrem","1","60","65","55","","","","","","","","","","","","","","","",""
"null","audio/novel.wav","null","audio-keyboard-response","304","2.1.0","393426","F=YES, J=NO","8mudjabrem","1","60","65","55","","","","","","","","","","","","","","","",""
"536","
          <p id=""word"" style=""font-size: 40px;"">type</p>
          <p style=""font-size: 16px;"">F = YES &nbsp;&nbsp;&nbsp; J = NO</p>
        ","f","html-keyboard-response","305","2.1.0","393964","F=YES, J=NO","8mudjabrem","1","60","65","55","","","","","","","","","type","novel","filler","filler","f","true","",""
"null","<p style=""font-size: 50px;"">+</p>","null","html-keyboard-response","306","2.1.0","394277","F=YES, J=NO","8mudjabrem","1","60","65","55","","","","","","","","","","","","","","","",""
"null","audio/beep-329314.mp3","null","audio-keyboard-response","307","2.1.0","395806","F=YES, J=NO","8mudjabrem","1","60","65","55","","","","","","","","","","","","","","","",""
"null","audio/hotel1.wav","null","audio-keyboard-response","308","2.1.0","396426","F=YES, J=NO","8mudjabrem","1","60","65","55","","","","","","","","","","","","","","","",""
"1105","
          <p id=""word"" style=""font-size: 40px;"">flanter</p>
          <p style=""font-size: 16px;"">F = YES &nbsp;&nbsp;&nbsp; J = NO</p>
        ","j","html-keyboard-response","309","2.1.0","397533","F=YES, J=NO","8mudjabrem","1","60","65","55","","","","","","","","","flanter","hotel1","pseudoword","pseudoword","j","true","",""
"null","<p style=""font-size: 50px;"">+</p>","null","html-keyboard-response","310","2.1.0","397849","F=YES, J=NO","8mudjabrem","1","60","65","55","","","","","","","","","","","","","","","",""
"null","audio/beep-329314.mp3","null","audio-keyboard-response","311","2.1.0","399384","F=YES, J=NO","8mudjabrem","1","60","65","55","","","","","","","","","","","","","","","",""
"null","audio/promise1.wav","null","audio-keyboard-response","312","2.1.0","400006","F=YES, J=NO","8mudjabrem","1","60","65","55","","","","","","","","","","","","","","","",""
"663","
          <p id=""word"" style=""font-size: 40px;"">break</p>
          <p style=""font-size: 16px;"">F = YES &nbsp;&nbsp;&nbsp; J = NO</p>
        ","f","html-keyboard-response","313","2.1.0","400671","F=YES, J=NO","8mudjabrem","1","60","65","55","","","","","","","","","break","promise1","metaphor","experimental","f","true","",""
"null","<p style=""font-size: 50px;"">+</p>","null","html-keyboard-response","314","2.1.0","400979","F=YES, J=NO","8mudjabrem","1","60","65","55","","","","","","","","","","","","","","","",""
"null","audio/beep-329314.mp3","null","audio-keyboard-response","315","2.1.0","402506","F=YES, J=NO","8mudjabrem","1","60","65","55","","","","","","","","","","","","","","","",""
"null","audio/smirk1.wav","null","audio-keyboard-response","316","2.1.0","403226","F=YES, J=NO","8mudjabrem","1","60","65","55","","","","","","","","","","","","","","","",""
"678","
          <p id=""word"" style=""font-size: 40px;"">wipe</p>
          <p style=""font-size: 16px;"">F = YES &nbsp;&nbsp;&nbsp; J = NO</p>
        ","f","html-keyboard-response","317","2.1.0","403906","F=YES, J=NO","8mudjabrem","1","60","65","55","","","","","","","","","wipe","smirk1","metaphor","experimental","f","true","",""
"null","<p style=""font-size: 50px;"">+</p>","null","html-keyboard-response","318","2.1.0","404213","F=YES, J=NO","8mudjabrem","1","60","65","55","","","","","","","","","","","","","","","",""
"null","audio/beep-329314.mp3","null","audio-keyboard-response","319","2.1.0","405744","F=YES, J=NO","8mudjabrem","1","60","65","55","","","","","","","","","","","","","","","",""
"null","audio/golf1.wav","null","audio-keyboard-response","320","2.1.0","406306","F=YES, J=NO","8mudjabrem","1","60","65","55","","","","","","","","","","","","","","","",""
"1006","
          <p id=""word"" style=""font-size: 40px;"">drabble</p>
          <p style=""font-size: 16px;"">F = YES &nbsp;&nbsp;&nbsp; J = NO</p>
        ","f","html-keyboard-response","321","2.1.0","407313","F=YES, J=NO","8mudjabrem","1","60","65","55","","","","","","","","","drabble","golf1","pseudoword","pseudoword","j","false","",""
"null","<p style=""font-size: 50px;"">+</p>","null","html-keyboard-response","322","2.1.0","407630","F=YES, J=NO","8mudjabrem","1","60","65","55","","","","","","","","","","","","","","","",""
"null","audio/beep-329314.mp3","null","audio-keyboard-response","323","2.1.0","409164","F=YES, J=NO","8mudjabrem","1","60","65","55","","","","","","","","","","","","","","","",""
"null","audio/age1.wav","null","audio-keyboard-response","324","2.1.0","409705","F=YES, J=NO","8mudjabrem","1","60","65","55","","","","","","","","","","","","","","","",""
"1243","
          <p id=""word"" style=""font-size: 40px;"">bake</p>
          <p style=""font-size: 16px;"">F = YES &nbsp;&nbsp;&nbsp; J = NO</p>
        ","f","html-keyboard-response","325","2.1.0","410949","F=YES, J=NO","8mudjabrem","1","60","65","55","","","","","","","","","bake","age1","filler","filler","f","true","",""
"null","<p style=""font-size: 50px;"">+</p>","null","html-keyboard-response","326","2.1.0","411251","F=YES, J=NO","8mudjabrem","1","60","65","55","","","","","","","","","","","","","","","",""
"null","audio/beep-329314.mp3","null","audio-keyboard-response","327","2.1.0","412784","F=YES, J=NO","8mudjabrem","1","60","65","55","","","","","","","","","","","","","","","",""
"null","audio/wool1.wav","null","audio-keyboard-response","328","2.1.0","413146","F=YES, J=NO","8mudjabrem","1","60","65","55","","","","","","","","","","","","","","","",""
"880","
          <p id=""word"" style=""font-size: 40px;"">weave</p>
          <p style=""font-size: 16px;"">F = YES &nbsp;&nbsp;&nbsp; J = NO</p>
        ","j","html-keyboard-response","329","2.1.0","414027","F=YES, J=NO","8mudjabrem","1","60","65","55","","","","","","","","","weave","wool1","literal","experimental","f","false","",""
"null","<p style=""font-size: 50px;"">+</p>","null","html-keyboard-response","330","2.1.0","414329","F=YES, J=NO","8mudjabrem","1","60","65","55","","","","","","","","","","","","","","","",""
"null","audio/beep-329314.mp3","null","audio-keyboard-response","331","2.1.0","415864","F=YES, J=NO","8mudjabrem","1","60","65","55","","","","","","","","","","","","","","","",""
"null","audio/trust.wav","null","audio-keyboard-response","332","2.1.0","416486","F=YES, J=NO","8mudjabrem","1","60","65","55","","","","","","","","","","","","","","","",""
"953","
          <p id=""word"" style=""font-size: 40px;"">build</p>
          <p style=""font-size: 16px;"">F = YES &nbsp;&nbsp;&nbsp; J = NO</p>
        ","f","html-keyboard-response","333","2.1.0","417441","F=YES, J=NO","8mudjabrem","1","60","65","55","","","","","","","","","build","trust","metaphor","experimental","f","true","",""
"null","<p style=""font-size: 50px;"">+</p>","null","html-keyboard-response","334","2.1.0","417754","F=YES, J=NO","8mudjabrem","1","60","65","55","","","","","","","","","","","","","","","",""
"null","audio/beep-329314.mp3","null","audio-keyboard-response","335","2.1.0","419286","F=YES, J=NO","8mudjabrem","1","60","65","55","","","","","","","","","","","","","","","",""
"null","audio/cash1.wav","null","audio-keyboard-response","336","2.1.0","419864","F=YES, J=NO","8mudjabrem","1","60","65","55","","","","","","","","","","","","","","","",""
"715","
          <p id=""word"" style=""font-size: 40px;"">invest</p>
          <p style=""font-size: 16px;"">F = YES &nbsp;&nbsp;&nbsp; J = NO</p>
        ","f","html-keyboard-response","337","2.1.0","420579","F=YES, J=NO","8mudjabrem","1","60","65","55","","","","","","","","","invest","cash1","literal","experimental","f","true","",""
"null","<p style=""font-size: 50px;"">+</p>","null","html-keyboard-response","338","2.1.0","420895","F=YES, J=NO","8mudjabrem","1","60","65","55","","","","","","","","","","","","","","","",""
"null","audio/beep-329314.mp3","null","audio-keyboard-response","339","2.1.0","422426","F=YES, J=NO","8mudjabrem","1","60","65","55","","","","","","","","","","","","","","","",""
"null","audio/arm.wav","null","audio-keyboard-response","340","2.1.0","422964","F=YES, J=NO","8mudjabrem","1","60","65","55","","","","","","","","","","","","","","","",""
"1059","
          <p id=""word"" style=""font-size: 40px;"">fold</p>
          <p style=""font-size: 16px;"">F = YES &nbsp;&nbsp;&nbsp; J = NO</p>
        ","f","html-keyboard-response","341","2.1.0","424023","F=YES, J=NO","8mudjabrem","1","60","65","55","","","","","","","","","fold","arm","filler","filler","f","true","",""
"null","<p style=""font-size: 50px;"">+</p>","null","html-keyboard-response","342","2.1.0","424325","F=YES, J=NO","8mudjabrem","1","60","65","55","","","","","","","","","","","","","","","",""
"null","audio/beep-329314.mp3","null","audio-keyboard-response","343","2.1.0","425864","F=YES, J=NO","8mudjabrem","1","60","65","55","","","","","","","","","","","","","","","",""
"null","audio/age1.wav","null","audio-keyboard-response","344","2.1.0","426406","F=YES, J=NO","8mudjabrem","1","60","65","55","","","","","","","","","","","","","","","",""
"778","
          <p id=""word"" style=""font-size: 40px;"">lachry</p>
          <p style=""font-size: 16px;"">F = YES &nbsp;&nbsp;&nbsp; J = NO</p>
        ","j","html-keyboard-response","345","2.1.0","427185","F=YES, J=NO","8mudjabrem","1","60","65","55","","","","","","","","","lachry","age1","pseudoword","pseudoword","j","true","",""
"null","<p style=""font-size: 50px;"">+</p>","null","html-keyboard-response","346","2.1.0","427489","F=YES, J=NO","8mudjabrem","1","60","65","55","","","","","","","","","","","","","","","",""
"null","audio/beep-329314.mp3","null","audio-keyboard-response","347","2.1.0","429024","F=YES, J=NO","8mudjabrem","1","60","65","55","","","","","","","","","","","","","","","",""
"null","audio/meal.wav","null","audio-keyboard-response","348","2.1.0","429466","F=YES, J=NO","8mudjabrem","1","60","65","55","","","","","","","","","","","","","","","",""
"849","
          <p id=""word"" style=""font-size: 40px;"">gallite</p>
          <p style=""font-size: 16px;"">F = YES &nbsp;&nbsp;&nbsp; J = NO</p>
        ","j","html-keyboard-response","349","2.1.0","430317","F=YES, J=NO","8mudjabrem","1","60","65","55","","","","","","","","","gallite","meal","pseudoword","pseudoword","j","true","",""
"null","<p style=""font-size: 50px;"">+</p>","null","html-keyboard-response","350","2.1.0","430633","F=YES, J=NO","8mudjabrem","1","60","65","55","","","","","","","","","","","","","","","",""
"null","audio/beep-329314.mp3","null","audio-keyboard-response","351","2.1.0","432167","F=YES, J=NO","8mudjabrem","1","60","65","55","","","","","","","","","","","","","","","",""
"null","audio/story.wav","null","audio-keyboard-response","352","2.1.0","432826","F=YES, J=NO","8mudjabrem","1","60","65","55","","","","","","","","","","","","","","","",""
"954","
          <p id=""word"" style=""font-size: 40px;"">cover</p>
          <p style=""font-size: 16px;"">F = YES &nbsp;&nbsp;&nbsp; J = NO</p>
        ","f","html-keyboard-response","353","2.1.0","433781","F=YES, J=NO","8mudjabrem","1","60","65","55","","","","","","","","","cover","story","metaphor","experimental","f","true","",""
"null","<p style=""font-size: 50px;"">+</p>","null","html-keyboard-response","354","2.1.0","434095","F=YES, J=NO","8mudjabrem","1","60","65","55","","","","","","","","","","","","","","","",""
"null","audio/beep-329314.mp3","null","audio-keyboard-response","355","2.1.0","435626","F=YES, J=NO","8mudjabrem","1","60","65","55","","","","","","","","","","","","","","","",""
"null","audio/purpose.wav","null","audio-keyboard-response","356","2.1.0","436286","F=YES, J=NO","8mudjabrem","1","60","65","55","","","","","","","","","","","","","","","",""
"982","
          <p id=""word"" style=""font-size: 40px;"">defeat</p>
          <p style=""font-size: 16px;"">F = YES &nbsp;&nbsp;&nbsp; J = NO</p>
        ","f","html-keyboard-response","357","2.1.0","437269","F=YES, J=NO","8mudjabrem","1","60","65","55","","","","","","","","","defeat","purpose","metaphor","experimental","f","true","",""
"null","<p style=""font-size: 50px;"">+</p>","null","html-keyboard-response","358","2.1.0","437584","F=YES, J=NO","8mudjabrem","1","60","65","55","","","","","","","","","","","","","","","",""
"null","audio/beep-329314.mp3","null","audio-keyboard-response","359","2.1.0","439126","F=YES, J=NO","8mudjabrem","1","60","65","55","","","","","","","","","","","","","","","",""
"null","audio/camp.wav","null","audio-keyboard-response","360","2.1.0","439666","F=YES, J=NO","8mudjabrem","1","60","65","55","","","","","","","","","","","","","","","",""
"957","
          <p id=""word"" style=""font-size: 40px;"">touch</p>
          <p style=""font-size: 16px;"">F = YES &nbsp;&nbsp;&nbsp; J = NO</p>
        ","f","html-keyboard-response","361","2.1.0","440625","F=YES, J=NO","8mudjabrem","1","60","65","55","","","","","","","","","touch","camp","unrelated","experimental","f","true","",""
"830","<p>Excellent! You have finished block 3 of 8.</p>
                     <p>Feel free to take a 30 second break.</p>
                     <p>Press any key when you're ready to continue.</p>"," ","html-keyboard-response","362","2.1.0","441457","F=YES, J=NO","8mudjabrem","1","60","65","55","","","","","","","","","","","","","","","",""
"693","<p>Starting main block 4 of 8. Press any key to continue.</p>"," ","html-keyboard-response","363","2.1.0","442151","F=YES, J=NO","8mudjabrem","1","60","65","55","","","","","","","","","","","","","","","",""
"null","<p style=""font-size: 50px;"">+</p>","null","html-keyboard-response","364","2.1.0","442456","F=YES, J=NO","8mudjabrem","1","60","65","55","","","","","","","","","","","","","","","",""
"null","audio/beep-329314.mp3","null","audio-keyboard-response","365","2.1.0","443986","F=YES, J=NO","8mudjabrem","1","60","65","55","","","","","","","","","","","","","","","",""
"null","audio/breath.wav","null","audio-keyboard-response","366","2.1.0","444544","F=YES, J=NO","8mudjabrem","1","60","65","55","","","","","","","","","","","","","","","",""
"907","
          <p id=""word"" style=""font-size: 40px;"">pack</p>
          <p style=""font-size: 16px;"">F = YES &nbsp;&nbsp;&nbsp; J = NO</p>
        ","f","html-keyboard-response","367","2.1.0","445452","F=YES, J=NO","8mudjabrem","1","60","65","55","","","","","","","","","pack","breath","filler","filler","f","true","",""
"null","<p style=""font-size: 50px;"">+</p>","null","html-keyboard-response","368","2.1.0","445768","F=YES, J=NO","8mudjabrem","1","60","65","55","","","","","","","","","","","","","","","",""
"null","audio/beep-329314.mp3","null","audio-keyboard-response","369","2.1.0","447305","F=YES, J=NO","8mudjabrem","1","60","65","55","","","","","","","","","","","","","","","",""
"null","audio/bridge.wav","null","audio-keyboard-response","370","2.1.0","447846","F=YES, J=NO","8mudjabrem","1","60","65","55","","","","","","","","","","","","","","","",""
"878","
          <p id=""word"" style=""font-size: 40px;"">crack</p>
          <p style=""font-size: 16px;"">F = YES &nbsp;&nbsp;&nbsp; J = NO</p>
        ","f","html-keyboard-response","371","2.1.0","448726","F=YES, J=NO","8mudjabrem","1","60","65","55","","","","","","","","","crack","bridge","filler","filler","f","true","",""
"null","<p style=""font-size: 50px;"">+</p>","null","html-keyboard-response","372","2.1.0","449029","F=YES, J=NO","8mudjabrem","1","60","65","55","","","","","","","","","","","","","","","",""
"null","audio/beep-329314.mp3","null","audio-keyboard-response","373","2.1.0","450566","F=YES, J=NO","8mudjabrem","1","60","65","55","","","","","","","","","","","","","","","",""
"null","audio/gift1.wav","null","audio-keyboard-response","374","2.1.0","451026","F=YES, J=NO","8mudjabrem","1","60","65","55","","","","","","","","","","","","","","","",""
"657","
          <p id=""word"" style=""font-size: 40px;"">protsh</p>
          <p style=""font-size: 16px;"">F = YES &nbsp;&nbsp;&nbsp; J = NO</p>
        ","j","html-keyboard-response","375","2.1.0","451684","F=YES, J=NO","8mudjabrem","1","60","65","55","","","","","","","","","protsh","gift1","pseudoword","pseudoword","j","true","",""
"null","<p style=""font-size: 50px;"">+</p>","null","html-keyboard-response","376","2.1.0","451987","F=YES, J=NO","8mudjabrem","1","60","65","55","","","","","","","","","","","","","","","",""
"null","audio/beep-329314.mp3","null","audio-keyboard-response","377","2.1.0","453526","F=YES, J=NO","8mudjabrem","1","60","65","55","","","","","","","","","","","","","","","",""
"null","audio/terrain.wav","null","audio-keyboard-response","378","2.1.0","454105","F=YES, J=NO","8mudjabrem","1","60","65","55","","","","","","","","","","","","","","","",""
"1456","
          <p id=""word"" style=""font-size: 40px;"">navigate</p>
          <p style=""font-size: 16px;"">F = YES &nbsp;&nbsp;&nbsp; J = NO</p>
        ","j","html-keyboard-response","379","2.1.0","455561","F=YES, J=NO","8mudjabrem","1","60","65","55","","","","","","","","","navigate","terrain","literal","experimental","f","false","",""
"null","<p style=""font-size: 50px;"">+</p>","null","html-keyboard-response","380","2.1.0","455871","F=YES, J=NO","8mudjabrem","1","60","65","55","","","","","","","","","","","","","","","",""
"null","audio/beep-329314.mp3","null","audio-keyboard-response","381","2.1.0","457405","F=YES, J=NO","8mudjabrem","1","60","65","55","","","","","","","","","","","","","","","",""
"null","audio/purpose.wav","null","audio-keyboard-response","382","2.1.0","458064","F=YES, J=NO","8mudjabrem","1","60","65","55","","","","","","","","","","","","","","","",""
"null","
          <p id=""word"" style=""font-size: 40px;"">whigm</p>
          <p style=""font-size: 16px;"">F = YES &nbsp;&nbsp;&nbsp; J = NO</p>
        ","null","html-keyboard-response","383","2.1.0","459575","F=YES, J=NO","8mudjabrem","1","60","65","55","","","","","","","","","whigm","purpose","pseudoword","pseudoword","j","false","",""
"null","<p style=""font-size: 50px;"">+</p>","null","html-keyboard-response","384","2.1.0","459886","F=YES, J=NO","8mudjabrem","1","60","65","55","","","","","","","","","","","","","","","",""
"null","audio/beep-329314.mp3","null","audio-keyboard-response","385","2.1.0","461426","F=YES, J=NO","8mudjabrem","1","60","65","55","","","","","","","","","","","","","","","",""
"null","audio/survey1.wav","null","audio-keyboard-response","386","2.1.0","462146","F=YES, J=NO","8mudjabrem","1","60","65","55","","","","","","","","","","","","","","","",""
"828","
          <p id=""word"" style=""font-size: 40px;"">imploth</p>
          <p style=""font-size: 16px;"">F = YES &nbsp;&nbsp;&nbsp; J = NO</p>
        ","j","html-keyboard-response","387","2.1.0","462976","F=YES, J=NO","8mudjabrem","1","60","65","55","","","","","","","","","imploth","survey1","pseudoword","pseudoword","j","true","",""
"null","<p style=""font-size: 50px;"">+</p>","null","html-keyboard-response","388","2.1.0","463278","F=YES, J=NO","8mudjabrem","1","60","65","55","","","","","","","","","","","","","","","",""
"null","audio/beep-329314.mp3","null","audio-keyboard-response","389","2.1.0","464806","F=YES, J=NO","8mudjabrem","1","60","65","55","","","","","","","","","","","","","","","",""
"null","audio/show.wav","null","audio-keyboard-response","390","2.1.0","465344","F=YES, J=NO","8mudjabrem","1","60","65","55","","","","","","","","","","","","","","","",""
"935","
          <p id=""word"" style=""font-size: 40px;"">hold</p>
          <p style=""font-size: 16px;"">F = YES &nbsp;&nbsp;&nbsp; J = NO</p>
