"rt","stimulus","response","trial_type","trial_index","plugin_version","time_elapsed","response_mapping","subject_id","list_index","lextale_score","lextale_word_score","lextale_nonword_score","success","timeout","failed_images","failed_audio","failed_video","task","isWord","isDummy","target","prime","prime_type","stimulus_type","correct_response","correct","section","question_order"
"70515","
    <div style=""max-width: 800px; margin: auto; text-align: left;"">
      <h2>STANFORD UNIVERSITY</h2>
      <h3>Research Information Sheet</h3>
      <p><strong>Protocol Director:</strong> Robert Hawkins<br>
      <strong>Protocol Title:</strong> Communication and social cognition in natural audiovisual contexts<br>
      <strong>IRB#:</strong> 77226</p>

      <p><strong>DESCRIPTION:</strong> You are invited to participate in a research study about language and communication. The purpose of the research is to understand how you interact and communicate with other people in naturalistic settings as a fluent English speaker. This research will be conducted through the Prolific platform, including participants from the US, UK, and Canada. If you decide to participate in this research, you will play a communication game in a group with one or more partners.</p>

      <p><strong>TIME INVOLVEMENT:</strong> The task will last the amount of time advertised on Prolific. You are free to withdraw from the study at any time.</p>

      <p><strong>RISKS AND BENEFITS:</strong> You may become frustrated if your partner gets distracted, or experience discomfort if other participants in your group send text that is inappropriate for the task. We ask you to please be respectful of other participants you might be interacting with to mitigate these risks. You may also experience discomfort when being asked to discuss or challenge emotionally salient political beliefs. Study data will be stored securely, in compliance with Stanford University standards, minimizing the risk of confidentiality breach. This study advances our scientific understanding of how people communicate and collaborate in naturalistic settings. This study may lead to further insights about what can go wrong in teamwork, suggest potential interventions to overcome these barriers, and help to develop assistive technologies that collaborate with human partners. We cannot and do not guarantee or promise that you will receive any benefits from this study.</p>

      <p><strong>PAYMENTS:</strong> You will receive payment in the amount advertised on Prolific. If you do not complete this study, you will receive prorated payment based on the time that you have spent. Additionally, you may be eligible for bonus payments as described in the instructions.</p>

      <p><strong>PARTICIPANT’S RIGHTS:</strong> If you have read this form and have decided to participate in this project, please understand your participation is voluntary and you have the right to withdraw your consent or discontinue participation at any time without penalty or loss of benefits to which you are otherwise entitled. The alternative is not to participate. You have the right to refuse to answer particular questions. The results of this research study may be presented at scientific or professional meetings or published in scientific journals. Your individual privacy will be maintained in all published and written data resulting from the study. In accordance with scientific norms, the data from this study may be used or shared with other researchers for future research (after removing personally identifying information) without additional consent from you.</p>

      <p><strong>CONTACT INFORMATION:</strong><br>
      Questions: If you have any questions, concerns or complaints about this research, its procedures, risks and benefits, contact the Protocol Director, Robert Hawkins (<a href=""mailto:rdhawkins@stanford.edu"">rdhawkins@stanford.edu</a>, 217-549-6923).<br>
      Independent Contact: If you are not satisfied with how this study is being conducted, or if you have any concerns, complaints, or general questions about the research or your rights as a participant, please contact the Stanford Institutional Review Board (IRB) to speak to someone independent of the research team at 650-723-2480 or toll free at 1-866-680-2906, or email at <a href=""mailto:irbnon-med@stanford.edu"">irbnon-med@stanford.edu</a>. You can also write to the Stanford IRB, Stanford University, 1705 El Camino Real, Palo Alto, CA 94306.</p>

      <p><strong>Please save or print a copy of this page for your records.</strong></p>
      <p>If you agree to participate in this research, click ""Continue"" below.</p>
    </div>
  ","0","html-button-response","0","2.1.0","70526","F=YES, J=NO","8o7kjqd80t","1","80","85","75","","","","","","","","","","","","","","","",""
"19167","
    <div style=""max-width: 800px; margin: auto; text-align: left;"">
      <h2>Welcome!</h2>
      <p>Thank you for participating in this study. The experiment consists of three parts:</p>
      <ol>
        <li>An English vocabulary test</li>
        <li>A main task in which you will hear and see words, and decide whether the written word is a real English word</li>
        <li>A brief survey about your background</li>
      </ol>
      <p>Each part will be introduced before it begins.</p>
      <p>Please make sure you are in a quiet environment and can hear audio clearly for the final task.</p>
      <p style=""margin-top: 2em;"">Press any key to begin.</p>
    </div>
  ","ArrowRight","html-keyboard-response","1","2.1.0","89695","F=YES, J=NO","8o7kjqd80t","1","80","85","75","","","","","","","","","","","","","","","",""
"","","","preload","2","2.1.0","91086","F=YES, J=NO","8o7kjqd80t","1","80","85","75","true","false","[]","[]","[]","","","","","","","","","","",""
"5408","
    <div style=""max-width: 800px; margin: auto; text-align: left;"">
      <h2>Part 1: Vocabulary Test</h2>
      <p>You will now complete the first part of the study: a short English vocabulary test.</p>
      <p>This test is called <strong>LexTALE</strong> and helps us get a general sense of your English proficiency.</p>
      <p style=""margin-top: 2em;"">Press any key to continue.</p>
    </div>
  ","ArrowRight","html-keyboard-response","3","2.1.0","96495","F=YES, J=NO","8o7kjqd80t","1","80","85","75","","","","","","","","","","","","","","","",""
"21528","
    <div style=""max-width: 800px; margin: auto; text-align: left;"">
      <h2>LexTALE Vocabulary Test</h2>
      <p>In this test, you will see a series of letter strings—one at a time.</p>
      <p>Your task is to decide whether each string is a real English word.</p>
      <p><strong>Key responses:</strong></p>
      <ul>
        <li><strong>F</strong> = YES (real English word)</li>
        <li><strong>J</strong> = NO (not a real English word)</li>
      </ul>
      <p>There is no time limit, but please try to be accurate.</p>
      <p style=""margin-top: 2em;"">Press any key to begin.</p>
    </div>
  ","ArrowRight","html-keyboard-response","4","2.1.0","118024","F=YES, J=NO","8o7kjqd80t","1","80","85","75","","","","","","","","","","","","","","","",""
"6542","
  <p style=""font-size: 40px;"">platery</p>
  <p style=""font-size: 16px;"">F = YES &nbsp;&nbsp;&nbsp; J = NO</p>
","j","html-keyboard-response","5","2.1.0","124567","F=YES, J=NO","8o7kjqd80t","1","80","85","75","","","","","","lextale","false","true","","","","","","","",""
"913","
  <p style=""font-size: 40px;"">denial</p>
  <p style=""font-size: 16px;"">F = YES &nbsp;&nbsp;&nbsp; J = NO</p>
","f","html-keyboard-response","6","2.1.0","125481","F=YES, J=NO","8o7kjqd80t","1","80","85","75","","","","","","lextale","true","true","","","","","","","",""
"2403","
  <p style=""font-size: 40px;"">marrit</p>
  <p style=""font-size: 16px;"">F = YES &nbsp;&nbsp;&nbsp; J = NO</p>
","j","html-keyboard-response","7","2.1.0","127885","F=YES, J=NO","8o7kjqd80t","1","80","85","75","","","","","","lextale","false","true","","","","","","","",""
"988","
  <p style=""font-size: 40px;"">bottle</p>
  <p style=""font-size: 16px;"">F = YES &nbsp;&nbsp;&nbsp; J = NO</p>
","f","html-keyboard-response","8","2.1.0","128878","F=YES, J=NO","8o7kjqd80t","1","80","85","75","","","","","","lextale","true","false","","","","","","","",""
"2522","
  <p style=""font-size: 40px;"">birst</p>
  <p style=""font-size: 16px;"">F = YES &nbsp;&nbsp;&nbsp; J = NO</p>
","j","html-keyboard-response","9","2.1.0","131401","F=YES, J=NO","8o7kjqd80t","1","80","85","75","","","","","","lextale","false","false","","","","","","","",""
"993","
  <p style=""font-size: 40px;"">envy</p>
  <p style=""font-size: 16px;"">F = YES &nbsp;&nbsp;&nbsp; J = NO</p>
","f","html-keyboard-response","10","2.1.0","132394","F=YES, J=NO","8o7kjqd80t","1","80","85","75","","","","","","lextale","true","false","","","","","","","",""
"2100","
  <p style=""font-size: 40px;"">brang</p>
  <p style=""font-size: 16px;"">F = YES &nbsp;&nbsp;&nbsp; J = NO</p>
","j","html-keyboard-response","11","2.1.0","134494","F=YES, J=NO","8o7kjqd80t","1","80","85","75","","","","","","lextale","false","false","","","","","","","",""
"789","
  <p style=""font-size: 40px;"">huge</p>
  <p style=""font-size: 16px;"">F = YES &nbsp;&nbsp;&nbsp; J = NO</p>
","f","html-keyboard-response","12","2.1.0","135284","F=YES, J=NO","8o7kjqd80t","1","80","85","75","","","","","","lextale","true","false","","","","","","","",""
"1463","
  <p style=""font-size: 40px;"">plove</p>
  <p style=""font-size: 16px;"">F = YES &nbsp;&nbsp;&nbsp; J = NO</p>
","j","html-keyboard-response","13","2.1.0","136748","F=YES, J=NO","8o7kjqd80t","1","80","85","75","","","","","","lextale","false","false","","","","","","","",""
"906","
  <p style=""font-size: 40px;"">border</p>
  <p style=""font-size: 16px;"">F = YES &nbsp;&nbsp;&nbsp; J = NO</p>
","f","html-keyboard-response","14","2.1.0","137655","F=YES, J=NO","8o7kjqd80t","1","80","85","75","","","","","","lextale","true","false","","","","","","","",""
"1057","
  <p style=""font-size: 40px;"">flimsy</p>
  <p style=""font-size: 16px;"">F = YES &nbsp;&nbsp;&nbsp; J = NO</p>
","f","html-keyboard-response","15","2.1.0","138712","F=YES, J=NO","8o7kjqd80t","1","80","85","75","","","","","","lextale","true","false","","","","","","","",""
"790","
  <p style=""font-size: 40px;"">drain</p>
  <p style=""font-size: 16px;"">F = YES &nbsp;&nbsp;&nbsp; J = NO</p>
","f","html-keyboard-response","16","2.1.0","139503","F=YES, J=NO","8o7kjqd80t","1","80","85","75","","","","","","lextale","true","false","","","","","","","",""
"1150","
  <p style=""font-size: 40px;"">twindle</p>
  <p style=""font-size: 16px;"">F = YES &nbsp;&nbsp;&nbsp; J = NO</p>
","f","html-keyboard-response","17","2.1.0","140654","F=YES, J=NO","8o7kjqd80t","1","80","85","75","","","","","","lextale","false","false","","","","","","","",""
"836","
  <p style=""font-size: 40px;"">propose</p>
  <p style=""font-size: 16px;"">F = YES &nbsp;&nbsp;&nbsp; J = NO</p>
","f","html-keyboard-response","18","2.1.0","141491","F=YES, J=NO","8o7kjqd80t","1","80","85","75","","","","","","lextale","true","false","","","","","","","",""
"5162","
  <p style=""font-size: 40px;"">forlay</p>
  <p style=""font-size: 16px;"">F = YES &nbsp;&nbsp;&nbsp; J = NO</p>
","f","html-keyboard-response","19","2.1.0","146654","F=YES, J=NO","8o7kjqd80t","1","80","85","75","","","","","","lextale","false","false","","","","","","","",""
"795","
  <p style=""font-size: 40px;"">tenant</p>
  <p style=""font-size: 16px;"">F = YES &nbsp;&nbsp;&nbsp; J = NO</p>
","f","html-keyboard-response","20","2.1.0","147450","F=YES, J=NO","8o7kjqd80t","1","80","85","75","","","","","","lextale","true","false","","","","","","","",""
"736","
  <p style=""font-size: 40px;"">strain</p>
  <p style=""font-size: 16px;"">F = YES &nbsp;&nbsp;&nbsp; J = NO</p>
","f","html-keyboard-response","21","2.1.0","148187","F=YES, J=NO","8o7kjqd80t","1","80","85","75","","","","","","lextale","true","false","","","","","","","",""
"1023","
  <p style=""font-size: 40px;"">holster</p>
  <p style=""font-size: 16px;"">F = YES &nbsp;&nbsp;&nbsp; J = NO</p>
","f","html-keyboard-response","22","2.1.0","149211","F=YES, J=NO","8o7kjqd80t","1","80","85","75","","","","","","lextale","true","false","","","","","","","",""
"940","
  <p style=""font-size: 40px;"">hinder</p>
  <p style=""font-size: 16px;"">F = YES &nbsp;&nbsp;&nbsp; J = NO</p>
","f","html-keyboard-response","23","2.1.0","150152","F=YES, J=NO","8o7kjqd80t","1","80","85","75","","","","","","lextale","true","false","","","","","","","",""
"1140","
  <p style=""font-size: 40px;"">swindle</p>
  <p style=""font-size: 16px;"">F = YES &nbsp;&nbsp;&nbsp; J = NO</p>
","f","html-keyboard-response","24","2.1.0","151293","F=YES, J=NO","8o7kjqd80t","1","80","85","75","","","","","","lextale","true","false","","","","","","","",""
"2365","
  <p style=""font-size: 40px;"">nuder</p>
  <p style=""font-size: 16px;"">F = YES &nbsp;&nbsp;&nbsp; J = NO</p>
","j","html-keyboard-response","25","2.1.0","153658","F=YES, J=NO","8o7kjqd80t","1","80","85","75","","","","","","lextale","false","false","","","","","","","",""
"862","
  <p style=""font-size: 40px;"">pillow</p>
  <p style=""font-size: 16px;"">F = YES &nbsp;&nbsp;&nbsp; J = NO</p>
","f","html-keyboard-response","26","2.1.0","154521","F=YES, J=NO","8o7kjqd80t","1","80","85","75","","","","","","lextale","true","false","","","","","","","",""
"2965","
  <p style=""font-size: 40px;"">shumble</p>
  <p style=""font-size: 16px;"">F = YES &nbsp;&nbsp;&nbsp; J = NO</p>
","j","html-keyboard-response","27","2.1.0","157487","F=YES, J=NO","8o7kjqd80t","1","80","85","75","","","","","","lextale","false","false","","","","","","","",""
"819","
  <p style=""font-size: 40px;"">thirst</p>
  <p style=""font-size: 16px;"">F = YES &nbsp;&nbsp;&nbsp; J = NO</p>
","f","html-keyboard-response","28","2.1.0","158306","F=YES, J=NO","8o7kjqd80t","1","80","85","75","","","","","","lextale","true","false","","","","","","","",""
"3923","
  <p style=""font-size: 40px;"">unsail</p>
  <p style=""font-size: 16px;"">F = YES &nbsp;&nbsp;&nbsp; J = NO</p>
","j","html-keyboard-response","29","2.1.0","162229","F=YES, J=NO","8o7kjqd80t","1","80","85","75","","","","","","lextale","false","false","","","","","","","",""
"1000","
  <p style=""font-size: 40px;"">rifle</p>
  <p style=""font-size: 16px;"">F = YES &nbsp;&nbsp;&nbsp; J = NO</p>
","f","html-keyboard-response","30","2.1.0","163230","F=YES, J=NO","8o7kjqd80t","1","80","85","75","","","","","","lextale","true","false","","","","","","","",""
"1175","
  <p style=""font-size: 40px;"">mush</p>
  <p style=""font-size: 16px;"">F = YES &nbsp;&nbsp;&nbsp; J = NO</p>
","f","html-keyboard-response","31","2.1.0","164406","F=YES, J=NO","8o7kjqd80t","1","80","85","75","","","","","","lextale","false","false","","","","","","","",""
"1235","
  <p style=""font-size: 40px;"">drench</p>
  <p style=""font-size: 16px;"">F = YES &nbsp;&nbsp;&nbsp; J = NO</p>
","f","html-keyboard-response","32","2.1.0","165642","F=YES, J=NO","8o7kjqd80t","1","80","85","75","","","","","","lextale","true","false","","","","","","","",""
"1003","
  <p style=""font-size: 40px;"">snirt</p>
  <p style=""font-size: 16px;"">F = YES &nbsp;&nbsp;&nbsp; J = NO</p>
","j","html-keyboard-response","33","2.1.0","166646","F=YES, J=NO","8o7kjqd80t","1","80","85","75","","","","","","lextale","false","false","","","","","","","",""
"904","
  <p style=""font-size: 40px;"">bitter</p>
  <p style=""font-size: 16px;"">F = YES &nbsp;&nbsp;&nbsp; J = NO</p>
","f","html-keyboard-response","34","2.1.0","167550","F=YES, J=NO","8o7kjqd80t","1","80","85","75","","","","","","lextale","true","false","","","","","","","",""
"856","
  <p style=""font-size: 40px;"">pliff</p>
  <p style=""font-size: 16px;"">F = YES &nbsp;&nbsp;&nbsp; J = NO</p>
","j","html-keyboard-response","35","2.1.0","168407","F=YES, J=NO","8o7kjqd80t","1","80","85","75","","","","","","lextale","false","false","","","","","","","",""
"936","
  <p style=""font-size: 40px;"">tablet</p>
  <p style=""font-size: 16px;"">F = YES &nbsp;&nbsp;&nbsp; J = NO</p>
","f","html-keyboard-response","36","2.1.0","169344","F=YES, J=NO","8o7kjqd80t","1","80","85","75","","","","","","lextale","true","false","","","","","","","",""
"1010","
  <p style=""font-size: 40px;"">glimmer</p>
  <p style=""font-size: 16px;"">F = YES &nbsp;&nbsp;&nbsp; J = NO</p>
","f","html-keyboard-response","37","2.1.0","170354","F=YES, J=NO","8o7kjqd80t","1","80","85","75","","","","","","lextale","true","false","","","","","","","",""
"970","
  <p style=""font-size: 40px;"">slink</p>
  <p style=""font-size: 16px;"">F = YES &nbsp;&nbsp;&nbsp; J = NO</p>
","f","html-keyboard-response","38","2.1.0","171324","F=YES, J=NO","8o7kjqd80t","1","80","85","75","","","","","","lextale","true","false","","","","","","","",""
"1532","
  <p style=""font-size: 40px;"">clever</p>
  <p style=""font-size: 16px;"">F = YES &nbsp;&nbsp;&nbsp; J = NO</p>
","f","html-keyboard-response","39","2.1.0","172857","F=YES, J=NO","8o7kjqd80t","1","80","85","75","","","","","","lextale","true","false","","","","","","","",""
"1198","
  <p style=""font-size: 40px;"">grum</p>
  <p style=""font-size: 16px;"">F = YES &nbsp;&nbsp;&nbsp; J = NO</p>
","j","html-keyboard-response","40","2.1.0","174056","F=YES, J=NO","8o7kjqd80t","1","80","85","75","","","","","","lextale","false","false","","","","","","","",""
"934","
  <p style=""font-size: 40px;"">string</p>
  <p style=""font-size: 16px;"">F = YES &nbsp;&nbsp;&nbsp; J = NO</p>
","f","html-keyboard-response","41","2.1.0","174990","F=YES, J=NO","8o7kjqd80t","1","80","85","75","","","","","","lextale","true","false","","","","","","","",""
"976","
  <p style=""font-size: 40px;"">plim</p>
  <p style=""font-size: 16px;"">F = YES &nbsp;&nbsp;&nbsp; J = NO</p>
","j","html-keyboard-response","42","2.1.0","175967","F=YES, J=NO","8o7kjqd80t","1","80","85","75","","","","","","lextale","false","false","","","","","","","",""
"767","
  <p style=""font-size: 40px;"">cable</p>
  <p style=""font-size: 16px;"">F = YES &nbsp;&nbsp;&nbsp; J = NO</p>
","f","html-keyboard-response","43","2.1.0","176734","F=YES, J=NO","8o7kjqd80t","1","80","85","75","","","","","","lextale","true","false","","","","","","","",""
"1129","
  <p style=""font-size: 40px;"">shrivel</p>
  <p style=""font-size: 16px;"">F = YES &nbsp;&nbsp;&nbsp; J = NO</p>
","f","html-keyboard-response","44","2.1.0","177864","F=YES, J=NO","8o7kjqd80t","1","80","85","75","","","","","","lextale","true","false","","","","","","","",""
"1036","
  <p style=""font-size: 40px;"">tarnish</p>
  <p style=""font-size: 16px;"">F = YES &nbsp;&nbsp;&nbsp; J = NO</p>
","f","html-keyboard-response","45","2.1.0","178901","F=YES, J=NO","8o7kjqd80t","1","80","85","75","","","","","","lextale","true","false","","","","","","","",""
"905","
  <p style=""font-size: 40px;"">blim</p>
  <p style=""font-size: 16px;"">F = YES &nbsp;&nbsp;&nbsp; J = NO</p>
","j","html-keyboard-response","46","2.1.0","179806","F=YES, J=NO","8o7kjqd80t","1","80","85","75","","","","","","lextale","false","false","","","","","","","",""
"1293","
  <p style=""font-size: 40px;"">stifle</p>
  <p style=""font-size: 16px;"">F = YES &nbsp;&nbsp;&nbsp; J = NO</p>
","f","html-keyboard-response","47","2.1.0","181099","F=YES, J=NO","8o7kjqd80t","1","80","85","75","","","","","","lextale","true","false","","","","","","","",""
"1012","
  <p style=""font-size: 40px;"">bint</p>
  <p style=""font-size: 16px;"">F = YES &nbsp;&nbsp;&nbsp; J = NO</p>
","j","html-keyboard-response","48","2.1.0","182111","F=YES, J=NO","8o7kjqd80t","1","80","85","75","","","","","","lextale","false","false","","","","","","","",""
"833","
  <p style=""font-size: 40px;"">purple</p>
  <p style=""font-size: 16px;"">F = YES &nbsp;&nbsp;&nbsp; J = NO</p>
","f","html-keyboard-response","49","2.1.0","182945","F=YES, J=NO","8o7kjqd80t","1","80","85","75","","","","","","lextale","true","false","","","","","","","",""
"1084","
  <p style=""font-size: 40px;"">wriggle</p>
  <p style=""font-size: 16px;"">F = YES &nbsp;&nbsp;&nbsp; J = NO</p>
","f","html-keyboard-response","50","2.1.0","184029","F=YES, J=NO","8o7kjqd80t","1","80","85","75","","","","","","lextale","true","false","","","","","","","",""
"1433","
  <p style=""font-size: 40px;"">mangle</p>
  <p style=""font-size: 16px;"">F = YES &nbsp;&nbsp;&nbsp; J = NO</p>
","f","html-keyboard-response","51","2.1.0","185464","F=YES, J=NO","8o7kjqd80t","1","80","85","75","","","","","","lextale","true","false","","","","","","","",""
"1864","
  <p style=""font-size: 40px;"">shramp</p>
  <p style=""font-size: 16px;"">F = YES &nbsp;&nbsp;&nbsp; J = NO</p>
","j","html-keyboard-response","52","2.1.0","187328","F=YES, J=NO","8o7kjqd80t","1","80","85","75","","","","","","lextale","false","false","","","","","","","",""
"797","
  <p style=""font-size: 40px;"">flirt</p>
  <p style=""font-size: 16px;"">F = YES &nbsp;&nbsp;&nbsp; J = NO</p>
","f","html-keyboard-response","53","2.1.0","188125","F=YES, J=NO","8o7kjqd80t","1","80","85","75","","","","","","lextale","true","false","","","","","","","",""
"1033","
  <p style=""font-size: 40px;"">frip</p>
  <p style=""font-size: 16px;"">F = YES &nbsp;&nbsp;&nbsp; J = NO</p>
","j","html-keyboard-response","54","2.1.0","189159","F=YES, J=NO","8o7kjqd80t","1","80","85","75","","","","","","lextale","false","false","","","","","","","",""
"743","
  <p style=""font-size: 40px;"">tangle</p>
  <p style=""font-size: 16px;"">F = YES &nbsp;&nbsp;&nbsp; J = NO</p>
","f","html-keyboard-response","55","2.1.0","189902","F=YES, J=NO","8o7kjqd80t","1","80","85","75","","","","","","lextale","true","false","","","","","","","",""
"889","
  <p style=""font-size: 40px;"">crumble</p>
  <p style=""font-size: 16px;"">F = YES &nbsp;&nbsp;&nbsp; J = NO</p>
","f","html-keyboard-response","56","2.1.0","190791","F=YES, J=NO","8o7kjqd80t","1","80","85","75","","","","","","lextale","true","false","","","","","","","",""
"796","
  <p style=""font-size: 40px;"">wrinkle</p>
  <p style=""font-size: 16px;"">F = YES &nbsp;&nbsp;&nbsp; J = NO</p>
","f","html-keyboard-response","57","2.1.0","191588","F=YES, J=NO","8o7kjqd80t","1","80","85","75","","","","","","lextale","true","false","","","","","","","",""
"1063","
  <p style=""font-size: 40px;"">slumb</p>
  <p style=""font-size: 16px;"">F = YES &nbsp;&nbsp;&nbsp; J = NO</p>
","j","html-keyboard-response","58","2.1.0","192651","F=YES, J=NO","8o7kjqd80t","1","80","85","75","","","","","","lextale","false","false","","","","","","","",""
"907","
  <p style=""font-size: 40px;"">jungle</p>
  <p style=""font-size: 16px;"">F = YES &nbsp;&nbsp;&nbsp; J = NO</p>
","f","html-keyboard-response","59","2.1.0","193558","F=YES, J=NO","8o7kjqd80t","1","80","85","75","","","","","","lextale","true","false","","","","","","","",""
"921","
  <p style=""font-size: 40px;"">frolick</p>
  <p style=""font-size: 16px;"">F = YES &nbsp;&nbsp;&nbsp; J = NO</p>
","f","html-keyboard-response","60","2.1.0","194480","F=YES, J=NO","8o7kjqd80t","1","80","85","75","","","","","","lextale","false","false","","","","","","","",""
"91907","
      <h2>LexTALE Test Completed</h2>
      <p>Your LexTALE vocabulary score is: <strong>80%</strong></p>
      <p>Press any key to continue.</p>
    ","ArrowRight","html-keyboard-response","61","2.1.0","286388","F=YES, J=NO","8o7kjqd80t","1","80","85","75","","","","","","","","","","","","","","","",""
"15736","
    <div style=""max-width: 800px; margin: auto; text-align: left;"">
      <h2>Break Time</h2>
      <p>You have completed the first part of the study.</p>
      <p>You may take a short <strong>30-second break</strong> before continuing.</p>
      <p>When you’re ready, press any key to continue to the final task.</p>
    </div>
  ","ArrowRight","html-keyboard-response","62","2.1.0","302125","F=YES, J=NO","8o7kjqd80t","1","80","85","75","","","","","","","","","","","","","","","",""
"30089","
    <div style=""max-width: 800px; margin: auto; text-align: left;"">
      <h2>Part 2: Lexical Decision Task</h2>
      <p>You will now begin the second part of the study.</p>
      <p>Each trial will follow this sequence:</p>
      <ul>
        <li>A fixation cross (+) appears at the center of the screen.</li>
        <li>You will hear a short beep followed by a spoken word.</li>
        <li>A written word will appear briefly on the screen.</li>
      </ul>
      <p>Your task is to judge whether the <strong>written word</strong> is a real English word.</p>
      <p style=""margin-top: 1em;""><strong>Key responses:</strong></p>
      <ul>
        <li><strong>F</strong> = YES (real English word)</li>
        <li><strong>J</strong> = NO (not a real English word)</li>
      </ul>
      <p>Please respond as quickly and accurately as you can.</p>
      <p style=""margin-top: 2em;"">Press any key to continue.</p>
    </div>
  ","ArrowRight","html-keyboard-response","63","2.1.0","332214","F=YES, J=NO","8o7kjqd80t","1","80","85","75","","","","","","","","","","","","","","","",""
"16423","
    <div style=""max-width: 800px; margin: auto; text-align: left;"">
      <h2>Before You Begin</h2>
      <p>Make sure your sound is turned on.</p>
      <p>You will hear audio during each trial, but your decision should be based only on the <strong>written word</strong> you see on the screen.</p>
      <p><strong>Reminder:</strong></p>
      <ul>
        <li><strong>F</strong> = YES (real English word)</li>
        <li><strong>J</strong> = NO (not a real English word)</li>
      </ul>
      <p style=""margin-top: 2em;"">Press any key when you are ready to begin.</p>
    </div>
  ","ArrowRight","html-keyboard-response","64","2.1.0","348638","F=YES, J=NO","8o7kjqd80t","1","80","85","75","","","","","","","","","","","","","","","",""
"4015","
    <div style=""max-width: 800px; margin: auto; text-align: left;"">
      <h2>Part 2: Practice Trials</h2>
      <p>You will now complete a few <strong>practice trials</strong> to get familiar with the task.</p>
      <p>These trials are <strong>not scored</strong> and are only to help you get used to the format.</p>
      <p style=""margin-top: 2em;"">Press any key to begin.</p>
    </div>
  ","ArrowRight","html-keyboard-response","65","2.1.0","352654","F=YES, J=NO","8o7kjqd80t","1","80","85","75","","","","","","","","","","","","","","","",""
"2688","<p>Starting practice block 1 of 2. Press any key to continue.</p>","ArrowRight","html-keyboard-response","66","2.1.0","355342","F=YES, J=NO","8o7kjqd80t","1","80","85","75","","","","","","","","","","","","","","","",""
"null","<p style=""font-size: 50px;"">+</p>","null","html-keyboard-response","67","2.1.0","355652","F=YES, J=NO","8o7kjqd80t","1","80","85","75","","","","","","","","","","","","","","","",""
"null","audio/beep-329314.mp3","null","audio-keyboard-response","68","2.1.0","357835","F=YES, J=NO","8o7kjqd80t","1","80","85","75","","","","","","","","","","","","","","","",""
"null","audio/breath.wav","null","audio-keyboard-response","69","2.1.0","358560","F=YES, J=NO","8o7kjqd80t","1","80","85","75","","","","","","","","","","","","","","","",""
"1132","
          <p id=""word"" style=""font-size: 40px;"">pack</p>
          <p style=""font-size: 16px;"">F = YES &nbsp;&nbsp;&nbsp; J = NO</p>
        ","f","html-keyboard-response","70","2.1.0","359694","F=YES, J=NO","8o7kjqd80t","1","80","85","75","","","","","","","","","pack","breath","filler","filler","f","true","",""
"null","<p style=""font-size: 50px;"">+</p>","null","html-keyboard-response","71","2.1.0","359995","F=YES, J=NO","8o7kjqd80t","1","80","85","75","","","","","","","","","","","","","","","",""
"null","audio/beep-329314.mp3","null","audio-keyboard-response","72","2.1.0","361525","F=YES, J=NO","8o7kjqd80t","1","80","85","75","","","","","","","","","","","","","","","",""
"null","audio/road.wav","null","audio-keyboard-response","73","2.1.0","361952","F=YES, J=NO","8o7kjqd80t","1","80","85","75","","","","","","","","","","","","","","","",""
"966","
          <p id=""word"" style=""font-size: 40px;"">wappings</p>
          <p style=""font-size: 16px;"">F = YES &nbsp;&nbsp;&nbsp; J = NO</p>
        ","j","html-keyboard-response","74","2.1.0","362919","F=YES, J=NO","8o7kjqd80t","1","80","85","75","","","","","","","","","wappings","road","pseudoword","pseudoword","j","true","",""
"null","<p style=""font-size: 50px;"">+</p>","null","html-keyboard-response","75","2.1.0","363227","F=YES, J=NO","8o7kjqd80t","1","80","85","75","","","","","","","","","","","","","","","",""
"null","audio/beep-329314.mp3","null","audio-keyboard-response","76","2.1.0","364746","F=YES, J=NO","8o7kjqd80t","1","80","85","75","","","","","","","","","","","","","","","",""
"null","audio/weight1.wav","null","audio-keyboard-response","77","2.1.0","365472","F=YES, J=NO","8o7kjqd80t","1","80","85","75","","","","","","","","","","","","","","","",""
"861","
          <p id=""word"" style=""font-size: 40px;"">crimsh</p>
          <p style=""font-size: 16px;"">F = YES &nbsp;&nbsp;&nbsp; J = NO</p>
        ","j","html-keyboard-response","78","2.1.0","366334","F=YES, J=NO","8o7kjqd80t","1","80","85","75","","","","","","","","","crimsh","weight1","pseudoword","pseudoword","j","true","",""
"null","<p style=""font-size: 50px;"">+</p>","null","html-keyboard-response","79","2.1.0","366641","F=YES, J=NO","8o7kjqd80t","1","80","85","75","","","","","","","","","","","","","","","",""
"null","audio/beep-329314.mp3","null","audio-keyboard-response","80","2.1.0","368160","F=YES, J=NO","8o7kjqd80t","1","80","85","75","","","","","","","","","","","","","","","",""
"null","audio/age1.wav","null","audio-keyboard-response","81","2.1.0","368885","F=YES, J=NO","8o7kjqd80t","1","80","85","75","","","","","","","","","","","","","","","",""
"1262","
          <p id=""word"" style=""font-size: 40px;"">bake</p>
          <p style=""font-size: 16px;"">F = YES &nbsp;&nbsp;&nbsp; J = NO</p>
        ","f","html-keyboard-response","82","2.1.0","370147","F=YES, J=NO","8o7kjqd80t","1","80","85","75","","","","","","","","","bake","age1","filler","filler","f","true","",""
"null","<p style=""font-size: 50px;"">+</p>","null","html-keyboard-response","83","2.1.0","370453","F=YES, J=NO","8o7kjqd80t","1","80","85","75","","","","","","","","","","","","","","","",""
"null","audio/beep-329314.mp3","null","audio-keyboard-response","84","2.1.0","371979","F=YES, J=NO","8o7kjqd80t","1","80","85","75","","","","","","","","","","","","","","","",""
"null","audio/meal.wav","null","audio-keyboard-response","85","2.1.0","372597","F=YES, J=NO","8o7kjqd80t","1","80","85","75","","","","","","","","","","","","","","","",""
"1213","
          <p id=""word"" style=""font-size: 40px;"">gallite</p>
          <p style=""font-size: 16px;"">F = YES &nbsp;&nbsp;&nbsp; J = NO</p>
        ","j","html-keyboard-response","86","2.1.0","373810","F=YES, J=NO","8o7kjqd80t","1","80","85","75","","","","","","","","","gallite","meal","pseudoword","pseudoword","j","true","",""
"null","<p style=""font-size: 50px;"">+</p>","null","html-keyboard-response","87","2.1.0","374123","F=YES, J=NO","8o7kjqd80t","1","80","85","75","","","","","","","","","","","","","","","",""
"null","audio/beep-329314.mp3","null","audio-keyboard-response","88","2.1.0","375648","F=YES, J=NO","8o7kjqd80t","1","80","85","75","","","","","","","","","","","","","","","",""
"null","audio/grass.wav","null","audio-keyboard-response","89","2.1.0","376501","F=YES, J=NO","8o7kjqd80t","1","80","85","75","","","","","","","","","","","","","","","",""
"855","
          <p id=""word"" style=""font-size: 40px;"">milames</p>
          <p style=""font-size: 16px;"">F = YES &nbsp;&nbsp;&nbsp; J = NO</p>
        ","j","html-keyboard-response","90","2.1.0","377357","F=YES, J=NO","8o7kjqd80t","1","80","85","75","","","","","","","","","milames","grass","pseudoword","pseudoword","j","true","",""
"null","<p style=""font-size: 50px;"">+</p>","null","html-keyboard-response","91","2.1.0","377663","F=YES, J=NO","8o7kjqd80t","1","80","85","75","","","","","","","","","","","","","","","",""
"null","audio/beep-329314.mp3","null","audio-keyboard-response","92","2.1.0","379190","F=YES, J=NO","8o7kjqd80t","1","80","85","75","","","","","","","","","","","","","","","",""
"null","audio/scar.wav","null","audio-keyboard-response","93","2.1.0","379851","F=YES, J=NO","8o7kjqd80t","1","80","85","75","","","","","","","","","","","","","","","",""
"905","
          <p id=""word"" style=""font-size: 40px;"">adelineate</p>
          <p style=""font-size: 16px;"">F = YES &nbsp;&nbsp;&nbsp; J = NO</p>
        ","j","html-keyboard-response","94","2.1.0","380757","F=YES, J=NO","8o7kjqd80t","1","80","85","75","","","","","","","","","adelineate","scar","pseudoword","pseudoword","j","true","",""
"null","<p style=""font-size: 50px;"">+</p>","null","html-keyboard-response","95","2.1.0","381072","F=YES, J=NO","8o7kjqd80t","1","80","85","75","","","","","","","","","","","","","","","",""
"null","audio/beep-329314.mp3","null","audio-keyboard-response","96","2.1.0","382603","F=YES, J=NO","8o7kjqd80t","1","80","85","75","","","","","","","","","","","","","","","",""
"null","audio/noise1.wav","null","audio-keyboard-response","97","2.1.0","383264","F=YES, J=NO","8o7kjqd80t","1","80","85","75","","","","","","","","","","","","","","","",""
"1250","
          <p id=""word"" style=""font-size: 40px;"">slintered</p>
          <p style=""font-size: 16px;"">F = YES &nbsp;&nbsp;&nbsp; J = NO</p>
        ","j","html-keyboard-response","98","2.1.0","384515","F=YES, J=NO","8o7kjqd80t","1","80","85","75","","","","","","","","","slintered","noise1","pseudoword","pseudoword","j","true","",""
"null","<p style=""font-size: 50px;"">+</p>","null","html-keyboard-response","99","2.1.0","384818","F=YES, J=NO","8o7kjqd80t","1","80","85","75","","","","","","","","","","","","","","","",""
"null","audio/beep-329314.mp3","null","audio-keyboard-response","100","2.1.0","386337","F=YES, J=NO","8o7kjqd80t","1","80","85","75","","","","","","","","","","","","","","","",""
"null","audio/van1.wav","null","audio-keyboard-response","101","2.1.0","386827","F=YES, J=NO","8o7kjqd80t","1","80","85","75","","","","","","","","","","","","","","","",""
"676","
          <p id=""word"" style=""font-size: 40px;"">push</p>
          <p style=""font-size: 16px;"">F = YES &nbsp;&nbsp;&nbsp; J = NO</p>
        ","f","html-keyboard-response","102","2.1.0","387504","F=YES, J=NO","8o7kjqd80t","1","80","85","75","","","","","","","","","push","van1","filler","filler","f","true","",""
"null","<p style=""font-size: 50px;"">+</p>","null","html-keyboard-response","103","2.1.0","387814","F=YES, J=NO","8o7kjqd80t","1","80","85","75","","","","","","","","","","","","","","","",""
"null","audio/beep-329314.mp3","null","audio-keyboard-response","104","2.1.0","389345","F=YES, J=NO","8o7kjqd80t","1","80","85","75","","","","","","","","","","","","","","","",""
"null","audio/belief.wav","null","audio-keyboard-response","105","2.1.0","390155","F=YES, J=NO","8o7kjqd80t","1","80","85","75","","","","","","","","","","","","","","","",""
"875","
          <p id=""word"" style=""font-size: 40px;"">read</p>
          <p style=""font-size: 16px;"">F = YES &nbsp;&nbsp;&nbsp; J = NO</p>
        ","f","html-keyboard-response","106","2.1.0","391031","F=YES, J=NO","8o7kjqd80t","1","80","85","75","","","","","","","","","read","belief","filler","filler","f","true","",""
"null","<p style=""font-size: 50px;"">+</p>","null","html-keyboard-response","107","2.1.0","391342","F=YES, J=NO","8o7kjqd80t","1","80","85","75","","","","","","","","","","","","","","","",""
"null","audio/beep-329314.mp3","null","audio-keyboard-response","108","2.1.0","392865","F=YES, J=NO","8o7kjqd80t","1","80","85","75","","","","","","","","","","","","","","","",""
"null","audio/ankle1.wav","null","audio-keyboard-response","109","2.1.0","393547","F=YES, J=NO","8o7kjqd80t","1","80","85","75","","","","","","","","","","","","","","","",""
"1019","
          <p id=""word"" style=""font-size: 40px;"">kick</p>
          <p style=""font-size: 16px;"">F = YES &nbsp;&nbsp;&nbsp; J = NO</p>
        ","f","html-keyboard-response","110","2.1.0","394566","F=YES, J=NO","8o7kjqd80t","1","80","85","75","","","","","","","","","kick","ankle1","filler","filler","f","true","",""
"null","<p style=""font-size: 50px;"">+</p>","null","html-keyboard-response","111","2.1.0","394873","F=YES, J=NO","8o7kjqd80t","1","80","85","75","","","","","","","","","","","","","","","",""
"null","audio/beep-329314.mp3","null","audio-keyboard-response","112","2.1.0","396406","F=YES, J=NO","8o7kjqd80t","1","80","85","75","","","","","","","","","","","","","","","",""
"null","audio/topic.wav","null","audio-keyboard-response","113","2.1.0","397046","F=YES, J=NO","8o7kjqd80t","1","80","85","75","","","","","","","","","","","","","","","",""
"1016","
          <p id=""word"" style=""font-size: 40px;"">infortuitist</p>
          <p style=""font-size: 16px;"">F = YES &nbsp;&nbsp;&nbsp; J = NO</p>
        ","j","html-keyboard-response","114","2.1.0","398063","F=YES, J=NO","8o7kjqd80t","1","80","85","75","","","","","","","","","infortuitist","topic","pseudoword","pseudoword","j","true","",""
"2336","<p>Starting practice block 2 of 2. Press any key to continue.</p>","ArrowRight","html-keyboard-response","115","2.1.0","400399","F=YES, J=NO","8o7kjqd80t","1","80","85","75","","","","","","","","","","","","","","","",""
"null","<p style=""font-size: 50px;"">+</p>","null","html-keyboard-response","116","2.1.0","400709","F=YES, J=NO","8o7kjqd80t","1","80","85","75","","","","","","","","","","","","","","","",""
"null","audio/beep-329314.mp3","null","audio-keyboard-response","117","2.1.0","402230","F=YES, J=NO","8o7kjqd80t","1","80","85","75","","","","","","","","","","","","","","","",""
"null","audio/window1.wav","null","audio-keyboard-response","118","2.1.0","403020","F=YES, J=NO","8o7kjqd80t","1","80","85","75","","","","","","","","","","","","","","","",""
"775","
          <p id=""word"" style=""font-size: 40px;"">toss</p>
          <p style=""font-size: 16px;"">F = YES &nbsp;&nbsp;&nbsp; J = NO</p>
        ","f","html-keyboard-response","119","2.1.0","403796","F=YES, J=NO","8o7kjqd80t","1","80","85","75","","","","","","","","","toss","window1","filler","filler","f","true","",""
"null","<p style=""font-size: 50px;"">+</p>","null","html-keyboard-response","120","2.1.0","404102","F=YES, J=NO","8o7kjqd80t","1","80","85","75","","","","","","","","","","","","","","","",""
"null","audio/beep-329314.mp3","null","audio-keyboard-response","121","2.1.0","405623","F=YES, J=NO","8o7kjqd80t","1","80","85","75","","","","","","","","","","","","","","","",""
"null","audio/trust.wav","null","audio-keyboard-response","122","2.1.0","406497","F=YES, J=NO","8o7kjqd80t","1","80","85","75","","","","","","","","","","","","","","","",""
"832","
          <p id=""word"" style=""font-size: 40px;"">swint</p>
          <p style=""font-size: 16px;"">F = YES &nbsp;&nbsp;&nbsp; J = NO</p>
        ","j","html-keyboard-response","123","2.1.0","407330","F=YES, J=NO","8o7kjqd80t","1","80","85","75","","","","","","","","","swint","trust","pseudoword","pseudoword","j","true","",""
"null","<p style=""font-size: 50px;"">+</p>","null","html-keyboard-response","124","2.1.0","407631","F=YES, J=NO","8o7kjqd80t","1","80","85","75","","","","","","","","","","","","","","","",""
"null","audio/beep-329314.mp3","null","audio-keyboard-response","125","2.1.0","409164","F=YES, J=NO","8o7kjqd80t","1","80","85","75","","","","","","","","","","","","","","","",""
"null","audio/alarm1.wav","null","audio-keyboard-response","126","2.1.0","409911","F=YES, J=NO","8o7kjqd80t","1","80","85","75","","","","","","","","","","","","","","","",""
"1034","
          <p id=""word"" style=""font-size: 40px;"">lock</p>
          <p style=""font-size: 16px;"">F = YES &nbsp;&nbsp;&nbsp; J = NO</p>
        ","f","html-keyboard-response","127","2.1.0","410945","F=YES, J=NO","8o7kjqd80t","1","80","85","75","","","","","","","","","lock","alarm1","filler","filler","f","true","",""
"null","<p style=""font-size: 50px;"">+</p>","null","html-keyboard-response","128","2.1.0","411257","F=YES, J=NO","8o7kjqd80t","1","80","85","75","","","","","","","","","","","","","","","",""
"null","audio/beep-329314.mp3","null","audio-keyboard-response","129","2.1.0","412791","F=YES, J=NO","8o7kjqd80t","1","80","85","75","","","","","","","","","","","","","","","",""
"null","audio/golf1.wav","null","audio-keyboard-response","130","2.1.0","413516","F=YES, J=NO","8o7kjqd80t","1","80","85","75","","","","","","","","","","","","","","","",""
"1318","
          <p id=""word"" style=""font-size: 40px;"">drabble</p>
          <p style=""font-size: 16px;"">F = YES &nbsp;&nbsp;&nbsp; J = NO</p>
        ","f","html-keyboard-response","131","2.1.0","414835","F=YES, J=NO","8o7kjqd80t","1","80","85","75","","","","","","","","","drabble","golf1","pseudoword","pseudoword","j","false","",""
"null","<p style=""font-size: 50px;"">+</p>","null","html-keyboard-response","132","2.1.0","415147","F=YES, J=NO","8o7kjqd80t","1","80","85","75","","","","","","","","","","","","","","","",""
"null","audio/beep-329314.mp3","null","audio-keyboard-response","133","2.1.0","416674","F=YES, J=NO","8o7kjqd80t","1","80","85","75","","","","","","","","","","","","","","","",""
"null","audio/gossip1.wav","null","audio-keyboard-response","134","2.1.0","417484","F=YES, J=NO","8o7kjqd80t","1","80","85","75","","","","","","","","","","","","","","","",""
"833","
          <p id=""word"" style=""font-size: 40px;"">camerish</p>
          <p style=""font-size: 16px;"">F = YES &nbsp;&nbsp;&nbsp; J = NO</p>
        ","j","html-keyboard-response","135","2.1.0","418318","F=YES, J=NO","8o7kjqd80t","1","80","85","75","","","","","","","","","camerish","gossip1","pseudoword","pseudoword","j","true","",""
"null","<p style=""font-size: 50px;"">+</p>","null","html-keyboard-response","136","2.1.0","418623","F=YES, J=NO","8o7kjqd80t","1","80","85","75","","","","","","","","","","","","","","","",""
"null","audio/beep-329314.mp3","null","audio-keyboard-response","137","2.1.0","420151","F=YES, J=NO","8o7kjqd80t","1","80","85","75","","","","","","","","","","","","","","","",""
"null","audio/beach1.wav","null","audio-keyboard-response","138","2.1.0","420813","F=YES, J=NO","8o7kjqd80t","1","80","85","75","","","","","","","","","","","","","","","",""
"661","
          <p id=""word"" style=""font-size: 40px;"">drive</p>
          <p style=""font-size: 16px;"">F = YES &nbsp;&nbsp;&nbsp; J = NO</p>
        ","f","html-keyboard-response","139","2.1.0","421474","F=YES, J=NO","8o7kjqd80t","1","80","85","75","","","","","","","","","drive","beach1","filler","filler","f","true","",""
"null","<p style=""font-size: 50px;"">+</p>","null","html-keyboard-response","140","2.1.0","421790","F=YES, J=NO","8o7kjqd80t","1","80","85","75","","","","","","","","","","","","","","","",""
"null","audio/beep-329314.mp3","null","audio-keyboard-response","141","2.1.0","423309","F=YES, J=NO","8o7kjqd80t","1","80","85","75","","","","","","","","","","","","","","","",""
"null","audio/butter1.wav","null","audio-keyboard-response","142","2.1.0","423820","F=YES, J=NO","8o7kjqd80t","1","80","85","75","","","","","","","","","","","","","","","",""
"705","
          <p id=""word"" style=""font-size: 40px;"">chew</p>
          <p style=""font-size: 16px;"">F = YES &nbsp;&nbsp;&nbsp; J = NO</p>
        ","f","html-keyboard-response","143","2.1.0","424526","F=YES, J=NO","8o7kjqd80t","1","80","85","75","","","","","","","","","chew","butter1","filler","filler","f","true","",""
"null","<p style=""font-size: 50px;"">+</p>","null","html-keyboard-response","144","2.1.0","424844","F=YES, J=NO","8o7kjqd80t","1","80","85","75","","","","","","","","","","","","","","","",""
"null","audio/beep-329314.mp3","null","audio-keyboard-response","145","2.1.0","426381","F=YES, J=NO","8o7kjqd80t","1","80","85","75","","","","","","","","","","","","","","","",""
"null","audio/trout1.wav","null","audio-keyboard-response","146","2.1.0","427020","F=YES, J=NO","8o7kjqd80t","1","80","85","75","","","","","","","","","","","","","","","",""
"677","
          <p id=""word"" style=""font-size: 40px;"">spimt</p>
          <p style=""font-size: 16px;"">F = YES &nbsp;&nbsp;&nbsp; J = NO</p>
        ","j","html-keyboard-response","147","2.1.0","427698","F=YES, J=NO","8o7kjqd80t","1","80","85","75","","","","","","","","","spimt","trout1","pseudoword","pseudoword","j","true","",""
"null","<p style=""font-size: 50px;"">+</p>","null","html-keyboard-response","148","2.1.0","428010","F=YES, J=NO","8o7kjqd80t","1","80","85","75","","","","","","","","","","","","","","","",""
"null","audio/beep-329314.mp3","null","audio-keyboard-response","149","2.1.0","429538","F=YES, J=NO","8o7kjqd80t","1","80","85","75","","","","","","","","","","","","","","","",""
"null","audio/pain1.wav","null","audio-keyboard-response","150","2.1.0","430178","F=YES, J=NO","8o7kjqd80t","1","80","85","75","","","","","","","","","","","","","","","",""
"904","
          <p id=""word"" style=""font-size: 40px;"">tritted</p>
          <p style=""font-size: 16px;"">F = YES &nbsp;&nbsp;&nbsp; J = NO</p>
        ","j","html-keyboard-response","151","2.1.0","431083","F=YES, J=NO","8o7kjqd80t","1","80","85","75","","","","","","","","","tritted","pain1","pseudoword","pseudoword","j","true","",""
"null","<p style=""font-size: 50px;"">+</p>","null","html-keyboard-response","152","2.1.0","431392","F=YES, J=NO","8o7kjqd80t","1","80","85","75","","","","","","","","","","","","","","","",""
"null","audio/beep-329314.mp3","null","audio-keyboard-response","153","2.1.0","432930","F=YES, J=NO","8o7kjqd80t","1","80","85","75","","","","","","","","","","","","","","","",""
"null","audio/fence.wav","null","audio-keyboard-response","154","2.1.0","433762","F=YES, J=NO","8o7kjqd80t","1","80","85","75","","","","","","","","","","","","","","","",""
"616","
          <p id=""word"" style=""font-size: 40px;"">trim</p>
          <p style=""font-size: 16px;"">F = YES &nbsp;&nbsp;&nbsp; J = NO</p>
        ","f","html-keyboard-response","155","2.1.0","434378","F=YES, J=NO","8o7kjqd80t","1","80","85","75","","","","","","","","","trim","fence","filler","filler","f","true","",""
"null","<p style=""font-size: 50px;"">+</p>","null","html-keyboard-response","156","2.1.0","434684","F=YES, J=NO","8o7kjqd80t","1","80","85","75","","","","","","","","","","","","","","","",""
"null","audio/beep-329314.mp3","null","audio-keyboard-response","157","2.1.0","436215","F=YES, J=NO","8o7kjqd80t","1","80","85","75","","","","","","","","","","","","","","","",""
"null","audio/account1.wav","null","audio-keyboard-response","158","2.1.0","437090","F=YES, J=NO","8o7kjqd80t","1","80","85","75","","","","","","","","","","","","","","","",""
"681","
          <p id=""word"" style=""font-size: 40px;"">paint</p>
          <p style=""font-size: 16px;"">F = YES &nbsp;&nbsp;&nbsp; J = NO</p>
        ","f","html-keyboard-response","159","2.1.0","437772","F=YES, J=NO","8o7kjqd80t","1","80","85","75","","","","","","","","","paint","account1","filler","filler","f","true","",""
"null","<p style=""font-size: 50px;"">+</p>","null","html-keyboard-response","160","2.1.0","438076","F=YES, J=NO","8o7kjqd80t","1","80","85","75","","","","","","","","","","","","","","","",""
"null","audio/beep-329314.mp3","null","audio-keyboard-response","161","2.1.0","439608","F=YES, J=NO","8o7kjqd80t","1","80","85","75","","","","","","","","","","","","","","","",""
"null","audio/bomb1.wav","null","audio-keyboard-response","162","2.1.0","440162","F=YES, J=NO","8o7kjqd80t","1","80","85","75","","","","","","","","","","","","","","","",""
"672","
          <p id=""word"" style=""font-size: 40px;"">clean</p>
          <p style=""font-size: 16px;"">F = YES &nbsp;&nbsp;&nbsp; J = NO</p>
        ","f","html-keyboard-response","163","2.1.0","440835","F=YES, J=NO","8o7kjqd80t","1","80","85","75","","","","","","","","","clean","bomb1","filler","filler","f","true","",""
"26270","
    <div style=""max-width: 800px; margin: auto; text-align: left;"">
      <h2>Part 2: Main Trials</h2>
      <p>Great job on the practice trials!</p>
      <p>You will now begin the <strong>main set of trials</strong>.</p>
      <p>Remember your key assignments:</p>
      <ul>
        <li><strong>F</strong> = YES (real English word)</li>
        <li><strong>J</strong> = NO (not a real English word)</li>
      </ul>
      <p>Try to respond as <strong>quickly and accurately</strong> as possible.</p>
      <p style=""margin-top: 2em;"">Press any key to begin the main trials.</p>
    </div>
  ","ArrowRight","html-keyboard-response","164","2.1.0","467106","F=YES, J=NO","8o7kjqd80t","1","80","85","75","","","","","","","","","","","","","","","",""
"3088","<p>Starting main block 1 of 8. Press any key to continue.</p>","ArrowRight","html-keyboard-response","165","2.1.0","470194","F=YES, J=NO","8o7kjqd80t","1","80","85","75","","","","","","","","","","","","","","","",""
"null","<p style=""font-size: 50px;"">+</p>","null","html-keyboard-response","166","2.1.0","470508","F=YES, J=NO","8o7kjqd80t","1","80","85","75","","","","","","","","","","","","","","","",""
"null","audio/beep-329314.mp3","null","audio-keyboard-response","167","2.1.0","472517","F=YES, J=NO","8o7kjqd80t","1","80","85","75","","","","","","","","","","","","","","","",""
"null","audio/sugar1.wav","null","audio-keyboard-response","168","2.1.0","473040","F=YES, J=NO","8o7kjqd80t","1","80","85","75","","","","","","","","","","","","","","","",""
"635","
          <p id=""word"" style=""font-size: 40px;"">approach</p>
          <p style=""font-size: 16px;"">F = YES &nbsp;&nbsp;&nbsp; J = NO</p>
        ","f","html-keyboard-response","169","2.1.0","473676","F=YES, J=NO","8o7kjqd80t","1","80","85","75","","","","","","","","","approach","sugar1","unrelated","experimental","f","true","",""
"null","<p style=""font-size: 50px;"">+</p>","null","html-keyboard-response","170","2.1.0","473992","F=YES, J=NO","8o7kjqd80t","1","80","85","75","","","","","","","","","","","","","","","",""
"null","audio/beep-329314.mp3","null","audio-keyboard-response","171","2.1.0","475525","F=YES, J=NO","8o7kjqd80t","1","80","85","75","","","","","","","","","","","","","","","",""
"null","audio/relief.wav","null","audio-keyboard-response","172","2.1.0","476218","F=YES, J=NO","8o7kjqd80t","1","80","85","75","","","","","","","","","","","","","","","",""
"672","
          <p id=""word"" style=""font-size: 40px;"">grigg</p>
          <p style=""font-size: 16px;"">F = YES &nbsp;&nbsp;&nbsp; J = NO</p>
        ","j","html-keyboard-response","173","2.1.0","476891","F=YES, J=NO","8o7kjqd80t","1","80","85","75","","","","","","","","","grigg","relief","pseudoword","pseudoword","j","true","",""
"null","<p style=""font-size: 50px;"">+</p>","null","html-keyboard-response","174","2.1.0","477195","F=YES, J=NO","8o7kjqd80t","1","80","85","75","","","","","","","","","","","","","","","",""
"null","audio/beep-329314.mp3","null","audio-keyboard-response","175","2.1.0","478726","F=YES, J=NO","8o7kjqd80t","1","80","85","75","","","","","","","","","","","","","","","",""
"null","audio/stain.wav","null","audio-keyboard-response","176","2.1.0","479419","F=YES, J=NO","8o7kjqd80t","1","80","85","75","","","","","","","","","","","","","","","",""
"699","
          <p id=""word"" style=""font-size: 40px;"">rumpsied</p>
          <p style=""font-size: 16px;"">F = YES &nbsp;&nbsp;&nbsp; J = NO</p>
        ","j","html-keyboard-response","177","2.1.0","480119","F=YES, J=NO","8o7kjqd80t","1","80","85","75","","","","","","","","","rumpsied","stain","pseudoword","pseudoword","j","true","",""
"null","<p style=""font-size: 50px;"">+</p>","null","html-keyboard-response","178","2.1.0","480422","F=YES, J=NO","8o7kjqd80t","1","80","85","75","","","","","","","","","","","","","","","",""
"null","audio/beep-329314.mp3","null","audio-keyboard-response","179","2.1.0","481946","F=YES, J=NO","8o7kjqd80t","1","80","85","75","","","","","","","","","","","","","","","",""
"null","audio/ship.wav","null","audio-keyboard-response","180","2.1.0","482661","F=YES, J=NO","8o7kjqd80t","1","80","85","75","","","","","","","","","","","","","","","",""
"732","
          <p id=""word"" style=""font-size: 40px;"">scrap</p>
          <p style=""font-size: 16px;"">F = YES &nbsp;&nbsp;&nbsp; J = NO</p>
        ","f","html-keyboard-response","181","2.1.0","483394","F=YES, J=NO","8o7kjqd80t","1","80","85","75","","","","","","","","","scrap","ship","literal","experimental","f","true","",""
"null","<p style=""font-size: 50px;"">+</p>","null","html-keyboard-response","182","2.1.0","483710","F=YES, J=NO","8o7kjqd80t","1","80","85","75","","","","","","","","","","","","","","","",""
"null","audio/beep-329314.mp3","null","audio-keyboard-response","183","2.1.0","485232","F=YES, J=NO","8o7kjqd80t","1","80","85","75","","","","","","","","","","","","","","","",""
"null","audio/burden.wav","null","audio-keyboard-response","184","2.1.0","485925","F=YES, J=NO","8o7kjqd80t","1","80","85","75","","","","","","","","","","","","","","","",""
"611","
          <p id=""word"" style=""font-size: 40px;"">whotth</p>
          <p style=""font-size: 16px;"">F = YES &nbsp;&nbsp;&nbsp; J = NO</p>
        ","j","html-keyboard-response","185","2.1.0","486537","F=YES, J=NO","8o7kjqd80t","1","80","85","75","","","","","","","","","whotth","burden","pseudoword","pseudoword","j","true","",""
"null","<p style=""font-size: 50px;"">+</p>","null","html-keyboard-response","186","2.1.0","486846","F=YES, J=NO","8o7kjqd80t","1","80","85","75","","","","","","","","","","","","","","","",""
"null","audio/beep-329314.mp3","null","audio-keyboard-response","187","2.1.0","488368","F=YES, J=NO","8o7kjqd80t","1","80","85","75","","","","","","","","","","","","","","","",""
"null","audio/planet1.wav","null","audio-keyboard-response","188","2.1.0","489019","F=YES, J=NO","8o7kjqd80t","1","80","85","75","","","","","","","","","","","","","","","",""
"428","
          <p id=""word"" style=""font-size: 40px;"">save</p>
          <p style=""font-size: 16px;"">F = YES &nbsp;&nbsp;&nbsp; J = NO</p>
        ","f","html-keyboard-response","189","2.1.0","489448","F=YES, J=NO","8o7kjqd80t","1","80","85","75","","","","","","","","","save","planet1","metaphor","experimental","f","true","",""
"null","<p style=""font-size: 50px;"">+</p>","null","html-keyboard-response","190","2.1.0","489757","F=YES, J=NO","8o7kjqd80t","1","80","85","75","","","","","","","","","","","","","","","",""
"null","audio/beep-329314.mp3","null","audio-keyboard-response","191","2.1.0","491291","F=YES, J=NO","8o7kjqd80t","1","80","85","75","","","","","","","","","","","","","","","",""
"null","audio/fox.wav","null","audio-keyboard-response","192","2.1.0","492261","F=YES, J=NO","8o7kjqd80t","1","80","85","75","","","","","","","","","","","","","","","",""
"602","
          <p id=""word"" style=""font-size: 40px;"">conquer</p>
          <p style=""font-size: 16px;"">F = YES &nbsp;&nbsp;&nbsp; J = NO</p>
        ","f","html-keyboard-response","193","2.1.0","492864","F=YES, J=NO","8o7kjqd80t","1","80","85","75","","","","","","","","","conquer","fox","unrelated","experimental","f","true","",""
"null","<p style=""font-size: 50px;"">+</p>","null","html-keyboard-response","194","2.1.0","493165","F=YES, J=NO","8o7kjqd80t","1","80","85","75","","","","","","","","","","","","","","","",""
"null","audio/beep-329314.mp3","null","audio-keyboard-response","195","2.1.0","494683","F=YES, J=NO","8o7kjqd80t","1","80","85","75","","","","","","","","","","","","","","","",""
"null","audio/hotel1.wav","null","audio-keyboard-response","196","2.1.0","495483","F=YES, J=NO","8o7kjqd80t","1","80","85","75","","","","","","","","","","","","","","","",""
"858","
          <p id=""word"" style=""font-size: 40px;"">flanter</p>
          <p style=""font-size: 16px;"">F = YES &nbsp;&nbsp;&nbsp; J = NO</p>
        ","j","html-keyboard-response","197","2.1.0","496342","F=YES, J=NO","8o7kjqd80t","1","80","85","75","","","","","","","","","flanter","hotel1","pseudoword","pseudoword","j","true","",""
"null","<p style=""font-size: 50px;"">+</p>","null","html-keyboard-response","198","2.1.0","496653","F=YES, J=NO","8o7kjqd80t","1","80","85","75","","","","","","","","","","","","","","","",""
"null","audio/beep-329314.mp3","null","audio-keyboard-response","199","2.1.0","498182","F=YES, J=NO","8o7kjqd80t","1","80","85","75","","","","","","","","","","","","","","","",""
"null","audio/empire.wav","null","audio-keyboard-response","200","2.1.0","498982","F=YES, J=NO","8o7kjqd80t","1","80","85","75","","","","","","","","","","","","","","","",""
"689","
          <p id=""word"" style=""font-size: 40px;"">slorby</p>
          <p style=""font-size: 16px;"">F = YES &nbsp;&nbsp;&nbsp; J = NO</p>
        ","j","html-keyboard-response","201","2.1.0","499671","F=YES, J=NO","8o7kjqd80t","1","80","85","75","","","","","","","","","slorby","empire","pseudoword","pseudoword","j","true","",""
"null","<p style=""font-size: 50px;"">+</p>","null","html-keyboard-response","202","2.1.0","499976","F=YES, J=NO","8o7kjqd80t","1","80","85","75","","","","","","","","","","","","","","","",""
"null","audio/beep-329314.mp3","null","audio-keyboard-response","203","2.1.0","501510","F=YES, J=NO","8o7kjqd80t","1","80","85","75","","","","","","","","","","","","","","","",""
"null","audio/budget1.wav","null","audio-keyboard-response","204","2.1.0","502289","F=YES, J=NO","8o7kjqd80t","1","80","85","75","","","","","","","","","","","","","","","",""
"777","
          <p id=""word"" style=""font-size: 40px;"">sulist</p>
          <p style=""font-size: 16px;"">F = YES &nbsp;&nbsp;&nbsp; J = NO</p>
        ","j","html-keyboard-response","205","2.1.0","503066","F=YES, J=NO","8o7kjqd80t","1","80","85","75","","","","","","","","","sulist","budget1","pseudoword","pseudoword","j","true","",""
"null","<p style=""font-size: 50px;"">+</p>","null","html-keyboard-response","206","2.1.0","503383","F=YES, J=NO","8o7kjqd80t","1","80","85","75","","","","","","","","","","","","","","","",""
"null","audio/beep-329314.mp3","null","audio-keyboard-response","207","2.1.0","504903","F=YES, J=NO","8o7kjqd80t","1","80","85","75","","","","","","","","","","","","","","","",""
"null","audio/bottle.wav","null","audio-keyboard-response","208","2.1.0","505553","F=YES, J=NO","8o7kjqd80t","1","80","85","75","","","","","","","","","","","","","","","",""
"646","
          <p id=""word"" style=""font-size: 40px;"">watch</p>
          <p style=""font-size: 16px;"">F = YES &nbsp;&nbsp;&nbsp; J = NO</p>
        ","f","html-keyboard-response","209","2.1.0","506200","F=YES, J=NO","8o7kjqd80t","1","80","85","75","","","","","","","","","watch","bottle","filler","filler","f","true","",""
"null","<p style=""font-size: 50px;"">+</p>","null","html-keyboard-response","210","2.1.0","506503","F=YES, J=NO","8o7kjqd80t","1","80","85","75","","","","","","","","","","","","","","","",""
"null","audio/beep-329314.mp3","null","audio-keyboard-response","211","2.1.0","508038","F=YES, J=NO","8o7kjqd80t","1","80","85","75","","","","","","","","","","","","","","","",""
"null","audio/hawk1.wav","null","audio-keyboard-response","212","2.1.0","508817","F=YES, J=NO","8o7kjqd80t","1","80","85","75","","","","","","","","","","","","","","","",""
"634","
          <p id=""word"" style=""font-size: 40px;"">wipe</p>
          <p style=""font-size: 16px;"">F = YES &nbsp;&nbsp;&nbsp; J = NO</p>
        ","f","html-keyboard-response","213","2.1.0","509452","F=YES, J=NO","8o7kjqd80t","1","80","85","75","","","","","","","","","wipe","hawk1","unrelated","experimental","f","true","",""
"null","<p style=""font-size: 50px;"">+</p>","null","html-keyboard-response","214","2.1.0","509765","F=YES, J=NO","8o7kjqd80t","1","80","85","75","","","","","","","","","","","","","","","",""
"null","audio/beep-329314.mp3","null","audio-keyboard-response","215","2.1.0","511303","F=YES, J=NO","8o7kjqd80t","1","80","85","75","","","","","","","","","","","","","","","",""
"null","audio/inch1.wav","null","audio-keyboard-response","216","2.1.0","512059","F=YES, J=NO","8o7kjqd80t","1","80","85","75","","","","","","","","","","","","","","","",""
"535","
          <p id=""word"" style=""font-size: 40px;"">lose</p>
          <p style=""font-size: 16px;"">F = YES &nbsp;&nbsp;&nbsp; J = NO</p>
        ","f","html-keyboard-response","217","2.1.0","512595","F=YES, J=NO","8o7kjqd80t","1","80","85","75","","","","","","","","","lose","inch1","metaphor","experimental","f","true","",""
"null","<p style=""font-size: 50px;"">+</p>","null","html-keyboard-response","218","2.1.0","512908","F=YES, J=NO","8o7kjqd80t","1","80","85","75","","","","","","","","","","","","","","","",""
"null","audio/beep-329314.mp3","null","audio-keyboard-response","219","2.1.0","514439","F=YES, J=NO","8o7kjqd80t","1","80","85","75","","","","","","","","","","","","","","","",""
"null","audio/tomato.wav","null","audio-keyboard-response","220","2.1.0","515281","F=YES, J=NO","8o7kjqd80t","1","80","85","75","","","","","","","","","","","","","","","",""
"706","
          <p id=""word"" style=""font-size: 40px;"">gladies</p>
          <p style=""font-size: 16px;"">F = YES &nbsp;&nbsp;&nbsp; J = NO</p>
        ","j","html-keyboard-response","221","2.1.0","515988","F=YES, J=NO","8o7kjqd80t","1","80","85","75","","","","","","","","","gladies","tomato","pseudoword","pseudoword","j","true","",""
"null","<p style=""font-size: 50px;"">+</p>","null","html-keyboard-response","222","2.1.0","516303","F=YES, J=NO","8o7kjqd80t","1","80","85","75","","","","","","","","","","","","","","","",""
"null","audio/beep-329314.mp3","null","audio-keyboard-response","223","2.1.0","517831","F=YES, J=NO","8o7kjqd80t","1","80","85","75","","","","","","","","","","","","","","","",""
"null","audio/hotel1.wav","null","audio-keyboard-response","224","2.1.0","518439","F=YES, J=NO","8o7kjqd80t","1","80","85","75","","","","","","","","","","","","","","","",""
"573","
          <p id=""word"" style=""font-size: 40px;"">spread</p>
          <p style=""font-size: 16px;"">F = YES &nbsp;&nbsp;&nbsp; J = NO</p>
        ","f","html-keyboard-response","225","2.1.0","519012","F=YES, J=NO","8o7kjqd80t","1","80","85","75","","","","","","","","","spread","hotel1","unrelated","experimental","f","true","",""
"null","<p style=""font-size: 50px;"">+</p>","null","html-keyboard-response","226","2.1.0","519327","F=YES, J=NO","8o7kjqd80t","1","80","85","75","","","","","","","","","","","","","","","",""
"null","audio/beep-329314.mp3","null","audio-keyboard-response","227","2.1.0","520860","F=YES, J=NO","8o7kjqd80t","1","80","85","75","","","","","","","","","","","","","","","",""
"null","audio/baby.wav","null","audio-keyboard-response","228","2.1.0","521510","F=YES, J=NO","8o7kjqd80t","1","80","85","75","","","","","","","","","","","","","","","",""
"517","
          <p id=""word"" style=""font-size: 40px;"">lift</p>
          <p style=""font-size: 16px;"">F = YES &nbsp;&nbsp;&nbsp; J = NO</p>
        ","f","html-keyboard-response","229","2.1.0","522028","F=YES, J=NO","8o7kjqd80t","1","80","85","75","","","","","","","","","lift","baby","filler","filler","f","true","",""
"54881","<p>Excellent! You have finished block 1 of 8.</p>
                     <p>Feel free to take a 30 second break.</p>
                     <p>Press any key when you're ready to continue.</p>","ArrowRight","html-keyboard-response","230","2.1.0","576909","F=YES, J=NO","8o7kjqd80t","1","80","85","75","","","","","","","","","","","","","","","",""
"1463","<p>Starting main block 2 of 8. Press any key to continue.</p>","ArrowRight","html-keyboard-response","231","2.1.0","578373","F=YES, J=NO","8o7kjqd80t","1","80","85","75","","","","","","","","","","","","","","","",""
"null","<p style=""font-size: 50px;"">+</p>","null","html-keyboard-response","232","2.1.0","578674","F=YES, J=NO","8o7kjqd80t","1","80","85","75","","","","","","","","","","","","","","","",""
"null","audio/beep-329314.mp3","null","audio-keyboard-response","233","2.1.0","580697","F=YES, J=NO","8o7kjqd80t","1","80","85","75","","","","","","","","","","","","","","","",""
"null","audio/survey1.wav","null","audio-keyboard-response","234","2.1.0","581454","F=YES, J=NO","8o7kjqd80t","1","80","85","75","","","","","","","","","","","","","","","",""
"899","
          <p id=""word"" style=""font-size: 40px;"">imploth</p>
          <p style=""font-size: 16px;"">F = YES &nbsp;&nbsp;&nbsp; J = NO</p>
        ","j","html-keyboard-response","235","2.1.0","582353","F=YES, J=NO","8o7kjqd80t","1","80","85","75","","","","","","","","","imploth","survey1","pseudoword","pseudoword","j","true","",""
"null","<p style=""font-size: 50px;"">+</p>","null","html-keyboard-response","236","2.1.0","582666","F=YES, J=NO","8o7kjqd80t","1","80","85","75","","","","","","","","","","","","","","","",""
"null","audio/beep-329314.mp3","null","audio-keyboard-response","237","2.1.0","584196","F=YES, J=NO","8o7kjqd80t","1","80","85","75","","","","","","","","","","","","","","","",""
"null","audio/holiday1.wav","null","audio-keyboard-response","238","2.1.0","584868","F=YES, J=NO","8o7kjqd80t","1","80","85","75","","","","","","","","","","","","","","","",""
"802","
          <p id=""word"" style=""font-size: 40px;"">drivets</p>
          <p style=""font-size: 16px;"">F = YES &nbsp;&nbsp;&nbsp; J = NO</p>
        ","j","html-keyboard-response","239","2.1.0","585670","F=YES, J=NO","8o7kjqd80t","1","80","85","75","","","","","","","","","drivets","holiday1","pseudoword","pseudoword","j","true","",""
"null","<p style=""font-size: 50px;"">+</p>","null","html-keyboard-response","240","2.1.0","585982","F=YES, J=NO","8o7kjqd80t","1","80","85","75","","","","","","","","","","","","","","","",""
"null","audio/beep-329314.mp3","null","audio-keyboard-response","241","2.1.0","587502","F=YES, J=NO","8o7kjqd80t","1","80","85","75","","","","","","","","","","","","","","","",""
"null","audio/menu.wav","null","audio-keyboard-response","242","2.1.0","588260","F=YES, J=NO","8o7kjqd80t","1","80","85","75","","","","","","","","","","","","","","","",""
"601","
          <p id=""word"" style=""font-size: 40px;"">slice</p>
          <p style=""font-size: 16px;"">F = YES &nbsp;&nbsp;&nbsp; J = NO</p>
        ","f","html-keyboard-response","243","2.1.0","588861","F=YES, J=NO","8o7kjqd80t","1","80","85","75","","","","","","","","","slice","menu","filler","filler","f","true","",""
"null","<p style=""font-size: 50px;"">+</p>","null","html-keyboard-response","244","2.1.0","589168","F=YES, J=NO","8o7kjqd80t","1","80","85","75","","","","","","","","","","","","","","","",""
"null","audio/beep-329314.mp3","null","audio-keyboard-response","245","2.1.0","590702","F=YES, J=NO","8o7kjqd80t","1","80","85","75","","","","","","","","","","","","","","","",""
"null","audio/menu.wav","null","audio-keyboard-response","246","2.1.0","591268","F=YES, J=NO","8o7kjqd80t","1","80","85","75","","","","","","","","","","","","","","","",""
"785","
          <p id=""word"" style=""font-size: 40px;"">navigate</p>
          <p style=""font-size: 16px;"">F = YES &nbsp;&nbsp;&nbsp; J = NO</p>
        ","f","html-keyboard-response","247","2.1.0","592053","F=YES, J=NO","8o7kjqd80t","1","80","85","75","","","","","","","","","navigate","menu","metaphor","experimental","f","true","",""
"null","<p style=""font-size: 50px;"">+</p>","null","html-keyboard-response","248","2.1.0","592368","F=YES, J=NO","8o7kjqd80t","1","80","85","75","","","","","","","","","","","","","","","",""
"null","audio/beep-329314.mp3","null","audio-keyboard-response","249","2.1.0","593902","F=YES, J=NO","8o7kjqd80t","1","80","85","75","","","","","","","","","","","","","","","",""
"null","audio/life1.wav","null","audio-keyboard-response","250","2.1.0","594510","F=YES, J=NO","8o7kjqd80t","1","80","85","75","","","","","","","","","","","","","","","",""
"780","
          <p id=""word"" style=""font-size: 40px;"">flimch</p>
          <p style=""font-size: 16px;"">F = YES &nbsp;&nbsp;&nbsp; J = NO</p>
        ","j","html-keyboard-response","251","2.1.0","595291","F=YES, J=NO","8o7kjqd80t","1","80","85","75","","","","","","","","","flimch","life1","pseudoword","pseudoword","j","true","",""
"null","<p style=""font-size: 50px;"">+</p>","null","html-keyboard-response","252","2.1.0","595604","F=YES, J=NO","8o7kjqd80t","1","80","85","75","","","","","","","","","","","","","","","",""
"null","audio/beep-329314.mp3","null","audio-keyboard-response","253","2.1.0","597124","F=YES, J=NO","8o7kjqd80t","1","80","85","75","","","","","","","","","","","","","","","",""
"null","audio/haste1.wav","null","audio-keyboard-response","254","2.1.0","597860","F=YES, J=NO","8o7kjqd80t","1","80","85","75","","","","","","","","","","","","","","","",""
"726","
          <p id=""word"" style=""font-size: 40px;"">coraconate</p>
          <p style=""font-size: 16px;"">F = YES &nbsp;&nbsp;&nbsp; J = NO</p>
        ","j","html-keyboard-response","255","2.1.0","598586","F=YES, J=NO","8o7kjqd80t","1","80","85","75","","","","","","","","","coraconate","haste1","pseudoword","pseudoword","j","true","",""
"null","<p style=""font-size: 50px;"">+</p>","null","html-keyboard-response","256","2.1.0","598894","F=YES, J=NO","8o7kjqd80t","1","80","85","75","","","","","","","","","","","","","","","",""
"null","audio/beep-329314.mp3","null","audio-keyboard-response","257","2.1.0","600431","F=YES, J=NO","8o7kjqd80t","1","80","85","75","","","","","","","","","","","","","","","",""
"null","audio/winter.wav","null","audio-keyboard-response","258","2.1.0","601060","F=YES, J=NO","8o7kjqd80t","1","80","85","75","","","","","","","","","","","","","","","",""
"575","
          <p id=""word"" style=""font-size: 40px;"">expose</p>
          <p style=""font-size: 16px;"">F = YES &nbsp;&nbsp;&nbsp; J = NO</p>
        ","f","html-keyboard-response","259","2.1.0","601635","F=YES, J=NO","8o7kjqd80t","1","80","85","75","","","","","","","","","expose","winter","unrelated","experimental","f","true","",""
"null","<p style=""font-size: 50px;"">+</p>","null","html-keyboard-response","260","2.1.0","601951","F=YES, J=NO","8o7kjqd80t","1","80","85","75","","","","","","","","","","","","","","","",""
"null","audio/beep-329314.mp3","null","audio-keyboard-response","261","2.1.0","603481","F=YES, J=NO","8o7kjqd80t","1","80","85","75","","","","","","","","","","","","","","","",""
"null","audio/effort.wav","null","audio-keyboard-response","262","2.1.0","604111","F=YES, J=NO","8o7kjqd80t","1","80","85","75","","","","","","","","","","","","","","","",""
"699","
          <p id=""word"" style=""font-size: 40px;"">whonk</p>
          <p style=""font-size: 16px;"">F = YES &nbsp;&nbsp;&nbsp; J = NO</p>
        ","j","html-keyboard-response","263","2.1.0","604811","F=YES, J=NO","8o7kjqd80t","1","80","85","75","","","","","","","","","whonk","effort","pseudoword","pseudoword","j","true","",""
"null","<p style=""font-size: 50px;"">+</p>","null","html-keyboard-response","264","2.1.0","605118","F=YES, J=NO","8o7kjqd80t","1","80","85","75","","","","","","","","","","","","","","","",""
"null","audio/beep-329314.mp3","null","audio-keyboard-response","265","2.1.0","606639","F=YES, J=NO","8o7kjqd80t","1","80","85","75","","","","","","","","","","","","","","","",""
"null","audio/pattern.wav","null","audio-keyboard-response","266","2.1.0","607204","F=YES, J=NO","8o7kjqd80t","1","80","85","75","","","","","","","","","","","","","","","",""
"524","
          <p id=""word"" style=""font-size: 40px;"">tug</p>
          <p style=""font-size: 16px;"">F = YES &nbsp;&nbsp;&nbsp; J = NO</p>
        ","f","html-keyboard-response","267","2.1.0","607728","F=YES, J=NO","8o7kjqd80t","1","80","85","75","","","","","","","","","tug","pattern","filler","filler","f","true","",""
"null","<p style=""font-size: 50px;"">+</p>","null","html-keyboard-response","268","2.1.0","608045","F=YES, J=NO","8o7kjqd80t","1","80","85","75","","","","","","","","","","","","","","","",""
"null","audio/beep-329314.mp3","null","audio-keyboard-response","269","2.1.0","609562","F=YES, J=NO","8o7kjqd80t","1","80","85","75","","","","","","","","","","","","","","","",""
"null","audio/milk.wav","null","audio-keyboard-response","270","2.1.0","610319","F=YES, J=NO","8o7kjqd80t","1","80","85","75","","","","","","","","","","","","","","","",""
"609","
          <p id=""word"" style=""font-size: 40px;"">digest</p>
          <p style=""font-size: 16px;"">F = YES &nbsp;&nbsp;&nbsp; J = NO</p>
        ","f","html-keyboard-response","271","2.1.0","610928","F=YES, J=NO","8o7kjqd80t","1","80","85","75","","","","","","","","","digest","milk","literal","experimental","f","true","",""
"null","<p style=""font-size: 50px;"">+</p>","null","html-keyboard-response","272","2.1.0","611232","F=YES, J=NO","8o7kjqd80t","1","80","85","75","","","","","","","","","","","","","","","",""
"null","audio/beep-329314.mp3","null","audio-keyboard-response","273","2.1.0","612762","F=YES, J=NO","8o7kjqd80t","1","80","85","75","","","","","","","","","","","","","","","",""
"null","audio/age1.wav","null","audio-keyboard-response","274","2.1.0","613306","F=YES, J=NO","8o7kjqd80t","1","80","85","75","","","","","","","","","","","","","","","",""
"951","
          <p id=""word"" style=""font-size: 40px;"">seize</p>
          <p style=""font-size: 16px;"">F = YES &nbsp;&nbsp;&nbsp; J = NO</p>
        ","f","html-keyboard-response","275","2.1.0","614257","F=YES, J=NO","8o7kjqd80t","1","80","85","75","","","","","","","","","seize","age1","unrelated","experimental","f","true","",""
"null","<p style=""font-size: 50px;"">+</p>","null","html-keyboard-response","276","2.1.0","614564","F=YES, J=NO","8o7kjqd80t","1","80","85","75","","","","","","","","","","","","","","","",""
"null","audio/beep-329314.mp3","null","audio-keyboard-response","277","2.1.0","616090","F=YES, J=NO","8o7kjqd80t","1","80","85","75","","","","","","","","","","","","","","","",""
"null","audio/life1.wav","null","audio-keyboard-response","278","2.1.0","616634","F=YES, J=NO","8o7kjqd80t","1","80","85","75","","","","","","","","","","","","","","","",""
"512","
          <p id=""word"" style=""font-size: 40px;"">give</p>
          <p style=""font-size: 16px;"">F = YES &nbsp;&nbsp;&nbsp; J = NO</p>
        ","f","html-keyboard-response","279","2.1.0","617146","F=YES, J=NO","8o7kjqd80t","1","80","85","75","","","","","","","","","give","life1","metaphor","experimental","f","true","",""
"null","<p style=""font-size: 50px;"">+</p>","null","html-keyboard-response","280","2.1.0","617452","F=YES, J=NO","8o7kjqd80t","1","80","85","75","","","","","","","","","","","","","","","",""
"null","audio/beep-329314.mp3","null","audio-keyboard-response","281","2.1.0","618970","F=YES, J=NO","8o7kjqd80t","1","80","85","75","","","","","","","","","","","","","","","",""
"null","audio/vehicle1.wav","null","audio-keyboard-response","282","2.1.0","619663","F=YES, J=NO","8o7kjqd80t","1","80","85","75","","","","","","","","","","","","","","","",""
"889","
          <p id=""word"" style=""font-size: 40px;"">dropt</p>
          <p style=""font-size: 16px;"">F = YES &nbsp;&nbsp;&nbsp; J = NO</p>
        ","j","html-keyboard-response","283","2.1.0","620553","F=YES, J=NO","8o7kjqd80t","1","80","85","75","","","","","","","","","dropt","vehicle1","pseudoword","pseudoword","j","true","",""
"null","<p style=""font-size: 50px;"">+</p>","null","html-keyboard-response","284","2.1.0","620865","F=YES, J=NO","8o7kjqd80t","1","80","85","75","","","","","","","","","","","","","","","",""
"null","audio/beep-329314.mp3","null","audio-keyboard-response","285","2.1.0","622384","F=YES, J=NO","8o7kjqd80t","1","80","85","75","","","","","","","","","","","","","","","",""
"null","audio/plot1.wav","null","audio-keyboard-response","286","2.1.0","622970","F=YES, J=NO","8o7kjqd80t","1","80","85","75","","","","","","","","","","","","","","","",""
"681","
          <p id=""word"" style=""font-size: 40px;"">glenter</p>
          <p style=""font-size: 16px;"">F = YES &nbsp;&nbsp;&nbsp; J = NO</p>
        ","j","html-keyboard-response","287","2.1.0","623651","F=YES, J=NO","8o7kjqd80t","1","80","85","75","","","","","","","","","glenter","plot1","pseudoword","pseudoword","j","true","",""
"null","<p style=""font-size: 50px;"">+</p>","null","html-keyboard-response","288","2.1.0","623957","F=YES, J=NO","8o7kjqd80t","1","80","85","75","","","","","","","","","","","","","","","",""
"null","audio/beep-329314.mp3","null","audio-keyboard-response","289","2.1.0","625477","F=YES, J=NO","8o7kjqd80t","1","80","85","75","","","","","","","","","","","","","","","",""
"null","audio/neck.wav","null","audio-keyboard-response","290","2.1.0","626085","F=YES, J=NO","8o7kjqd80t","1","80","85","75","","","","","","","","","","","","","","","",""
"755","
          <p id=""word"" style=""font-size: 40px;"">werling</p>
          <p style=""font-size: 16px;"">F = YES &nbsp;&nbsp;&nbsp; J = NO</p>
        ","j","html-keyboard-response","291","2.1.0","626841","F=YES, J=NO","8o7kjqd80t","1","80","85","75","","","","","","","","","werling","neck","pseudoword","pseudoword","j","true","",""
"null","<p style=""font-size: 50px;"">+</p>","null","html-keyboard-response","292","2.1.0","627144","F=YES, J=NO","8o7kjqd80t","1","80","85","75","","","","","","","","","","","","","","","",""
"null","audio/beep-329314.mp3","null","audio-keyboard-response","293","2.1.0","628676","F=YES, J=NO","8o7kjqd80t","1","80","85","75","","","","","","","","","","","","","","","",""
"null","audio/voice.wav","null","audio-keyboard-response","294","2.1.0","629328","F=YES, J=NO","8o7kjqd80t","1","80","85","75","","","","","","","","","","","","","","","",""
"763","
          <p id=""word"" style=""font-size: 40px;"">grintle</p>
          <p style=""font-size: 16px;"">F = YES &nbsp;&nbsp;&nbsp; J = NO</p>
        ","j","html-keyboard-response","295","2.1.0","630092","F=YES, J=NO","8o7kjqd80t","1","80","85","75","","","","","","","","","grintle","voice","pseudoword","pseudoword","j","true","",""
"78853","<p>Excellent! You have finished block 2 of 8.</p>
                     <p>Feel free to take a 30 second break.</p>
                     <p>Press any key when you're ready to continue.</p>","ArrowRight","html-keyboard-response","296","2.1.0","708945","F=YES, J=NO","8o7kjqd80t","1","80","85","75","","","","","","","","","","","","","","","",""
"2944","<p>Starting main block 3 of 8. Press any key to continue.</p>","ArrowRight","html-keyboard-response","297","2.1.0","711890","F=YES, J=NO","8o7kjqd80t","1","80","85","75","","","","","","","","","","","","","","","",""
"null","<p style=""font-size: 50px;"">+</p>","null","html-keyboard-response","298","2.1.0","712191","F=YES, J=NO","8o7kjqd80t","1","80","85","75","","","","","","","","","","","","","","","",""
"null","audio/beep-329314.mp3","null","audio-keyboard-response","299","2.1.0","714214","F=YES, J=NO","8o7kjqd80t","1","80","85","75","","","","","","","","","","","","","","","",""
"null","audio/battle1.wav","null","audio-keyboard-response","300","2.1.0","714822","F=YES, J=NO","8o7kjqd80t","1","80","85","75","","","","","","","","","","","","","","","",""
"605","
          <p id=""word"" style=""font-size: 40px;"">fight</p>
          <p style=""font-size: 16px;"">F = YES &nbsp;&nbsp;&nbsp; J = NO</p>
        ","f","html-keyboard-response","301","2.1.0","715428","F=YES, J=NO","8o7kjqd80t","1","80","85","75","","","","","","","","","fight","battle1","literal","experimental","f","true","",""
"null","<p style=""font-size: 50px;"">+</p>","null","html-keyboard-response","302","2.1.0","715738","F=YES, J=NO","8o7kjqd80t","1","80","85","75","","","","","","","","","","","","","","","",""
"null","audio/beep-329314.mp3","null","audio-keyboard-response","303","2.1.0","717264","F=YES, J=NO","8o7kjqd80t","1","80","85","75","","","","","","","","","","","","","","","",""
"null","audio/arm.wav","null","audio-keyboard-response","304","2.1.0","717979","F=YES, J=NO","8o7kjqd80t","1","80","85","75","","","","","","","","","","","","","","","",""
"623","
          <p id=""word"" style=""font-size: 40px;"">pigne</p>
          <p style=""font-size: 16px;"">F = YES &nbsp;&nbsp;&nbsp; J = NO</p>
        ","j","html-keyboard-response","305","2.1.0","718603","F=YES, J=NO","8o7kjqd80t","1","80","85","75","","","","","","","","","pigne","arm","pseudoword","pseudoword","j","true","",""
"null","<p style=""font-size: 50px;"">+</p>","null","html-keyboard-response","306","2.1.0","718914","F=YES, J=NO","8o7kjqd80t","1","80","85","75","","","","","","","","","","","","","","","",""
"null","audio/beep-329314.mp3","null","audio-keyboard-response","307","2.1.0","720443","F=YES, J=NO","8o7kjqd80t","1","80","85","75","","","","","","","","","","","","","","","",""
"null","audio/window1.wav","null","audio-keyboard-response","308","2.1.0","721051","F=YES, J=NO","8o7kjqd80t","1","80","85","75","","","","","","","","","","","","","","","",""
"540","
          <p id=""word"" style=""font-size: 40px;"">break</p>
          <p style=""font-size: 16px;"">F = YES &nbsp;&nbsp;&nbsp; J = NO</p>
        ","f","html-keyboard-response","309","2.1.0","721592","F=YES, J=NO","8o7kjqd80t","1","80","85","75","","","","","","","","","break","window1","literal","experimental","f","true","",""
"null","<p style=""font-size: 50px;"">+</p>","null","html-keyboard-response","310","2.1.0","721907","F=YES, J=NO","8o7kjqd80t","1","80","85","75","","","","","","","","","","","","","","","",""
"null","audio/beep-329314.mp3","null","audio-keyboard-response","311","2.1.0","723430","F=YES, J=NO","8o7kjqd80t","1","80","85","75","","","","","","","","","","","","","","","",""
"null","audio/hawk1.wav","null","audio-keyboard-response","312","2.1.0","724016","F=YES, J=NO","8o7kjqd80t","1","80","85","75","","","","","","","","","","","","","","","",""
"603","
          <p id=""word"" style=""font-size: 40px;"">ostach</p>
          <p style=""font-size: 16px;"">F = YES &nbsp;&nbsp;&nbsp; J = NO</p>
        ","j","html-keyboard-response","313","2.1.0","724620","F=YES, J=NO","8o7kjqd80t","1","80","85","75","","","","","","","","","ostach","hawk1","pseudoword","pseudoword","j","true","",""
"null","<p style=""font-size: 50px;"">+</p>","null","html-keyboard-response","314","2.1.0","724925","F=YES, J=NO","8o7kjqd80t","1","80","85","75","","","","","","","","","","","","","","","",""
"null","audio/beep-329314.mp3","null","audio-keyboard-response","315","2.1.0","726459","F=YES, J=NO","8o7kjqd80t","1","80","85","75","","","","","","","","","","","","","","","",""
"null","audio/client1.wav","null","audio-keyboard-response","316","2.1.0","727302","F=YES, J=NO","8o7kjqd80t","1","80","85","75","","","","","","","","","","","","","","","",""
"665","
          <p id=""word"" style=""font-size: 40px;"">droothe</p>
          <p style=""font-size: 16px;"">F = YES &nbsp;&nbsp;&nbsp; J = NO</p>
        ","j","html-keyboard-response","317","2.1.0","727968","F=YES, J=NO","8o7kjqd80t","1","80","85","75","","","","","","","","","droothe","client1","pseudoword","pseudoword","j","true","",""
"null","<p style=""font-size: 50px;"">+</p>","null","html-keyboard-response","318","2.1.0","728282","F=YES, J=NO","8o7kjqd80t","1","80","85","75","","","","","","","","","","","","","","","",""
"null","audio/beep-329314.mp3","null","audio-keyboard-response","319","2.1.0","729809","F=YES, J=NO","8o7kjqd80t","1","80","85","75","","","","","","","","","","","","","","","",""
"null","audio/floor.wav","null","audio-keyboard-response","320","2.1.0","730438","F=YES, J=NO","8o7kjqd80t","1","80","85","75","","","","","","","","","","","","","","","",""
"495","
          <p id=""word"" style=""font-size: 40px;"">cover</p>
          <p style=""font-size: 16px;"">F = YES &nbsp;&nbsp;&nbsp; J = NO</p>
        ","f","html-keyboard-response","321","2.1.0","730934","F=YES, J=NO","8o7kjqd80t","1","80","85","75","","","","","","","","","cover","floor","literal","experimental","f","true","",""
"null","<p style=""font-size: 50px;"">+</p>","null","html-keyboard-response","322","2.1.0","731242","F=YES, J=NO","8o7kjqd80t","1","80","85","75","","","","","","","","","","","","","","","",""
"null","audio/beep-329314.mp3","null","audio-keyboard-response","323","2.1.0","732774","F=YES, J=NO","8o7kjqd80t","1","80","85","75","","","","","","","","","","","","","","","",""
"null","audio/bush1.wav","null","audio-keyboard-response","324","2.1.0","733424","F=YES, J=NO","8o7kjqd80t","1","80","85","75","","","","","","","","","","","","","","","",""
"615","
          <p id=""word"" style=""font-size: 40px;"">platined</p>
          <p style=""font-size: 16px;"">F = YES &nbsp;&nbsp;&nbsp; J = NO</p>
        ","j","html-keyboard-response","325","2.1.0","734040","F=YES, J=NO","8o7kjqd80t","1","80","85","75","","","","","","","","","platined","bush1","pseudoword","pseudoword","j","true","",""
"null","<p style=""font-size: 50px;"">+</p>","null","html-keyboard-response","326","2.1.0","734346","F=YES, J=NO","8o7kjqd80t","1","80","85","75","","","","","","","","","","","","","","","",""
"null","audio/beep-329314.mp3","null","audio-keyboard-response","327","2.1.0","735867","F=YES, J=NO","8o7kjqd80t","1","80","85","75","","","","","","","","","","","","","","","",""
"null","audio/wool1.wav","null","audio-keyboard-response","328","2.1.0","736219","F=YES, J=NO","8o7kjqd80t","1","80","85","75","","","","","","","","","","","","","","","",""
"619","
          <p id=""word"" style=""font-size: 40px;"">weave</p>
          <p style=""font-size: 16px;"">F = YES &nbsp;&nbsp;&nbsp; J = NO</p>
        ","f","html-keyboard-response","329","2.1.0","736839","F=YES, J=NO","8o7kjqd80t","1","80","85","75","","","","","","","","","weave","wool1","literal","experimental","f","true","",""
"null","<p style=""font-size: 50px;"">+</p>","null","html-keyboard-response","330","2.1.0","737153","F=YES, J=NO","8o7kjqd80t","1","80","85","75","","","","","","","","","","","","","","","",""
"null","audio/beep-329314.mp3","null","audio-keyboard-response","331","2.1.0","738683","F=YES, J=NO","8o7kjqd80t","1","80","85","75","","","","","","","","","","","","","","","",""
"null","audio/roof1.wav","null","audio-keyboard-response","332","2.1.0","739270","F=YES, J=NO","8o7kjqd80t","1","80","85","75","","","","","","","","","","","","","","","",""
"662","
          <p id=""word"" style=""font-size: 40px;"">wronb</p>
          <p style=""font-size: 16px;"">F = YES &nbsp;&nbsp;&nbsp; J = NO</p>
        ","j","html-keyboard-response","333","2.1.0","739933","F=YES, J=NO","8o7kjqd80t","1","80","85","75","","","","","","","","","wronb","roof1","pseudoword","pseudoword","j","true","",""
"null","<p style=""font-size: 50px;"">+</p>","null","html-keyboard-response","334","2.1.0","740238","F=YES, J=NO","8o7kjqd80t","1","80","85","75","","","","","","","","","","","","","","","",""
"null","audio/beep-329314.mp3","null","audio-keyboard-response","335","2.1.0","741755","F=YES, J=NO","8o7kjqd80t","1","80","85","75","","","","","","","","","","","","","","","",""
"null","audio/novel.wav","null","audio-keyboard-response","336","2.1.0","742299","F=YES, J=NO","8o7kjqd80t","1","80","85","75","","","","","","","","","","","","","","","",""
"579","
          <p id=""word"" style=""font-size: 40px;"">devour</p>
          <p style=""font-size: 16px;"">F = YES &nbsp;&nbsp;&nbsp; J = NO</p>
        ","f","html-keyboard-response","337","2.1.0","742879","F=YES, J=NO","8o7kjqd80t","1","80","85","75","","","","","","","","","devour","novel","metaphor","experimental","f","true","",""
"null","<p style=""font-size: 50px;"">+</p>","null","html-keyboard-response","338","2.1.0","743193","F=YES, J=NO","8o7kjqd80t","1","80","85","75","","","","","","","","","","","","","","","",""
"null","audio/beep-329314.mp3","null","audio-keyboard-response","339","2.1.0","744721","F=YES, J=NO","8o7kjqd80t","1","80","85","75","","","","","","","","","","","","","","","",""
"null","audio/trust.wav","null","audio-keyboard-response","340","2.1.0","745329","F=YES, J=NO","8o7kjqd80t","1","80","85","75","","","","","","","","","","","","","","","",""
"520","
          <p id=""word"" style=""font-size: 40px;"">build</p>
          <p style=""font-size: 16px;"">F = YES &nbsp;&nbsp;&nbsp; J = NO</p>
        ","f","html-keyboard-response","341","2.1.0","745850","F=YES, J=NO","8o7kjqd80t","1","80","85","75","","","","","","","","","build","trust","metaphor","experimental","f","true","",""
"null","<p style=""font-size: 50px;"">+</p>","null","html-keyboard-response","342","2.1.0","746159","F=YES, J=NO","8o7kjqd80t","1","80","85","75","","","","","","","","","","","","","","","",""
"null","audio/beep-329314.mp3","null","audio-keyboard-response","343","2.1.0","747687","F=YES, J=NO","8o7kjqd80t","1","80","85","75","","","","","","","","","","","","","","","",""
"null","audio/pattern.wav","null","audio-keyboard-response","344","2.1.0","748187","F=YES, J=NO","8o7kjqd80t","1","80","85","75","","","","","","","","","","","","","","","",""
"589","
          <p id=""word"" style=""font-size: 40px;"">defeat</p>
          <p style=""font-size: 16px;"">F = YES &nbsp;&nbsp;&nbsp; J = NO</p>
        ","f","html-keyboard-response","345","2.1.0","748777","F=YES, J=NO","8o7kjqd80t","1","80","85","75","","","","","","","","","defeat","pattern","unrelated","experimental","f","true","",""
"null","<p style=""font-size: 50px;"">+</p>","null","html-keyboard-response","346","2.1.0","749086","F=YES, J=NO","8o7kjqd80t","1","80","85","75","","","","","","","","","","","","","","","",""
"null","audio/beep-329314.mp3","null","audio-keyboard-response","347","2.1.0","750609","F=YES, J=NO","8o7kjqd80t","1","80","85","75","","","","","","","","","","","","","","","",""
"null","audio/table1.wav","null","audio-keyboard-response","348","2.1.0","751153","F=YES, J=NO","8o7kjqd80t","1","80","85","75","","","","","","","","","","","","","","","",""
"549","
          <p id=""word"" style=""font-size: 40px;"">clear</p>
          <p style=""font-size: 16px;"">F = YES &nbsp;&nbsp;&nbsp; J = NO</p>
        ","f","html-keyboard-response","349","2.1.0","751703","F=YES, J=NO","8o7kjqd80t","1","80","85","75","","","","","","","","","clear","table1","literal","experimental","f","true","",""
"null","<p style=""font-size: 50px;"">+</p>","null","html-keyboard-response","350","2.1.0","752003","F=YES, J=NO","8o7kjqd80t","1","80","85","75","","","","","","","","","","","","","","","",""
"null","audio/beep-329314.mp3","null","audio-keyboard-response","351","2.1.0","753532","F=YES, J=NO","8o7kjqd80t","1","80","85","75","","","","","","","","","","","","","","","",""
"null","audio/road.wav","null","audio-keyboard-response","352","2.1.0","753947","F=YES, J=NO","8o7kjqd80t","1","80","85","75","","","","","","","","","","","","","","","",""
"444","
          <p id=""word"" style=""font-size: 40px;"">flood</p>
          <p style=""font-size: 16px;"">F = YES &nbsp;&nbsp;&nbsp; J = NO</p>
        ","f","html-keyboard-response","353","2.1.0","754392","F=YES, J=NO","8o7kjqd80t","1","80","85","75","","","","","","","","","flood","road","literal","experimental","f","true","",""
"null","<p style=""font-size: 50px;"">+</p>","null","html-keyboard-response","354","2.1.0","754696","F=YES, J=NO","8o7kjqd80t","1","80","85","75","","","","","","","","","","","","","","","",""
"null","audio/beep-329314.mp3","null","audio-keyboard-response","355","2.1.0","756220","F=YES, J=NO","8o7kjqd80t","1","80","85","75","","","","","","","","","","","","","","","",""
"null","audio/show.wav","null","audio-keyboard-response","356","2.1.0","756934","F=YES, J=NO","8o7kjqd80t","1","80","85","75","","","","","","","","","","","","","","","",""
"711","
          <p id=""word"" style=""font-size: 40px;"">smark</p>
          <p style=""font-size: 16px;"">F = YES &nbsp;&nbsp;&nbsp; J = NO</p>
        ","j","html-keyboard-response","357","2.1.0","757646","F=YES, J=NO","8o7kjqd80t","1","80","85","75","","","","","","","","","smark","show","pseudoword","pseudoword","j","true","",""
"null","<p style=""font-size: 50px;"">+</p>","null","html-keyboard-response","358","2.1.0","757957","F=YES, J=NO","8o7kjqd80t","1","80","85","75","","","","","","","","","","","","","","","",""
"null","audio/beep-329314.mp3","null","audio-keyboard-response","359","2.1.0","759484","F=YES, J=NO","8o7kjqd80t","1","80","85","75","","","","","","","","","","","","","","","",""
"null","audio/case1.wav","null","audio-keyboard-response","360","2.1.0","760198","F=YES, J=NO","8o7kjqd80t","1","80","85","75","","","","","","","","","","","","","","","",""
"668","
          <p id=""word"" style=""font-size: 40px;"">close</p>
          <p style=""font-size: 16px;"">F = YES &nbsp;&nbsp;&nbsp; J = NO</p>
        ","f","html-keyboard-response","361","2.1.0","760867","F=YES, J=NO","8o7kjqd80t","1","80","85","75","","","","","","","","","close","case1","metaphor","experimental","f","true","",""
"23416","<p>Excellent! You have finished block 3 of 8.</p>
                     <p>Feel free to take a 30 second break.</p>
                     <p>Press any key when you're ready to continue.</p>","ArrowRight","html-keyboard-response","362","2.1.0","784284","F=YES, J=NO","8o7kjqd80t","1","80","85","75","","","","","","","","","","","","","","","",""
"1367","<p>Starting main block 4 of 8. Press any key to continue.</p>","ArrowRight","html-keyboard-response","363","2.1.0","785652","F=YES, J=NO","8o7kjqd80t","1","80","85","75","","","","","","","","","","","","","","","",""
"null","<p style=""font-size: 50px;"">+</p>","null","html-keyboard-response","364","2.1.0","785961","F=YES, J=NO","8o7kjqd80t","1","80","85","75","","","","","","","","","","","","","","","",""
"null","audio/beep-329314.mp3","null","audio-keyboard-response","365","2.1.0","787987","F=YES, J=NO","8o7kjqd80t","1","80","85","75","","","","","","","","","","","","","","","",""
"null","audio/floor.wav","null","audio-keyboard-response","366","2.1.0","788520","F=YES, J=NO","8o7kjqd80t","1","80","85","75","","","","","","","","","","","","","","","",""
"687","
          <p id=""word"" style=""font-size: 40px;"">mop</p>
          <p style=""font-size: 16px;"">F = YES &nbsp;&nbsp;&nbsp; J = NO</p>
        ","f","html-keyboard-response","367","2.1.0","789208","F=YES, J=NO","8o7kjqd80t","1","80","85","75","","","","","","","","","mop","floor","filler","filler","f","true","",""
"null","<p style=""font-size: 50px;"">+</p>","null","html-keyboard-response","368","2.1.0","789520","F=YES, J=NO","8o7kjqd80t","1","80","85","75","","","","","","","","","","","","","","","",""
"null","audio/beep-329314.mp3","null","audio-keyboard-response","369","2.1.0","791038","F=YES, J=NO","8o7kjqd80t","1","80","85","75","","","","","","","","","","","","","","","",""
"null","audio/prisoner.wav","null","audio-keyboard-response","370","2.1.0","791592","F=YES, J=NO","8o7kjqd80t","1","80","85","75","","","","","","","","","","","","","","","",""
"598","
          <p id=""word"" style=""font-size: 40px;"">egotian</p>
          <p style=""font-size: 16px;"">F = YES &nbsp;&nbsp;&nbsp; J = NO</p>
        ","j","html-keyboard-response","371","2.1.0","792191","F=YES, J=NO","8o7kjqd80t","1","80","85","75","","","","","","","","","egotian","prisoner","pseudoword","pseudoword","j","true","",""
"null","<p style=""font-size: 50px;"">+</p>","null","html-keyboard-response","372","2.1.0","792499","F=YES, J=NO","8o7kjqd80t","1","80","85","75","","","","","","","","","","","","","","","",""
"null","audio/beep-329314.mp3","null","audio-keyboard-response","373","2.1.0","794024","F=YES, J=NO","8o7kjqd80t","1","80","85","75","","","","","","","","","","","","","","","",""
"null","audio/van1.wav","null","audio-keyboard-response","374","2.1.0","794515","F=YES, J=NO","8o7kjqd80t","1","80","85","75","","","","","","","","","","","","","","","",""
"481","
          <p id=""word"" style=""font-size: 40px;"">support</p>
          <p style=""font-size: 16px;"">F = YES &nbsp;&nbsp;&nbsp; J = NO</p>
        ","f","html-keyboard-response","375","2.1.0","794996","F=YES, J=NO","8o7kjqd80t","1","80","85","75","","","","","","","","","support","van1","unrelated","experimental","f","true","",""
"null","<p style=""font-size: 50px;"">+</p>","null","html-keyboard-response","376","2.1.0","795304","F=YES, J=NO","8o7kjqd80t","1","80","85","75","","","","","","","","","","","","","","","",""
"null","audio/beep-329314.mp3","null","audio-keyboard-response","377","2.1.0","796841","F=YES, J=NO","8o7kjqd80t","1","80","85","75","","","","","","","","","","","","","","","",""
"null","audio/prisoner.wav","null","audio-keyboard-response","378","2.1.0","797331","F=YES, J=NO","8o7kjqd80t","1","80","85","75","","","","","","","","","","","","","","","",""
"671","
          <p id=""word"" style=""font-size: 40px;"">release</p>
          <p style=""font-size: 16px;"">F = YES &nbsp;&nbsp;&nbsp; J = NO</p>
        ","f","html-keyboard-response","379","2.1.0","798003","F=YES, J=NO","8o7kjqd80t","1","80","85","75","","","","","","","","","release","prisoner","literal","experimental","f","true","",""
"null","<p style=""font-size: 50px;"">+</p>","null","html-keyboard-response","380","2.1.0","798312","F=YES, J=NO","8o7kjqd80t","1","80","85","75","","","","","","","","","","","","","","","",""
"null","audio/beep-329314.mp3","null","audio-keyboard-response","381","2.1.0","799849","F=YES, J=NO","8o7kjqd80t","1","80","85","75","","","","","","","","","","","","","","","",""
"null","audio/cloud1.wav","null","audio-keyboard-response","382","2.1.0","800446","F=YES, J=NO","8o7kjqd80t","1","80","85","75","","","","","","","","","","","","","","","",""
"632","
          <p id=""word"" style=""font-size: 40px;"">brotant</p>
          <p style=""font-size: 16px;"">F = YES &nbsp;&nbsp;&nbsp; J = NO</p>
        ","j","html-keyboard-response","383","2.1.0","801079","F=YES, J=NO","8o7kjqd80t","1","80","85","75","","","","","","","","","brotant","cloud1","pseudoword","pseudoword","j","true","",""
"null","<p style=""font-size: 50px;"">+</p>","null","html-keyboard-response","384","2.1.0","801383","F=YES, J=NO","8o7kjqd80t","1","80","85","75","","","","","","","","","","","","","","","",""
"null","audio/beep-329314.mp3","null","audio-keyboard-response","385","2.1.0","802921","F=YES, J=NO","8o7kjqd80t","1","80","85","75","","","","","","","","","","","","","","","",""
"null","audio/foe1.wav","null","audio-keyboard-response","386","2.1.0","803625","F=YES, J=NO","8o7kjqd80t","1","80","85","75","","","","","","","","","","","","","","","",""
"666","
          <p id=""word"" style=""font-size: 40px;"">creth</p>
          <p style=""font-size: 16px;"">F = YES &nbsp;&nbsp;&nbsp; J = NO</p>
        ","j","html-keyboard-response","387","2.1.0","804291","F=YES, J=NO","8o7kjqd80t","1","80","85","75","","","","","","","","","creth","foe1","pseudoword","pseudoword","j","true","",""
"null","<p style=""font-size: 50px;"">+</p>","null","html-keyboard-response","388","2.1.0","804602","F=YES, J=NO","8o7kjqd80t","1","80","85","75","","","","","","","","","","","","","","","",""
"null","audio/beep-329314.mp3","null","audio-keyboard-response","389","2.1.0","806121","F=YES, J=NO","8o7kjqd80t","1","80","85","75","","","","","","","","","","","","","","","",""
"null","audio/birth1.wav","null","audio-keyboard-response","390","2.1.0","806825","F=YES, J=NO","8o7kjqd80t","1","80","85","75","","","","","","","","","","","","","","","",""
"565","
          <p id=""word"" style=""font-size: 40px;"">peel</p>
