"rt","stimulus","response","trial_type","trial_index","plugin_version","time_elapsed","response_mapping","subject_id","list_index","lextale_score","lextale_word_score","lextale_nonword_score","success","timeout","failed_images","failed_audio","failed_video","task","isWord","isDummy","target","prime","prime_type","stimulus_type","correct_response","correct","section","question_order"
"6217","
    <div style=""max-width: 800px; margin: auto; text-align: left;"">
      <h2>STANFORD UNIVERSITY</h2>
      <h3>Research Information Sheet</h3>
      <p><strong>Protocol Director:</strong> Robert Hawkins<br>
      <strong>Protocol Title:</strong> Communication and social cognition in natural audiovisual contexts<br>
      <strong>IRB#:</strong> 77226</p>

      <p><strong>DESCRIPTION:</strong> You are invited to participate in a research study about language and communication. The purpose of the research is to understand how you interact and communicate with other people in naturalistic settings as a fluent English speaker. This research will be conducted through the Prolific platform, including participants from the US, UK, and Canada. If you decide to participate in this research, you will play a communication game in a group with one or more partners.</p>

      <p><strong>TIME INVOLVEMENT:</strong> The task will last the amount of time advertised on Prolific. You are free to withdraw from the study at any time.</p>

      <p><strong>RISKS AND BENEFITS:</strong> You may become frustrated if your partner gets distracted, or experience discomfort if other participants in your group send text that is inappropriate for the task. We ask you to please be respectful of other participants you might be interacting with to mitigate these risks. You may also experience discomfort when being asked to discuss or challenge emotionally salient political beliefs. Study data will be stored securely, in compliance with Stanford University standards, minimizing the risk of confidentiality breach. This study advances our scientific understanding of how people communicate and collaborate in naturalistic settings. This study may lead to further insights about what can go wrong in teamwork, suggest potential interventions to overcome these barriers, and help to develop assistive technologies that collaborate with human partners. We cannot and do not guarantee or promise that you will receive any benefits from this study.</p>

      <p><strong>PAYMENTS:</strong> You will receive payment in the amount advertised on Prolific. If you do not complete this study, you will receive prorated payment based on the time that you have spent. Additionally, you may be eligible for bonus payments as described in the instructions.</p>

      <p><strong>PARTICIPANT’S RIGHTS:</strong> If you have read this form and have decided to participate in this project, please understand your participation is voluntary and you have the right to withdraw your consent or discontinue participation at any time without penalty or loss of benefits to which you are otherwise entitled. The alternative is not to participate. You have the right to refuse to answer particular questions. The results of this research study may be presented at scientific or professional meetings or published in scientific journals. Your individual privacy will be maintained in all published and written data resulting from the study. In accordance with scientific norms, the data from this study may be used or shared with other researchers for future research (after removing personally identifying information) without additional consent from you.</p>

      <p><strong>CONTACT INFORMATION:</strong><br>
      Questions: If you have any questions, concerns or complaints about this research, its procedures, risks and benefits, contact the Protocol Director, Robert Hawkins (<a href=""mailto:rdhawkins@stanford.edu"">rdhawkins@stanford.edu</a>, 217-549-6923).<br>
      Independent Contact: If you are not satisfied with how this study is being conducted, or if you have any concerns, complaints, or general questions about the research or your rights as a participant, please contact the Stanford Institutional Review Board (IRB) to speak to someone independent of the research team at 650-723-2480 or toll free at 1-866-680-2906, or email at <a href=""mailto:irbnon-med@stanford.edu"">irbnon-med@stanford.edu</a>. You can also write to the Stanford IRB, Stanford University, 1705 El Camino Real, Palo Alto, CA 94306.</p>

      <p><strong>Please save or print a copy of this page for your records.</strong></p>
      <p>If you agree to participate in this research, click ""Continue"" below.</p>
    </div>
  ","0","html-button-response","0","2.1.0","6285","J=YES, F=NO","8vw1y256az","0","59","78","40","","","","","","","","","","","","","","","",""
"10078","
    <div style=""max-width: 800px; margin: auto; text-align: left;"">
      <h2>Welcome!</h2>
      <p>Thank you for participating in this study. The experiment consists of three parts:</p>
      <ol>
        <li>An English vocabulary test</li>
        <li>A main task in which you will hear and see words, and decide whether the written word is a real English word</li>
        <li>A brief survey about your background</li>
      </ol>
      <p>Each part will be introduced before it begins.</p>
      <p>Please make sure you are in a quiet environment and can hear audio clearly for the final task.</p>
      <p style=""margin-top: 2em;"">Press any key to begin.</p>
    </div>
  ","ArrowDown","html-keyboard-response","1","2.1.0","16371","J=YES, F=NO","8vw1y256az","0","59","78","40","","","","","","","","","","","","","","","",""
"","","","preload","2","2.1.0","19339","J=YES, F=NO","8vw1y256az","0","59","78","40","true","false","[]","[]","[]","","","","","","","","","","",""
"2132","
    <div style=""max-width: 800px; margin: auto; text-align: left;"">
      <h2>Part 1: Vocabulary Test</h2>
      <p>You will now complete the first part of the study: a short English vocabulary test.</p>
      <p>This test is called <strong>LexTALE</strong> and helps us get a general sense of your English proficiency.</p>
      <p style=""margin-top: 2em;"">Press any key to continue.</p>
    </div>
  ","ArrowRight","html-keyboard-response","3","2.1.0","21472","J=YES, F=NO","8vw1y256az","0","59","78","40","","","","","","","","","","","","","","","",""
"13388","
    <div style=""max-width: 800px; margin: auto; text-align: left;"">
      <h2>LexTALE Vocabulary Test</h2>
      <p>In this test, you will see a series of letter strings—one at a time.</p>
      <p>Your task is to decide whether each string is a real English word.</p>
      <p><strong>Key responses:</strong></p>
      <ul>
        <li><strong>J</strong> = YES (real English word)</li>
        <li><strong>F</strong> = NO (not a real English word)</li>
      </ul>
      <p>There is no time limit, but please try to be accurate.</p>
      <p style=""margin-top: 2em;"">Press any key to begin.</p>
    </div>
  "," ","html-keyboard-response","4","2.1.0","34865","J=YES, F=NO","8vw1y256az","0","59","78","40","","","","","","","","","","","","","","","",""
"5673","
  <p style=""font-size: 40px;"">platery</p>
  <p style=""font-size: 16px;"">J = YES &nbsp;&nbsp;&nbsp; F = NO</p>
","j","html-keyboard-response","5","2.1.0","40545","J=YES, F=NO","8vw1y256az","0","59","78","40","","","","","","lextale","false","true","","","","","","","",""
"1066","
  <p style=""font-size: 40px;"">denial</p>
  <p style=""font-size: 16px;"">J = YES &nbsp;&nbsp;&nbsp; F = NO</p>
","j","html-keyboard-response","6","2.1.0","41616","J=YES, F=NO","8vw1y256az","0","59","78","40","","","","","","lextale","true","true","","","","","","","",""
"4427","
  <p style=""font-size: 40px;"">marrit</p>
  <p style=""font-size: 16px;"">J = YES &nbsp;&nbsp;&nbsp; F = NO</p>
","f","html-keyboard-response","7","2.1.0","46049","J=YES, F=NO","8vw1y256az","0","59","78","40","","","","","","lextale","false","true","","","","","","","",""
"2627","
  <p style=""font-size: 40px;"">bottle</p>
  <p style=""font-size: 16px;"">J = YES &nbsp;&nbsp;&nbsp; F = NO</p>
","j","html-keyboard-response","8","2.1.0","48680","J=YES, F=NO","8vw1y256az","0","59","78","40","","","","","","lextale","true","false","","","","","","","",""
"1284","
  <p style=""font-size: 40px;"">birst</p>
  <p style=""font-size: 16px;"">J = YES &nbsp;&nbsp;&nbsp; F = NO</p>
","j","html-keyboard-response","9","2.1.0","49968","J=YES, F=NO","8vw1y256az","0","59","78","40","","","","","","lextale","false","false","","","","","","","",""
"1634","
  <p style=""font-size: 40px;"">envy</p>
  <p style=""font-size: 16px;"">J = YES &nbsp;&nbsp;&nbsp; F = NO</p>
","j","html-keyboard-response","10","2.1.0","51608","J=YES, F=NO","8vw1y256az","0","59","78","40","","","","","","lextale","true","false","","","","","","","",""
"660","
  <p style=""font-size: 40px;"">brang</p>
  <p style=""font-size: 16px;"">J = YES &nbsp;&nbsp;&nbsp; F = NO</p>
","j","html-keyboard-response","11","2.1.0","52272","J=YES, F=NO","8vw1y256az","0","59","78","40","","","","","","lextale","false","false","","","","","","","",""
"835","
  <p style=""font-size: 40px;"">huge</p>
  <p style=""font-size: 16px;"">J = YES &nbsp;&nbsp;&nbsp; F = NO</p>
","j","html-keyboard-response","12","2.1.0","53112","J=YES, F=NO","8vw1y256az","0","59","78","40","","","","","","lextale","true","false","","","","","","","",""
"844","
  <p style=""font-size: 40px;"">plove</p>
  <p style=""font-size: 16px;"">J = YES &nbsp;&nbsp;&nbsp; F = NO</p>
","j","html-keyboard-response","13","2.1.0","53960","J=YES, F=NO","8vw1y256az","0","59","78","40","","","","","","lextale","false","false","","","","","","","",""
"1116","
  <p style=""font-size: 40px;"">border</p>
  <p style=""font-size: 16px;"">J = YES &nbsp;&nbsp;&nbsp; F = NO</p>
","j","html-keyboard-response","14","2.1.0","55080","J=YES, F=NO","8vw1y256az","0","59","78","40","","","","","","lextale","true","false","","","","","","","",""
"955","
  <p style=""font-size: 40px;"">flimsy</p>
  <p style=""font-size: 16px;"">J = YES &nbsp;&nbsp;&nbsp; F = NO</p>
","f","html-keyboard-response","15","2.1.0","56040","J=YES, F=NO","8vw1y256az","0","59","78","40","","","","","","lextale","true","false","","","","","","","",""
"1043","
  <p style=""font-size: 40px;"">drain</p>
  <p style=""font-size: 16px;"">J = YES &nbsp;&nbsp;&nbsp; F = NO</p>
","j","html-keyboard-response","16","2.1.0","57088","J=YES, F=NO","8vw1y256az","0","59","78","40","","","","","","lextale","true","false","","","","","","","",""
"3940","
  <p style=""font-size: 40px;"">twindle</p>
  <p style=""font-size: 16px;"">J = YES &nbsp;&nbsp;&nbsp; F = NO</p>
","f","html-keyboard-response","17","2.1.0","61032","J=YES, F=NO","8vw1y256az","0","59","78","40","","","","","","lextale","false","false","","","","","","","",""
"1652","
  <p style=""font-size: 40px;"">propose</p>
  <p style=""font-size: 16px;"">J = YES &nbsp;&nbsp;&nbsp; F = NO</p>
","j","html-keyboard-response","18","2.1.0","62688","J=YES, F=NO","8vw1y256az","0","59","78","40","","","","","","lextale","true","false","","","","","","","",""
"1788","
  <p style=""font-size: 40px;"">forlay</p>
  <p style=""font-size: 16px;"">J = YES &nbsp;&nbsp;&nbsp; F = NO</p>
","j","html-keyboard-response","19","2.1.0","64480","J=YES, F=NO","8vw1y256az","0","59","78","40","","","","","","lextale","false","false","","","","","","","",""
"1638","
  <p style=""font-size: 40px;"">tenant</p>
  <p style=""font-size: 16px;"">J = YES &nbsp;&nbsp;&nbsp; F = NO</p>
","j","html-keyboard-response","20","2.1.0","66120","J=YES, F=NO","8vw1y256az","0","59","78","40","","","","","","lextale","true","false","","","","","","","",""
"759","
  <p style=""font-size: 40px;"">strain</p>
  <p style=""font-size: 16px;"">J = YES &nbsp;&nbsp;&nbsp; F = NO</p>
","j","html-keyboard-response","21","2.1.0","66880","J=YES, F=NO","8vw1y256az","0","59","78","40","","","","","","lextale","true","false","","","","","","","",""
"767","
  <p style=""font-size: 40px;"">holster</p>
  <p style=""font-size: 16px;"">J = YES &nbsp;&nbsp;&nbsp; F = NO</p>
","j","html-keyboard-response","22","2.1.0","67648","J=YES, F=NO","8vw1y256az","0","59","78","40","","","","","","lextale","true","false","","","","","","","",""
"1639","
  <p style=""font-size: 40px;"">hinder</p>
  <p style=""font-size: 16px;"">J = YES &nbsp;&nbsp;&nbsp; F = NO</p>
","j","html-keyboard-response","23","2.1.0","69288","J=YES, F=NO","8vw1y256az","0","59","78","40","","","","","","lextale","true","false","","","","","","","",""
"711","
  <p style=""font-size: 40px;"">swindle</p>
  <p style=""font-size: 16px;"">J = YES &nbsp;&nbsp;&nbsp; F = NO</p>
","j","html-keyboard-response","24","2.1.0","70000","J=YES, F=NO","8vw1y256az","0","59","78","40","","","","","","lextale","true","false","","","","","","","",""
"2431","
  <p style=""font-size: 40px;"">nuder</p>
  <p style=""font-size: 16px;"">J = YES &nbsp;&nbsp;&nbsp; F = NO</p>
","f","html-keyboard-response","25","2.1.0","72432","J=YES, F=NO","8vw1y256az","0","59","78","40","","","","","","lextale","false","false","","","","","","","",""
"679","
  <p style=""font-size: 40px;"">pillow</p>
  <p style=""font-size: 16px;"">J = YES &nbsp;&nbsp;&nbsp; F = NO</p>
","j","html-keyboard-response","26","2.1.0","73112","J=YES, F=NO","8vw1y256az","0","59","78","40","","","","","","lextale","true","false","","","","","","","",""
"2007","
  <p style=""font-size: 40px;"">shumble</p>
  <p style=""font-size: 16px;"">J = YES &nbsp;&nbsp;&nbsp; F = NO</p>
","j","html-keyboard-response","27","2.1.0","75120","J=YES, F=NO","8vw1y256az","0","59","78","40","","","","","","lextale","false","false","","","","","","","",""
"807","
  <p style=""font-size: 40px;"">thirst</p>
  <p style=""font-size: 16px;"">J = YES &nbsp;&nbsp;&nbsp; F = NO</p>
","j","html-keyboard-response","28","2.1.0","75928","J=YES, F=NO","8vw1y256az","0","59","78","40","","","","","","lextale","true","false","","","","","","","",""
"1046","
  <p style=""font-size: 40px;"">unsail</p>
  <p style=""font-size: 16px;"">J = YES &nbsp;&nbsp;&nbsp; F = NO</p>
","j","html-keyboard-response","29","2.1.0","76976","J=YES, F=NO","8vw1y256az","0","59","78","40","","","","","","lextale","false","false","","","","","","","",""
"799","
  <p style=""font-size: 40px;"">rifle</p>
  <p style=""font-size: 16px;"">J = YES &nbsp;&nbsp;&nbsp; F = NO</p>
","j","html-keyboard-response","30","2.1.0","77776","J=YES, F=NO","8vw1y256az","0","59","78","40","","","","","","lextale","true","false","","","","","","","",""
"894","
  <p style=""font-size: 40px;"">mush</p>
  <p style=""font-size: 16px;"">J = YES &nbsp;&nbsp;&nbsp; F = NO</p>
","j","html-keyboard-response","31","2.1.0","78672","J=YES, F=NO","8vw1y256az","0","59","78","40","","","","","","lextale","false","false","","","","","","","",""
"1047","
  <p style=""font-size: 40px;"">drench</p>
  <p style=""font-size: 16px;"">J = YES &nbsp;&nbsp;&nbsp; F = NO</p>
","j","html-keyboard-response","32","2.1.0","79720","J=YES, F=NO","8vw1y256az","0","59","78","40","","","","","","lextale","true","false","","","","","","","",""
"2015","
  <p style=""font-size: 40px;"">snirt</p>
  <p style=""font-size: 16px;"">J = YES &nbsp;&nbsp;&nbsp; F = NO</p>
","f","html-keyboard-response","33","2.1.0","81736","J=YES, F=NO","8vw1y256az","0","59","78","40","","","","","","lextale","false","false","","","","","","","",""
"1095","
  <p style=""font-size: 40px;"">bitter</p>
  <p style=""font-size: 16px;"">J = YES &nbsp;&nbsp;&nbsp; F = NO</p>
","j","html-keyboard-response","34","2.1.0","82832","J=YES, F=NO","8vw1y256az","0","59","78","40","","","","","","lextale","true","false","","","","","","","",""
"2751","
  <p style=""font-size: 40px;"">pliff</p>
  <p style=""font-size: 16px;"">J = YES &nbsp;&nbsp;&nbsp; F = NO</p>
","j","html-keyboard-response","35","2.1.0","85584","J=YES, F=NO","8vw1y256az","0","59","78","40","","","","","","lextale","false","false","","","","","","","",""
"822","
  <p style=""font-size: 40px;"">tablet</p>
  <p style=""font-size: 16px;"">J = YES &nbsp;&nbsp;&nbsp; F = NO</p>
","j","html-keyboard-response","36","2.1.0","86408","J=YES, F=NO","8vw1y256az","0","59","78","40","","","","","","lextale","true","false","","","","","","","",""
"1111","
  <p style=""font-size: 40px;"">glimmer</p>
  <p style=""font-size: 16px;"">J = YES &nbsp;&nbsp;&nbsp; F = NO</p>
","j","html-keyboard-response","37","2.1.0","87520","J=YES, F=NO","8vw1y256az","0","59","78","40","","","","","","lextale","true","false","","","","","","","",""
"887","
  <p style=""font-size: 40px;"">slink</p>
  <p style=""font-size: 16px;"">J = YES &nbsp;&nbsp;&nbsp; F = NO</p>
","j","html-keyboard-response","38","2.1.0","88408","J=YES, F=NO","8vw1y256az","0","59","78","40","","","","","","lextale","true","false","","","","","","","",""
"951","
  <p style=""font-size: 40px;"">clever</p>
  <p style=""font-size: 16px;"">J = YES &nbsp;&nbsp;&nbsp; F = NO</p>
","j","html-keyboard-response","39","2.1.0","89360","J=YES, F=NO","8vw1y256az","0","59","78","40","","","","","","lextale","true","false","","","","","","","",""
"1559","
  <p style=""font-size: 40px;"">grum</p>
  <p style=""font-size: 16px;"">J = YES &nbsp;&nbsp;&nbsp; F = NO</p>
","j","html-keyboard-response","40","2.1.0","90920","J=YES, F=NO","8vw1y256az","0","59","78","40","","","","","","lextale","false","false","","","","","","","",""
"647","
  <p style=""font-size: 40px;"">string</p>
  <p style=""font-size: 16px;"">J = YES &nbsp;&nbsp;&nbsp; F = NO</p>
","j","html-keyboard-response","41","2.1.0","91568","J=YES, F=NO","8vw1y256az","0","59","78","40","","","","","","lextale","true","false","","","","","","","",""
"1159","
  <p style=""font-size: 40px;"">plim</p>
  <p style=""font-size: 16px;"">J = YES &nbsp;&nbsp;&nbsp; F = NO</p>
","f","html-keyboard-response","42","2.1.0","92728","J=YES, F=NO","8vw1y256az","0","59","78","40","","","","","","lextale","false","false","","","","","","","",""
"1079","
  <p style=""font-size: 40px;"">cable</p>
  <p style=""font-size: 16px;"">J = YES &nbsp;&nbsp;&nbsp; F = NO</p>
","j","html-keyboard-response","43","2.1.0","93808","J=YES, F=NO","8vw1y256az","0","59","78","40","","","","","","lextale","true","false","","","","","","","",""
"1015","
  <p style=""font-size: 40px;"">shrivel</p>
  <p style=""font-size: 16px;"">J = YES &nbsp;&nbsp;&nbsp; F = NO</p>
","f","html-keyboard-response","44","2.1.0","94824","J=YES, F=NO","8vw1y256az","0","59","78","40","","","","","","lextale","true","false","","","","","","","",""
"1935","
  <p style=""font-size: 40px;"">tarnish</p>
  <p style=""font-size: 16px;"">J = YES &nbsp;&nbsp;&nbsp; F = NO</p>
","j","html-keyboard-response","45","2.1.0","96760","J=YES, F=NO","8vw1y256az","0","59","78","40","","","","","","lextale","true","false","","","","","","","",""
"1055","
  <p style=""font-size: 40px;"">blim</p>
  <p style=""font-size: 16px;"">J = YES &nbsp;&nbsp;&nbsp; F = NO</p>
","f","html-keyboard-response","46","2.1.0","97816","J=YES, F=NO","8vw1y256az","0","59","78","40","","","","","","lextale","false","false","","","","","","","",""
"3295","
  <p style=""font-size: 40px;"">stifle</p>
  <p style=""font-size: 16px;"">J = YES &nbsp;&nbsp;&nbsp; F = NO</p>
","f","html-keyboard-response","47","2.1.0","101112","J=YES, F=NO","8vw1y256az","0","59","78","40","","","","","","lextale","true","false","","","","","","","",""
"1143","
  <p style=""font-size: 40px;"">bint</p>
  <p style=""font-size: 16px;"">J = YES &nbsp;&nbsp;&nbsp; F = NO</p>
","f","html-keyboard-response","48","2.1.0","102256","J=YES, F=NO","8vw1y256az","0","59","78","40","","","","","","lextale","false","false","","","","","","","",""
"759","
  <p style=""font-size: 40px;"">purple</p>
  <p style=""font-size: 16px;"">J = YES &nbsp;&nbsp;&nbsp; F = NO</p>
","j","html-keyboard-response","49","2.1.0","103016","J=YES, F=NO","8vw1y256az","0","59","78","40","","","","","","lextale","true","false","","","","","","","",""
"1471","
  <p style=""font-size: 40px;"">wriggle</p>
  <p style=""font-size: 16px;"">J = YES &nbsp;&nbsp;&nbsp; F = NO</p>
","j","html-keyboard-response","50","2.1.0","104488","J=YES, F=NO","8vw1y256az","0","59","78","40","","","","","","lextale","true","false","","","","","","","",""
"991","
  <p style=""font-size: 40px;"">mangle</p>
  <p style=""font-size: 16px;"">J = YES &nbsp;&nbsp;&nbsp; F = NO</p>
","j","html-keyboard-response","51","2.1.0","105480","J=YES, F=NO","8vw1y256az","0","59","78","40","","","","","","lextale","true","false","","","","","","","",""
"911","
  <p style=""font-size: 40px;"">shramp</p>
  <p style=""font-size: 16px;"">J = YES &nbsp;&nbsp;&nbsp; F = NO</p>
","j","html-keyboard-response","52","2.1.0","106392","J=YES, F=NO","8vw1y256az","0","59","78","40","","","","","","lextale","false","false","","","","","","","",""
"727","
  <p style=""font-size: 40px;"">flirt</p>
  <p style=""font-size: 16px;"">J = YES &nbsp;&nbsp;&nbsp; F = NO</p>
","j","html-keyboard-response","53","2.1.0","107120","J=YES, F=NO","8vw1y256az","0","59","78","40","","","","","","lextale","true","false","","","","","","","",""
"895","
  <p style=""font-size: 40px;"">frip</p>
  <p style=""font-size: 16px;"">J = YES &nbsp;&nbsp;&nbsp; F = NO</p>
","f","html-keyboard-response","54","2.1.0","108016","J=YES, F=NO","8vw1y256az","0","59","78","40","","","","","","lextale","false","false","","","","","","","",""
"895","
  <p style=""font-size: 40px;"">tangle</p>
  <p style=""font-size: 16px;"">J = YES &nbsp;&nbsp;&nbsp; F = NO</p>
","j","html-keyboard-response","55","2.1.0","108912","J=YES, F=NO","8vw1y256az","0","59","78","40","","","","","","lextale","true","false","","","","","","","",""
"711","
  <p style=""font-size: 40px;"">crumble</p>
  <p style=""font-size: 16px;"">J = YES &nbsp;&nbsp;&nbsp; F = NO</p>
","j","html-keyboard-response","56","2.1.0","109624","J=YES, F=NO","8vw1y256az","0","59","78","40","","","","","","lextale","true","false","","","","","","","",""
"1166","
  <p style=""font-size: 40px;"">wrinkle</p>
  <p style=""font-size: 16px;"">J = YES &nbsp;&nbsp;&nbsp; F = NO</p>
","j","html-keyboard-response","57","2.1.0","110792","J=YES, F=NO","8vw1y256az","0","59","78","40","","","","","","lextale","true","false","","","","","","","",""
"1103","
  <p style=""font-size: 40px;"">slumb</p>
  <p style=""font-size: 16px;"">J = YES &nbsp;&nbsp;&nbsp; F = NO</p>
","j","html-keyboard-response","58","2.1.0","111896","J=YES, F=NO","8vw1y256az","0","59","78","40","","","","","","lextale","false","false","","","","","","","",""
"615","
  <p style=""font-size: 40px;"">jungle</p>
  <p style=""font-size: 16px;"">J = YES &nbsp;&nbsp;&nbsp; F = NO</p>
","j","html-keyboard-response","59","2.1.0","112512","J=YES, F=NO","8vw1y256az","0","59","78","40","","","","","","lextale","true","false","","","","","","","",""
"2039","
  <p style=""font-size: 40px;"">frolick</p>
  <p style=""font-size: 16px;"">J = YES &nbsp;&nbsp;&nbsp; F = NO</p>
","f","html-keyboard-response","60","2.1.0","114552","J=YES, F=NO","8vw1y256az","0","59","78","40","","","","","","lextale","false","false","","","","","","","",""
"2902","
      <h2>LexTALE Test Completed</h2>
      <p>Your LexTALE vocabulary score is: <strong>59%</strong></p>
      <p>Press any key to continue.</p>
    "," ","html-keyboard-response","61","2.1.0","117456","J=YES, F=NO","8vw1y256az","0","59","78","40","","","","","","","","","","","","","","","",""
"97990","
    <div style=""max-width: 800px; margin: auto; text-align: left;"">
      <h2>Break Time</h2>
      <p>You have completed the first part of the study.</p>
      <p>You may take a short <strong>30-second break</strong> before continuing.</p>
      <p>When you’re ready, press any key to continue to the final task.</p>
    </div>
  "," ","html-keyboard-response","62","2.1.0","215447","J=YES, F=NO","8vw1y256az","0","59","78","40","","","","","","","","","","","","","","","",""
"27774","
    <div style=""max-width: 800px; margin: auto; text-align: left;"">
      <h2>Part 2: Lexical Decision Task</h2>
      <p>You will now begin the second part of the study.</p>
      <p>Each trial will follow this sequence:</p>
      <ul>
        <li>A fixation cross (+) appears at the center of the screen.</li>
        <li>You will hear a short beep followed by a spoken word.</li>
        <li>A written word will appear briefly on the screen.</li>
      </ul>
      <p>Your task is to judge whether the <strong>written word</strong> is a real English word.</p>
      <p style=""margin-top: 1em;""><strong>Key responses:</strong></p>
      <ul>
        <li><strong>J</strong> = YES (real English word)</li>
        <li><strong>F</strong> = NO (not a real English word)</li>
      </ul>
      <p>Please respond as quickly and accurately as you can.</p>
      <p style=""margin-top: 2em;"">Press any key to continue.</p>
    </div>
  "," ","html-keyboard-response","63","2.1.0","243223","J=YES, F=NO","8vw1y256az","0","59","78","40","","","","","","","","","","","","","","","",""
"4798","
    <div style=""max-width: 800px; margin: auto; text-align: left;"">
      <h2>Before You Begin</h2>
      <p>Make sure your sound is turned on.</p>
      <p>You will hear audio during each trial, but your decision should be based only on the <strong>written word</strong> you see on the screen.</p>
      <p><strong>Reminder:</strong></p>
      <ul>
        <li><strong>J</strong> = YES (real English word)</li>
        <li><strong>F</strong> = NO (not a real English word)</li>
      </ul>
      <p style=""margin-top: 2em;"">Press any key when you are ready to begin.</p>
    </div>
  "," ","html-keyboard-response","64","2.1.0","248023","J=YES, F=NO","8vw1y256az","0","59","78","40","","","","","","","","","","","","","","","",""
"4191","
    <div style=""max-width: 800px; margin: auto; text-align: left;"">
      <h2>Part 2: Practice Trials</h2>
      <p>You will now complete a few <strong>practice trials</strong> to get familiar with the task.</p>
      <p>These trials are <strong>not scored</strong> and are only to help you get used to the format.</p>
      <p style=""margin-top: 2em;"">Press any key to begin.</p>
    </div>
  "," ","html-keyboard-response","65","2.1.0","252215","J=YES, F=NO","8vw1y256az","0","59","78","40","","","","","","","","","","","","","","","",""
"2959","<p>Starting practice block 1 of 2. Press any key to continue.</p>"," ","html-keyboard-response","66","2.1.0","255175","J=YES, F=NO","8vw1y256az","0","59","78","40","","","","","","","","","","","","","","","",""
"null","<p style=""font-size: 50px;"">+</p>","null","html-keyboard-response","67","2.1.0","255478","J=YES, F=NO","8vw1y256az","0","59","78","40","","","","","","","","","","","","","","","",""
"null","audio/beep-329314.mp3","null","audio-keyboard-response","68","2.1.0","257046","J=YES, F=NO","8vw1y256az","0","59","78","40","","","","","","","","","","","","","","","",""
"null","audio/kettle1.wav","null","audio-keyboard-response","69","2.1.0","257575","J=YES, F=NO","8vw1y256az","0","59","78","40","","","","","","","","","","","","","","","",""
"null","
          <p id=""word"" style=""font-size: 40px;"">wrap</p>
          <p style=""font-size: 16px;"">J = YES &nbsp;&nbsp;&nbsp; F = NO</p>
        ","null","html-keyboard-response","70","2.1.0","259087","J=YES, F=NO","8vw1y256az","0","59","78","40","","","","","","","","","wrap","kettle1","filler","filler","j","false","",""
"null","<p style=""font-size: 50px;"">+</p>","null","html-keyboard-response","71","2.1.0","259395","J=YES, F=NO","8vw1y256az","0","59","78","40","","","","","","","","","","","","","","","",""
"null","audio/beep-329314.mp3","null","audio-keyboard-response","72","2.1.0","260945","J=YES, F=NO","8vw1y256az","0","59","78","40","","","","","","","","","","","","","","","",""
"null","audio/birth1.wav","null","audio-keyboard-response","73","2.1.0","261535","J=YES, F=NO","8vw1y256az","0","59","78","40","","","","","","","","","","","","","","","",""
"null","
          <p id=""word"" style=""font-size: 40px;"">peel</p>
          <p style=""font-size: 16px;"">J = YES &nbsp;&nbsp;&nbsp; F = NO</p>
        ","null","html-keyboard-response","74","2.1.0","263043","J=YES, F=NO","8vw1y256az","0","59","78","40","","","","","","","","","peel","birth1","filler","filler","j","false","",""
"null","<p style=""font-size: 50px;"">+</p>","null","html-keyboard-response","75","2.1.0","263352","J=YES, F=NO","8vw1y256az","0","59","78","40","","","","","","","","","","","","","","","",""
"null","audio/beep-329314.mp3","null","audio-keyboard-response","76","2.1.0","264905","J=YES, F=NO","8vw1y256az","0","59","78","40","","","","","","","","","","","","","","","",""
"null","audio/weight1.wav","null","audio-keyboard-response","77","2.1.0","265455","J=YES, F=NO","8vw1y256az","0","59","78","40","","","","","","","","","","","","","","","",""
"null","
          <p id=""word"" style=""font-size: 40px;"">crimsh</p>
          <p style=""font-size: 16px;"">J = YES &nbsp;&nbsp;&nbsp; F = NO</p>
        ","null","html-keyboard-response","78","2.1.0","266968","J=YES, F=NO","8vw1y256az","0","59","78","40","","","","","","","","","crimsh","weight1","pseudoword","pseudoword","f","false","",""
"null","<p style=""font-size: 50px;"">+</p>","null","html-keyboard-response","79","2.1.0","267279","J=YES, F=NO","8vw1y256az","0","59","78","40","","","","","","","","","","","","","","","",""
"null","audio/beep-329314.mp3","null","audio-keyboard-response","80","2.1.0","268825","J=YES, F=NO","8vw1y256az","0","59","78","40","","","","","","","","","","","","","","","",""
"null","audio/bishop1.wav","null","audio-keyboard-response","81","2.1.0","269475","J=YES, F=NO","8vw1y256az","0","59","78","40","","","","","","","","","","","","","","","",""
"null","
          <p id=""word"" style=""font-size: 40px;"">play</p>
          <p style=""font-size: 16px;"">J = YES &nbsp;&nbsp;&nbsp; F = NO</p>
        ","null","html-keyboard-response","82","2.1.0","270985","J=YES, F=NO","8vw1y256az","0","59","78","40","","","","","","","","","play","bishop1","filler","filler","j","false","",""
"null","<p style=""font-size: 50px;"">+</p>","null","html-keyboard-response","83","2.1.0","271292","J=YES, F=NO","8vw1y256az","0","59","78","40","","","","","","","","","","","","","","","",""
"null","audio/beep-329314.mp3","null","audio-keyboard-response","84","2.1.0","272845","J=YES, F=NO","8vw1y256az","0","59","78","40","","","","","","","","","","","","","","","",""
"null","audio/grass.wav","null","audio-keyboard-response","85","2.1.0","273555","J=YES, F=NO","8vw1y256az","0","59","78","40","","","","","","","","","","","","","","","",""
"null","
          <p id=""word"" style=""font-size: 40px;"">milames</p>
          <p style=""font-size: 16px;"">J = YES &nbsp;&nbsp;&nbsp; F = NO</p>
        ","null","html-keyboard-response","86","2.1.0","275070","J=YES, F=NO","8vw1y256az","0","59","78","40","","","","","","","","","milames","grass","pseudoword","pseudoword","f","false","",""
"null","<p style=""font-size: 50px;"">+</p>","null","html-keyboard-response","87","2.1.0","275379","J=YES, F=NO","8vw1y256az","0","59","78","40","","","","","","","","","","","","","","","",""
"null","audio/beep-329314.mp3","null","audio-keyboard-response","88","2.1.0","276926","J=YES, F=NO","8vw1y256az","0","59","78","40","","","","","","","","","","","","","","","",""
"null","audio/brain.wav","null","audio-keyboard-response","89","2.1.0","277435","J=YES, F=NO","8vw1y256az","0","59","78","40","","","","","","","","","","","","","","","",""
"null","
          <p id=""word"" style=""font-size: 40px;"">throw</p>
          <p style=""font-size: 16px;"">J = YES &nbsp;&nbsp;&nbsp; F = NO</p>
        ","null","html-keyboard-response","90","2.1.0","278948","J=YES, F=NO","8vw1y256az","0","59","78","40","","","","","","","","","throw","brain","filler","filler","j","false","",""
"null","<p style=""font-size: 50px;"">+</p>","null","html-keyboard-response","91","2.1.0","279256","J=YES, F=NO","8vw1y256az","0","59","78","40","","","","","","","","","","","","","","","",""
"null","audio/beep-329314.mp3","null","audio-keyboard-response","92","2.1.0","280805","J=YES, F=NO","8vw1y256az","0","59","78","40","","","","","","","","","","","","","","","",""
"null","audio/handle.wav","null","audio-keyboard-response","93","2.1.0","281495","J=YES, F=NO","8vw1y256az","0","59","78","40","","","","","","","","","","","","","","","",""
"null","
          <p id=""word"" style=""font-size: 40px;"">moutes</p>
          <p style=""font-size: 16px;"">J = YES &nbsp;&nbsp;&nbsp; F = NO</p>
        ","null","html-keyboard-response","94","2.1.0","283001","J=YES, F=NO","8vw1y256az","0","59","78","40","","","","","","","","","moutes","handle","pseudoword","pseudoword","f","false","",""
"null","<p style=""font-size: 50px;"">+</p>","null","html-keyboard-response","95","2.1.0","283309","J=YES, F=NO","8vw1y256az","0","59","78","40","","","","","","","","","","","","","","","",""
"null","audio/beep-329314.mp3","null","audio-keyboard-response","96","2.1.0","284865","J=YES, F=NO","8vw1y256az","0","59","78","40","","","","","","","","","","","","","","","",""
"null","audio/vehicle1.wav","null","audio-keyboard-response","97","2.1.0","285535","J=YES, F=NO","8vw1y256az","0","59","78","40","","","","","","","","","","","","","","","",""
"1206","
          <p id=""word"" style=""font-size: 40px;"">dropt</p>
          <p style=""font-size: 16px;"">J = YES &nbsp;&nbsp;&nbsp; F = NO</p>
        ","f","html-keyboard-response","98","2.1.0","286743","J=YES, F=NO","8vw1y256az","0","59","78","40","","","","","","","","","dropt","vehicle1","pseudoword","pseudoword","f","true","",""
"null","<p style=""font-size: 50px;"">+</p>","null","html-keyboard-response","99","2.1.0","287049","J=YES, F=NO","8vw1y256az","0","59","78","40","","","","","","","","","","","","","","","",""
"null","audio/beep-329314.mp3","null","audio-keyboard-response","100","2.1.0","288605","J=YES, F=NO","8vw1y256az","0","59","78","40","","","","","","","","","","","","","","","",""
"null","audio/prisoner.wav","null","audio-keyboard-response","101","2.1.0","289135","J=YES, F=NO","8vw1y256az","0","59","78","40","","","","","","","","","","","","","","","",""
"1078","
          <p id=""word"" style=""font-size: 40px;"">egotian</p>
          <p style=""font-size: 16px;"">J = YES &nbsp;&nbsp;&nbsp; F = NO</p>
        ","f","html-keyboard-response","102","2.1.0","290214","J=YES, F=NO","8vw1y256az","0","59","78","40","","","","","","","","","egotian","prisoner","pseudoword","pseudoword","f","true","",""
"null","<p style=""font-size: 50px;"">+</p>","null","html-keyboard-response","103","2.1.0","290518","J=YES, F=NO","8vw1y256az","0","59","78","40","","","","","","","","","","","","","","","",""
"null","audio/beep-329314.mp3","null","audio-keyboard-response","104","2.1.0","292065","J=YES, F=NO","8vw1y256az","0","59","78","40","","","","","","","","","","","","","","","",""
"null","audio/trout1.wav","null","audio-keyboard-response","105","2.1.0","292675","J=YES, F=NO","8vw1y256az","0","59","78","40","","","","","","","","","","","","","","","",""
"906","
          <p id=""word"" style=""font-size: 40px;"">spimt</p>
          <p style=""font-size: 16px;"">J = YES &nbsp;&nbsp;&nbsp; F = NO</p>
        ","f","html-keyboard-response","106","2.1.0","293582","J=YES, F=NO","8vw1y256az","0","59","78","40","","","","","","","","","spimt","trout1","pseudoword","pseudoword","f","true","",""
"null","<p style=""font-size: 50px;"">+</p>","null","html-keyboard-response","107","2.1.0","293885","J=YES, F=NO","8vw1y256az","0","59","78","40","","","","","","","","","","","","","","","",""
"null","audio/beep-329314.mp3","null","audio-keyboard-response","108","2.1.0","295445","J=YES, F=NO","8vw1y256az","0","59","78","40","","","","","","","","","","","","","","","",""
"null","audio/butter1.wav","null","audio-keyboard-response","109","2.1.0","295955","J=YES, F=NO","8vw1y256az","0","59","78","40","","","","","","","","","","","","","","","",""
"null","
          <p id=""word"" style=""font-size: 40px;"">chew</p>
          <p style=""font-size: 16px;"">J = YES &nbsp;&nbsp;&nbsp; F = NO</p>
        ","null","html-keyboard-response","110","2.1.0","297459","J=YES, F=NO","8vw1y256az","0","59","78","40","","","","","","","","","chew","butter1","filler","filler","j","false","",""
"null","<p style=""font-size: 50px;"">+</p>","null","html-keyboard-response","111","2.1.0","297768","J=YES, F=NO","8vw1y256az","0","59","78","40","","","","","","","","","","","","","","","",""
"null","audio/beep-329314.mp3","null","audio-keyboard-response","112","2.1.0","299325","J=YES, F=NO","8vw1y256az","0","59","78","40","","","","","","","","","","","","","","","",""
"null","audio/gift1.wav","null","audio-keyboard-response","113","2.1.0","299855","J=YES, F=NO","8vw1y256az","0","59","78","40","","","","","","","","","","","","","","","",""
"null","
          <p id=""word"" style=""font-size: 40px;"">protsh</p>
          <p style=""font-size: 16px;"">J = YES &nbsp;&nbsp;&nbsp; F = NO</p>
        ","null","html-keyboard-response","114","2.1.0","301371","J=YES, F=NO","8vw1y256az","0","59","78","40","","","","","","","","","protsh","gift1","pseudoword","pseudoword","f","false","",""
"3162","<p>Starting practice block 2 of 2. Press any key to continue.</p>"," ","html-keyboard-response","115","2.1.0","304535","J=YES, F=NO","8vw1y256az","0","59","78","40","","","","","","","","","","","","","","","",""
"null","<p style=""font-size: 50px;"">+</p>","null","html-keyboard-response","116","2.1.0","304845","J=YES, F=NO","8vw1y256az","0","59","78","40","","","","","","","","","","","","","","","",""
"null","audio/beep-329314.mp3","null","audio-keyboard-response","117","2.1.0","306405","J=YES, F=NO","8vw1y256az","0","59","78","40","","","","","","","","","","","","","","","",""
"null","audio/bottle.wav","null","audio-keyboard-response","118","2.1.0","306935","J=YES, F=NO","8vw1y256az","0","59","78","40","","","","","","","","","","","","","","","",""
"1030","
          <p id=""word"" style=""font-size: 40px;"">watch</p>
          <p style=""font-size: 16px;"">J = YES &nbsp;&nbsp;&nbsp; F = NO</p>
        ","f","html-keyboard-response","119","2.1.0","307966","J=YES, F=NO","8vw1y256az","0","59","78","40","","","","","","","","","watch","bottle","filler","filler","j","false","",""
"null","<p style=""font-size: 50px;"">+</p>","null","html-keyboard-response","120","2.1.0","308279","J=YES, F=NO","8vw1y256az","0","59","78","40","","","","","","","","","","","","","","","",""
"null","audio/beep-329314.mp3","null","audio-keyboard-response","121","2.1.0","309825","J=YES, F=NO","8vw1y256az","0","59","78","40","","","","","","","","","","","","","","","",""
"null","audio/belief.wav","null","audio-keyboard-response","122","2.1.0","310475","J=YES, F=NO","8vw1y256az","0","59","78","40","","","","","","","","","","","","","","","",""
"146","
          <p id=""word"" style=""font-size: 40px;"">read</p>
          <p style=""font-size: 16px;"">J = YES &nbsp;&nbsp;&nbsp; F = NO</p>
        ","j","html-keyboard-response","123","2.1.0","310622","J=YES, F=NO","8vw1y256az","0","59","78","40","","","","","","","","","read","belief","filler","filler","j","true","",""
"null","<p style=""font-size: 50px;"">+</p>","null","html-keyboard-response","124","2.1.0","310933","J=YES, F=NO","8vw1y256az","0","59","78","40","","","","","","","","","","","","","","","",""
"null","audio/beep-329314.mp3","null","audio-keyboard-response","125","2.1.0","312485","J=YES, F=NO","8vw1y256az","0","59","78","40","","","","","","","","","","","","","","","",""
"null","audio/cinema1.wav","null","audio-keyboard-response","126","2.1.0","313115","J=YES, F=NO","8vw1y256az","0","59","78","40","","","","","","","","","","","","","","","",""
"1002","
          <p id=""word"" style=""font-size: 40px;"">murple</p>
          <p style=""font-size: 16px;"">J = YES &nbsp;&nbsp;&nbsp; F = NO</p>
        ","f","html-keyboard-response","127","2.1.0","314118","J=YES, F=NO","8vw1y256az","0","59","78","40","","","","","","","","","murple","cinema1","pseudoword","pseudoword","f","true","",""
"null","<p style=""font-size: 50px;"">+</p>","null","html-keyboard-response","128","2.1.0","314430","J=YES, F=NO","8vw1y256az","0","59","78","40","","","","","","","","","","","","","","","",""
"null","audio/beep-329314.mp3","null","audio-keyboard-response","129","2.1.0","315985","J=YES, F=NO","8vw1y256az","0","59","78","40","","","","","","","","","","","","","","","",""
"null","audio/bomb1.wav","null","audio-keyboard-response","130","2.1.0","316435","J=YES, F=NO","8vw1y256az","0","59","78","40","","","","","","","","","","","","","","","",""
"626","
          <p id=""word"" style=""font-size: 40px;"">clean</p>
          <p style=""font-size: 16px;"">J = YES &nbsp;&nbsp;&nbsp; F = NO</p>
        ","j","html-keyboard-response","131","2.1.0","317062","J=YES, F=NO","8vw1y256az","0","59","78","40","","","","","","","","","clean","bomb1","filler","filler","j","true","",""
"null","<p style=""font-size: 50px;"">+</p>","null","html-keyboard-response","132","2.1.0","317365","J=YES, F=NO","8vw1y256az","0","59","78","40","","","","","","","","","","","","","","","",""
"null","audio/beep-329314.mp3","null","audio-keyboard-response","133","2.1.0","318925","J=YES, F=NO","8vw1y256az","0","59","78","40","","","","","","","","","","","","","","","",""
"null","audio/sugar1.wav","null","audio-keyboard-response","134","2.1.0","319575","J=YES, F=NO","8vw1y256az","0","59","78","40","","","","","","","","","","","","","","","",""
"766","
          <p id=""word"" style=""font-size: 40px;"">glung</p>
          <p style=""font-size: 16px;"">J = YES &nbsp;&nbsp;&nbsp; F = NO</p>
        ","f","html-keyboard-response","135","2.1.0","320342","J=YES, F=NO","8vw1y256az","0","59","78","40","","","","","","","","","glung","sugar1","pseudoword","pseudoword","f","true","",""
"null","<p style=""font-size: 50px;"">+</p>","null","html-keyboard-response","136","2.1.0","320645","J=YES, F=NO","8vw1y256az","0","59","78","40","","","","","","","","","","","","","","","",""
"null","audio/beep-329314.mp3","null","audio-keyboard-response","137","2.1.0","322205","J=YES, F=NO","8vw1y256az","0","59","78","40","","","","","","","","","","","","","","","",""
"null","audio/ankle1.wav","null","audio-keyboard-response","138","2.1.0","322755","J=YES, F=NO","8vw1y256az","0","59","78","40","","","","","","","","","","","","","","","",""
"722","
          <p id=""word"" style=""font-size: 40px;"">kick</p>
          <p style=""font-size: 16px;"">J = YES &nbsp;&nbsp;&nbsp; F = NO</p>
        ","j","html-keyboard-response","139","2.1.0","323478","J=YES, F=NO","8vw1y256az","0","59","78","40","","","","","","","","","kick","ankle1","filler","filler","j","true","",""
"null","<p style=""font-size: 50px;"">+</p>","null","html-keyboard-response","140","2.1.0","323780","J=YES, F=NO","8vw1y256az","0","59","78","40","","","","","","","","","","","","","","","",""
"null","audio/beep-329314.mp3","null","audio-keyboard-response","141","2.1.0","325325","J=YES, F=NO","8vw1y256az","0","59","78","40","","","","","","","","","","","","","","","",""
"null","audio/pig.wav","null","audio-keyboard-response","142","2.1.0","325775","J=YES, F=NO","8vw1y256az","0","59","78","40","","","","","","","","","","","","","","","",""
"942","
          <p id=""word"" style=""font-size: 40px;"">tirlike</p>
          <p style=""font-size: 16px;"">J = YES &nbsp;&nbsp;&nbsp; F = NO</p>
        ","f","html-keyboard-response","143","2.1.0","326718","J=YES, F=NO","8vw1y256az","0","59","78","40","","","","","","","","","tirlike","pig","pseudoword","pseudoword","f","true","",""
"null","<p style=""font-size: 50px;"">+</p>","null","html-keyboard-response","144","2.1.0","327023","J=YES, F=NO","8vw1y256az","0","59","78","40","","","","","","","","","","","","","","","",""
"null","audio/beep-329314.mp3","null","audio-keyboard-response","145","2.1.0","328565","J=YES, F=NO","8vw1y256az","0","59","78","40","","","","","","","","","","","","","","","",""
"null","audio/fence.wav","null","audio-keyboard-response","146","2.1.0","329255","J=YES, F=NO","8vw1y256az","0","59","78","40","","","","","","","","","","","","","","","",""
"1262","
          <p id=""word"" style=""font-size: 40px;"">trim</p>
          <p style=""font-size: 16px;"">J = YES &nbsp;&nbsp;&nbsp; F = NO</p>
        ","f","html-keyboard-response","147","2.1.0","330518","J=YES, F=NO","8vw1y256az","0","59","78","40","","","","","","","","","trim","fence","filler","filler","j","false","",""
"null","<p style=""font-size: 50px;"">+</p>","null","html-keyboard-response","148","2.1.0","330825","J=YES, F=NO","8vw1y256az","0","59","78","40","","","","","","","","","","","","","","","",""
"null","audio/beep-329314.mp3","null","audio-keyboard-response","149","2.1.0","332385","J=YES, F=NO","8vw1y256az","0","59","78","40","","","","","","","","","","","","","","","",""
"null","audio/menu.wav","null","audio-keyboard-response","150","2.1.0","333135","J=YES, F=NO","8vw1y256az","0","59","78","40","","","","","","","","","","","","","","","",""
"1118","
          <p id=""word"" style=""font-size: 40px;"">slice</p>
          <p style=""font-size: 16px;"">J = YES &nbsp;&nbsp;&nbsp; F = NO</p>
        ","j","html-keyboard-response","151","2.1.0","334254","J=YES, F=NO","8vw1y256az","0","59","78","40","","","","","","","","","slice","menu","filler","filler","j","true","",""
"null","<p style=""font-size: 50px;"">+</p>","null","html-keyboard-response","152","2.1.0","334567","J=YES, F=NO","8vw1y256az","0","59","78","40","","","","","","","","","","","","","","","",""
"null","audio/beep-329314.mp3","null","audio-keyboard-response","153","2.1.0","336125","J=YES, F=NO","8vw1y256az","0","59","78","40","","","","","","","","","","","","","","","",""
"null","audio/client1.wav","null","audio-keyboard-response","154","2.1.0","336875","J=YES, F=NO","8vw1y256az","0","59","78","40","","","","","","","","","","","","","","","",""
"834","
          <p id=""word"" style=""font-size: 40px;"">droothe</p>
          <p style=""font-size: 16px;"">J = YES &nbsp;&nbsp;&nbsp; F = NO</p>
        ","f","html-keyboard-response","155","2.1.0","337710","J=YES, F=NO","8vw1y256az","0","59","78","40","","","","","","","","","droothe","client1","pseudoword","pseudoword","f","true","",""
"null","<p style=""font-size: 50px;"">+</p>","null","html-keyboard-response","156","2.1.0","338015","J=YES, F=NO","8vw1y256az","0","59","78","40","","","","","","","","","","","","","","","",""
"null","audio/beep-329314.mp3","null","audio-keyboard-response","157","2.1.0","339565","J=YES, F=NO","8vw1y256az","0","59","78","40","","","","","","","","","","","","","","","",""
"null","audio/life1.wav","null","audio-keyboard-response","158","2.1.0","340275","J=YES, F=NO","8vw1y256az","0","59","78","40","","","","","","","","","","","","","","","",""
"914","
          <p id=""word"" style=""font-size: 40px;"">flimch</p>
          <p style=""font-size: 16px;"">J = YES &nbsp;&nbsp;&nbsp; F = NO</p>
        ","f","html-keyboard-response","159","2.1.0","341190","J=YES, F=NO","8vw1y256az","0","59","78","40","","","","","","","","","flimch","life1","pseudoword","pseudoword","f","true","",""
"null","<p style=""font-size: 50px;"">+</p>","null","html-keyboard-response","160","2.1.0","341493","J=YES, F=NO","8vw1y256az","0","59","78","40","","","","","","","","","","","","","","","",""
"null","audio/beep-329314.mp3","null","audio-keyboard-response","161","2.1.0","343045","J=YES, F=NO","8vw1y256az","0","59","78","40","","","","","","","","","","","","","","","",""
"null","audio/alarm1.wav","null","audio-keyboard-response","162","2.1.0","343775","J=YES, F=NO","8vw1y256az","0","59","78","40","","","","","","","","","","","","","","","",""
"774","
          <p id=""word"" style=""font-size: 40px;"">lock</p>
          <p style=""font-size: 16px;"">J = YES &nbsp;&nbsp;&nbsp; F = NO</p>
        ","j","html-keyboard-response","163","2.1.0","344550","J=YES, F=NO","8vw1y256az","0","59","78","40","","","","","","","","","lock","alarm1","filler","filler","j","true","",""
"15159","
    <div style=""max-width: 800px; margin: auto; text-align: left;"">
      <h2>Part 2: Main Trials</h2>
      <p>Great job on the practice trials!</p>
      <p>You will now begin the <strong>main set of trials</strong>.</p>
      <p>Remember your key assignments:</p>
      <ul>
        <li><strong>J</strong> = YES (real English word)</li>
        <li><strong>F</strong> = NO (not a real English word)</li>
      </ul>
      <p>Try to respond as <strong>quickly and accurately</strong> as possible.</p>
      <p style=""margin-top: 2em;"">Press any key to begin the main trials.</p>
    </div>
  "," ","html-keyboard-response","164","2.1.0","359710","J=YES, F=NO","8vw1y256az","0","59","78","40","","","","","","","","","","","","","","","",""
"2158","<p>Starting main block 1 of 8. Press any key to continue.</p>"," ","html-keyboard-response","165","2.1.0","361870","J=YES, F=NO","8vw1y256az","0","59","78","40","","","","","","","","","","","","","","","",""
"null","<p style=""font-size: 50px;"">+</p>","null","html-keyboard-response","166","2.1.0","362175","J=YES, F=NO","8vw1y256az","0","59","78","40","","","","","","","","","","","","","","","",""
"null","audio/beep-329314.mp3","null","audio-keyboard-response","167","2.1.0","363705","J=YES, F=NO","8vw1y256az","0","59","78","40","","","","","","","","","","","","","","","",""
"null","audio/window1.wav","null","audio-keyboard-response","168","2.1.0","364325","J=YES, F=NO","8vw1y256az","0","59","78","40","","","","","","","","","","","","","","","",""
"1176","
          <p id=""word"" style=""font-size: 40px;"">toss</p>
          <p style=""font-size: 16px;"">J = YES &nbsp;&nbsp;&nbsp; F = NO</p>
        ","j","html-keyboard-response","169","2.1.0","365502","J=YES, F=NO","8vw1y256az","0","59","78","40","","","","","","","","","toss","window1","filler","filler","j","true","",""
"null","<p style=""font-size: 50px;"">+</p>","null","html-keyboard-response","170","2.1.0","365815","J=YES, F=NO","8vw1y256az","0","59","78","40","","","","","","","","","","","","","","","",""
"null","audio/beep-329314.mp3","null","audio-keyboard-response","171","2.1.0","367365","J=YES, F=NO","8vw1y256az","0","59","78","40","","","","","","","","","","","","","","","",""
"null","audio/hotel1.wav","null","audio-keyboard-response","172","2.1.0","368005","J=YES, F=NO","8vw1y256az","0","59","78","40","","","","","","","","","","","","","","","",""
"752","
          <p id=""word"" style=""font-size: 40px;"">spread</p>
          <p style=""font-size: 16px;"">J = YES &nbsp;&nbsp;&nbsp; F = NO</p>
        ","j","html-keyboard-response","173","2.1.0","368758","J=YES, F=NO","8vw1y256az","0","59","78","40","","","","","","","","","spread","hotel1","unrelated","experimental","j","true","",""
"null","<p style=""font-size: 50px;"">+</p>","null","html-keyboard-response","174","2.1.0","369072","J=YES, F=NO","8vw1y256az","0","59","78","40","","","","","","","","","","","","","","","",""
"null","audio/beep-329314.mp3","null","audio-keyboard-response","175","2.1.0","370625","J=YES, F=NO","8vw1y256az","0","59","78","40","","","","","","","","","","","","","","","",""
"null","audio/trout1.wav","null","audio-keyboard-response","176","2.1.0","371225","J=YES, F=NO","8vw1y256az","0","59","78","40","","","","","","","","","","","","","","","",""
"724","
          <p id=""word"" style=""font-size: 40px;"">catch</p>
          <p style=""font-size: 16px;"">J = YES &nbsp;&nbsp;&nbsp; F = NO</p>
        ","j","html-keyboard-response","177","2.1.0","371950","J=YES, F=NO","8vw1y256az","0","59","78","40","","","","","","","","","catch","trout1","literal","experimental","j","true","",""
"null","<p style=""font-size: 50px;"">+</p>","null","html-keyboard-response","178","2.1.0","372254","J=YES, F=NO","8vw1y256az","0","59","78","40","","","","","","","","","","","","","","","",""
"null","audio/beep-329314.mp3","null","audio-keyboard-response","179","2.1.0","373805","J=YES, F=NO","8vw1y256az","0","59","78","40","","","","","","","","","","","","","","","",""
"null","audio/planet1.wav","null","audio-keyboard-response","180","2.1.0","374565","J=YES, F=NO","8vw1y256az","0","59","78","40","","","","","","","","","","","","","","","",""
"832","
          <p id=""word"" style=""font-size: 40px;"">cratched</p>
          <p style=""font-size: 16px;"">J = YES &nbsp;&nbsp;&nbsp; F = NO</p>
        ","f","html-keyboard-response","181","2.1.0","375398","J=YES, F=NO","8vw1y256az","0","59","78","40","","","","","","","","","cratched","planet1","pseudoword","pseudoword","f","true","",""
"null","<p style=""font-size: 50px;"">+</p>","null","html-keyboard-response","182","2.1.0","375715","J=YES, F=NO","8vw1y256az","0","59","78","40","","","","","","","","","","","","","","","",""
"null","audio/beep-329314.mp3","null","audio-keyboard-response","183","2.1.0","377265","J=YES, F=NO","8vw1y256az","0","59","78","40","","","","","","","","","","","","","","","",""
"null","audio/fence.wav","null","audio-keyboard-response","184","2.1.0","377945","J=YES, F=NO","8vw1y256az","0","59","78","40","","","","","","","","","","","","","","","",""
"636","
          <p id=""word"" style=""font-size: 40px;"">climb</p>
          <p style=""font-size: 16px;"">J = YES &nbsp;&nbsp;&nbsp; F = NO</p>
        ","j","html-keyboard-response","185","2.1.0","378582","J=YES, F=NO","8vw1y256az","0","59","78","40","","","","","","","","","climb","fence","literal","experimental","j","true","",""
"null","<p style=""font-size: 50px;"">+</p>","null","html-keyboard-response","186","2.1.0","378885","J=YES, F=NO","8vw1y256az","0","59","78","40","","","","","","","","","","","","","","","",""
"null","audio/beep-329314.mp3","null","audio-keyboard-response","187","2.1.0","380445","J=YES, F=NO","8vw1y256az","0","59","78","40","","","","","","","","","","","","","","","",""
"null","audio/survey1.wav","null","audio-keyboard-response","188","2.1.0","381345","J=YES, F=NO","8vw1y256az","0","59","78","40","","","","","","","","","","","","","","","",""
"748","
          <p id=""word"" style=""font-size: 40px;"">imploth</p>
          <p style=""font-size: 16px;"">J = YES &nbsp;&nbsp;&nbsp; F = NO</p>
        ","f","html-keyboard-response","189","2.1.0","382094","J=YES, F=NO","8vw1y256az","0","59","78","40","","","","","","","","","imploth","survey1","pseudoword","pseudoword","f","true","",""
"null","<p style=""font-size: 50px;"">+</p>","null","html-keyboard-response","190","2.1.0","382407","J=YES, F=NO","8vw1y256az","0","59","78","40","","","","","","","","","","","","","","","",""
"null","audio/beep-329314.mp3","null","audio-keyboard-response","191","2.1.0","383965","J=YES, F=NO","8vw1y256az","0","59","78","40","","","","","","","","","","","","","","","",""
"null","audio/mind.wav","null","audio-keyboard-response","192","2.1.0","384685","J=YES, F=NO","8vw1y256az","0","59","78","40","","","","","","","","","","","","","","","",""
"840","
          <p id=""word"" style=""font-size: 40px;"">crainate</p>
          <p style=""font-size: 16px;"">J = YES &nbsp;&nbsp;&nbsp; F = NO</p>
        ","f","html-keyboard-response","193","2.1.0","385526","J=YES, F=NO","8vw1y256az","0","59","78","40","","","","","","","","","crainate","mind","pseudoword","pseudoword","f","true","",""
"null","<p style=""font-size: 50px;"">+</p>","null","html-keyboard-response","194","2.1.0","385838","J=YES, F=NO","8vw1y256az","0","59","78","40","","","","","","","","","","","","","","","",""
"null","audio/beep-329314.mp3","null","audio-keyboard-response","195","2.1.0","387385","J=YES, F=NO","8vw1y256az","0","59","78","40","","","","","","","","","","","","","","","",""
"null","audio/radio1.wav","null","audio-keyboard-response","196","2.1.0","388165","J=YES, F=NO","8vw1y256az","0","59","78","40","","","","","","","","","","","","","","","",""
"928","
          <p id=""word"" style=""font-size: 40px;"">blanter</p>
          <p style=""font-size: 16px;"">J = YES &nbsp;&nbsp;&nbsp; F = NO</p>
        ","f","html-keyboard-response","197","2.1.0","389094","J=YES, F=NO","8vw1y256az","0","59","78","40","","","","","","","","","blanter","radio1","pseudoword","pseudoword","f","true","",""
"null","<p style=""font-size: 50px;"">+</p>","null","html-keyboard-response","198","2.1.0","389405","J=YES, F=NO","8vw1y256az","0","59","78","40","","","","","","","","","","","","","","","",""
"null","audio/beep-329314.mp3","null","audio-keyboard-response","199","2.1.0","390966","J=YES, F=NO","8vw1y256az","0","59","78","40","","","","","","","","","","","","","","","",""
"null","audio/novel.wav","null","audio-keyboard-response","200","2.1.0","391485","J=YES, F=NO","8vw1y256az","0","59","78","40","","","","","","","","","","","","","","","",""
"536","
          <p id=""word"" style=""font-size: 40px;"">type</p>
          <p style=""font-size: 16px;"">J = YES &nbsp;&nbsp;&nbsp; F = NO</p>
        ","j","html-keyboard-response","201","2.1.0","392022","J=YES, F=NO","8vw1y256az","0","59","78","40","","","","","","","","","type","novel","filler","filler","j","true","",""
"null","<p style=""font-size: 50px;"">+</p>","null","html-keyboard-response","202","2.1.0","392328","J=YES, F=NO","8vw1y256az","0","59","78","40","","","","","","","","","","","","","","","",""
"null","audio/beep-329314.mp3","null","audio-keyboard-response","203","2.1.0","393885","J=YES, F=NO","8vw1y256az","0","59","78","40","","","","","","","","","","","","","","","",""
"null","audio/cancer1.wav","null","audio-keyboard-response","204","2.1.0","394585","J=YES, F=NO","8vw1y256az","0","59","78","40","","","","","","","","","","","","","","","",""
"540","
          <p id=""word"" style=""font-size: 40px;"">draw</p>
          <p style=""font-size: 16px;"">J = YES &nbsp;&nbsp;&nbsp; F = NO</p>
        ","j","html-keyboard-response","205","2.1.0","395126","J=YES, F=NO","8vw1y256az","0","59","78","40","","","","","","","","","draw","cancer1","filler","filler","j","true","",""
"null","<p style=""font-size: 50px;"">+</p>","null","html-keyboard-response","206","2.1.0","395441","J=YES, F=NO","8vw1y256az","0","59","78","40","","","","","","","","","","","","","","","",""
"null","audio/beep-329314.mp3","null","audio-keyboard-response","207","2.1.0","396985","J=YES, F=NO","8vw1y256az","0","59","78","40","","","","","","","","","","","","","","","",""
"null","audio/age1.wav","null","audio-keyboard-response","208","2.1.0","397566","J=YES, F=NO","8vw1y256az","0","59","78","40","","","","","","","","","","","","","","","",""
"1111","
          <p id=""word"" style=""font-size: 40px;"">seize</p>
          <p style=""font-size: 16px;"">J = YES &nbsp;&nbsp;&nbsp; F = NO</p>
        ","f","html-keyboard-response","209","2.1.0","398678","J=YES, F=NO","8vw1y256az","0","59","78","40","","","","","","","","","seize","age1","unrelated","experimental","j","false","",""
"null","<p style=""font-size: 50px;"">+</p>","null","html-keyboard-response","210","2.1.0","398990","J=YES, F=NO","8vw1y256az","0","59","78","40","","","","","","","","","","","","","","","",""
"null","audio/beep-329314.mp3","null","audio-keyboard-response","211","2.1.0","400545","J=YES, F=NO","8vw1y256az","0","59","78","40","","","","","","","","","","","","","","","",""
"null","audio/golf1.wav","null","audio-keyboard-response","212","2.1.0","401125","J=YES, F=NO","8vw1y256az","0","59","78","40","","","","","","","","","","","","","","","",""
"856","
          <p id=""word"" style=""font-size: 40px;"">drabble</p>
          <p style=""font-size: 16px;"">J = YES &nbsp;&nbsp;&nbsp; F = NO</p>
        ","f","html-keyboard-response","213","2.1.0","401982","J=YES, F=NO","8vw1y256az","0","59","78","40","","","","","","","","","drabble","golf1","pseudoword","pseudoword","f","true","",""
"null","<p style=""font-size: 50px;"">+</p>","null","html-keyboard-response","214","2.1.0","402287","J=YES, F=NO","8vw1y256az","0","59","78","40","","","","","","","","","","","","","","","",""
"null","audio/beep-329314.mp3","null","audio-keyboard-response","215","2.1.0","403845","J=YES, F=NO","8vw1y256az","0","59","78","40","","","","","","","","","","","","","","","",""
"null","audio/uncle1.wav","null","audio-keyboard-response","216","2.1.0","404365","J=YES, F=NO","8vw1y256az","0","59","78","40","","","","","","","","","","","","","","","",""
"816","
          <p id=""word"" style=""font-size: 40px;"">dramble</p>
          <p style=""font-size: 16px;"">J = YES &nbsp;&nbsp;&nbsp; F = NO</p>
        ","f","html-keyboard-response","217","2.1.0","405182","J=YES, F=NO","8vw1y256az","0","59","78","40","","","","","","","","","dramble","uncle1","pseudoword","pseudoword","f","true","",""
"null","<p style=""font-size: 50px;"">+</p>","null","html-keyboard-response","218","2.1.0","405492","J=YES, F=NO","8vw1y256az","0","59","78","40","","","","","","","","","","","","","","","",""
"null","audio/beep-329314.mp3","null","audio-keyboard-response","219","2.1.0","407045","J=YES, F=NO","8vw1y256az","0","59","78","40","","","","","","","","","","","","","","","",""
"null","audio/tunnel.wav","null","audio-keyboard-response","220","2.1.0","407486","J=YES, F=NO","8vw1y256az","0","59","78","40","","","","","","","","","","","","","","","",""
"1055","
          <p id=""word"" style=""font-size: 40px;"">gred</p>
          <p style=""font-size: 16px;"">J = YES &nbsp;&nbsp;&nbsp; F = NO</p>
        ","f","html-keyboard-response","221","2.1.0","408542","J=YES, F=NO","8vw1y256az","0","59","78","40","","","","","","","","","gred","tunnel","pseudoword","pseudoword","f","true","",""
"null","<p style=""font-size: 50px;"">+</p>","null","html-keyboard-response","222","2.1.0","408847","J=YES, F=NO","8vw1y256az","0","59","78","40","","","","","","","","","","","","","","","",""
"null","audio/beep-329314.mp3","null","audio-keyboard-response","223","2.1.0","410405","J=YES, F=NO","8vw1y256az","0","59","78","40","","","","","","","","","","","","","","","",""
"null","audio/dome.wav","null","audio-keyboard-response","224","2.1.0","410865","J=YES, F=NO","8vw1y256az","0","59","78","40","","","","","","","","","","","","","","","",""
"844","
          <p id=""word"" style=""font-size: 40px;"">scrupliness</p>
          <p style=""font-size: 16px;"">J = YES &nbsp;&nbsp;&nbsp; F = NO</p>
        ","f","html-keyboard-response","225","2.1.0","411710","J=YES, F=NO","8vw1y256az","0","59","78","40","","","","","","","","","scrupliness","dome","pseudoword","pseudoword","f","true","",""
"null","<p style=""font-size: 50px;"">+</p>","null","html-keyboard-response","226","2.1.0","412020","J=YES, F=NO","8vw1y256az","0","59","78","40","","","","","","","","","","","","","","","",""
"null","audio/beep-329314.mp3","null","audio-keyboard-response","227","2.1.0","413565","J=YES, F=NO","8vw1y256az","0","59","78","40","","","","","","","","","","","","","","","",""
"null","audio/bridge.wav","null","audio-keyboard-response","228","2.1.0","414145","J=YES, F=NO","8vw1y256az","0","59","78","40","","","","","","","","","","","","","","","",""
"740","
          <p id=""word"" style=""font-size: 40px;"">crack</p>
          <p style=""font-size: 16px;"">J = YES &nbsp;&nbsp;&nbsp; F = NO</p>
        ","j","html-keyboard-response","229","2.1.0","414886","J=YES, F=NO","8vw1y256az","0","59","78","40","","","","","","","","","crack","bridge","filler","filler","j","true","",""
"6143","<p>Excellent! You have finished block 1 of 8.</p>
                     <p>Feel free to take a 30 second break.</p>
                     <p>Press any key when you're ready to continue.</p>"," ","html-keyboard-response","230","2.1.0","421030","J=YES, F=NO","8vw1y256az","0","59","78","40","","","","","","","","","","","","","","","",""
"1526","<p>Starting main block 2 of 8. Press any key to continue.</p>"," ","html-keyboard-response","231","2.1.0","422557","J=YES, F=NO","8vw1y256az","0","59","78","40","","","","","","","","","","","","","","","",""
"null","<p style=""font-size: 50px;"">+</p>","null","html-keyboard-response","232","2.1.0","422870","J=YES, F=NO","8vw1y256az","0","59","78","40","","","","","","","","","","","","","","","",""
"null","audio/beep-329314.mp3","null","audio-keyboard-response","233","2.1.0","424425","J=YES, F=NO","8vw1y256az","0","59","78","40","","","","","","","","","","","","","","","",""
"null","audio/soul.wav","null","audio-keyboard-response","234","2.1.0","425155","J=YES, F=NO","8vw1y256az","0","59","78","40","","","","","","","","","","","","","","","",""
"602","
          <p id=""word"" style=""font-size: 40px;"">sell</p>
          <p style=""font-size: 16px;"">J = YES &nbsp;&nbsp;&nbsp; F = NO</p>
        ","j","html-keyboard-response","235","2.1.0","425757","J=YES, F=NO","8vw1y256az","0","59","78","40","","","","","","","","","sell","soul","metaphor","experimental","j","true","",""
"null","<p style=""font-size: 50px;"">+</p>","null","html-keyboard-response","236","2.1.0","426071","J=YES, F=NO","8vw1y256az","0","59","78","40","","","","","","","","","","","","","","","",""
"null","audio/beep-329314.mp3","null","audio-keyboard-response","237","2.1.0","427625","J=YES, F=NO","8vw1y256az","0","59","78","40","","","","","","","","","","","","","","","",""
"null","audio/scar.wav","null","audio-keyboard-response","238","2.1.0","428295","J=YES, F=NO","8vw1y256az","0","59","78","40","","","","","","","","","","","","","","","",""
"1157","
          <p id=""word"" style=""font-size: 40px;"">adelineate</p>
          <p style=""font-size: 16px;"">J = YES &nbsp;&nbsp;&nbsp; F = NO</p>
        ","f","html-keyboard-response","239","2.1.0","429453","J=YES, F=NO","8vw1y256az","0","59","78","40","","","","","","","","","adelineate","scar","pseudoword","pseudoword","f","true","",""
"null","<p style=""font-size: 50px;"">+</p>","null","html-keyboard-response","240","2.1.0","429755","J=YES, F=NO","8vw1y256az","0","59","78","40","","","","","","","","","","","","","","","",""
"null","audio/beep-329314.mp3","null","audio-keyboard-response","241","2.1.0","431305","J=YES, F=NO","8vw1y256az","0","59","78","40","","","","","","","","","","","","","","","",""
"null","audio/desire.wav","null","audio-keyboard-response","242","2.1.0","432055","J=YES, F=NO","8vw1y256az","0","59","78","40","","","","","","","","","","","","","","","",""
"1142","
          <p id=""word"" style=""font-size: 40px;"">nophed</p>
          <p style=""font-size: 16px;"">J = YES &nbsp;&nbsp;&nbsp; F = NO</p>
        ","f","html-keyboard-response","243","2.1.0","433197","J=YES, F=NO","8vw1y256az","0","59","78","40","","","","","","","","","nophed","desire","pseudoword","pseudoword","f","true","",""
"null","<p style=""font-size: 50px;"">+</p>","null","html-keyboard-response","244","2.1.0","433508","J=YES, F=NO","8vw1y256az","0","59","78","40","","","","","","","","","","","","","","","",""
"null","audio/beep-329314.mp3","null","audio-keyboard-response","245","2.1.0","435065","J=YES, F=NO","8vw1y256az","0","59","78","40","","","","","","","","","","","","","","","",""
"null","audio/neck.wav","null","audio-keyboard-response","246","2.1.0","435775","J=YES, F=NO","8vw1y256az","0","59","78","40","","","","","","","","","","","","","","","",""
"1005","
          <p id=""word"" style=""font-size: 40px;"">werling</p>
          <p style=""font-size: 16px;"">J = YES &nbsp;&nbsp;&nbsp; F = NO</p>
        ","f","html-keyboard-response","247","2.1.0","436781","J=YES, F=NO","8vw1y256az","0","59","78","40","","","","","","","","","werling","neck","pseudoword","pseudoword","f","true","",""
"null","<p style=""font-size: 50px;"">+</p>","null","html-keyboard-response","248","2.1.0","437090","J=YES, F=NO","8vw1y256az","0","59","78","40","","","","","","","","","","","","","","","",""
"null","audio/beep-329314.mp3","null","audio-keyboard-response","249","2.1.0","438645","J=YES, F=NO","8vw1y256az","0","59","78","40","","","","","","","","","","","","","","","",""
"null","audio/promise1.wav","null","audio-keyboard-response","250","2.1.0","439295","J=YES, F=NO","8vw1y256az","0","59","78","40","","","","","","","","","","","","","","","",""
"510","
          <p id=""word"" style=""font-size: 40px;"">break</p>
          <p style=""font-size: 16px;"">J = YES &nbsp;&nbsp;&nbsp; F = NO</p>
        ","j","html-keyboard-response","251","2.1.0","439805","J=YES, F=NO","8vw1y256az","0","59","78","40","","","","","","","","","break","promise1","metaphor","experimental","j","true","",""
"null","<p style=""font-size: 50px;"">+</p>","null","html-keyboard-response","252","2.1.0","440115","J=YES, F=NO","8vw1y256az","0","59","78","40","","","","","","","","","","","","","","","",""
"null","audio/beep-329314.mp3","null","audio-keyboard-response","253","2.1.0","441665","J=YES, F=NO","8vw1y256az","0","59","78","40","","","","","","","","","","","","","","","",""
"null","audio/arm.wav","null","audio-keyboard-response","254","2.1.0","442435","J=YES, F=NO","8vw1y256az","0","59","78","40","","","","","","","","","","","","","","","",""
"1185","
          <p id=""word"" style=""font-size: 40px;"">pigne</p>
          <p style=""font-size: 16px;"">J = YES &nbsp;&nbsp;&nbsp; F = NO</p>
        ","f","html-keyboard-response","255","2.1.0","443621","J=YES, F=NO","8vw1y256az","0","59","78","40","","","","","","","","","pigne","arm","pseudoword","pseudoword","f","true","",""
"null","<p style=""font-size: 50px;"">+</p>","null","html-keyboard-response","256","2.1.0","443933","J=YES, F=NO","8vw1y256az","0","59","78","40","","","","","","","","","","","","","","","",""
"null","audio/beep-329314.mp3","null","audio-keyboard-response","257","2.1.0","445485","J=YES, F=NO","8vw1y256az","0","59","78","40","","","","","","","","","","","","","","","",""
"null","audio/devil1.wav","null","audio-keyboard-response","258","2.1.0","445915","J=YES, F=NO","8vw1y256az","0","59","78","40","","","","","","","","","","","","","","","",""
"553","
          <p id=""word"" style=""font-size: 40px;"">carry</p>
          <p style=""font-size: 16px;"">J = YES &nbsp;&nbsp;&nbsp; F = NO</p>
        ","j","html-keyboard-response","259","2.1.0","446469","J=YES, F=NO","8vw1y256az","0","59","78","40","","","","","","","","","carry","devil1","unrelated","experimental","j","true","",""
"null","<p style=""font-size: 50px;"">+</p>","null","html-keyboard-response","260","2.1.0","446771","J=YES, F=NO","8vw1y256az","0","59","78","40","","","","","","","","","","","","","","","",""
"null","audio/beep-329314.mp3","null","audio-keyboard-response","261","2.1.0","448325","J=YES, F=NO","8vw1y256az","0","59","78","40","","","","","","","","","","","","","","","",""
"null","audio/bush1.wav","null","audio-keyboard-response","262","2.1.0","448855","J=YES, F=NO","8vw1y256az","0","59","78","40","","","","","","","","","","","","","","","",""
"1237","
          <p id=""word"" style=""font-size: 40px;"">platined</p>
          <p style=""font-size: 16px;"">J = YES &nbsp;&nbsp;&nbsp; F = NO</p>
        ","f","html-keyboard-response","263","2.1.0","450093","J=YES, F=NO","8vw1y256az","0","59","78","40","","","","","","","","","platined","bush1","pseudoword","pseudoword","f","true","",""
"null","<p style=""font-size: 50px;"">+</p>","null","html-keyboard-response","264","2.1.0","450405","J=YES, F=NO","8vw1y256az","0","59","78","40","","","","","","","","","","","","","","","",""
"null","audio/beep-329314.mp3","null","audio-keyboard-response","265","2.1.0","451965","J=YES, F=NO","8vw1y256az","0","59","78","40","","","","","","","","","","","","","","","",""
"null","audio/cash1.wav","null","audio-keyboard-response","266","2.1.0","452675","J=YES, F=NO","8vw1y256az","0","59","78","40","","","","","","","","","","","","","","","",""
"753","
          <p id=""word"" style=""font-size: 40px;"">splear</p>
          <p style=""font-size: 16px;"">J = YES &nbsp;&nbsp;&nbsp; F = NO</p>
        ","j","html-keyboard-response","267","2.1.0","453429","J=YES, F=NO","8vw1y256az","0","59","78","40","","","","","","","","","splear","cash1","pseudoword","pseudoword","f","false","",""
"null","<p style=""font-size: 50px;"">+</p>","null","html-keyboard-response","268","2.1.0","453731","J=YES, F=NO","8vw1y256az","0","59","78","40","","","","","","","","","","","","","","","",""
"null","audio/beep-329314.mp3","null","audio-keyboard-response","269","2.1.0","455285","J=YES, F=NO","8vw1y256az","0","59","78","40","","","","","","","","","","","","","","","",""
"null","audio/life1.wav","null","audio-keyboard-response","270","2.1.0","455835","J=YES, F=NO","8vw1y256az","0","59","78","40","","","","","","","","","","","","","","","",""
"601","
          <p id=""word"" style=""font-size: 40px;"">give</p>
          <p style=""font-size: 16px;"">J = YES &nbsp;&nbsp;&nbsp; F = NO</p>
        ","j","html-keyboard-response","271","2.1.0","456437","J=YES, F=NO","8vw1y256az","0","59","78","40","","","","","","","","","give","life1","metaphor","experimental","j","true","",""
"null","<p style=""font-size: 50px;"">+</p>","null","html-keyboard-response","272","2.1.0","456752","J=YES, F=NO","8vw1y256az","0","59","78","40","","","","","","","","","","","","","","","",""
"null","audio/beep-329314.mp3","null","audio-keyboard-response","273","2.1.0","458305","J=YES, F=NO","8vw1y256az","0","59","78","40","","","","","","","","","","","","","","","",""
"null","audio/fortune1.wav","null","audio-keyboard-response","274","2.1.0","459235","J=YES, F=NO","8vw1y256az","0","59","78","40","","","","","","","","","","","","","","","",""
"849","
          <p id=""word"" style=""font-size: 40px;"">spend</p>
          <p style=""font-size: 16px;"">J = YES &nbsp;&nbsp;&nbsp; F = NO</p>
        ","j","html-keyboard-response","275","2.1.0","460085","J=YES, F=NO","8vw1y256az","0","59","78","40","","","","","","","","","spend","fortune1","literal","experimental","j","true","",""
"null","<p style=""font-size: 50px;"">+</p>","null","html-keyboard-response","276","2.1.0","460390","J=YES, F=NO","8vw1y256az","0","59","78","40","","","","","","","","","","","","","","","",""
"null","audio/beep-329314.mp3","null","audio-keyboard-response","277","2.1.0","461945","J=YES, F=NO","8vw1y256az","0","59","78","40","","","","","","","","","","","","","","","",""
"null","audio/tomato.wav","null","audio-keyboard-response","278","2.1.0","462675","J=YES, F=NO","8vw1y256az","0","59","78","40","","","","","","","","","","","","","","","",""
"1257","
          <p id=""word"" style=""font-size: 40px;"">gladies</p>
          <p style=""font-size: 16px;"">J = YES &nbsp;&nbsp;&nbsp; F = NO</p>
        ","f","html-keyboard-response","279","2.1.0","463933","J=YES, F=NO","8vw1y256az","0","59","78","40","","","","","","","","","gladies","tomato","pseudoword","pseudoword","f","true","",""
"null","<p style=""font-size: 50px;"">+</p>","null","html-keyboard-response","280","2.1.0","464243","J=YES, F=NO","8vw1y256az","0","59","78","40","","","","","","","","","","","","","","","",""
"null","audio/beep-329314.mp3","null","audio-keyboard-response","281","2.1.0","465785","J=YES, F=NO","8vw1y256az","0","59","78","40","","","","","","","","","","","","","","","",""
"null","audio/test1.wav","null","audio-keyboard-response","282","2.1.0","466415","J=YES, F=NO","8vw1y256az","0","59","78","40","","","","","","","","","","","","","","","",""
"717","
          <p id=""word"" style=""font-size: 40px;"">twopch</p>
          <p style=""font-size: 16px;"">J = YES &nbsp;&nbsp;&nbsp; F = NO</p>
        ","f","html-keyboard-response","283","2.1.0","467133","J=YES, F=NO","8vw1y256az","0","59","78","40","","","","","","","","","twopch","test1","pseudoword","pseudoword","f","true","",""
"null","<p style=""font-size: 50px;"">+</p>","null","html-keyboard-response","284","2.1.0","467446","J=YES, F=NO","8vw1y256az","0","59","78","40","","","","","","","","","","","","","","","",""
"null","audio/beep-329314.mp3","null","audio-keyboard-response","285","2.1.0","469005","J=YES, F=NO","8vw1y256az","0","59","78","40","","","","","","","","","","","","","","","",""
"null","audio/pizza1.wav","null","audio-keyboard-response","286","2.1.0","469595","J=YES, F=NO","8vw1y256az","0","59","78","40","","","","","","","","","","","","","","","",""
"785","
          <p id=""word"" style=""font-size: 40px;"">devour</p>
          <p style=""font-size: 16px;"">J = YES &nbsp;&nbsp;&nbsp; F = NO</p>
        ","j","html-keyboard-response","287","2.1.0","470381","J=YES, F=NO","8vw1y256az","0","59","78","40","","","","","","","","","devour","pizza1","literal","experimental","j","true","",""
"null","<p style=""font-size: 50px;"">+</p>","null","html-keyboard-response","288","2.1.0","470696","J=YES, F=NO","8vw1y256az","0","59","78","40","","","","","","","","","","","","","","","",""
"null","audio/beep-329314.mp3","null","audio-keyboard-response","289","2.1.0","472246","J=YES, F=NO","8vw1y256az","0","59","78","40","","","","","","","","","","","","","","","",""
"null","audio/vehicle1.wav","null","audio-keyboard-response","290","2.1.0","472895","J=YES, F=NO","8vw1y256az","0","59","78","40","","","","","","","","","","","","","","","",""
"669","
          <p id=""word"" style=""font-size: 40px;"">approach</p>
          <p style=""font-size: 16px;"">J = YES &nbsp;&nbsp;&nbsp; F = NO</p>
        ","j","html-keyboard-response","291","2.1.0","473565","J=YES, F=NO","8vw1y256az","0","59","78","40","","","","","","","","","approach","vehicle1","literal","experimental","j","true","",""
"null","<p style=""font-size: 50px;"">+</p>","null","html-keyboard-response","292","2.1.0","473882","J=YES, F=NO","8vw1y256az","0","59","78","40","","","","","","","","","","","","","","","",""
"null","audio/beep-329314.mp3","null","audio-keyboard-response","293","2.1.0","475425","J=YES, F=NO","8vw1y256az","0","59","78","40","","","","","","","","","","","","","","","",""
"null","audio/hawk1.wav","null","audio-keyboard-response","294","2.1.0","476075","J=YES, F=NO","8vw1y256az","0","59","78","40","","","","","","","","","","","","","","","",""
"825","
          <p id=""word"" style=""font-size: 40px;"">ostach</p>
          <p style=""font-size: 16px;"">J = YES &nbsp;&nbsp;&nbsp; F = NO</p>
        ","f","html-keyboard-response","295","2.1.0","476901","J=YES, F=NO","8vw1y256az","0","59","78","40","","","","","","","","","ostach","hawk1","pseudoword","pseudoword","f","true","",""
"65935","<p>Excellent! You have finished block 2 of 8.</p>
                     <p>Feel free to take a 30 second break.</p>
                     <p>Press any key when you're ready to continue.</p>"," ","html-keyboard-response","296","2.1.0","542837","J=YES, F=NO","8vw1y256az","0","59","78","40","","","","","","","","","","","","","","","",""
"2863","<p>Starting main block 3 of 8. Press any key to continue.</p>"," ","html-keyboard-response","297","2.1.0","545702","J=YES, F=NO","8vw1y256az","0","59","78","40","","","","","","","","","","","","","","","",""
"null","<p style=""font-size: 50px;"">+</p>","null","html-keyboard-response","298","2.1.0","546004","J=YES, F=NO","8vw1y256az","0","59","78","40","","","","","","","","","","","","","","","",""
"null","audio/beep-329314.mp3","null","audio-keyboard-response","299","2.1.0","547535","J=YES, F=NO","8vw1y256az","0","59","78","40","","","","","","","","","","","","","","","",""
"null","audio/pain1.wav","null","audio-keyboard-response","300","2.1.0","547975","J=YES, F=NO","8vw1y256az","0","59","78","40","","","","","","","","","","","","","","","",""
"1204","
          <p id=""word"" style=""font-size: 40px;"">tritted</p>
          <p style=""font-size: 16px;"">J = YES &nbsp;&nbsp;&nbsp; F = NO</p>
        ","f","html-keyboard-response","301","2.1.0","549181","J=YES, F=NO","8vw1y256az","0","59","78","40","","","","","","","","","tritted","pain1","pseudoword","pseudoword","f","true","",""
"null","<p style=""font-size: 50px;"">+</p>","null","html-keyboard-response","302","2.1.0","549488","J=YES, F=NO","8vw1y256az","0","59","78","40","","","","","","","","","","","","","","","",""
"null","audio/beep-329314.mp3","null","audio-keyboard-response","303","2.1.0","551035","J=YES, F=NO","8vw1y256az","0","59","78","40","","","","","","","","","","","","","","","",""
"null","audio/desire.wav","null","audio-keyboard-response","304","2.1.0","551656","J=YES, F=NO","8vw1y256az","0","59","78","40","","","","","","","","","","","","","","","",""
"668","
          <p id=""word"" style=""font-size: 40px;"">open</p>
          <p style=""font-size: 16px;"">J = YES &nbsp;&nbsp;&nbsp; F = NO</p>
        ","j","html-keyboard-response","305","2.1.0","552325","J=YES, F=NO","8vw1y256az","0","59","78","40","","","","","","","","","open","desire","unrelated","experimental","j","true","",""
"null","<p style=""font-size: 50px;"">+</p>","null","html-keyboard-response","306","2.1.0","552632","J=YES, F=NO","8vw1y256az","0","59","78","40","","","","","","","","","","","","","","","",""
"null","audio/beep-329314.mp3","null","audio-keyboard-response","307","2.1.0","554175","J=YES, F=NO","8vw1y256az","0","59","78","40","","","","","","","","","","","","","","","",""
"null","audio/key1.wav","null","audio-keyboard-response","308","2.1.0","554575","J=YES, F=NO","8vw1y256az","0","59","78","40","","","","","","","","","","","","","","","",""
"null","
          <p id=""word"" style=""font-size: 40px;"">lose</p>
          <p style=""font-size: 16px;"">J = YES &nbsp;&nbsp;&nbsp; F = NO</p>
        ","null","html-keyboard-response","309","2.1.0","556083","J=YES, F=NO","8vw1y256az","0","59","78","40","","","","","","","","","lose","key1","literal","experimental","j","false","",""
"null","<p style=""font-size: 50px;"">+</p>","null","html-keyboard-response","310","2.1.0","556392","J=YES, F=NO","8vw1y256az","0","59","78","40","","","","","","","","","","","","","","","",""
"null","audio/beep-329314.mp3","null","audio-keyboard-response","311","2.1.0","557935","J=YES, F=NO","8vw1y256az","0","59","78","40","","","","","","","","","","","","","","","",""
"null","audio/smirk1.wav","null","audio-keyboard-response","312","2.1.0","558695","J=YES, F=NO","8vw1y256az","0","59","78","40","","","","","","","","","","","","","","","",""
"925","
          <p id=""word"" style=""font-size: 40px;"">snopt</p>
          <p style=""font-size: 16px;"">J = YES &nbsp;&nbsp;&nbsp; F = NO</p>
        ","f","html-keyboard-response","313","2.1.0","559621","J=YES, F=NO","8vw1y256az","0","59","78","40","","","","","","","","","snopt","smirk1","pseudoword","pseudoword","f","true","",""
"null","<p style=""font-size: 50px;"">+</p>","null","html-keyboard-response","314","2.1.0","559927","J=YES, F=NO","8vw1y256az","0","59","78","40","","","","","","","","","","","","","","","",""
"null","audio/beep-329314.mp3","null","audio-keyboard-response","315","2.1.0","561475","J=YES, F=NO","8vw1y256az","0","59","78","40","","","","","","","","","","","","","","","",""
"null","audio/seat.wav","null","audio-keyboard-response","316","2.1.0","562155","J=YES, F=NO","8vw1y256az","0","59","78","40","","","","","","","","","","","","","","","",""
"881","
          <p id=""word"" style=""font-size: 40px;"">digest</p>
          <p style=""font-size: 16px;"">J = YES &nbsp;&nbsp;&nbsp; F = NO</p>
        ","f","html-keyboard-response","317","2.1.0","563037","J=YES, F=NO","8vw1y256az","0","59","78","40","","","","","","","","","digest","seat","unrelated","experimental","j","false","",""
"null","<p style=""font-size: 50px;"">+</p>","null","html-keyboard-response","318","2.1.0","563352","J=YES, F=NO","8vw1y256az","0","59","78","40","","","","","","","","","","","","","","","",""
"null","audio/beep-329314.mp3","null","audio-keyboard-response","319","2.1.0","564895","J=YES, F=NO","8vw1y256az","0","59","78","40","","","","","","","","","","","","","","","",""
"null","audio/trust.wav","null","audio-keyboard-response","320","2.1.0","565576","J=YES, F=NO","8vw1y256az","0","59","78","40","","","","","","","","","","","","","","","",""
"1068","
          <p id=""word"" style=""font-size: 40px;"">swint</p>
          <p style=""font-size: 16px;"">J = YES &nbsp;&nbsp;&nbsp; F = NO</p>
        ","f","html-keyboard-response","321","2.1.0","566645","J=YES, F=NO","8vw1y256az","0","59","78","40","","","","","","","","","swint","trust","pseudoword","pseudoword","f","true","",""
"null","<p style=""font-size: 50px;"">+</p>","null","html-keyboard-response","322","2.1.0","566957","J=YES, F=NO","8vw1y256az","0","59","78","40","","","","","","","","","","","","","","","",""
"null","audio/beep-329314.mp3","null","audio-keyboard-response","323","2.1.0","568515","J=YES, F=NO","8vw1y256az","0","59","78","40","","","","","","","","","","","","","","","",""
"null","audio/key1.wav","null","audio-keyboard-response","324","2.1.0","568915","J=YES, F=NO","8vw1y256az","0","59","78","40","","","","","","","","","","","","","","","",""
"944","
          <p id=""word"" style=""font-size: 40px;"">sminsh</p>
          <p style=""font-size: 16px;"">J = YES &nbsp;&nbsp;&nbsp; F = NO</p>
        ","f","html-keyboard-response","325","2.1.0","569861","J=YES, F=NO","8vw1y256az","0","59","78","40","","","","","","","","","sminsh","key1","pseudoword","pseudoword","f","true","",""
"null","<p style=""font-size: 50px;"">+</p>","null","html-keyboard-response","326","2.1.0","570168","J=YES, F=NO","8vw1y256az","0","59","78","40","","","","","","","","","","","","","","","",""
"null","audio/beep-329314.mp3","null","audio-keyboard-response","327","2.1.0","571715","J=YES, F=NO","8vw1y256az","0","59","78","40","","","","","","","","","","","","","","","",""
"null","audio/topic.wav","null","audio-keyboard-response","328","2.1.0","572335","J=YES, F=NO","8vw1y256az","0","59","78","40","","","","","","","","","","","","","","","",""
"1220","
          <p id=""word"" style=""font-size: 40px;"">infortuitist</p>
          <p style=""font-size: 16px;"">J = YES &nbsp;&nbsp;&nbsp; F = NO</p>
        ","j","html-keyboard-response","329","2.1.0","573556","J=YES, F=NO","8vw1y256az","0","59","78","40","","","","","","","","","infortuitist","topic","pseudoword","pseudoword","f","false","",""
"null","<p style=""font-size: 50px;"">+</p>","null","html-keyboard-response","330","2.1.0","573858","J=YES, F=NO","8vw1y256az","0","59","78","40","","","","","","","","","","","","","","","",""
"null","audio/beep-329314.mp3","null","audio-keyboard-response","331","2.1.0","575415","J=YES, F=NO","8vw1y256az","0","59","78","40","","","","","","","","","","","","","","","",""
"null","audio/strength.wav","null","audio-keyboard-response","332","2.1.0","576235","J=YES, F=NO","8vw1y256az","0","59","78","40","","","","","","","","","","","","","","","",""
"1265","
          <p id=""word"" style=""font-size: 40px;"">plabet</p>
          <p style=""font-size: 16px;"">J = YES &nbsp;&nbsp;&nbsp; F = NO</p>
        ","f","html-keyboard-response","333","2.1.0","577501","J=YES, F=NO","8vw1y256az","0","59","78","40","","","","","","","","","plabet","strength","pseudoword","pseudoword","f","true","",""
"null","<p style=""font-size: 50px;"">+</p>","null","html-keyboard-response","334","2.1.0","577803","J=YES, F=NO","8vw1y256az","0","59","78","40","","","","","","","","","","","","","","","",""
"null","audio/beep-329314.mp3","null","audio-keyboard-response","335","2.1.0","579355","J=YES, F=NO","8vw1y256az","0","59","78","40","","","","","","","","","","","","","","","",""
"null","audio/ego.wav","null","audio-keyboard-response","336","2.1.0","579935","J=YES, F=NO","8vw1y256az","0","59","78","40","","","","","","","","","","","","","","","",""
"1293","
          <p id=""word"" style=""font-size: 40px;"">bruite</p>
          <p style=""font-size: 16px;"">J = YES &nbsp;&nbsp;&nbsp; F = NO</p>
        ","f","html-keyboard-response","337","2.1.0","581228","J=YES, F=NO","8vw1y256az","0","59","78","40","","","","","","","","","bruite","ego","pseudoword","pseudoword","f","true","",""
"null","<p style=""font-size: 50px;"">+</p>","null","html-keyboard-response","338","2.1.0","581537","J=YES, F=NO","8vw1y256az","0","59","78","40","","","","","","","","","","","","","","","",""
"null","audio/beep-329314.mp3","null","audio-keyboard-response","339","2.1.0","583095","J=YES, F=NO","8vw1y256az","0","59","78","40","","","","","","","","","","","","","","","",""
"null","audio/roof1.wav","null","audio-keyboard-response","340","2.1.0","583655","J=YES, F=NO","8vw1y256az","0","59","78","40","","","","","","","","","","","","","","","",""
"652","
          <p id=""word"" style=""font-size: 40px;"">wronb</p>
          <p style=""font-size: 16px;"">J = YES &nbsp;&nbsp;&nbsp; F = NO</p>
        ","f","html-keyboard-response","341","2.1.0","584308","J=YES, F=NO","8vw1y256az","0","59","78","40","","","","","","","","","wronb","roof1","pseudoword","pseudoword","f","true","",""
"null","<p style=""font-size: 50px;"">+</p>","null","html-keyboard-response","342","2.1.0","584615","J=YES, F=NO","8vw1y256az","0","59","78","40","","","","","","","","","","","","","","","",""
"null","audio/beep-329314.mp3","null","audio-keyboard-response","343","2.1.0","586175","J=YES, F=NO","8vw1y256az","0","59","78","40","","","","","","","","","","","","","","","",""
"null","audio/emotion.wav","null","audio-keyboard-response","344","2.1.0","586875","J=YES, F=NO","8vw1y256az","0","59","78","40","","","","","","","","","","","","","","","",""
"null","
          <p id=""word"" style=""font-size: 40px;"">devering</p>
          <p style=""font-size: 16px;"">J = YES &nbsp;&nbsp;&nbsp; F = NO</p>
        ","null","html-keyboard-response","345","2.1.0","588378","J=YES, F=NO","8vw1y256az","0","59","78","40","","","","","","","","","devering","emotion","pseudoword","pseudoword","f","false","",""
"null","<p style=""font-size: 50px;"">+</p>","null","html-keyboard-response","346","2.1.0","588687","J=YES, F=NO","8vw1y256az","0","59","78","40","","","","","","","","","","","","","","","",""
"null","audio/beep-329314.mp3","null","audio-keyboard-response","347","2.1.0","590235","J=YES, F=NO","8vw1y256az","0","59","78","40","","","","","","","","","","","","","","","",""
"null","audio/weight1.wav","null","audio-keyboard-response","348","2.1.0","590775","J=YES, F=NO","8vw1y256az","0","59","78","40","","","","","","","","","","","","","","","",""
"557","
          <p id=""word"" style=""font-size: 40px;"">support</p>
          <p style=""font-size: 16px;"">J = YES &nbsp;&nbsp;&nbsp; F = NO</p>
        ","j","html-keyboard-response","349","2.1.0","591332","J=YES, F=NO","8vw1y256az","0","59","78","40","","","","","","","","","support","weight1","literal","experimental","j","true","",""
"null","<p style=""font-size: 50px;"">+</p>","null","html-keyboard-response","350","2.1.0","591635","J=YES, F=NO","8vw1y256az","0","59","78","40","","","","","","","","","","","","","","","",""
"null","audio/beep-329314.mp3","null","audio-keyboard-response","351","2.1.0","593195","J=YES, F=NO","8vw1y256az","0","59","78","40","","","","","","","","","","","","","","","",""
"null","audio/enemy1.wav","null","audio-keyboard-response","352","2.1.0","593695","J=YES, F=NO","8vw1y256az","0","59","78","40","","","","","","","","","","","","","","","",""
"620","
          <p id=""word"" style=""font-size: 40px;"">defeat</p>
          <p style=""font-size: 16px;"">J = YES &nbsp;&nbsp;&nbsp; F = NO</p>
        ","j","html-keyboard-response","353","2.1.0","594316","J=YES, F=NO","8vw1y256az","0","59","78","40","","","","","","","","","defeat","enemy1","literal","experimental","j","true","",""
"null","<p style=""font-size: 50px;"">+</p>","null","html-keyboard-response","354","2.1.0","594620","J=YES, F=NO","8vw1y256az","0","59","78","40","","","","","","","","","","","","","","","",""
"null","audio/beep-329314.mp3","null","audio-keyboard-response","355","2.1.0","596175","J=YES, F=NO","8vw1y256az","0","59","78","40","","","","","","","","","","","","","","","",""
"null","audio/cloud1.wav","null","audio-keyboard-response","356","2.1.0","596775","J=YES, F=NO","8vw1y256az","0","59","78","40","","","","","","","","","","","","","","","",""
"1228","
          <p id=""word"" style=""font-size: 40px;"">brotant</p>
          <p style=""font-size: 16px;"">J = YES &nbsp;&nbsp;&nbsp; F = NO</p>
        ","j","html-keyboard-response","357","2.1.0","598004","J=YES, F=NO","8vw1y256az","0","59","78","40","","","","","","","","","brotant","cloud1","pseudoword","pseudoword","f","false","",""
"null","<p style=""font-size: 50px;"">+</p>","null","html-keyboard-response","358","2.1.0","598315","J=YES, F=NO","8vw1y256az","0","59","78","40","","","","","","","","","","","","","","","",""
"null","audio/beep-329314.mp3","null","audio-keyboard-response","359","2.1.0","599875","J=YES, F=NO","8vw1y256az","0","59","78","40","","","","","","","","","","","","","","","",""
"null","audio/age1.wav","null","audio-keyboard-response","360","2.1.0","600435","J=YES, F=NO","8vw1y256az","0","59","78","40","","","","","","","","","","","","","","","",""
"560","
          <p id=""word"" style=""font-size: 40px;"">bake</p>
          <p style=""font-size: 16px;"">J = YES &nbsp;&nbsp;&nbsp; F = NO</p>
        ","j","html-keyboard-response","361","2.1.0","600996","J=YES, F=NO","8vw1y256az","0","59","78","40","","","","","","","","","bake","age1","filler","filler","j","true","",""
"3911","<p>Excellent! You have finished block 3 of 8.</p>
                     <p>Feel free to take a 30 second break.</p>
                     <p>Press any key when you're ready to continue.</p>"," ","html-keyboard-response","362","2.1.0","604908","J=YES, F=NO","8vw1y256az","0","59","78","40","","","","","","","","","","","","","","","",""
"1198","<p>Starting main block 4 of 8. Press any key to continue.</p>"," ","html-keyboard-response","363","2.1.0","606108","J=YES, F=NO","8vw1y256az","0","59","78","40","","","","","","","","","","","","","","","",""
"null","<p style=""font-size: 50px;"">+</p>","null","html-keyboard-response","364","2.1.0","606422","J=YES, F=NO","8vw1y256az","0","59","78","40","","","","","","","","","","","","","","","",""
"null","audio/beep-329314.mp3","null","audio-keyboard-response","365","2.1.0","607975","J=YES, F=NO","8vw1y256az","0","59","78","40","","","","","","","","","","","","","","","",""
"null","audio/story.wav","null","audio-keyboard-response","366","2.1.0","608675","J=YES, F=NO","8vw1y256az","0","59","78","40","","","","","","","","","","","","","","","",""
"744","
          <p id=""word"" style=""font-size: 40px;"">cover</p>
          <p style=""font-size: 16px;"">J = YES &nbsp;&nbsp;&nbsp; F = NO</p>
        ","j","html-keyboard-response","367","2.1.0","609420","J=YES, F=NO","8vw1y256az","0","59","78","40","","","","","","","","","cover","story","metaphor","experimental","j","true","",""
"null","<p style=""font-size: 50px;"">+</p>","null","html-keyboard-response","368","2.1.0","609725","J=YES, F=NO","8vw1y256az","0","59","78","40","","","","","","","","","","","","","","","",""
"null","audio/beep-329314.mp3","null","audio-keyboard-response","369","2.1.0","611275","J=YES, F=NO","8vw1y256az","0","59","78","40","","","","","","","","","","","","","","","",""
"null","audio/account1.wav","null","audio-keyboard-response","370","2.1.0","612015","J=YES, F=NO","8vw1y256az","0","59","78","40","","","","","","","","","","","","","","","",""
"660","
          <p id=""word"" style=""font-size: 40px;"">paint</p>
          <p style=""font-size: 16px;"">J = YES &nbsp;&nbsp;&nbsp; F = NO</p>
        ","j","html-keyboard-response","371","2.1.0","612676","J=YES, F=NO","8vw1y256az","0","59","78","40","","","","","","","","","paint","account1","filler","filler","j","true","",""
"null","<p style=""font-size: 50px;"">+</p>","null","html-keyboard-response","372","2.1.0","612992","J=YES, F=NO","8vw1y256az","0","59","78","40","","","","","","","","","","","","","","","",""
"null","audio/beep-329314.mp3","null","audio-keyboard-response","373","2.1.0","614535","J=YES, F=NO","8vw1y256az","0","59","78","40","","","","","","","","","","","","","","","",""
"null","audio/foot1.wav","null","audio-keyboard-response","374","2.1.0","615135","J=YES, F=NO","8vw1y256az","0","59","78","40","","","","","","","","","","","","","","","",""
"1108","
          <p id=""word"" style=""font-size: 40px;"">thrutt</p>
          <p style=""font-size: 16px;"">J = YES &nbsp;&nbsp;&nbsp; F = NO</p>
        ","f","html-keyboard-response","375","2.1.0","616244","J=YES, F=NO","8vw1y256az","0","59","78","40","","","","","","","","","thrutt","foot1","pseudoword","pseudoword","f","true","",""
"null","<p style=""font-size: 50px;"">+</p>","null","html-keyboard-response","376","2.1.0","616550","J=YES, F=NO","8vw1y256az","0","59","78","40","","","","","","","","","","","","","","","",""
"null","audio/beep-329314.mp3","null","audio-keyboard-response","377","2.1.0","618095","J=YES, F=NO","8vw1y256az","0","59","78","40","","","","","","","","","","","","","","","",""
"null","audio/winter.wav","null","audio-keyboard-response","378","2.1.0","618715","J=YES, F=NO","8vw1y256az","0","59","78","40","","","","","","","","","","","","","","","",""
"1264","
          <p id=""word"" style=""font-size: 40px;"">straven</p>
          <p style=""font-size: 16px;"">J = YES &nbsp;&nbsp;&nbsp; F = NO</p>
        ","f","html-keyboard-response","379","2.1.0","619980","J=YES, F=NO","8vw1y256az","0","59","78","40","","","","","","","","","straven","winter","pseudoword","pseudoword","f","true","",""
"null","<p style=""font-size: 50px;"">+</p>","null","html-keyboard-response","380","2.1.0","620289","J=YES, F=NO","8vw1y256az","0","59","78","40","","","","","","","","","","","","","","","",""
"null","audio/beep-329314.mp3","null","audio-keyboard-response","381","2.1.0","621835","J=YES, F=NO","8vw1y256az","0","59","78","40","","","","","","","","","","","","","","","",""
"null","audio/essence1.wav","null","audio-keyboard-response","382","2.1.0","622675","J=YES, F=NO","8vw1y256az","0","59","78","40","","","","","","","","","","","","","","","",""
"640","
          <p id=""word"" style=""font-size: 40px;"">grasp</p>
          <p style=""font-size: 16px;"">J = YES &nbsp;&nbsp;&nbsp; F = NO</p>
        ","j","html-keyboard-response","383","2.1.0","623316","J=YES, F=NO","8vw1y256az","0","59","78","40","","","","","","","","","grasp","essence1","metaphor","experimental","j","true","",""
"null","<p style=""font-size: 50px;"">+</p>","null","html-keyboard-response","384","2.1.0","623620","J=YES, F=NO","8vw1y256az","0","59","78","40","","","","","","","","","","","","","","","",""
"null","audio/beep-329314.mp3","null","audio-keyboard-response","385","2.1.0","625175","J=YES, F=NO","8vw1y256az","0","59","78","40","","","","","","","","","","","","","","","",""
"null","audio/fox.wav","null","audio-keyboard-response","386","2.1.0","626015","J=YES, F=NO","8vw1y256az","0","59","78","40","","","","","","","","","","","","","","","",""
"636","
          <p id=""word"" style=""font-size: 40px;"">conquer</p>
          <p style=""font-size: 16px;"">J = YES &nbsp;&nbsp;&nbsp; F = NO</p>
        ","j","html-keyboard-response","387","2.1.0","626652","J=YES, F=NO","8vw1y256az","0","59","78","40","","","","","","","","","conquer","fox","unrelated","experimental","j","true","",""
"null","<p style=""font-size: 50px;"">+</p>","null","html-keyboard-response","388","2.1.0","626961","J=YES, F=NO","8vw1y256az","0","59","78","40","","","","","","","","","","","","","","","",""
"null","audio/beep-329314.mp3","null","audio-keyboard-response","389","2.1.0","628515","J=YES, F=NO","8vw1y256az","0","59","78","40","","","","","","","","","","","","","","","",""
"null","audio/budget1.wav","null","audio-keyboard-response","390","2.1.0","629195","J=YES, F=NO","8vw1y256az","0","59","78","40","","","","","","","","","","","","","","","",""
"848","
          <p id=""word"" style=""font-size: 40px;"">sulist</p>
          <p style=""font-size: 16px;"">J = YES &nbsp;&nbsp;&nbsp; F = NO</p>
