"rt","stimulus","response","trial_type","trial_index","plugin_version","time_elapsed","response_mapping","subject_id","list_index","lextale_score","lextale_word_score","lextale_nonword_score","success","timeout","failed_images","failed_audio","failed_video","task","isWord","isDummy","target","prime","prime_type","stimulus_type","correct_response","correct","section","question_order"
"9499","
    <div style=""max-width: 800px; margin: auto; text-align: left;"">
      <h2>STANFORD UNIVERSITY</h2>
      <h3>Research Information Sheet</h3>
      <p><strong>Protocol Director:</strong> Robert Hawkins<br>
      <strong>Protocol Title:</strong> Communication and social cognition in natural audiovisual contexts<br>
      <strong>IRB#:</strong> 77226</p>

      <p><strong>DESCRIPTION:</strong> You are invited to participate in a research study about language and communication. The purpose of the research is to understand how you interact and communicate with other people in naturalistic settings as a fluent English speaker. This research will be conducted through the Prolific platform, including participants from the US, UK, and Canada. If you decide to participate in this research, you will play a communication game in a group with one or more partners.</p>

      <p><strong>TIME INVOLVEMENT:</strong> The task will last the amount of time advertised on Prolific. You are free to withdraw from the study at any time.</p>

      <p><strong>RISKS AND BENEFITS:</strong> You may become frustrated if your partner gets distracted, or experience discomfort if other participants in your group send text that is inappropriate for the task. We ask you to please be respectful of other participants you might be interacting with to mitigate these risks. You may also experience discomfort when being asked to discuss or challenge emotionally salient political beliefs. Study data will be stored securely, in compliance with Stanford University standards, minimizing the risk of confidentiality breach. This study advances our scientific understanding of how people communicate and collaborate in naturalistic settings. This study may lead to further insights about what can go wrong in teamwork, suggest potential interventions to overcome these barriers, and help to develop assistive technologies that collaborate with human partners. We cannot and do not guarantee or promise that you will receive any benefits from this study.</p>

      <p><strong>PAYMENTS:</strong> You will receive payment in the amount advertised on Prolific. If you do not complete this study, you will receive prorated payment based on the time that you have spent. Additionally, you may be eligible for bonus payments as described in the instructions.</p>

      <p><strong>PARTICIPANT’S RIGHTS:</strong> If you have read this form and have decided to participate in this project, please understand your participation is voluntary and you have the right to withdraw your consent or discontinue participation at any time without penalty or loss of benefits to which you are otherwise entitled. The alternative is not to participate. You have the right to refuse to answer particular questions. The results of this research study may be presented at scientific or professional meetings or published in scientific journals. Your individual privacy will be maintained in all published and written data resulting from the study. In accordance with scientific norms, the data from this study may be used or shared with other researchers for future research (after removing personally identifying information) without additional consent from you.</p>

      <p><strong>CONTACT INFORMATION:</strong><br>
      Questions: If you have any questions, concerns or complaints about this research, its procedures, risks and benefits, contact the Protocol Director, Robert Hawkins (<a href=""mailto:rdhawkins@stanford.edu"">rdhawkins@stanford.edu</a>, 217-549-6923).<br>
      Independent Contact: If you are not satisfied with how this study is being conducted, or if you have any concerns, complaints, or general questions about the research or your rights as a participant, please contact the Stanford Institutional Review Board (IRB) to speak to someone independent of the research team at 650-723-2480 or toll free at 1-866-680-2906, or email at <a href=""mailto:irbnon-med@stanford.edu"">irbnon-med@stanford.edu</a>. You can also write to the Stanford IRB, Stanford University, 1705 El Camino Real, Palo Alto, CA 94306.</p>

      <p><strong>Please save or print a copy of this page for your records.</strong></p>
      <p>If you agree to participate in this research, click ""Continue"" below.</p>
    </div>
  ","0","html-button-response","0","2.1.0","9505","J=YES, F=NO","9wq4ty06lj","2","58","85","30","","","","","","","","","","","","","","","",""
"2857","
    <div style=""max-width: 800px; margin: auto; text-align: left;"">
      <h2>Welcome!</h2>
      <p>Thank you for participating in this study. The experiment consists of three parts:</p>
      <ol>
        <li>An English vocabulary test</li>
        <li>A main task in which you will hear and see words, and decide whether the written word is a real English word</li>
        <li>A brief survey about your background</li>
      </ol>
      <p>Each part will be introduced before it begins.</p>
      <p>Please make sure you are in a quiet environment and can hear audio clearly for the final task.</p>
      <p style=""margin-top: 2em;"">Press any key to begin.</p>
    </div>
  "," ","html-keyboard-response","1","2.1.0","12363","J=YES, F=NO","9wq4ty06lj","2","58","85","30","","","","","","","","","","","","","","","",""
"","","","preload","2","2.1.0","13689","J=YES, F=NO","9wq4ty06lj","2","58","85","30","true","false","[]","[]","[]","","","","","","","","","","",""
"2226","
    <div style=""max-width: 800px; margin: auto; text-align: left;"">
      <h2>Part 1: Vocabulary Test</h2>
      <p>You will now complete the first part of the study: a short English vocabulary test.</p>
      <p>This test is called <strong>LexTALE</strong> and helps us get a general sense of your English proficiency.</p>
      <p style=""margin-top: 2em;"">Press any key to continue.</p>
    </div>
  "," ","html-keyboard-response","3","2.1.0","15915","J=YES, F=NO","9wq4ty06lj","2","58","85","30","","","","","","","","","","","","","","","",""
"6159","
    <div style=""max-width: 800px; margin: auto; text-align: left;"">
      <h2>LexTALE Vocabulary Test</h2>
      <p>In this test, you will see a series of letter strings—one at a time.</p>
      <p>Your task is to decide whether each string is a real English word.</p>
      <p><strong>Key responses:</strong></p>
      <ul>
        <li><strong>J</strong> = YES (real English word)</li>
        <li><strong>F</strong> = NO (not a real English word)</li>
      </ul>
      <p>There is no time limit, but please try to be accurate.</p>
      <p style=""margin-top: 2em;"">Press any key to begin.</p>
    </div>
  "," ","html-keyboard-response","4","2.1.0","22075","J=YES, F=NO","9wq4ty06lj","2","58","85","30","","","","","","","","","","","","","","","",""
"2440","
  <p style=""font-size: 40px;"">platery</p>
  <p style=""font-size: 16px;"">J = YES &nbsp;&nbsp;&nbsp; F = NO</p>
","j","html-keyboard-response","5","2.1.0","24515","J=YES, F=NO","9wq4ty06lj","2","58","85","30","","","","","","lextale","false","true","","","","","","","",""
"887","
  <p style=""font-size: 40px;"">denial</p>
  <p style=""font-size: 16px;"">J = YES &nbsp;&nbsp;&nbsp; F = NO</p>
","j","html-keyboard-response","6","2.1.0","25403","J=YES, F=NO","9wq4ty06lj","2","58","85","30","","","","","","lextale","true","true","","","","","","","",""
"1079","
  <p style=""font-size: 40px;"">marrit</p>
  <p style=""font-size: 16px;"">J = YES &nbsp;&nbsp;&nbsp; F = NO</p>
","j","html-keyboard-response","7","2.1.0","26483","J=YES, F=NO","9wq4ty06lj","2","58","85","30","","","","","","lextale","false","true","","","","","","","",""
"1064","
  <p style=""font-size: 40px;"">bottle</p>
  <p style=""font-size: 16px;"">J = YES &nbsp;&nbsp;&nbsp; F = NO</p>
","j","html-keyboard-response","8","2.1.0","27548","J=YES, F=NO","9wq4ty06lj","2","58","85","30","","","","","","lextale","true","false","","","","","","","",""
"1351","
  <p style=""font-size: 40px;"">birst</p>
  <p style=""font-size: 16px;"">J = YES &nbsp;&nbsp;&nbsp; F = NO</p>
","f","html-keyboard-response","9","2.1.0","28899","J=YES, F=NO","9wq4ty06lj","2","58","85","30","","","","","","lextale","false","false","","","","","","","",""
"695","
  <p style=""font-size: 40px;"">envy</p>
  <p style=""font-size: 16px;"">J = YES &nbsp;&nbsp;&nbsp; F = NO</p>
","j","html-keyboard-response","10","2.1.0","29595","J=YES, F=NO","9wq4ty06lj","2","58","85","30","","","","","","lextale","true","false","","","","","","","",""
"839","
  <p style=""font-size: 40px;"">brang</p>
  <p style=""font-size: 16px;"">J = YES &nbsp;&nbsp;&nbsp; F = NO</p>
","j","html-keyboard-response","11","2.1.0","30435","J=YES, F=NO","9wq4ty06lj","2","58","85","30","","","","","","lextale","false","false","","","","","","","",""
"1119","
  <p style=""font-size: 40px;"">huge</p>
  <p style=""font-size: 16px;"">J = YES &nbsp;&nbsp;&nbsp; F = NO</p>
","j","html-keyboard-response","12","2.1.0","31555","J=YES, F=NO","9wq4ty06lj","2","58","85","30","","","","","","lextale","true","false","","","","","","","",""
"999","
  <p style=""font-size: 40px;"">plove</p>
  <p style=""font-size: 16px;"">J = YES &nbsp;&nbsp;&nbsp; F = NO</p>
","j","html-keyboard-response","13","2.1.0","32555","J=YES, F=NO","9wq4ty06lj","2","58","85","30","","","","","","lextale","false","false","","","","","","","",""
"679","
  <p style=""font-size: 40px;"">border</p>
  <p style=""font-size: 16px;"">J = YES &nbsp;&nbsp;&nbsp; F = NO</p>
","j","html-keyboard-response","14","2.1.0","33235","J=YES, F=NO","9wq4ty06lj","2","58","85","30","","","","","","lextale","true","false","","","","","","","",""
"736","
  <p style=""font-size: 40px;"">flimsy</p>
  <p style=""font-size: 16px;"">J = YES &nbsp;&nbsp;&nbsp; F = NO</p>
","j","html-keyboard-response","15","2.1.0","33971","J=YES, F=NO","9wq4ty06lj","2","58","85","30","","","","","","lextale","true","false","","","","","","","",""
"559","
  <p style=""font-size: 40px;"">drain</p>
  <p style=""font-size: 16px;"">J = YES &nbsp;&nbsp;&nbsp; F = NO</p>
","j","html-keyboard-response","16","2.1.0","34531","J=YES, F=NO","9wq4ty06lj","2","58","85","30","","","","","","lextale","true","false","","","","","","","",""
"639","
  <p style=""font-size: 40px;"">twindle</p>
  <p style=""font-size: 16px;"">J = YES &nbsp;&nbsp;&nbsp; F = NO</p>
","j","html-keyboard-response","17","2.1.0","35171","J=YES, F=NO","9wq4ty06lj","2","58","85","30","","","","","","lextale","false","false","","","","","","","",""
"552","
  <p style=""font-size: 40px;"">propose</p>
  <p style=""font-size: 16px;"">J = YES &nbsp;&nbsp;&nbsp; F = NO</p>
","j","html-keyboard-response","18","2.1.0","35723","J=YES, F=NO","9wq4ty06lj","2","58","85","30","","","","","","lextale","true","false","","","","","","","",""
"879","
  <p style=""font-size: 40px;"">forlay</p>
  <p style=""font-size: 16px;"">J = YES &nbsp;&nbsp;&nbsp; F = NO</p>
","j","html-keyboard-response","19","2.1.0","36603","J=YES, F=NO","9wq4ty06lj","2","58","85","30","","","","","","lextale","false","false","","","","","","","",""
"751","
  <p style=""font-size: 40px;"">tenant</p>
  <p style=""font-size: 16px;"">J = YES &nbsp;&nbsp;&nbsp; F = NO</p>
","j","html-keyboard-response","20","2.1.0","37355","J=YES, F=NO","9wq4ty06lj","2","58","85","30","","","","","","lextale","true","false","","","","","","","",""
"615","
  <p style=""font-size: 40px;"">strain</p>
  <p style=""font-size: 16px;"">J = YES &nbsp;&nbsp;&nbsp; F = NO</p>
","j","html-keyboard-response","21","2.1.0","37971","J=YES, F=NO","9wq4ty06lj","2","58","85","30","","","","","","lextale","true","false","","","","","","","",""
"744","
  <p style=""font-size: 40px;"">holster</p>
  <p style=""font-size: 16px;"">J = YES &nbsp;&nbsp;&nbsp; F = NO</p>
","j","html-keyboard-response","22","2.1.0","38715","J=YES, F=NO","9wq4ty06lj","2","58","85","30","","","","","","lextale","true","false","","","","","","","",""
"655","
  <p style=""font-size: 40px;"">hinder</p>
  <p style=""font-size: 16px;"">J = YES &nbsp;&nbsp;&nbsp; F = NO</p>
","j","html-keyboard-response","23","2.1.0","39371","J=YES, F=NO","9wq4ty06lj","2","58","85","30","","","","","","lextale","true","false","","","","","","","",""
"591","
  <p style=""font-size: 40px;"">swindle</p>
  <p style=""font-size: 16px;"">J = YES &nbsp;&nbsp;&nbsp; F = NO</p>
","j","html-keyboard-response","24","2.1.0","39963","J=YES, F=NO","9wq4ty06lj","2","58","85","30","","","","","","lextale","true","false","","","","","","","",""
"1863","
  <p style=""font-size: 40px;"">nuder</p>
  <p style=""font-size: 16px;"">J = YES &nbsp;&nbsp;&nbsp; F = NO</p>
","j","html-keyboard-response","25","2.1.0","41827","J=YES, F=NO","9wq4ty06lj","2","58","85","30","","","","","","lextale","false","false","","","","","","","",""
"528","
  <p style=""font-size: 40px;"">pillow</p>
  <p style=""font-size: 16px;"">J = YES &nbsp;&nbsp;&nbsp; F = NO</p>
","j","html-keyboard-response","26","2.1.0","42355","J=YES, F=NO","9wq4ty06lj","2","58","85","30","","","","","","lextale","true","false","","","","","","","",""
"800","
  <p style=""font-size: 40px;"">shumble</p>
  <p style=""font-size: 16px;"">J = YES &nbsp;&nbsp;&nbsp; F = NO</p>
","j","html-keyboard-response","27","2.1.0","43155","J=YES, F=NO","9wq4ty06lj","2","58","85","30","","","","","","lextale","false","false","","","","","","","",""
"655","
  <p style=""font-size: 40px;"">thirst</p>
  <p style=""font-size: 16px;"">J = YES &nbsp;&nbsp;&nbsp; F = NO</p>
","j","html-keyboard-response","28","2.1.0","43811","J=YES, F=NO","9wq4ty06lj","2","58","85","30","","","","","","lextale","true","false","","","","","","","",""
"719","
  <p style=""font-size: 40px;"">unsail</p>
  <p style=""font-size: 16px;"">J = YES &nbsp;&nbsp;&nbsp; F = NO</p>
","j","html-keyboard-response","29","2.1.0","44531","J=YES, F=NO","9wq4ty06lj","2","58","85","30","","","","","","lextale","false","false","","","","","","","",""
"744","
  <p style=""font-size: 40px;"">rifle</p>
  <p style=""font-size: 16px;"">J = YES &nbsp;&nbsp;&nbsp; F = NO</p>
","j","html-keyboard-response","30","2.1.0","45275","J=YES, F=NO","9wq4ty06lj","2","58","85","30","","","","","","lextale","true","false","","","","","","","",""
"655","
  <p style=""font-size: 40px;"">mush</p>
  <p style=""font-size: 16px;"">J = YES &nbsp;&nbsp;&nbsp; F = NO</p>
","j","html-keyboard-response","31","2.1.0","45931","J=YES, F=NO","9wq4ty06lj","2","58","85","30","","","","","","lextale","false","false","","","","","","","",""
"711","
  <p style=""font-size: 40px;"">drench</p>
  <p style=""font-size: 16px;"">J = YES &nbsp;&nbsp;&nbsp; F = NO</p>
","j","html-keyboard-response","32","2.1.0","46643","J=YES, F=NO","9wq4ty06lj","2","58","85","30","","","","","","lextale","true","false","","","","","","","",""
"1648","
  <p style=""font-size: 40px;"">snirt</p>
  <p style=""font-size: 16px;"">J = YES &nbsp;&nbsp;&nbsp; F = NO</p>
","j","html-keyboard-response","33","2.1.0","48291","J=YES, F=NO","9wq4ty06lj","2","58","85","30","","","","","","lextale","false","false","","","","","","","",""
"527","
  <p style=""font-size: 40px;"">bitter</p>
  <p style=""font-size: 16px;"">J = YES &nbsp;&nbsp;&nbsp; F = NO</p>
","j","html-keyboard-response","34","2.1.0","48819","J=YES, F=NO","9wq4ty06lj","2","58","85","30","","","","","","lextale","true","false","","","","","","","",""
"991","
  <p style=""font-size: 40px;"">pliff</p>
  <p style=""font-size: 16px;"">J = YES &nbsp;&nbsp;&nbsp; F = NO</p>
","f","html-keyboard-response","35","2.1.0","49811","J=YES, F=NO","9wq4ty06lj","2","58","85","30","","","","","","lextale","false","false","","","","","","","",""
"415","
  <p style=""font-size: 40px;"">tablet</p>
  <p style=""font-size: 16px;"">J = YES &nbsp;&nbsp;&nbsp; F = NO</p>
","j","html-keyboard-response","36","2.1.0","50227","J=YES, F=NO","9wq4ty06lj","2","58","85","30","","","","","","lextale","true","false","","","","","","","",""
"679","
  <p style=""font-size: 40px;"">glimmer</p>
  <p style=""font-size: 16px;"">J = YES &nbsp;&nbsp;&nbsp; F = NO</p>
","j","html-keyboard-response","37","2.1.0","50906","J=YES, F=NO","9wq4ty06lj","2","58","85","30","","","","","","lextale","true","false","","","","","","","",""
"960","
  <p style=""font-size: 40px;"">slink</p>
  <p style=""font-size: 16px;"">J = YES &nbsp;&nbsp;&nbsp; F = NO</p>
","j","html-keyboard-response","38","2.1.0","51867","J=YES, F=NO","9wq4ty06lj","2","58","85","30","","","","","","lextale","true","false","","","","","","","",""
"544","
  <p style=""font-size: 40px;"">clever</p>
  <p style=""font-size: 16px;"">J = YES &nbsp;&nbsp;&nbsp; F = NO</p>
","j","html-keyboard-response","39","2.1.0","52411","J=YES, F=NO","9wq4ty06lj","2","58","85","30","","","","","","lextale","true","false","","","","","","","",""
"1280","
  <p style=""font-size: 40px;"">grum</p>
  <p style=""font-size: 16px;"">J = YES &nbsp;&nbsp;&nbsp; F = NO</p>
","j","html-keyboard-response","40","2.1.0","53691","J=YES, F=NO","9wq4ty06lj","2","58","85","30","","","","","","lextale","false","false","","","","","","","",""
"578","
  <p style=""font-size: 40px;"">string</p>
  <p style=""font-size: 16px;"">J = YES &nbsp;&nbsp;&nbsp; F = NO</p>
","j","html-keyboard-response","41","2.1.0","54270","J=YES, F=NO","9wq4ty06lj","2","58","85","30","","","","","","lextale","true","false","","","","","","","",""
"950","
  <p style=""font-size: 40px;"">plim</p>
  <p style=""font-size: 16px;"">J = YES &nbsp;&nbsp;&nbsp; F = NO</p>
","f","html-keyboard-response","42","2.1.0","55222","J=YES, F=NO","9wq4ty06lj","2","58","85","30","","","","","","lextale","false","false","","","","","","","",""
"526","
  <p style=""font-size: 40px;"">cable</p>
  <p style=""font-size: 16px;"">J = YES &nbsp;&nbsp;&nbsp; F = NO</p>
","j","html-keyboard-response","43","2.1.0","55750","J=YES, F=NO","9wq4ty06lj","2","58","85","30","","","","","","lextale","true","false","","","","","","","",""
"806","
  <p style=""font-size: 40px;"">shrivel</p>
  <p style=""font-size: 16px;"">J = YES &nbsp;&nbsp;&nbsp; F = NO</p>
","j","html-keyboard-response","44","2.1.0","56557","J=YES, F=NO","9wq4ty06lj","2","58","85","30","","","","","","lextale","true","false","","","","","","","",""
"758","
  <p style=""font-size: 40px;"">tarnish</p>
  <p style=""font-size: 16px;"">J = YES &nbsp;&nbsp;&nbsp; F = NO</p>
","j","html-keyboard-response","45","2.1.0","57317","J=YES, F=NO","9wq4ty06lj","2","58","85","30","","","","","","lextale","true","false","","","","","","","",""
"1637","
  <p style=""font-size: 40px;"">blim</p>
  <p style=""font-size: 16px;"">J = YES &nbsp;&nbsp;&nbsp; F = NO</p>
","f","html-keyboard-response","46","2.1.0","58956","J=YES, F=NO","9wq4ty06lj","2","58","85","30","","","","","","lextale","false","false","","","","","","","",""
"1543","
  <p style=""font-size: 40px;"">stifle</p>
  <p style=""font-size: 16px;"">J = YES &nbsp;&nbsp;&nbsp; F = NO</p>
","j","html-keyboard-response","47","2.1.0","60500","J=YES, F=NO","9wq4ty06lj","2","58","85","30","","","","","","lextale","true","false","","","","","","","",""
"1111","
  <p style=""font-size: 40px;"">bint</p>
  <p style=""font-size: 16px;"">J = YES &nbsp;&nbsp;&nbsp; F = NO</p>
","f","html-keyboard-response","48","2.1.0","61611","J=YES, F=NO","9wq4ty06lj","2","58","85","30","","","","","","lextale","false","false","","","","","","","",""
"521","
  <p style=""font-size: 40px;"">purple</p>
  <p style=""font-size: 16px;"">J = YES &nbsp;&nbsp;&nbsp; F = NO</p>
","j","html-keyboard-response","49","2.1.0","62133","J=YES, F=NO","9wq4ty06lj","2","58","85","30","","","","","","lextale","true","false","","","","","","","",""
"1510","
  <p style=""font-size: 40px;"">wriggle</p>
  <p style=""font-size: 16px;"">J = YES &nbsp;&nbsp;&nbsp; F = NO</p>
","j","html-keyboard-response","50","2.1.0","63646","J=YES, F=NO","9wq4ty06lj","2","58","85","30","","","","","","lextale","true","false","","","","","","","",""
"573","
  <p style=""font-size: 40px;"">mangle</p>
  <p style=""font-size: 16px;"">J = YES &nbsp;&nbsp;&nbsp; F = NO</p>
","j","html-keyboard-response","51","2.1.0","64220","J=YES, F=NO","9wq4ty06lj","2","58","85","30","","","","","","lextale","true","false","","","","","","","",""
"582","
  <p style=""font-size: 40px;"">shramp</p>
  <p style=""font-size: 16px;"">J = YES &nbsp;&nbsp;&nbsp; F = NO</p>
","j","html-keyboard-response","52","2.1.0","64803","J=YES, F=NO","9wq4ty06lj","2","58","85","30","","","","","","lextale","false","false","","","","","","","",""
"552","
  <p style=""font-size: 40px;"">flirt</p>
  <p style=""font-size: 16px;"">J = YES &nbsp;&nbsp;&nbsp; F = NO</p>
","j","html-keyboard-response","53","2.1.0","65355","J=YES, F=NO","9wq4ty06lj","2","58","85","30","","","","","","lextale","true","false","","","","","","","",""
"1455","
  <p style=""font-size: 40px;"">frip</p>
  <p style=""font-size: 16px;"">J = YES &nbsp;&nbsp;&nbsp; F = NO</p>
","f","html-keyboard-response","54","2.1.0","66811","J=YES, F=NO","9wq4ty06lj","2","58","85","30","","","","","","lextale","false","false","","","","","","","",""
"727","
  <p style=""font-size: 40px;"">tangle</p>
  <p style=""font-size: 16px;"">J = YES &nbsp;&nbsp;&nbsp; F = NO</p>
","j","html-keyboard-response","55","2.1.0","67539","J=YES, F=NO","9wq4ty06lj","2","58","85","30","","","","","","lextale","true","false","","","","","","","",""
"631","
  <p style=""font-size: 40px;"">crumble</p>
  <p style=""font-size: 16px;"">J = YES &nbsp;&nbsp;&nbsp; F = NO</p>
","j","html-keyboard-response","56","2.1.0","68171","J=YES, F=NO","9wq4ty06lj","2","58","85","30","","","","","","lextale","true","false","","","","","","","",""
"664","
  <p style=""font-size: 40px;"">wrinkle</p>
  <p style=""font-size: 16px;"">J = YES &nbsp;&nbsp;&nbsp; F = NO</p>
","j","html-keyboard-response","57","2.1.0","68835","J=YES, F=NO","9wq4ty06lj","2","58","85","30","","","","","","lextale","true","false","","","","","","","",""
"704","
  <p style=""font-size: 40px;"">slumb</p>
  <p style=""font-size: 16px;"">J = YES &nbsp;&nbsp;&nbsp; F = NO</p>
","j","html-keyboard-response","58","2.1.0","69541","J=YES, F=NO","9wq4ty06lj","2","58","85","30","","","","","","lextale","false","false","","","","","","","",""
"550","
  <p style=""font-size: 40px;"">jungle</p>
  <p style=""font-size: 16px;"">J = YES &nbsp;&nbsp;&nbsp; F = NO</p>
","j","html-keyboard-response","59","2.1.0","70093","J=YES, F=NO","9wq4ty06lj","2","58","85","30","","","","","","lextale","true","false","","","","","","","",""
"1015","
  <p style=""font-size: 40px;"">frolick</p>
  <p style=""font-size: 16px;"">J = YES &nbsp;&nbsp;&nbsp; F = NO</p>
","j","html-keyboard-response","60","2.1.0","71109","J=YES, F=NO","9wq4ty06lj","2","58","85","30","","","","","","lextale","false","false","","","","","","","",""
"2602","
      <h2>LexTALE Test Completed</h2>
      <p>Your LexTALE vocabulary score is: <strong>58%</strong></p>
      <p>Press any key to continue.</p>
    "," ","html-keyboard-response","61","2.1.0","73715","J=YES, F=NO","9wq4ty06lj","2","58","85","30","","","","","","","","","","","","","","","",""
"4640","
    <div style=""max-width: 800px; margin: auto; text-align: left;"">
      <h2>Break Time</h2>
      <p>You have completed the first part of the study.</p>
      <p>You may take a short <strong>30-second break</strong> before continuing.</p>
      <p>When you’re ready, press any key to continue to the final task.</p>
    </div>
  "," ","html-keyboard-response","62","2.1.0","78355","J=YES, F=NO","9wq4ty06lj","2","58","85","30","","","","","","","","","","","","","","","",""
"5567","
    <div style=""max-width: 800px; margin: auto; text-align: left;"">
      <h2>Part 2: Lexical Decision Task</h2>
      <p>You will now begin the second part of the study.</p>
      <p>Each trial will follow this sequence:</p>
      <ul>
        <li>A fixation cross (+) appears at the center of the screen.</li>
        <li>You will hear a short beep followed by a spoken word.</li>
        <li>A written word will appear briefly on the screen.</li>
      </ul>
      <p>Your task is to judge whether the <strong>written word</strong> is a real English word.</p>
      <p style=""margin-top: 1em;""><strong>Key responses:</strong></p>
      <ul>
        <li><strong>J</strong> = YES (real English word)</li>
        <li><strong>F</strong> = NO (not a real English word)</li>
      </ul>
      <p>Please respond as quickly and accurately as you can.</p>
      <p style=""margin-top: 2em;"">Press any key to continue.</p>
    </div>
  "," ","html-keyboard-response","63","2.1.0","83923","J=YES, F=NO","9wq4ty06lj","2","58","85","30","","","","","","","","","","","","","","","",""
"4081","
    <div style=""max-width: 800px; margin: auto; text-align: left;"">
      <h2>Before You Begin</h2>
      <p>Make sure your sound is turned on.</p>
      <p>You will hear audio during each trial, but your decision should be based only on the <strong>written word</strong> you see on the screen.</p>
      <p><strong>Reminder:</strong></p>
      <ul>
        <li><strong>J</strong> = YES (real English word)</li>
        <li><strong>F</strong> = NO (not a real English word)</li>
      </ul>
      <p style=""margin-top: 2em;"">Press any key when you are ready to begin.</p>
    </div>
  "," ","html-keyboard-response","64","2.1.0","88005","J=YES, F=NO","9wq4ty06lj","2","58","85","30","","","","","","","","","","","","","","","",""
"2799","
    <div style=""max-width: 800px; margin: auto; text-align: left;"">
      <h2>Part 2: Practice Trials</h2>
      <p>You will now complete a few <strong>practice trials</strong> to get familiar with the task.</p>
      <p>These trials are <strong>not scored</strong> and are only to help you get used to the format.</p>
      <p style=""margin-top: 2em;"">Press any key to begin.</p>
    </div>
  "," ","html-keyboard-response","65","2.1.0","90806","J=YES, F=NO","9wq4ty06lj","2","58","85","30","","","","","","","","","","","","","","","",""
"2150","<p>Starting practice block 1 of 2. Press any key to continue.</p>"," ","html-keyboard-response","66","2.1.0","92957","J=YES, F=NO","9wq4ty06lj","2","58","85","30","","","","","","","","","","","","","","","",""
"null","<p style=""font-size: 50px;"">+</p>","null","html-keyboard-response","67","2.1.0","93270","J=YES, F=NO","9wq4ty06lj","2","58","85","30","","","","","","","","","","","","","","","",""
"null","audio/beep-329314.mp3","null","audio-keyboard-response","68","2.1.0","94808","J=YES, F=NO","9wq4ty06lj","2","58","85","30","","","","","","","","","","","","","","","",""
"null","audio/table1.wav","null","audio-keyboard-response","69","2.1.0","95376","J=YES, F=NO","9wq4ty06lj","2","58","85","30","","","","","","","","","","","","","","","",""
"null","
          <p id=""word"" style=""font-size: 40px;"">stimb</p>
          <p style=""font-size: 16px;"">J = YES &nbsp;&nbsp;&nbsp; F = NO</p>
        ","null","html-keyboard-response","70","2.1.0","96890","J=YES, F=NO","9wq4ty06lj","2","58","85","30","","","","","","","","","stimb","table1","pseudoword","pseudoword","f","false","",""
"null","<p style=""font-size: 50px;"">+</p>","null","html-keyboard-response","71","2.1.0","97201","J=YES, F=NO","9wq4ty06lj","2","58","85","30","","","","","","","","","","","","","","","",""
"null","audio/beep-329314.mp3","null","audio-keyboard-response","72","2.1.0","98727","J=YES, F=NO","9wq4ty06lj","2","58","85","30","","","","","","","","","","","","","","","",""
"null","audio/tunnel.wav","null","audio-keyboard-response","73","2.1.0","99217","J=YES, F=NO","9wq4ty06lj","2","58","85","30","","","","","","","","","","","","","","","",""
"768","
          <p id=""word"" style=""font-size: 40px;"">gred</p>
          <p style=""font-size: 16px;"">J = YES &nbsp;&nbsp;&nbsp; F = NO</p>
        ","f","html-keyboard-response","74","2.1.0","99987","J=YES, F=NO","9wq4ty06lj","2","58","85","30","","","","","","","","","gred","tunnel","pseudoword","pseudoword","f","true","",""
"null","<p style=""font-size: 50px;"">+</p>","null","html-keyboard-response","75","2.1.0","100303","J=YES, F=NO","9wq4ty06lj","2","58","85","30","","","","","","","","","","","","","","","",""
"null","audio/beep-329314.mp3","null","audio-keyboard-response","76","2.1.0","101826","J=YES, F=NO","9wq4ty06lj","2","58","85","30","","","","","","","","","","","","","","","",""
"null","audio/age1.wav","null","audio-keyboard-response","77","2.1.0","102377","J=YES, F=NO","9wq4ty06lj","2","58","85","30","","","","","","","","","","","","","","","",""
"362","
          <p id=""word"" style=""font-size: 40px;"">lachry</p>
          <p style=""font-size: 16px;"">J = YES &nbsp;&nbsp;&nbsp; F = NO</p>
        ","j","html-keyboard-response","78","2.1.0","102741","J=YES, F=NO","9wq4ty06lj","2","58","85","30","","","","","","","","","lachry","age1","pseudoword","pseudoword","f","false","",""
"null","<p style=""font-size: 50px;"">+</p>","null","html-keyboard-response","79","2.1.0","103048","J=YES, F=NO","9wq4ty06lj","2","58","85","30","","","","","","","","","","","","","","","",""
"null","audio/beep-329314.mp3","null","audio-keyboard-response","80","2.1.0","104588","J=YES, F=NO","9wq4ty06lj","2","58","85","30","","","","","","","","","","","","","","","",""
"null","audio/tax1.wav","null","audio-keyboard-response","81","2.1.0","105297","J=YES, F=NO","9wq4ty06lj","2","58","85","30","","","","","","","","","","","","","","","",""
"738","
          <p id=""word"" style=""font-size: 40px;"">snate</p>
          <p style=""font-size: 16px;"">J = YES &nbsp;&nbsp;&nbsp; F = NO</p>
        ","f","html-keyboard-response","82","2.1.0","106037","J=YES, F=NO","9wq4ty06lj","2","58","85","30","","","","","","","","","snate","tax1","pseudoword","pseudoword","f","true","",""
"null","<p style=""font-size: 50px;"">+</p>","null","html-keyboard-response","83","2.1.0","106353","J=YES, F=NO","9wq4ty06lj","2","58","85","30","","","","","","","","","","","","","","","",""
"null","audio/beep-329314.mp3","null","audio-keyboard-response","84","2.1.0","107887","J=YES, F=NO","9wq4ty06lj","2","58","85","30","","","","","","","","","","","","","","","",""
"null","audio/mile1.wav","null","audio-keyboard-response","85","2.1.0","108378","J=YES, F=NO","9wq4ty06lj","2","58","85","30","","","","","","","","","","","","","","","",""
"696","
          <p id=""word"" style=""font-size: 40px;"">writch</p>
          <p style=""font-size: 16px;"">J = YES &nbsp;&nbsp;&nbsp; F = NO</p>
        ","j","html-keyboard-response","86","2.1.0","109075","J=YES, F=NO","9wq4ty06lj","2","58","85","30","","","","","","","","","writch","mile1","pseudoword","pseudoword","f","false","",""
"null","<p style=""font-size: 50px;"">+</p>","null","html-keyboard-response","87","2.1.0","109391","J=YES, F=NO","9wq4ty06lj","2","58","85","30","","","","","","","","","","","","","","","",""
"null","audio/beep-329314.mp3","null","audio-keyboard-response","88","2.1.0","110927","J=YES, F=NO","9wq4ty06lj","2","58","85","30","","","","","","","","","","","","","","","",""
"null","audio/ankle1.wav","null","audio-keyboard-response","89","2.1.0","111537","J=YES, F=NO","9wq4ty06lj","2","58","85","30","","","","","","","","","","","","","","","",""
"472","
          <p id=""word"" style=""font-size: 40px;"">kick</p>
          <p style=""font-size: 16px;"">J = YES &nbsp;&nbsp;&nbsp; F = NO</p>
        ","j","html-keyboard-response","90","2.1.0","112011","J=YES, F=NO","9wq4ty06lj","2","58","85","30","","","","","","","","","kick","ankle1","filler","filler","j","true","",""
"null","<p style=""font-size: 50px;"">+</p>","null","html-keyboard-response","91","2.1.0","112317","J=YES, F=NO","9wq4ty06lj","2","58","85","30","","","","","","","","","","","","","","","",""
"null","audio/beep-329314.mp3","null","audio-keyboard-response","92","2.1.0","113848","J=YES, F=NO","9wq4ty06lj","2","58","85","30","","","","","","","","","","","","","","","",""
"null","audio/belief.wav","null","audio-keyboard-response","93","2.1.0","114556","J=YES, F=NO","9wq4ty06lj","2","58","85","30","","","","","","","","","","","","","","","",""
"480","
          <p id=""word"" style=""font-size: 40px;"">read</p>
          <p style=""font-size: 16px;"">J = YES &nbsp;&nbsp;&nbsp; F = NO</p>
        ","j","html-keyboard-response","94","2.1.0","115038","J=YES, F=NO","9wq4ty06lj","2","58","85","30","","","","","","","","","read","belief","filler","filler","j","true","",""
"null","<p style=""font-size: 50px;"">+</p>","null","html-keyboard-response","95","2.1.0","115355","J=YES, F=NO","9wq4ty06lj","2","58","85","30","","","","","","","","","","","","","","","",""
"null","audio/beep-329314.mp3","null","audio-keyboard-response","96","2.1.0","116888","J=YES, F=NO","9wq4ty06lj","2","58","85","30","","","","","","","","","","","","","","","",""
"null","audio/birth1.wav","null","audio-keyboard-response","97","2.1.0","117437","J=YES, F=NO","9wq4ty06lj","2","58","85","30","","","","","","","","","","","","","","","",""
"382","
          <p id=""word"" style=""font-size: 40px;"">peel</p>
          <p style=""font-size: 16px;"">J = YES &nbsp;&nbsp;&nbsp; F = NO</p>
        ","j","html-keyboard-response","98","2.1.0","117822","J=YES, F=NO","9wq4ty06lj","2","58","85","30","","","","","","","","","peel","birth1","filler","filler","j","true","",""
"null","<p style=""font-size: 50px;"">+</p>","null","html-keyboard-response","99","2.1.0","118134","J=YES, F=NO","9wq4ty06lj","2","58","85","30","","","","","","","","","","","","","","","",""
"null","audio/beep-329314.mp3","null","audio-keyboard-response","100","2.1.0","119667","J=YES, F=NO","9wq4ty06lj","2","58","85","30","","","","","","","","","","","","","","","",""
"null","audio/terrain.wav","null","audio-keyboard-response","101","2.1.0","120336","J=YES, F=NO","9wq4ty06lj","2","58","85","30","","","","","","","","","","","","","","","",""
"411","
          <p id=""word"" style=""font-size: 40px;"">twist</p>
          <p style=""font-size: 16px;"">J = YES &nbsp;&nbsp;&nbsp; F = NO</p>
        ","j","html-keyboard-response","102","2.1.0","120748","J=YES, F=NO","9wq4ty06lj","2","58","85","30","","","","","","","","","twist","terrain","filler","filler","j","true","",""
"null","<p style=""font-size: 50px;"">+</p>","null","html-keyboard-response","103","2.1.0","121055","J=YES, F=NO","9wq4ty06lj","2","58","85","30","","","","","","","","","","","","","","","",""
"null","audio/beep-329314.mp3","null","audio-keyboard-response","104","2.1.0","122587","J=YES, F=NO","9wq4ty06lj","2","58","85","30","","","","","","","","","","","","","","","",""
"null","audio/bush1.wav","null","audio-keyboard-response","105","2.1.0","123116","J=YES, F=NO","9wq4ty06lj","2","58","85","30","","","","","","","","","","","","","","","",""
"390","
          <p id=""word"" style=""font-size: 40px;"">platined</p>
          <p style=""font-size: 16px;"">J = YES &nbsp;&nbsp;&nbsp; F = NO</p>
        ","j","html-keyboard-response","106","2.1.0","123508","J=YES, F=NO","9wq4ty06lj","2","58","85","30","","","","","","","","","platined","bush1","pseudoword","pseudoword","f","false","",""
"null","<p style=""font-size: 50px;"">+</p>","null","html-keyboard-response","107","2.1.0","123821","J=YES, F=NO","9wq4ty06lj","2","58","85","30","","","","","","","","","","","","","","","",""
"null","audio/beep-329314.mp3","null","audio-keyboard-response","108","2.1.0","125346","J=YES, F=NO","9wq4ty06lj","2","58","85","30","","","","","","","","","","","","","","","",""
"null","audio/survey1.wav","null","audio-keyboard-response","109","2.1.0","126077","J=YES, F=NO","9wq4ty06lj","2","58","85","30","","","","","","","","","","","","","","","",""
"380","
          <p id=""word"" style=""font-size: 40px;"">imploth</p>
          <p style=""font-size: 16px;"">J = YES &nbsp;&nbsp;&nbsp; F = NO</p>
        ","j","html-keyboard-response","110","2.1.0","126459","J=YES, F=NO","9wq4ty06lj","2","58","85","30","","","","","","","","","imploth","survey1","pseudoword","pseudoword","f","false","",""
"null","<p style=""font-size: 50px;"">+</p>","null","html-keyboard-response","111","2.1.0","126770","J=YES, F=NO","9wq4ty06lj","2","58","85","30","","","","","","","","","","","","","","","",""
"null","audio/beep-329314.mp3","null","audio-keyboard-response","112","2.1.0","128306","J=YES, F=NO","9wq4ty06lj","2","58","85","30","","","","","","","","","","","","","","","",""
"null","audio/golf1.wav","null","audio-keyboard-response","113","2.1.0","128957","J=YES, F=NO","9wq4ty06lj","2","58","85","30","","","","","","","","","","","","","","","",""
"460","
          <p id=""word"" style=""font-size: 40px;"">drabble</p>
          <p style=""font-size: 16px;"">J = YES &nbsp;&nbsp;&nbsp; F = NO</p>
        ","f","html-keyboard-response","114","2.1.0","129419","J=YES, F=NO","9wq4ty06lj","2","58","85","30","","","","","","","","","drabble","golf1","pseudoword","pseudoword","f","true","",""
"1415","<p>Starting practice block 2 of 2. Press any key to continue.</p>"," ","html-keyboard-response","115","2.1.0","130835","J=YES, F=NO","9wq4ty06lj","2","58","85","30","","","","","","","","","","","","","","","",""
"null","<p style=""font-size: 50px;"">+</p>","null","html-keyboard-response","116","2.1.0","131145","J=YES, F=NO","9wq4ty06lj","2","58","85","30","","","","","","","","","","","","","","","",""
"null","audio/beep-329314.mp3","null","audio-keyboard-response","117","2.1.0","132687","J=YES, F=NO","9wq4ty06lj","2","58","85","30","","","","","","","","","","","","","","","",""
"null","audio/bridge.wav","null","audio-keyboard-response","118","2.1.0","133417","J=YES, F=NO","9wq4ty06lj","2","58","85","30","","","","","","","","","","","","","","","",""
"328","
          <p id=""word"" style=""font-size: 40px;"">crack</p>
          <p style=""font-size: 16px;"">J = YES &nbsp;&nbsp;&nbsp; F = NO</p>
        ","j","html-keyboard-response","119","2.1.0","133747","J=YES, F=NO","9wq4ty06lj","2","58","85","30","","","","","","","","","crack","bridge","filler","filler","j","true","",""
"null","<p style=""font-size: 50px;"">+</p>","null","html-keyboard-response","120","2.1.0","134049","J=YES, F=NO","9wq4ty06lj","2","58","85","30","","","","","","","","","","","","","","","",""
"null","audio/beep-329314.mp3","null","audio-keyboard-response","121","2.1.0","135587","J=YES, F=NO","9wq4ty06lj","2","58","85","30","","","","","","","","","","","","","","","",""
"null","audio/kettle1.wav","null","audio-keyboard-response","122","2.1.0","136057","J=YES, F=NO","9wq4ty06lj","2","58","85","30","","","","","","","","","","","","","","","",""
"370","
          <p id=""word"" style=""font-size: 40px;"">wrap</p>
          <p style=""font-size: 16px;"">J = YES &nbsp;&nbsp;&nbsp; F = NO</p>
        ","j","html-keyboard-response","123","2.1.0","136429","J=YES, F=NO","9wq4ty06lj","2","58","85","30","","","","","","","","","wrap","kettle1","filler","filler","j","true","",""
"null","<p style=""font-size: 50px;"">+</p>","null","html-keyboard-response","124","2.1.0","136739","J=YES, F=NO","9wq4ty06lj","2","58","85","30","","","","","","","","","","","","","","","",""
"null","audio/beep-329314.mp3","null","audio-keyboard-response","125","2.1.0","138268","J=YES, F=NO","9wq4ty06lj","2","58","85","30","","","","","","","","","","","","","","","",""
"null","audio/show.wav","null","audio-keyboard-response","126","2.1.0","138897","J=YES, F=NO","9wq4ty06lj","2","58","85","30","","","","","","","","","","","","","","","",""
"524","
          <p id=""word"" style=""font-size: 40px;"">smark</p>
          <p style=""font-size: 16px;"">J = YES &nbsp;&nbsp;&nbsp; F = NO</p>
        ","j","html-keyboard-response","127","2.1.0","139421","J=YES, F=NO","9wq4ty06lj","2","58","85","30","","","","","","","","","smark","show","pseudoword","pseudoword","f","false","",""
"null","<p style=""font-size: 50px;"">+</p>","null","html-keyboard-response","128","2.1.0","139735","J=YES, F=NO","9wq4ty06lj","2","58","85","30","","","","","","","","","","","","","","","",""
"null","audio/beep-329314.mp3","null","audio-keyboard-response","129","2.1.0","141267","J=YES, F=NO","9wq4ty06lj","2","58","85","30","","","","","","","","","","","","","","","",""
"null","audio/ankle1.wav","null","audio-keyboard-response","130","2.1.0","141776","J=YES, F=NO","9wq4ty06lj","2","58","85","30","","","","","","","","","","","","","","","",""
"650","
          <p id=""word"" style=""font-size: 40px;"">switm</p>
          <p style=""font-size: 16px;"">J = YES &nbsp;&nbsp;&nbsp; F = NO</p>
        ","f","html-keyboard-response","131","2.1.0","142427","J=YES, F=NO","9wq4ty06lj","2","58","85","30","","","","","","","","","switm","ankle1","pseudoword","pseudoword","f","true","",""
"null","<p style=""font-size: 50px;"">+</p>","null","html-keyboard-response","132","2.1.0","142741","J=YES, F=NO","9wq4ty06lj","2","58","85","30","","","","","","","","","","","","","","","",""
"null","audio/beep-329314.mp3","null","audio-keyboard-response","133","2.1.0","144268","J=YES, F=NO","9wq4ty06lj","2","58","85","30","","","","","","","","","","","","","","","",""
"null","audio/breath.wav","null","audio-keyboard-response","134","2.1.0","144837","J=YES, F=NO","9wq4ty06lj","2","58","85","30","","","","","","","","","","","","","","","",""
"389","
          <p id=""word"" style=""font-size: 40px;"">pack</p>
          <p style=""font-size: 16px;"">J = YES &nbsp;&nbsp;&nbsp; F = NO</p>
        ","j","html-keyboard-response","135","2.1.0","145228","J=YES, F=NO","9wq4ty06lj","2","58","85","30","","","","","","","","","pack","breath","filler","filler","j","true","",""
"null","<p style=""font-size: 50px;"">+</p>","null","html-keyboard-response","136","2.1.0","145532","J=YES, F=NO","9wq4ty06lj","2","58","85","30","","","","","","","","","","","","","","","",""
"null","audio/beep-329314.mp3","null","audio-keyboard-response","137","2.1.0","147067","J=YES, F=NO","9wq4ty06lj","2","58","85","30","","","","","","","","","","","","","","","",""
"null","audio/floor.wav","null","audio-keyboard-response","138","2.1.0","147698","J=YES, F=NO","9wq4ty06lj","2","58","85","30","","","","","","","","","","","","","","","",""
"418","
          <p id=""word"" style=""font-size: 40px;"">mop</p>
          <p style=""font-size: 16px;"">J = YES &nbsp;&nbsp;&nbsp; F = NO</p>
        ","j","html-keyboard-response","139","2.1.0","148117","J=YES, F=NO","9wq4ty06lj","2","58","85","30","","","","","","","","","mop","floor","filler","filler","j","true","",""
"null","<p style=""font-size: 50px;"">+</p>","null","html-keyboard-response","140","2.1.0","148432","J=YES, F=NO","9wq4ty06lj","2","58","85","30","","","","","","","","","","","","","","","",""
"null","audio/beep-329314.mp3","null","audio-keyboard-response","141","2.1.0","149968","J=YES, F=NO","9wq4ty06lj","2","58","85","30","","","","","","","","","","","","","","","",""
"null","audio/camera1.wav","null","audio-keyboard-response","142","2.1.0","150517","J=YES, F=NO","9wq4ty06lj","2","58","85","30","","","","","","","","","","","","","","","",""
"422","
          <p id=""word"" style=""font-size: 40px;"">stir</p>
          <p style=""font-size: 16px;"">J = YES &nbsp;&nbsp;&nbsp; F = NO</p>
        ","f","html-keyboard-response","143","2.1.0","150941","J=YES, F=NO","9wq4ty06lj","2","58","85","30","","","","","","","","","stir","camera1","filler","filler","j","false","",""
"null","<p style=""font-size: 50px;"">+</p>","null","html-keyboard-response","144","2.1.0","151247","J=YES, F=NO","9wq4ty06lj","2","58","85","30","","","","","","","","","","","","","","","",""
"null","audio/beep-329314.mp3","null","audio-keyboard-response","145","2.1.0","152786","J=YES, F=NO","9wq4ty06lj","2","58","85","30","","","","","","","","","","","","","","","",""
"null","audio/client1.wav","null","audio-keyboard-response","146","2.1.0","153557","J=YES, F=NO","9wq4ty06lj","2","58","85","30","","","","","","","","","","","","","","","",""
"588","
          <p id=""word"" style=""font-size: 40px;"">droothe</p>
          <p style=""font-size: 16px;"">J = YES &nbsp;&nbsp;&nbsp; F = NO</p>
        ","j","html-keyboard-response","147","2.1.0","154147","J=YES, F=NO","9wq4ty06lj","2","58","85","30","","","","","","","","","droothe","client1","pseudoword","pseudoword","f","false","",""
"null","<p style=""font-size: 50px;"">+</p>","null","html-keyboard-response","148","2.1.0","154452","J=YES, F=NO","9wq4ty06lj","2","58","85","30","","","","","","","","","","","","","","","",""
"null","audio/beep-329314.mp3","null","audio-keyboard-response","149","2.1.0","155987","J=YES, F=NO","9wq4ty06lj","2","58","85","30","","","","","","","","","","","","","","","",""
"null","audio/menu.wav","null","audio-keyboard-response","150","2.1.0","156617","J=YES, F=NO","9wq4ty06lj","2","58","85","30","","","","","","","","","","","","","","","",""
"576","
          <p id=""word"" style=""font-size: 40px;"">slice</p>
          <p style=""font-size: 16px;"">J = YES &nbsp;&nbsp;&nbsp; F = NO</p>
        ","j","html-keyboard-response","151","2.1.0","157195","J=YES, F=NO","9wq4ty06lj","2","58","85","30","","","","","","","","","slice","menu","filler","filler","j","true","",""
"null","<p style=""font-size: 50px;"">+</p>","null","html-keyboard-response","152","2.1.0","157504","J=YES, F=NO","9wq4ty06lj","2","58","85","30","","","","","","","","","","","","","","","",""
"null","audio/beep-329314.mp3","null","audio-keyboard-response","153","2.1.0","159028","J=YES, F=NO","9wq4ty06lj","2","58","85","30","","","","","","","","","","","","","","","",""
"null","audio/battle1.wav","null","audio-keyboard-response","154","2.1.0","159558","J=YES, F=NO","9wq4ty06lj","2","58","85","30","","","","","","","","","","","","","","","",""
"582","
          <p id=""word"" style=""font-size: 40px;"">boil</p>
          <p style=""font-size: 16px;"">J = YES &nbsp;&nbsp;&nbsp; F = NO</p>
        ","j","html-keyboard-response","155","2.1.0","160141","J=YES, F=NO","9wq4ty06lj","2","58","85","30","","","","","","","","","boil","battle1","filler","filler","j","true","",""
"null","<p style=""font-size: 50px;"">+</p>","null","html-keyboard-response","156","2.1.0","160456","J=YES, F=NO","9wq4ty06lj","2","58","85","30","","","","","","","","","","","","","","","",""
"null","audio/beep-329314.mp3","null","audio-keyboard-response","157","2.1.0","161988","J=YES, F=NO","9wq4ty06lj","2","58","85","30","","","","","","","","","","","","","","","",""
"null","audio/planet1.wav","null","audio-keyboard-response","158","2.1.0","162577","J=YES, F=NO","9wq4ty06lj","2","58","85","30","","","","","","","","","","","","","","","",""
"592","
          <p id=""word"" style=""font-size: 40px;"">cratched</p>
          <p style=""font-size: 16px;"">J = YES &nbsp;&nbsp;&nbsp; F = NO</p>
        ","j","html-keyboard-response","159","2.1.0","163171","J=YES, F=NO","9wq4ty06lj","2","58","85","30","","","","","","","","","cratched","planet1","pseudoword","pseudoword","f","false","",""
"null","<p style=""font-size: 50px;"">+</p>","null","html-keyboard-response","160","2.1.0","163481","J=YES, F=NO","9wq4ty06lj","2","58","85","30","","","","","","","","","","","","","","","",""
"null","audio/beep-329314.mp3","null","audio-keyboard-response","161","2.1.0","165008","J=YES, F=NO","9wq4ty06lj","2","58","85","30","","","","","","","","","","","","","","","",""
"null","audio/bottle.wav","null","audio-keyboard-response","162","2.1.0","165476","J=YES, F=NO","9wq4ty06lj","2","58","85","30","","","","","","","","","","","","","","","",""
"496","
          <p id=""word"" style=""font-size: 40px;"">watch</p>
          <p style=""font-size: 16px;"">J = YES &nbsp;&nbsp;&nbsp; F = NO</p>
        ","j","html-keyboard-response","163","2.1.0","165973","J=YES, F=NO","9wq4ty06lj","2","58","85","30","","","","","","","","","watch","bottle","filler","filler","j","true","",""
"2084","
    <div style=""max-width: 800px; margin: auto; text-align: left;"">
      <h2>Part 2: Main Trials</h2>
      <p>Great job on the practice trials!</p>
      <p>You will now begin the <strong>main set of trials</strong>.</p>
      <p>Remember your key assignments:</p>
      <ul>
        <li><strong>J</strong> = YES (real English word)</li>
        <li><strong>F</strong> = NO (not a real English word)</li>
      </ul>
      <p>Try to respond as <strong>quickly and accurately</strong> as possible.</p>
      <p style=""margin-top: 2em;"">Press any key to begin the main trials.</p>
    </div>
  "," ","html-keyboard-response","164","2.1.0","168059","J=YES, F=NO","9wq4ty06lj","2","58","85","30","","","","","","","","","","","","","","","",""
"1297","<p>Starting main block 1 of 8. Press any key to continue.</p>"," ","html-keyboard-response","165","2.1.0","169357","J=YES, F=NO","9wq4ty06lj","2","58","85","30","","","","","","","","","","","","","","","",""
"null","<p style=""font-size: 50px;"">+</p>","null","html-keyboard-response","166","2.1.0","169671","J=YES, F=NO","9wq4ty06lj","2","58","85","30","","","","","","","","","","","","","","","",""
"null","audio/beep-329314.mp3","null","audio-keyboard-response","167","2.1.0","171207","J=YES, F=NO","9wq4ty06lj","2","58","85","30","","","","","","","","","","","","","","","",""
"null","audio/purpose.wav","null","audio-keyboard-response","168","2.1.0","171876","J=YES, F=NO","9wq4ty06lj","2","58","85","30","","","","","","","","","","","","","","","",""
"654","
          <p id=""word"" style=""font-size: 40px;"">whigm</p>
          <p style=""font-size: 16px;"">J = YES &nbsp;&nbsp;&nbsp; F = NO</p>
        ","f","html-keyboard-response","169","2.1.0","172531","J=YES, F=NO","9wq4ty06lj","2","58","85","30","","","","","","","","","whigm","purpose","pseudoword","pseudoword","f","true","",""
"null","<p style=""font-size: 50px;"">+</p>","null","html-keyboard-response","170","2.1.0","172838","J=YES, F=NO","9wq4ty06lj","2","58","85","30","","","","","","","","","","","","","","","",""
"null","audio/beep-329314.mp3","null","audio-keyboard-response","171","2.1.0","174367","J=YES, F=NO","9wq4ty06lj","2","58","85","30","","","","","","","","","","","","","","","",""
"null","audio/sand.wav","null","audio-keyboard-response","172","2.1.0","175156","J=YES, F=NO","9wq4ty06lj","2","58","85","30","","","","","","","","","","","","","","","",""
"688","
          <p id=""word"" style=""font-size: 40px;"">proted</p>
          <p style=""font-size: 16px;"">J = YES &nbsp;&nbsp;&nbsp; F = NO</p>
        ","f","html-keyboard-response","173","2.1.0","175846","J=YES, F=NO","9wq4ty06lj","2","58","85","30","","","","","","","","","proted","sand","pseudoword","pseudoword","f","true","",""
"null","<p style=""font-size: 50px;"">+</p>","null","html-keyboard-response","174","2.1.0","176153","J=YES, F=NO","9wq4ty06lj","2","58","85","30","","","","","","","","","","","","","","","",""
"null","audio/beep-329314.mp3","null","audio-keyboard-response","175","2.1.0","177688","J=YES, F=NO","9wq4ty06lj","2","58","85","30","","","","","","","","","","","","","","","",""
"null","audio/life1.wav","null","audio-keyboard-response","176","2.1.0","178277","J=YES, F=NO","9wq4ty06lj","2","58","85","30","","","","","","","","","","","","","","","",""
"840","
          <p id=""word"" style=""font-size: 40px;"">flimch</p>
          <p style=""font-size: 16px;"">J = YES &nbsp;&nbsp;&nbsp; F = NO</p>
        ","f","html-keyboard-response","177","2.1.0","179117","J=YES, F=NO","9wq4ty06lj","2","58","85","30","","","","","","","","","flimch","life1","pseudoword","pseudoword","f","true","",""
"null","<p style=""font-size: 50px;"">+</p>","null","html-keyboard-response","178","2.1.0","179428","J=YES, F=NO","9wq4ty06lj","2","58","85","30","","","","","","","","","","","","","","","",""
"null","audio/beep-329314.mp3","null","audio-keyboard-response","179","2.1.0","180966","J=YES, F=NO","9wq4ty06lj","2","58","85","30","","","","","","","","","","","","","","","",""
"null","audio/uncle1.wav","null","audio-keyboard-response","180","2.1.0","181457","J=YES, F=NO","9wq4ty06lj","2","58","85","30","","","","","","","","","","","","","","","",""
"608","
          <p id=""word"" style=""font-size: 40px;"">break</p>
          <p style=""font-size: 16px;"">J = YES &nbsp;&nbsp;&nbsp; F = NO</p>
        ","j","html-keyboard-response","181","2.1.0","182067","J=YES, F=NO","9wq4ty06lj","2","58","85","30","","","","","","","","","break","uncle1","unrelated","experimental","j","true","",""
"null","<p style=""font-size: 50px;"">+</p>","null","html-keyboard-response","182","2.1.0","182371","J=YES, F=NO","9wq4ty06lj","2","58","85","30","","","","","","","","","","","","","","","",""
"null","audio/beep-329314.mp3","null","audio-keyboard-response","183","2.1.0","183906","J=YES, F=NO","9wq4ty06lj","2","58","85","30","","","","","","","","","","","","","","","",""
"null","audio/vehicle1.wav","null","audio-keyboard-response","184","2.1.0","184557","J=YES, F=NO","9wq4ty06lj","2","58","85","30","","","","","","","","","","","","","","","",""
"456","
          <p id=""word"" style=""font-size: 40px;"">approach</p>
          <p style=""font-size: 16px;"">J = YES &nbsp;&nbsp;&nbsp; F = NO</p>
        ","j","html-keyboard-response","185","2.1.0","185014","J=YES, F=NO","9wq4ty06lj","2","58","85","30","","","","","","","","","approach","vehicle1","literal","experimental","j","true","",""
"null","<p style=""font-size: 50px;"">+</p>","null","html-keyboard-response","186","2.1.0","185319","J=YES, F=NO","9wq4ty06lj","2","58","85","30","","","","","","","","","","","","","","","",""
"null","audio/beep-329314.mp3","null","audio-keyboard-response","187","2.1.0","186846","J=YES, F=NO","9wq4ty06lj","2","58","85","30","","","","","","","","","","","","","","","",""
"null","audio/budget1.wav","null","audio-keyboard-response","188","2.1.0","187457","J=YES, F=NO","9wq4ty06lj","2","58","85","30","","","","","","","","","","","","","","","",""
"793","
          <p id=""word"" style=""font-size: 40px;"">sulist</p>
          <p style=""font-size: 16px;"">J = YES &nbsp;&nbsp;&nbsp; F = NO</p>
        ","f","html-keyboard-response","189","2.1.0","188250","J=YES, F=NO","9wq4ty06lj","2","58","85","30","","","","","","","","","sulist","budget1","pseudoword","pseudoword","f","true","",""
"null","<p style=""font-size: 50px;"">+</p>","null","html-keyboard-response","190","2.1.0","188558","J=YES, F=NO","9wq4ty06lj","2","58","85","30","","","","","","","","","","","","","","","",""
"null","audio/beep-329314.mp3","null","audio-keyboard-response","191","2.1.0","190086","J=YES, F=NO","9wq4ty06lj","2","58","85","30","","","","","","","","","","","","","","","",""
"null","audio/handle.wav","null","audio-keyboard-response","192","2.1.0","190877","J=YES, F=NO","9wq4ty06lj","2","58","85","30","","","","","","","","","","","","","","","",""
"701","
          <p id=""word"" style=""font-size: 40px;"">moutes</p>
          <p style=""font-size: 16px;"">J = YES &nbsp;&nbsp;&nbsp; F = NO</p>
        ","f","html-keyboard-response","193","2.1.0","191581","J=YES, F=NO","9wq4ty06lj","2","58","85","30","","","","","","","","","moutes","handle","pseudoword","pseudoword","f","true","",""
"null","<p style=""font-size: 50px;"">+</p>","null","html-keyboard-response","194","2.1.0","191897","J=YES, F=NO","9wq4ty06lj","2","58","85","30","","","","","","","","","","","","","","","",""
"null","audio/beep-329314.mp3","null","audio-keyboard-response","195","2.1.0","193428","J=YES, F=NO","9wq4ty06lj","2","58","85","30","","","","","","","","","","","","","","","",""
"null","audio/mouth1.wav","null","audio-keyboard-response","196","2.1.0","194156","J=YES, F=NO","9wq4ty06lj","2","58","85","30","","","","","","","","","","","","","","","",""
"592","
          <p id=""word"" style=""font-size: 40px;"">spolial</p>
          <p style=""font-size: 16px;"">J = YES &nbsp;&nbsp;&nbsp; F = NO</p>
        ","f","html-keyboard-response","197","2.1.0","194749","J=YES, F=NO","9wq4ty06lj","2","58","85","30","","","","","","","","","spolial","mouth1","pseudoword","pseudoword","f","true","",""
"null","<p style=""font-size: 50px;"">+</p>","null","html-keyboard-response","198","2.1.0","195059","J=YES, F=NO","9wq4ty06lj","2","58","85","30","","","","","","","","","","","","","","","",""
"null","audio/beep-329314.mp3","null","audio-keyboard-response","199","2.1.0","196588","J=YES, F=NO","9wq4ty06lj","2","58","85","30","","","","","","","","","","","","","","","",""
"null","audio/bomb1.wav","null","audio-keyboard-response","200","2.1.0","196977","J=YES, F=NO","9wq4ty06lj","2","58","85","30","","","","","","","","","","","","","","","",""
"552","
          <p id=""word"" style=""font-size: 40px;"">clean</p>
          <p style=""font-size: 16px;"">J = YES &nbsp;&nbsp;&nbsp; F = NO</p>
        ","j","html-keyboard-response","201","2.1.0","197531","J=YES, F=NO","9wq4ty06lj","2","58","85","30","","","","","","","","","clean","bomb1","filler","filler","j","true","",""
"null","<p style=""font-size: 50px;"">+</p>","null","html-keyboard-response","202","2.1.0","197837","J=YES, F=NO","9wq4ty06lj","2","58","85","30","","","","","","","","","","","","","","","",""
"null","audio/beep-329314.mp3","null","audio-keyboard-response","203","2.1.0","199367","J=YES, F=NO","9wq4ty06lj","2","58","85","30","","","","","","","","","","","","","","","",""
"null","audio/van1.wav","null","audio-keyboard-response","204","2.1.0","199896","J=YES, F=NO","9wq4ty06lj","2","58","85","30","","","","","","","","","","","","","","","",""
"531","
          <p id=""word"" style=""font-size: 40px;"">push</p>
          <p style=""font-size: 16px;"">J = YES &nbsp;&nbsp;&nbsp; F = NO</p>
        ","j","html-keyboard-response","205","2.1.0","200428","J=YES, F=NO","9wq4ty06lj","2","58","85","30","","","","","","","","","push","van1","filler","filler","j","true","",""
"null","<p style=""font-size: 50px;"">+</p>","null","html-keyboard-response","206","2.1.0","200738","J=YES, F=NO","9wq4ty06lj","2","58","85","30","","","","","","","","","","","","","","","",""
"null","audio/beep-329314.mp3","null","audio-keyboard-response","207","2.1.0","202267","J=YES, F=NO","9wq4ty06lj","2","58","85","30","","","","","","","","","","","","","","","",""
"null","audio/cash1.wav","null","audio-keyboard-response","208","2.1.0","202976","J=YES, F=NO","9wq4ty06lj","2","58","85","30","","","","","","","","","","","","","","","",""
"604","
          <p id=""word"" style=""font-size: 40px;"">splear</p>
          <p style=""font-size: 16px;"">J = YES &nbsp;&nbsp;&nbsp; F = NO</p>
        ","f","html-keyboard-response","209","2.1.0","203581","J=YES, F=NO","9wq4ty06lj","2","58","85","30","","","","","","","","","splear","cash1","pseudoword","pseudoword","f","true","",""
"null","<p style=""font-size: 50px;"">+</p>","null","html-keyboard-response","210","2.1.0","203886","J=YES, F=NO","9wq4ty06lj","2","58","85","30","","","","","","","","","","","","","","","",""
"null","audio/beep-329314.mp3","null","audio-keyboard-response","211","2.1.0","205426","J=YES, F=NO","9wq4ty06lj","2","58","85","30","","","","","","","","","","","","","","","",""
"null","audio/bottle.wav","null","audio-keyboard-response","212","2.1.0","205877","J=YES, F=NO","9wq4ty06lj","2","58","85","30","","","","","","","","","","","","","","","",""
"406","
          <p id=""word"" style=""font-size: 40px;"">open</p>
          <p style=""font-size: 16px;"">J = YES &nbsp;&nbsp;&nbsp; F = NO</p>
        ","j","html-keyboard-response","213","2.1.0","206285","J=YES, F=NO","9wq4ty06lj","2","58","85","30","","","","","","","","","open","bottle","literal","experimental","j","true","",""
"null","<p style=""font-size: 50px;"">+</p>","null","html-keyboard-response","214","2.1.0","206590","J=YES, F=NO","9wq4ty06lj","2","58","85","30","","","","","","","","","","","","","","","",""
"null","audio/beep-329314.mp3","null","audio-keyboard-response","215","2.1.0","208128","J=YES, F=NO","9wq4ty06lj","2","58","85","30","","","","","","","","","","","","","","","",""
"null","audio/window1.wav","null","audio-keyboard-response","216","2.1.0","208757","J=YES, F=NO","9wq4ty06lj","2","58","85","30","","","","","","","","","","","","","","","",""
"421","
          <p id=""word"" style=""font-size: 40px;"">toss</p>
          <p style=""font-size: 16px;"">J = YES &nbsp;&nbsp;&nbsp; F = NO</p>
        ","j","html-keyboard-response","217","2.1.0","209179","J=YES, F=NO","9wq4ty06lj","2","58","85","30","","","","","","","","","toss","window1","filler","filler","j","true","",""
"null","<p style=""font-size: 50px;"">+</p>","null","html-keyboard-response","218","2.1.0","209488","J=YES, F=NO","9wq4ty06lj","2","58","85","30","","","","","","","","","","","","","","","",""
"null","audio/beep-329314.mp3","null","audio-keyboard-response","219","2.1.0","211026","J=YES, F=NO","9wq4ty06lj","2","58","85","30","","","","","","","","","","","","","","","",""
"null","audio/pride1.wav","null","audio-keyboard-response","220","2.1.0","211717","J=YES, F=NO","9wq4ty06lj","2","58","85","30","","","","","","","","","","","","","","","",""
"414","
          <p id=""word"" style=""font-size: 40px;"">hurt</p>
          <p style=""font-size: 16px;"">J = YES &nbsp;&nbsp;&nbsp; F = NO</p>
        ","j","html-keyboard-response","221","2.1.0","212133","J=YES, F=NO","9wq4ty06lj","2","58","85","30","","","","","","","","","hurt","pride1","metaphor","experimental","j","true","",""
"null","<p style=""font-size: 50px;"">+</p>","null","html-keyboard-response","222","2.1.0","212449","J=YES, F=NO","9wq4ty06lj","2","58","85","30","","","","","","","","","","","","","","","",""
"null","audio/beep-329314.mp3","null","audio-keyboard-response","223","2.1.0","213987","J=YES, F=NO","9wq4ty06lj","2","58","85","30","","","","","","","","","","","","","","","",""
"null","audio/winter.wav","null","audio-keyboard-response","224","2.1.0","214717","J=YES, F=NO","9wq4ty06lj","2","58","85","30","","","","","","","","","","","","","","","",""
"796","
          <p id=""word"" style=""font-size: 40px;"">straven</p>
          <p style=""font-size: 16px;"">J = YES &nbsp;&nbsp;&nbsp; F = NO</p>
        ","f","html-keyboard-response","225","2.1.0","215515","J=YES, F=NO","9wq4ty06lj","2","58","85","30","","","","","","","","","straven","winter","pseudoword","pseudoword","f","true","",""
"null","<p style=""font-size: 50px;"">+</p>","null","html-keyboard-response","226","2.1.0","215829","J=YES, F=NO","9wq4ty06lj","2","58","85","30","","","","","","","","","","","","","","","",""
"null","audio/beep-329314.mp3","null","audio-keyboard-response","227","2.1.0","217368","J=YES, F=NO","9wq4ty06lj","2","58","85","30","","","","","","","","","","","","","","","",""
"null","audio/key1.wav","null","audio-keyboard-response","228","2.1.0","217736","J=YES, F=NO","9wq4ty06lj","2","58","85","30","","","","","","","","","","","","","","","",""
"631","
          <p id=""word"" style=""font-size: 40px;"">sminsh</p>
          <p style=""font-size: 16px;"">J = YES &nbsp;&nbsp;&nbsp; F = NO</p>
        ","f","html-keyboard-response","229","2.1.0","218368","J=YES, F=NO","9wq4ty06lj","2","58","85","30","","","","","","","","","sminsh","key1","pseudoword","pseudoword","f","true","",""
"39322","<p>Excellent! You have finished block 1 of 8.</p>
                     <p>Feel free to take a 30 second break.</p>
                     <p>Press any key when you're ready to continue.</p>","j","html-keyboard-response","230","2.1.0","257690","J=YES, F=NO","9wq4ty06lj","2","58","85","30","","","","","","","","","","","","","","","",""
"1088","<p>Starting main block 2 of 8. Press any key to continue.</p>","j","html-keyboard-response","231","2.1.0","258779","J=YES, F=NO","9wq4ty06lj","2","58","85","30","","","","","","","","","","","","","","","",""
"null","<p style=""font-size: 50px;"">+</p>","null","html-keyboard-response","232","2.1.0","259094","J=YES, F=NO","9wq4ty06lj","2","58","85","30","","","","","","","","","","","","","","","",""
"null","audio/beep-329314.mp3","null","audio-keyboard-response","233","2.1.0","260612","J=YES, F=NO","9wq4ty06lj","2","58","85","30","","","","","","","","","","","","","","","",""
"null","audio/skin1.wav","null","audio-keyboard-response","234","2.1.0","261172","J=YES, F=NO","9wq4ty06lj","2","58","85","30","","","","","","","","","","","","","","","",""
"542","
          <p id=""word"" style=""font-size: 40px;"">expose</p>
          <p style=""font-size: 16px;"">J = YES &nbsp;&nbsp;&nbsp; F = NO</p>
        ","j","html-keyboard-response","235","2.1.0","261715","J=YES, F=NO","9wq4ty06lj","2","58","85","30","","","","","","","","","expose","skin1","literal","experimental","j","true","",""
"null","<p style=""font-size: 50px;"">+</p>","null","html-keyboard-response","236","2.1.0","262020","J=YES, F=NO","9wq4ty06lj","2","58","85","30","","","","","","","","","","","","","","","",""
"null","audio/beep-329314.mp3","null","audio-keyboard-response","237","2.1.0","263552","J=YES, F=NO","9wq4ty06lj","2","58","85","30","","","","","","","","","","","","","","","",""
"null","audio/theory1.wav","null","audio-keyboard-response","238","2.1.0","264332","J=YES, F=NO","9wq4ty06lj","2","58","85","30","","","","","","","","","","","","","","","",""
"926","
          <p id=""word"" style=""font-size: 40px;"">scolve</p>
          <p style=""font-size: 16px;"">J = YES &nbsp;&nbsp;&nbsp; F = NO</p>
        ","j","html-keyboard-response","239","2.1.0","265258","J=YES, F=NO","9wq4ty06lj","2","58","85","30","","","","","","","","","scolve","theory1","pseudoword","pseudoword","f","false","",""
"null","<p style=""font-size: 50px;"">+</p>","null","html-keyboard-response","240","2.1.0","265563","J=YES, F=NO","9wq4ty06lj","2","58","85","30","","","","","","","","","","","","","","","",""
"null","audio/beep-329314.mp3","null","audio-keyboard-response","241","2.1.0","267092","J=YES, F=NO","9wq4ty06lj","2","58","85","30","","","","","","","","","","","","","","","",""
"null","audio/effort.wav","null","audio-keyboard-response","242","2.1.0","267732","J=YES, F=NO","9wq4ty06lj","2","58","85","30","","","","","","","","","","","","","","","",""
"1054","
          <p id=""word"" style=""font-size: 40px;"">whonk</p>
          <p style=""font-size: 16px;"">J = YES &nbsp;&nbsp;&nbsp; F = NO</p>
        ","j","html-keyboard-response","243","2.1.0","268787","J=YES, F=NO","9wq4ty06lj","2","58","85","30","","","","","","","","","whonk","effort","pseudoword","pseudoword","f","false","",""
"null","<p style=""font-size: 50px;"">+</p>","null","html-keyboard-response","244","2.1.0","269097","J=YES, F=NO","9wq4ty06lj","2","58","85","30","","","","","","","","","","","","","","","",""
"null","audio/beep-329314.mp3","null","audio-keyboard-response","245","2.1.0","270632","J=YES, F=NO","9wq4ty06lj","2","58","85","30","","","","","","","","","","","","","","","",""
"null","audio/vehicle1.wav","null","audio-keyboard-response","246","2.1.0","271272","J=YES, F=NO","9wq4ty06lj","2","58","85","30","","","","","","","","","","","","","","","",""
"697","
          <p id=""word"" style=""font-size: 40px;"">dropt</p>
          <p style=""font-size: 16px;"">J = YES &nbsp;&nbsp;&nbsp; F = NO</p>
        ","f","html-keyboard-response","247","2.1.0","271970","J=YES, F=NO","9wq4ty06lj","2","58","85","30","","","","","","","","","dropt","vehicle1","pseudoword","pseudoword","f","true","",""
"null","<p style=""font-size: 50px;"">+</p>","null","html-keyboard-response","248","2.1.0","272284","J=YES, F=NO","9wq4ty06lj","2","58","85","30","","","","","","","","","","","","","","","",""
"null","audio/beep-329314.mp3","null","audio-keyboard-response","249","2.1.0","273812","J=YES, F=NO","9wq4ty06lj","2","58","85","30","","","","","","","","","","","","","","","",""
"null","audio/hotel1.wav","null","audio-keyboard-response","250","2.1.0","274452","J=YES, F=NO","9wq4ty06lj","2","58","85","30","","","","","","","","","","","","","","","",""
"510","
          <p id=""word"" style=""font-size: 40px;"">spread</p>
          <p style=""font-size: 16px;"">J = YES &nbsp;&nbsp;&nbsp; F = NO</p>
        ","j","html-keyboard-response","251","2.1.0","274963","J=YES, F=NO","9wq4ty06lj","2","58","85","30","","","","","","","","","spread","hotel1","unrelated","experimental","j","true","",""
"null","<p style=""font-size: 50px;"">+</p>","null","html-keyboard-response","252","2.1.0","275278","J=YES, F=NO","9wq4ty06lj","2","58","85","30","","","","","","","","","","","","","","","",""
"null","audio/beep-329314.mp3","null","audio-keyboard-response","253","2.1.0","276812","J=YES, F=NO","9wq4ty06lj","2","58","85","30","","","","","","","","","","","","","","","",""
"null","audio/neck.wav","null","audio-keyboard-response","254","2.1.0","277372","J=YES, F=NO","9wq4ty06lj","2","58","85","30","","","","","","","","","","","","","","","",""
"430","
          <p id=""word"" style=""font-size: 40px;"">share</p>
          <p style=""font-size: 16px;"">J = YES &nbsp;&nbsp;&nbsp; F = NO</p>
        ","j","html-keyboard-response","255","2.1.0","277802","J=YES, F=NO","9wq4ty06lj","2","58","85","30","","","","","","","","","share","neck","unrelated","experimental","j","true","",""
"null","<p style=""font-size: 50px;"">+</p>","null","html-keyboard-response","256","2.1.0","278110","J=YES, F=NO","9wq4ty06lj","2","58","85","30","","","","","","","","","","","","","","","",""
"null","audio/beep-329314.mp3","null","audio-keyboard-response","257","2.1.0","279632","J=YES, F=NO","9wq4ty06lj","2","58","85","30","","","","","","","","","","","","","","","",""
"null","audio/novel.wav","null","audio-keyboard-response","258","2.1.0","280152","J=YES, F=NO","9wq4ty06lj","2","58","85","30","","","","","","","","","","","","","","","",""
"330","
          <p id=""word"" style=""font-size: 40px;"">type</p>
          <p style=""font-size: 16px;"">J = YES &nbsp;&nbsp;&nbsp; F = NO</p>
        ","j","html-keyboard-response","259","2.1.0","280483","J=YES, F=NO","9wq4ty06lj","2","58","85","30","","","","","","","","","type","novel","filler","filler","j","true","",""
"null","<p style=""font-size: 50px;"">+</p>","null","html-keyboard-response","260","2.1.0","280799","J=YES, F=NO","9wq4ty06lj","2","58","85","30","","","","","","","","","","","","","","","",""
"null","audio/beep-329314.mp3","null","audio-keyboard-response","261","2.1.0","282332","J=YES, F=NO","9wq4ty06lj","2","58","85","30","","","","","","","","","","","","","","","",""
"null","audio/tomato.wav","null","audio-keyboard-response","262","2.1.0","283151","J=YES, F=NO","9wq4ty06lj","2","58","85","30","","","","","","","","","","","","","","","",""
"362","
          <p id=""word"" style=""font-size: 40px;"">gladies</p>
          <p style=""font-size: 16px;"">J = YES &nbsp;&nbsp;&nbsp; F = NO</p>
        ","j","html-keyboard-response","263","2.1.0","283514","J=YES, F=NO","9wq4ty06lj","2","58","85","30","","","","","","","","","gladies","tomato","pseudoword","pseudoword","f","false","",""
"null","<p style=""font-size: 50px;"">+</p>","null","html-keyboard-response","264","2.1.0","283828","J=YES, F=NO","9wq4ty06lj","2","58","85","30","","","","","","","","","","","","","","","",""
"null","audio/beep-329314.mp3","null","audio-keyboard-response","265","2.1.0","285352","J=YES, F=NO","9wq4ty06lj","2","58","85","30","","","","","","","","","","","","","","","",""
"null","audio/weight1.wav","null","audio-keyboard-response","266","2.1.0","286032","J=YES, F=NO","9wq4ty06lj","2","58","85","30","","","","","","","","","","","","","","","",""
"658","
          <p id=""word"" style=""font-size: 40px;"">crimsh</p>
          <p style=""font-size: 16px;"">J = YES &nbsp;&nbsp;&nbsp; F = NO</p>
        ","f","html-keyboard-response","267","2.1.0","286691","J=YES, F=NO","9wq4ty06lj","2","58","85","30","","","","","","","","","crimsh","weight1","pseudoword","pseudoword","f","true","",""
"null","<p style=""font-size: 50px;"">+</p>","null","html-keyboard-response","268","2.1.0","287002","J=YES, F=NO","9wq4ty06lj","2","58","85","30","","","","","","","","","","","","","","","",""
"null","audio/beep-329314.mp3","null","audio-keyboard-response","269","2.1.0","288532","J=YES, F=NO","9wq4ty06lj","2","58","85","30","","","","","","","","","","","","","","","",""
"null","audio/empire.wav","null","audio-keyboard-response","270","2.1.0","289212","J=YES, F=NO","9wq4ty06lj","2","58","85","30","","","","","","","","","","","","","","","",""
"599","
          <p id=""word"" style=""font-size: 40px;"">slorby</p>
          <p style=""font-size: 16px;"">J = YES &nbsp;&nbsp;&nbsp; F = NO</p>
        ","f","html-keyboard-response","271","2.1.0","289811","J=YES, F=NO","9wq4ty06lj","2","58","85","30","","","","","","","","","slorby","empire","pseudoword","pseudoword","f","true","",""
"null","<p style=""font-size: 50px;"">+</p>","null","html-keyboard-response","272","2.1.0","290118","J=YES, F=NO","9wq4ty06lj","2","58","85","30","","","","","","","","","","","","","","","",""
"null","audio/beep-329314.mp3","null","audio-keyboard-response","273","2.1.0","291652","J=YES, F=NO","9wq4ty06lj","2","58","85","30","","","","","","","","","","","","","","","",""
"null","audio/mirror1.wav","null","audio-keyboard-response","274","2.1.0","292072","J=YES, F=NO","9wq4ty06lj","2","58","85","30","","","","","","","","","","","","","","","",""
"482","
          <p id=""word"" style=""font-size: 40px;"">fight</p>
          <p style=""font-size: 16px;"">J = YES &nbsp;&nbsp;&nbsp; F = NO</p>
        ","j","html-keyboard-response","275","2.1.0","292555","J=YES, F=NO","9wq4ty06lj","2","58","85","30","","","","","","","","","fight","mirror1","unrelated","experimental","j","true","",""
"null","<p style=""font-size: 50px;"">+</p>","null","html-keyboard-response","276","2.1.0","292858","J=YES, F=NO","9wq4ty06lj","2","58","85","30","","","","","","","","","","","","","","","",""
"null","audio/beep-329314.mp3","null","audio-keyboard-response","277","2.1.0","294392","J=YES, F=NO","9wq4ty06lj","2","58","85","30","","","","","","","","","","","","","","","",""
"null","audio/mouth1.wav","null","audio-keyboard-response","278","2.1.0","294952","J=YES, F=NO","9wq4ty06lj","2","58","85","30","","","","","","","","","","","","","","","",""
"538","
          <p id=""word"" style=""font-size: 40px;"">close</p>
          <p style=""font-size: 16px;"">J = YES &nbsp;&nbsp;&nbsp; F = NO</p>
        ","j","html-keyboard-response","279","2.1.0","295491","J=YES, F=NO","9wq4ty06lj","2","58","85","30","","","","","","","","","close","mouth1","literal","experimental","j","true","",""
"null","<p style=""font-size: 50px;"">+</p>","null","html-keyboard-response","280","2.1.0","295799","J=YES, F=NO","9wq4ty06lj","2","58","85","30","","","","","","","","","","","","","","","",""
"null","audio/beep-329314.mp3","null","audio-keyboard-response","281","2.1.0","297332","J=YES, F=NO","9wq4ty06lj","2","58","85","30","","","","","","","","","","","","","","","",""
"null","audio/stain.wav","null","audio-keyboard-response","282","2.1.0","298132","J=YES, F=NO","9wq4ty06lj","2","58","85","30","","","","","","","","","","","","","","","",""
"663","
          <p id=""word"" style=""font-size: 40px;"">rumpsied</p>
          <p style=""font-size: 16px;"">J = YES &nbsp;&nbsp;&nbsp; F = NO</p>
        ","f","html-keyboard-response","283","2.1.0","298795","J=YES, F=NO","9wq4ty06lj","2","58","85","30","","","","","","","","","rumpsied","stain","pseudoword","pseudoword","f","true","",""
"null","<p style=""font-size: 50px;"">+</p>","null","html-keyboard-response","284","2.1.0","299100","J=YES, F=NO","9wq4ty06lj","2","58","85","30","","","","","","","","","","","","","","","",""
"null","audio/beep-329314.mp3","null","audio-keyboard-response","285","2.1.0","300632","J=YES, F=NO","9wq4ty06lj","2","58","85","30","","","","","","","","","","","","","","","",""
"null","audio/desire.wav","null","audio-keyboard-response","286","2.1.0","301392","J=YES, F=NO","9wq4ty06lj","2","58","85","30","","","","","","","","","","","","","","","",""
"642","
          <p id=""word"" style=""font-size: 40px;"">nophed</p>
          <p style=""font-size: 16px;"">J = YES &nbsp;&nbsp;&nbsp; F = NO</p>
        ","f","html-keyboard-response","287","2.1.0","302035","J=YES, F=NO","9wq4ty06lj","2","58","85","30","","","","","","","","","nophed","desire","pseudoword","pseudoword","f","true","",""
"null","<p style=""font-size: 50px;"">+</p>","null","html-keyboard-response","288","2.1.0","302344","J=YES, F=NO","9wq4ty06lj","2","58","85","30","","","","","","","","","","","","","","","",""
"null","audio/beep-329314.mp3","null","audio-keyboard-response","289","2.1.0","303872","J=YES, F=NO","9wq4ty06lj","2","58","85","30","","","","","","","","","","","","","","","",""
"null","audio/relief.wav","null","audio-keyboard-response","290","2.1.0","304572","J=YES, F=NO","9wq4ty06lj","2","58","85","30","","","","","","","","","","","","","","","",""
"566","
          <p id=""word"" style=""font-size: 40px;"">bring</p>
          <p style=""font-size: 16px;"">J = YES &nbsp;&nbsp;&nbsp; F = NO</p>
        ","j","html-keyboard-response","291","2.1.0","305139","J=YES, F=NO","9wq4ty06lj","2","58","85","30","","","","","","","","","bring","relief","metaphor","experimental","j","true","",""
"null","<p style=""font-size: 50px;"">+</p>","null","html-keyboard-response","292","2.1.0","305452","J=YES, F=NO","9wq4ty06lj","2","58","85","30","","","","","","","","","","","","","","","",""
"null","audio/beep-329314.mp3","null","audio-keyboard-response","293","2.1.0","306992","J=YES, F=NO","9wq4ty06lj","2","58","85","30","","","","","","","","","","","","","","","",""
"null","audio/age1.wav","null","audio-keyboard-response","294","2.1.0","307532","J=YES, F=NO","9wq4ty06lj","2","58","85","30","","","","","","","","","","","","","","","",""
"382","
          <p id=""word"" style=""font-size: 40px;"">bake</p>
          <p style=""font-size: 16px;"">J = YES &nbsp;&nbsp;&nbsp; F = NO</p>
        ","j","html-keyboard-response","295","2.1.0","307914","J=YES, F=NO","9wq4ty06lj","2","58","85","30","","","","","","","","","bake","age1","filler","filler","j","true","",""
"4920","<p>Excellent! You have finished block 2 of 8.</p>
                     <p>Feel free to take a 30 second break.</p>
                     <p>Press any key when you're ready to continue.</p>","j","html-keyboard-response","296","2.1.0","312834","J=YES, F=NO","9wq4ty06lj","2","58","85","30","","","","","","","","","","","","","","","",""
"1168","<p>Starting main block 3 of 8. Press any key to continue.</p>","j","html-keyboard-response","297","2.1.0","314002","J=YES, F=NO","9wq4ty06lj","2","58","85","30","","","","","","","","","","","","","","","",""
"null","<p style=""font-size: 50px;"">+</p>","null","html-keyboard-response","298","2.1.0","314307","J=YES, F=NO","9wq4ty06lj","2","58","85","30","","","","","","","","","","","","","","","",""
"null","audio/beep-329314.mp3","null","audio-keyboard-response","299","2.1.0","315832","J=YES, F=NO","9wq4ty06lj","2","58","85","30","","","","","","","","","","","","","","","",""
"null","audio/baby.wav","null","audio-keyboard-response","300","2.1.0","316291","J=YES, F=NO","9wq4ty06lj","2","58","85","30","","","","","","","","","","","","","","","",""
"439","
          <p id=""word"" style=""font-size: 40px;"">lift</p>
          <p style=""font-size: 16px;"">J = YES &nbsp;&nbsp;&nbsp; F = NO</p>
        ","j","html-keyboard-response","301","2.1.0","316730","J=YES, F=NO","9wq4ty06lj","2","58","85","30","","","","","","","","","lift","baby","filler","filler","j","true","",""
"null","<p style=""font-size: 50px;"">+</p>","null","html-keyboard-response","302","2.1.0","317036","J=YES, F=NO","9wq4ty06lj","2","58","85","30","","","","","","","","","","","","","","","",""
"null","audio/beep-329314.mp3","null","audio-keyboard-response","303","2.1.0","318572","J=YES, F=NO","9wq4ty06lj","2","58","85","30","","","","","","","","","","","","","","","",""
"null","audio/birth1.wav","null","audio-keyboard-response","304","2.1.0","319112","J=YES, F=NO","9wq4ty06lj","2","58","85","30","","","","","","","","","","","","","","","",""
"403","
          <p id=""word"" style=""font-size: 40px;"">drop</p>
          <p style=""font-size: 16px;"">J = YES &nbsp;&nbsp;&nbsp; F = NO</p>
        ","j","html-keyboard-response","305","2.1.0","319515","J=YES, F=NO","9wq4ty06lj","2","58","85","30","","","","","","","","","drop","birth1","unrelated","experimental","j","true","",""
"null","<p style=""font-size: 50px;"">+</p>","null","html-keyboard-response","306","2.1.0","319824","J=YES, F=NO","9wq4ty06lj","2","58","85","30","","","","","","","","","","","","","","","",""
"null","audio/beep-329314.mp3","null","audio-keyboard-response","307","2.1.0","321352","J=YES, F=NO","9wq4ty06lj","2","58","85","30","","","","","","","","","","","","","","","",""
"null","audio/brain.wav","null","audio-keyboard-response","308","2.1.0","321832","J=YES, F=NO","9wq4ty06lj","2","58","85","30","","","","","","","","","","","","","","","",""
"362","
          <p id=""word"" style=""font-size: 40px;"">throw</p>
          <p style=""font-size: 16px;"">J = YES &nbsp;&nbsp;&nbsp; F = NO</p>
        ","j","html-keyboard-response","309","2.1.0","322194","J=YES, F=NO","9wq4ty06lj","2","58","85","30","","","","","","","","","throw","brain","filler","filler","j","true","",""
"null","<p style=""font-size: 50px;"">+</p>","null","html-keyboard-response","310","2.1.0","322509","J=YES, F=NO","9wq4ty06lj","2","58","85","30","","","","","","","","","","","","","","","",""
"null","audio/beep-329314.mp3","null","audio-keyboard-response","311","2.1.0","324032","J=YES, F=NO","9wq4ty06lj","2","58","85","30","","","","","","","","","","","","","","","",""
"null","audio/kettle1.wav","null","audio-keyboard-response","312","2.1.0","324492","J=YES, F=NO","9wq4ty06lj","2","58","85","30","","","","","","","","","","","","","","","",""
"438","
          <p id=""word"" style=""font-size: 40px;"">navigate</p>
          <p style=""font-size: 16px;"">J = YES &nbsp;&nbsp;&nbsp; F = NO</p>
        ","j","html-keyboard-response","313","2.1.0","324931","J=YES, F=NO","9wq4ty06lj","2","58","85","30","","","","","","","","","navigate","kettle1","unrelated","experimental","j","true","",""
"null","<p style=""font-size: 50px;"">+</p>","null","html-keyboard-response","314","2.1.0","325245","J=YES, F=NO","9wq4ty06lj","2","58","85","30","","","","","","","","","","","","","","","",""
"null","audio/beep-329314.mp3","null","audio-keyboard-response","315","2.1.0","326772","J=YES, F=NO","9wq4ty06lj","2","58","85","30","","","","","","","","","","","","","","","",""
"null","audio/hawk1.wav","null","audio-keyboard-response","316","2.1.0","327512","J=YES, F=NO","9wq4ty06lj","2","58","85","30","","","","","","","","","","","","","","","",""
"714","
          <p id=""word"" style=""font-size: 40px;"">ostach</p>
          <p style=""font-size: 16px;"">J = YES &nbsp;&nbsp;&nbsp; F = NO</p>
        ","f","html-keyboard-response","317","2.1.0","328227","J=YES, F=NO","9wq4ty06lj","2","58","85","30","","","","","","","","","ostach","hawk1","pseudoword","pseudoword","f","true","",""
"null","<p style=""font-size: 50px;"">+</p>","null","html-keyboard-response","318","2.1.0","328539","J=YES, F=NO","9wq4ty06lj","2","58","85","30","","","","","","","","","","","","","","","",""
"null","audio/beep-329314.mp3","null","audio-keyboard-response","319","2.1.0","330072","J=YES, F=NO","9wq4ty06lj","2","58","85","30","","","","","","","","","","","","","","","",""
"null","audio/strength.wav","null","audio-keyboard-response","320","2.1.0","330952","J=YES, F=NO","9wq4ty06lj","2","58","85","30","","","","","","","","","","","","","","","",""
"434","
          <p id=""word"" style=""font-size: 40px;"">possess</p>
          <p style=""font-size: 16px;"">J = YES &nbsp;&nbsp;&nbsp; F = NO</p>
        ","j","html-keyboard-response","321","2.1.0","331386","J=YES, F=NO","9wq4ty06lj","2","58","85","30","","","","","","","","","possess","strength","metaphor","experimental","j","true","",""
"null","<p style=""font-size: 50px;"">+</p>","null","html-keyboard-response","322","2.1.0","331695","J=YES, F=NO","9wq4ty06lj","2","58","85","30","","","","","","","","","","","","","","","",""
"null","audio/beep-329314.mp3","null","audio-keyboard-response","323","2.1.0","333232","J=YES, F=NO","9wq4ty06lj","2","58","85","30","","","","","","","","","","","","","","","",""
"null","audio/plot1.wav","null","audio-keyboard-response","324","2.1.0","333932","J=YES, F=NO","9wq4ty06lj","2","58","85","30","","","","","","","","","","","","","","","",""
"422","
          <p id=""word"" style=""font-size: 40px;"">glenter</p>
          <p style=""font-size: 16px;"">J = YES &nbsp;&nbsp;&nbsp; F = NO</p>
        ","j","html-keyboard-response","325","2.1.0","334354","J=YES, F=NO","9wq4ty06lj","2","58","85","30","","","","","","","","","glenter","plot1","pseudoword","pseudoword","f","false","",""
"null","<p style=""font-size: 50px;"">+</p>","null","html-keyboard-response","326","2.1.0","334666","J=YES, F=NO","9wq4ty06lj","2","58","85","30","","","","","","","","","","","","","","","",""
"null","audio/beep-329314.mp3","null","audio-keyboard-response","327","2.1.0","336192","J=YES, F=NO","9wq4ty06lj","2","58","85","30","","","","","","","","","","","","","","","",""
"null","audio/pizza1.wav","null","audio-keyboard-response","328","2.1.0","336772","J=YES, F=NO","9wq4ty06lj","2","58","85","30","","","","","","","","","","","","","","","",""
"606","
          <p id=""word"" style=""font-size: 40px;"">devour</p>
          <p style=""font-size: 16px;"">J = YES &nbsp;&nbsp;&nbsp; F = NO</p>
        ","j","html-keyboard-response","329","2.1.0","337378","J=YES, F=NO","9wq4ty06lj","2","58","85","30","","","","","","","","","devour","pizza1","literal","experimental","j","true","",""
"null","<p style=""font-size: 50px;"">+</p>","null","html-keyboard-response","330","2.1.0","337684","J=YES, F=NO","9wq4ty06lj","2","58","85","30","","","","","","","","","","","","","","","",""
"null","audio/beep-329314.mp3","null","audio-keyboard-response","331","2.1.0","339212","J=YES, F=NO","9wq4ty06lj","2","58","85","30","","","","","","","","","","","","","","","",""
"null","audio/meal.wav","null","audio-keyboard-response","332","2.1.0","339652","J=YES, F=NO","9wq4ty06lj","2","58","85","30","","","","","","","","","","","","","","","",""
"646","
          <p id=""word"" style=""font-size: 40px;"">gallite</p>
          <p style=""font-size: 16px;"">J = YES &nbsp;&nbsp;&nbsp; F = NO</p>
        ","f","html-keyboard-response","333","2.1.0","340299","J=YES, F=NO","9wq4ty06lj","2","58","85","30","","","","","","","","","gallite","meal","pseudoword","pseudoword","f","true","",""
"null","<p style=""font-size: 50px;"">+</p>","null","html-keyboard-response","334","2.1.0","340612","J=YES, F=NO","9wq4ty06lj","2","58","85","30","","","","","","","","","","","","","","","",""
"null","audio/beep-329314.mp3","null","audio-keyboard-response","335","2.1.0","342152","J=YES, F=NO","9wq4ty06lj","2","58","85","30","","","","","","","","","","","","","","","",""
"null","audio/trust.wav","null","audio-keyboard-response","336","2.1.0","342832","J=YES, F=NO","9wq4ty06lj","2","58","85","30","","","","","","","","","","","","","","","",""
"818","
          <p id=""word"" style=""font-size: 40px;"">swint</p>
          <p style=""font-size: 16px;"">J = YES &nbsp;&nbsp;&nbsp; F = NO</p>
        ","j","html-keyboard-response","337","2.1.0","343651","J=YES, F=NO","9wq4ty06lj","2","58","85","30","","","","","","","","","swint","trust","pseudoword","pseudoword","f","false","",""
"null","<p style=""font-size: 50px;"">+</p>","null","html-keyboard-response","338","2.1.0","343963","J=YES, F=NO","9wq4ty06lj","2","58","85","30","","","","","","","","","","","","","","","",""
"null","audio/beep-329314.mp3","null","audio-keyboard-response","339","2.1.0","345492","J=YES, F=NO","9wq4ty06lj","2","58","85","30","","","","","","","","","","","","","","","",""
"null","audio/ego.wav","null","audio-keyboard-response","340","2.1.0","346092","J=YES, F=NO","9wq4ty06lj","2","58","85","30","","","","","","","","","","","","","","","",""
"845","
          <p id=""word"" style=""font-size: 40px;"">bruite</p>
          <p style=""font-size: 16px;"">J = YES &nbsp;&nbsp;&nbsp; F = NO</p>
        ","f","html-keyboard-response","341","2.1.0","346939","J=YES, F=NO","9wq4ty06lj","2","58","85","30","","","","","","","","","bruite","ego","pseudoword","pseudoword","f","true","",""
"null","<p style=""font-size: 50px;"">+</p>","null","html-keyboard-response","342","2.1.0","347253","J=YES, F=NO","9wq4ty06lj","2","58","85","30","","","","","","","","","","","","","","","",""
"null","audio/beep-329314.mp3","null","audio-keyboard-response","343","2.1.0","348793","J=YES, F=NO","9wq4ty06lj","2","58","85","30","","","","","","","","","","","","","","","",""
"null","audio/road.wav","null","audio-keyboard-response","344","2.1.0","349233","J=YES, F=NO","9wq4ty06lj","2","58","85","30","","","","","","","","","","","","","","","",""
"556","
          <p id=""word"" style=""font-size: 40px;"">flood</p>
          <p style=""font-size: 16px;"">J = YES &nbsp;&nbsp;&nbsp; F = NO</p>
        ","j","html-keyboard-response","345","2.1.0","349790","J=YES, F=NO","9wq4ty06lj","2","58","85","30","","","","","","","","","flood","road","literal","experimental","j","true","",""
"null","<p style=""font-size: 50px;"">+</p>","null","html-keyboard-response","346","2.1.0","350096","J=YES, F=NO","9wq4ty06lj","2","58","85","30","","","","","","","","","","","","","","","",""
"null","audio/beep-329314.mp3","null","audio-keyboard-response","347","2.1.0","351633","J=YES, F=NO","9wq4ty06lj","2","58","85","30","","","","","","","","","","","","","","","",""
"null","audio/foe1.wav","null","audio-keyboard-response","348","2.1.0","352152","J=YES, F=NO","9wq4ty06lj","2","58","85","30","","","","","","","","","","","","","","","",""
"626","
          <p id=""word"" style=""font-size: 40px;"">creth</p>
          <p style=""font-size: 16px;"">J = YES &nbsp;&nbsp;&nbsp; F = NO</p>
        ","f","html-keyboard-response","349","2.1.0","352779","J=YES, F=NO","9wq4ty06lj","2","58","85","30","","","","","","","","","creth","foe1","pseudoword","pseudoword","f","true","",""
"null","<p style=""font-size: 50px;"">+</p>","null","html-keyboard-response","350","2.1.0","353090","J=YES, F=NO","9wq4ty06lj","2","58","85","30","","","","","","","","","","","","","","","",""
"null","audio/beep-329314.mp3","null","audio-keyboard-response","351","2.1.0","354612","J=YES, F=NO","9wq4ty06lj","2","58","85","30","","","","","","","","","","","","","","","",""
"null","audio/plane1.wav","null","audio-keyboard-response","352","2.1.0","355053","J=YES, F=NO","9wq4ty06lj","2","58","85","30","","","","","","","","","","","","","","","",""
"502","
          <p id=""word"" style=""font-size: 40px;"">land</p>
          <p style=""font-size: 16px;"">J = YES &nbsp;&nbsp;&nbsp; F = NO</p>
        ","j","html-keyboard-response","353","2.1.0","355557","J=YES, F=NO","9wq4ty06lj","2","58","85","30","","","","","","","","","land","plane1","literal","experimental","j","true","",""
"null","<p style=""font-size: 50px;"">+</p>","null","html-keyboard-response","354","2.1.0","355868","J=YES, F=NO","9wq4ty06lj","2","58","85","30","","","","","","","","","","","","","","","",""
"null","audio/beep-329314.mp3","null","audio-keyboard-response","355","2.1.0","357393","J=YES, F=NO","9wq4ty06lj","2","58","85","30","","","","","","","","","","","","","","","",""
"null","audio/trust.wav","null","audio-keyboard-response","356","2.1.0","358012","J=YES, F=NO","9wq4ty06lj","2","58","85","30","","","","","","","","","","","","","","","",""
"423","
          <p id=""word"" style=""font-size: 40px;"">build</p>
          <p style=""font-size: 16px;"">J = YES &nbsp;&nbsp;&nbsp; F = NO</p>
        ","j","html-keyboard-response","357","2.1.0","358437","J=YES, F=NO","9wq4ty06lj","2","58","85","30","","","","","","","","","build","trust","metaphor","experimental","j","true","",""
"null","<p style=""font-size: 50px;"">+</p>","null","html-keyboard-response","358","2.1.0","358751","J=YES, F=NO","9wq4ty06lj","2","58","85","30","","","","","","","","","","","","","","","",""
"null","audio/beep-329314.mp3","null","audio-keyboard-response","359","2.1.0","360293","J=YES, F=NO","9wq4ty06lj","2","58","85","30","","","","","","","","","","","","","","","",""
"null","audio/relief.wav","null","audio-keyboard-response","360","2.1.0","360932","J=YES, F=NO","9wq4ty06lj","2","58","85","30","","","","","","","","","","","","","","","",""
"536","
          <p id=""word"" style=""font-size: 40px;"">grigg</p>
          <p style=""font-size: 16px;"">J = YES &nbsp;&nbsp;&nbsp; F = NO</p>
        ","f","html-keyboard-response","361","2.1.0","361469","J=YES, F=NO","9wq4ty06lj","2","58","85","30","","","","","","","","","grigg","relief","pseudoword","pseudoword","f","true","",""
"81603","<p>Excellent! You have finished block 3 of 8.</p>
                     <p>Feel free to take a 30 second break.</p>
                     <p>Press any key when you're ready to continue.</p>","j","html-keyboard-response","362","2.1.0","443073","J=YES, F=NO","9wq4ty06lj","2","58","85","30","","","","","","","","","","","","","","","",""
"865","<p>Starting main block 4 of 8. Press any key to continue.</p>","j","html-keyboard-response","363","2.1.0","443938","J=YES, F=NO","9wq4ty06lj","2","58","85","30","","","","","","","","","","","","","","","",""
"null","<p style=""font-size: 50px;"">+</p>","null","html-keyboard-response","364","2.1.0","444254","J=YES, F=NO","9wq4ty06lj","2","58","85","30","","","","","","","","","","","","","","","",""
"null","audio/beep-329314.mp3","null","audio-keyboard-response","365","2.1.0","445771","J=YES, F=NO","9wq4ty06lj","2","58","85","30","","","","","","","","","","","","","","","",""
"null","audio/alarm1.wav","null","audio-keyboard-response","366","2.1.0","446391","J=YES, F=NO","9wq4ty06lj","2","58","85","30","","","","","","","","","","","","","","","",""
"650","
          <p id=""word"" style=""font-size: 40px;"">swetp</p>
          <p style=""font-size: 16px;"">J = YES &nbsp;&nbsp;&nbsp; F = NO</p>
        ","f","html-keyboard-response","367","2.1.0","447042","J=YES, F=NO","9wq4ty06lj","2","58","85","30","","","","","","","","","swetp","alarm1","pseudoword","pseudoword","f","true","",""
"null","<p style=""font-size: 50px;"">+</p>","null","html-keyboard-response","368","2.1.0","447351","J=YES, F=NO","9wq4ty06lj","2","58","85","30","","","","","","","","","","","","","","","",""
"null","audio/beep-329314.mp3","null","audio-keyboard-response","369","2.1.0","448891","J=YES, F=NO","9wq4ty06lj","2","58","85","30","","","","","","","","","","","","","","","",""
"null","audio/bishop1.wav","null","audio-keyboard-response","370","2.1.0","449472","J=YES, F=NO","9wq4ty06lj","2","58","85","30","","","","","","","","","","","","","","","",""
"394","
          <p id=""word"" style=""font-size: 40px;"">play</p>
          <p style=""font-size: 16px;"">J = YES &nbsp;&nbsp;&nbsp; F = NO</p>
        ","j","html-keyboard-response","371","2.1.0","449866","J=YES, F=NO","9wq4ty06lj","2","58","85","30","","","","","","","","","play","bishop1","filler","filler","j","true","",""
"null","<p style=""font-size: 50px;"">+</p>","null","html-keyboard-response","372","2.1.0","450173","J=YES, F=NO","9wq4ty06lj","2","58","85","30","","","","","","","","","","","","","","","",""
"null","audio/beep-329314.mp3","null","audio-keyboard-response","373","2.1.0","451711","J=YES, F=NO","9wq4ty06lj","2","58","85","30","","","","","","","","","","","","","","","",""
"null","audio/scar.wav","null","audio-keyboard-response","374","2.1.0","452331","J=YES, F=NO","9wq4ty06lj","2","58","85","30","","","","","","","","","","","","","","","",""
"582","
          <p id=""word"" style=""font-size: 40px;"">adelineate</p>
          <p style=""font-size: 16px;"">J = YES &nbsp;&nbsp;&nbsp; F = NO</p>
        ","f","html-keyboard-response","375","2.1.0","452914","J=YES, F=NO","9wq4ty06lj","2","58","85","30","","","","","","","","","adelineate","scar","pseudoword","pseudoword","f","true","",""
"null","<p style=""font-size: 50px;"">+</p>","null","html-keyboard-response","376","2.1.0","453230","J=YES, F=NO","9wq4ty06lj","2","58","85","30","","","","","","","","","","","","","","","",""
"null","audio/beep-329314.mp3","null","audio-keyboard-response","377","2.1.0","454752","J=YES, F=NO","9wq4ty06lj","2","58","85","30","","","","","","","","","","","","","","","",""
"null","audio/noise1.wav","null","audio-keyboard-response","378","2.1.0","455391","J=YES, F=NO","9wq4ty06lj","2","58","85","30","","","","","","","","","","","","","","","",""
"714","
          <p id=""word"" style=""font-size: 40px;"">slintered</p>
          <p style=""font-size: 16px;"">J = YES &nbsp;&nbsp;&nbsp; F = NO</p>
        ","j","html-keyboard-response","379","2.1.0","456106","J=YES, F=NO","9wq4ty06lj","2","58","85","30","","","","","","","","","slintered","noise1","pseudoword","pseudoword","f","false","",""
"null","<p style=""font-size: 50px;"">+</p>","null","html-keyboard-response","380","2.1.0","456415","J=YES, F=NO","9wq4ty06lj","2","58","85","30","","","","","","","","","","","","","","","",""
"null","audio/beep-329314.mp3","null","audio-keyboard-response","381","2.1.0","457951","J=YES, F=NO","9wq4ty06lj","2","58","85","30","","","","","","","","","","","","","","","",""
"null","audio/truth1.wav","null","audio-keyboard-response","382","2.1.0","458611","J=YES, F=NO","9wq4ty06lj","2","58","85","30","","","","","","","","","","","","","","","",""
"638","
          <p id=""word"" style=""font-size: 40px;"">calitom</p>
          <p style=""font-size: 16px;"">J = YES &nbsp;&nbsp;&nbsp; F = NO</p>
        ","f","html-keyboard-response","383","2.1.0","459250","J=YES, F=NO","9wq4ty06lj","2","58","85","30","","","","","","","","","calitom","truth1","pseudoword","pseudoword","f","true","",""
"null","<p style=""font-size: 50px;"">+</p>","null","html-keyboard-response","384","2.1.0","459566","J=YES, F=NO","9wq4ty06lj","2","58","85","30","","","","","","","","","","","","","","","",""
"null","audio/beep-329314.mp3","null","audio-keyboard-response","385","2.1.0","461091","J=YES, F=NO","9wq4ty06lj","2","58","85","30","","","","","","","","","","","","","","","",""
"null","audio/arm.wav","null","audio-keyboard-response","386","2.1.0","461692","J=YES, F=NO","9wq4ty06lj","2","58","85","30","","","","","","","","","","","","","","","",""
"654","
          <p id=""word"" style=""font-size: 40px;"">fold</p>
          <p style=""font-size: 16px;"">J = YES &nbsp;&nbsp;&nbsp; F = NO</p>
        ","j","html-keyboard-response","387","2.1.0","462346","J=YES, F=NO","9wq4ty06lj","2","58","85","30","","","","","","","","","fold","arm","filler","filler","j","true","",""
"null","<p style=""font-size: 50px;"">+</p>","null","html-keyboard-response","388","2.1.0","462658","J=YES, F=NO","9wq4ty06lj","2","58","85","30","","","","","","","","","","","","","","","",""
"null","audio/beep-329314.mp3","null","audio-keyboard-response","389","2.1.0","464191","J=YES, F=NO","9wq4ty06lj","2","58","85","30","","","","","","","","","","","","","","","",""
"null","audio/wool1.wav","null","audio-keyboard-response","390","2.1.0","464552","J=YES, F=NO","9wq4ty06lj","2","58","85","30","","","","","","","","","","","","","","","",""
"554","
          <p id=""word"" style=""font-size: 40px;"">weave</p>
          <p style=""font-size: 16px;"">J = YES &nbsp;&nbsp;&nbsp; F = NO</p>
        ","j","html-keyboard-response","391","2.1.0","465106","J=YES, F=NO","9wq4ty06lj","2","58","85","30","","","","","","","","","weave","wool1","literal","experimental","j","true","",""
