"rt","stimulus","response","trial_type","trial_index","plugin_version","time_elapsed","response_mapping","subject_id","list_index","lextale_score","lextale_word_score","lextale_nonword_score","success","timeout","failed_images","failed_audio","failed_video","task","isWord","isDummy","target","prime","prime_type","stimulus_type","correct_response","correct","section","question_order"
"45247","
    <div style=""max-width: 800px; margin: auto; text-align: left;"">
      <h2>STANFORD UNIVERSITY</h2>
      <h3>Research Information Sheet</h3>
      <p><strong>Protocol Director:</strong> Robert Hawkins<br>
      <strong>Protocol Title:</strong> Communication and social cognition in natural audiovisual contexts<br>
      <strong>IRB#:</strong> 77226</p>

      <p><strong>DESCRIPTION:</strong> You are invited to participate in a research study about language and communication. The purpose of the research is to understand how you interact and communicate with other people in naturalistic settings as a fluent English speaker. This research will be conducted through the Prolific platform, including participants from the US, UK, and Canada. If you decide to participate in this research, you will play a communication game in a group with one or more partners.</p>

      <p><strong>TIME INVOLVEMENT:</strong> The task will last the amount of time advertised on Prolific. You are free to withdraw from the study at any time.</p>

      <p><strong>RISKS AND BENEFITS:</strong> You may become frustrated if your partner gets distracted, or experience discomfort if other participants in your group send text that is inappropriate for the task. We ask you to please be respectful of other participants you might be interacting with to mitigate these risks. You may also experience discomfort when being asked to discuss or challenge emotionally salient political beliefs. Study data will be stored securely, in compliance with Stanford University standards, minimizing the risk of confidentiality breach. This study advances our scientific understanding of how people communicate and collaborate in naturalistic settings. This study may lead to further insights about what can go wrong in teamwork, suggest potential interventions to overcome these barriers, and help to develop assistive technologies that collaborate with human partners. We cannot and do not guarantee or promise that you will receive any benefits from this study.</p>

      <p><strong>PAYMENTS:</strong> You will receive payment in the amount advertised on Prolific. If you do not complete this study, you will receive prorated payment based on the time that you have spent. Additionally, you may be eligible for bonus payments as described in the instructions.</p>

      <p><strong>PARTICIPANT’S RIGHTS:</strong> If you have read this form and have decided to participate in this project, please understand your participation is voluntary and you have the right to withdraw your consent or discontinue participation at any time without penalty or loss of benefits to which you are otherwise entitled. The alternative is not to participate. You have the right to refuse to answer particular questions. The results of this research study may be presented at scientific or professional meetings or published in scientific journals. Your individual privacy will be maintained in all published and written data resulting from the study. In accordance with scientific norms, the data from this study may be used or shared with other researchers for future research (after removing personally identifying information) without additional consent from you.</p>

      <p><strong>CONTACT INFORMATION:</strong><br>
      Questions: If you have any questions, concerns or complaints about this research, its procedures, risks and benefits, contact the Protocol Director, Robert Hawkins (<a href=""mailto:rdhawkins@stanford.edu"">rdhawkins@stanford.edu</a>, 217-549-6923).<br>
      Independent Contact: If you are not satisfied with how this study is being conducted, or if you have any concerns, complaints, or general questions about the research or your rights as a participant, please contact the Stanford Institutional Review Board (IRB) to speak to someone independent of the research team at 650-723-2480 or toll free at 1-866-680-2906, or email at <a href=""mailto:irbnon-med@stanford.edu"">irbnon-med@stanford.edu</a>. You can also write to the Stanford IRB, Stanford University, 1705 El Camino Real, Palo Alto, CA 94306.</p>

      <p><strong>Please save or print a copy of this page for your records.</strong></p>
      <p>If you agree to participate in this research, click ""Continue"" below.</p>
    </div>
  ","0","html-button-response","0","2.1.0","45259","J=YES, F=NO","9xsbk4oaz9","2","69","68","70","","","","","","","","","","","","","","","",""
"4372","
    <div style=""max-width: 800px; margin: auto; text-align: left;"">
      <h2>Welcome!</h2>
      <p>Thank you for participating in this study. The experiment consists of three parts:</p>
      <ol>
        <li>An English vocabulary test</li>
        <li>A main task in which you will hear and see words, and decide whether the written word is a real English word</li>
        <li>A brief survey about your background</li>
      </ol>
      <p>Each part will be introduced before it begins.</p>
      <p>Please make sure you are in a quiet environment and can hear audio clearly for the final task.</p>
      <p style=""margin-top: 2em;"">Press any key to begin.</p>
    </div>
  ","F11","html-keyboard-response","1","2.1.0","49636","J=YES, F=NO","9xsbk4oaz9","2","69","68","70","","","","","","","","","","","","","","","",""
"","","","preload","2","2.1.0","53038","J=YES, F=NO","9xsbk4oaz9","2","69","68","70","true","false","[]","[]","[]","","","","","","","","","","",""
"3217","
    <div style=""max-width: 800px; margin: auto; text-align: left;"">
      <h2>Part 1: Vocabulary Test</h2>
      <p>You will now complete the first part of the study: a short English vocabulary test.</p>
      <p>This test is called <strong>LexTALE</strong> and helps us get a general sense of your English proficiency.</p>
      <p style=""margin-top: 2em;"">Press any key to continue.</p>
    </div>
  ","F11","html-keyboard-response","3","2.1.0","56258","J=YES, F=NO","9xsbk4oaz9","2","69","68","70","","","","","","","","","","","","","","","",""
"23121","
    <div style=""max-width: 800px; margin: auto; text-align: left;"">
      <h2>LexTALE Vocabulary Test</h2>
      <p>In this test, you will see a series of letter strings—one at a time.</p>
      <p>Your task is to decide whether each string is a real English word.</p>
      <p><strong>Key responses:</strong></p>
      <ul>
        <li><strong>J</strong> = YES (real English word)</li>
        <li><strong>F</strong> = NO (not a real English word)</li>
      </ul>
      <p>There is no time limit, but please try to be accurate.</p>
      <p style=""margin-top: 2em;"">Press any key to begin.</p>
    </div>
  ","j","html-keyboard-response","4","2.1.0","79382","J=YES, F=NO","9xsbk4oaz9","2","69","68","70","","","","","","","","","","","","","","","",""
"2544","
  <p style=""font-size: 40px;"">platery</p>
  <p style=""font-size: 16px;"">J = YES &nbsp;&nbsp;&nbsp; F = NO</p>
","j","html-keyboard-response","5","2.1.0","81928","J=YES, F=NO","9xsbk4oaz9","2","69","68","70","","","","","","lextale","false","true","","","","","","","",""
"886","
  <p style=""font-size: 40px;"">denial</p>
  <p style=""font-size: 16px;"">J = YES &nbsp;&nbsp;&nbsp; F = NO</p>
","j","html-keyboard-response","6","2.1.0","82816","J=YES, F=NO","9xsbk4oaz9","2","69","68","70","","","","","","lextale","true","true","","","","","","","",""
"1428","
  <p style=""font-size: 40px;"">marrit</p>
  <p style=""font-size: 16px;"">J = YES &nbsp;&nbsp;&nbsp; F = NO</p>
","f","html-keyboard-response","7","2.1.0","84245","J=YES, F=NO","9xsbk4oaz9","2","69","68","70","","","","","","lextale","false","true","","","","","","","",""
"732","
  <p style=""font-size: 40px;"">bottle</p>
  <p style=""font-size: 16px;"">J = YES &nbsp;&nbsp;&nbsp; F = NO</p>
","j","html-keyboard-response","8","2.1.0","84979","J=YES, F=NO","9xsbk4oaz9","2","69","68","70","","","","","","lextale","true","false","","","","","","","",""
"1397","
  <p style=""font-size: 40px;"">birst</p>
  <p style=""font-size: 16px;"">J = YES &nbsp;&nbsp;&nbsp; F = NO</p>
","f","html-keyboard-response","9","2.1.0","86379","J=YES, F=NO","9xsbk4oaz9","2","69","68","70","","","","","","lextale","false","false","","","","","","","",""
"935","
  <p style=""font-size: 40px;"">envy</p>
  <p style=""font-size: 16px;"">J = YES &nbsp;&nbsp;&nbsp; F = NO</p>
","j","html-keyboard-response","10","2.1.0","87315","J=YES, F=NO","9xsbk4oaz9","2","69","68","70","","","","","","lextale","true","false","","","","","","","",""
"937","
  <p style=""font-size: 40px;"">brang</p>
  <p style=""font-size: 16px;"">J = YES &nbsp;&nbsp;&nbsp; F = NO</p>
","f","html-keyboard-response","11","2.1.0","88254","J=YES, F=NO","9xsbk4oaz9","2","69","68","70","","","","","","lextale","false","false","","","","","","","",""
"781","
  <p style=""font-size: 40px;"">huge</p>
  <p style=""font-size: 16px;"">J = YES &nbsp;&nbsp;&nbsp; F = NO</p>
","j","html-keyboard-response","12","2.1.0","89037","J=YES, F=NO","9xsbk4oaz9","2","69","68","70","","","","","","lextale","true","false","","","","","","","",""
"1009","
  <p style=""font-size: 40px;"">plove</p>
  <p style=""font-size: 16px;"">J = YES &nbsp;&nbsp;&nbsp; F = NO</p>
","f","html-keyboard-response","13","2.1.0","90047","J=YES, F=NO","9xsbk4oaz9","2","69","68","70","","","","","","lextale","false","false","","","","","","","",""
"669","
  <p style=""font-size: 40px;"">border</p>
  <p style=""font-size: 16px;"">J = YES &nbsp;&nbsp;&nbsp; F = NO</p>
","j","html-keyboard-response","14","2.1.0","90718","J=YES, F=NO","9xsbk4oaz9","2","69","68","70","","","","","","lextale","true","false","","","","","","","",""
"1207","
  <p style=""font-size: 40px;"">flimsy</p>
  <p style=""font-size: 16px;"">J = YES &nbsp;&nbsp;&nbsp; F = NO</p>
","f","html-keyboard-response","15","2.1.0","91927","J=YES, F=NO","9xsbk4oaz9","2","69","68","70","","","","","","lextale","true","false","","","","","","","",""
"634","
  <p style=""font-size: 40px;"">drain</p>
  <p style=""font-size: 16px;"">J = YES &nbsp;&nbsp;&nbsp; F = NO</p>
","j","html-keyboard-response","16","2.1.0","92561","J=YES, F=NO","9xsbk4oaz9","2","69","68","70","","","","","","lextale","true","false","","","","","","","",""
"1404","
  <p style=""font-size: 40px;"">twindle</p>
  <p style=""font-size: 16px;"">J = YES &nbsp;&nbsp;&nbsp; F = NO</p>
","j","html-keyboard-response","17","2.1.0","93967","J=YES, F=NO","9xsbk4oaz9","2","69","68","70","","","","","","lextale","false","false","","","","","","","",""
"1494","
  <p style=""font-size: 40px;"">propose</p>
  <p style=""font-size: 16px;"">J = YES &nbsp;&nbsp;&nbsp; F = NO</p>
","j","html-keyboard-response","18","2.1.0","95463","J=YES, F=NO","9xsbk4oaz9","2","69","68","70","","","","","","lextale","true","false","","","","","","","",""
"778","
  <p style=""font-size: 40px;"">forlay</p>
  <p style=""font-size: 16px;"">J = YES &nbsp;&nbsp;&nbsp; F = NO</p>
","f","html-keyboard-response","19","2.1.0","96242","J=YES, F=NO","9xsbk4oaz9","2","69","68","70","","","","","","lextale","false","false","","","","","","","",""
"811","
  <p style=""font-size: 40px;"">tenant</p>
  <p style=""font-size: 16px;"">J = YES &nbsp;&nbsp;&nbsp; F = NO</p>
","j","html-keyboard-response","20","2.1.0","97053","J=YES, F=NO","9xsbk4oaz9","2","69","68","70","","","","","","lextale","true","false","","","","","","","",""
"874","
  <p style=""font-size: 40px;"">strain</p>
  <p style=""font-size: 16px;"">J = YES &nbsp;&nbsp;&nbsp; F = NO</p>
","j","html-keyboard-response","21","2.1.0","97928","J=YES, F=NO","9xsbk4oaz9","2","69","68","70","","","","","","lextale","true","false","","","","","","","",""
"1239","
  <p style=""font-size: 40px;"">holster</p>
  <p style=""font-size: 16px;"">J = YES &nbsp;&nbsp;&nbsp; F = NO</p>
","j","html-keyboard-response","22","2.1.0","99168","J=YES, F=NO","9xsbk4oaz9","2","69","68","70","","","","","","lextale","true","false","","","","","","","",""
"835","
  <p style=""font-size: 40px;"">hinder</p>
  <p style=""font-size: 16px;"">J = YES &nbsp;&nbsp;&nbsp; F = NO</p>
","f","html-keyboard-response","23","2.1.0","100004","J=YES, F=NO","9xsbk4oaz9","2","69","68","70","","","","","","lextale","true","false","","","","","","","",""
"890","
  <p style=""font-size: 40px;"">swindle</p>
  <p style=""font-size: 16px;"">J = YES &nbsp;&nbsp;&nbsp; F = NO</p>
","f","html-keyboard-response","24","2.1.0","100895","J=YES, F=NO","9xsbk4oaz9","2","69","68","70","","","","","","lextale","true","false","","","","","","","",""
"1952","
  <p style=""font-size: 40px;"">nuder</p>
  <p style=""font-size: 16px;"">J = YES &nbsp;&nbsp;&nbsp; F = NO</p>
","f","html-keyboard-response","25","2.1.0","102849","J=YES, F=NO","9xsbk4oaz9","2","69","68","70","","","","","","lextale","false","false","","","","","","","",""
"689","
  <p style=""font-size: 40px;"">pillow</p>
  <p style=""font-size: 16px;"">J = YES &nbsp;&nbsp;&nbsp; F = NO</p>
","j","html-keyboard-response","26","2.1.0","103539","J=YES, F=NO","9xsbk4oaz9","2","69","68","70","","","","","","lextale","true","false","","","","","","","",""
"1142","
  <p style=""font-size: 40px;"">shumble</p>
  <p style=""font-size: 16px;"">J = YES &nbsp;&nbsp;&nbsp; F = NO</p>
","f","html-keyboard-response","27","2.1.0","104683","J=YES, F=NO","9xsbk4oaz9","2","69","68","70","","","","","","lextale","false","false","","","","","","","",""
"706","
  <p style=""font-size: 40px;"">thirst</p>
  <p style=""font-size: 16px;"">J = YES &nbsp;&nbsp;&nbsp; F = NO</p>
","j","html-keyboard-response","28","2.1.0","105390","J=YES, F=NO","9xsbk4oaz9","2","69","68","70","","","","","","lextale","true","false","","","","","","","",""
"1271","
  <p style=""font-size: 40px;"">unsail</p>
  <p style=""font-size: 16px;"">J = YES &nbsp;&nbsp;&nbsp; F = NO</p>
","f","html-keyboard-response","29","2.1.0","106663","J=YES, F=NO","9xsbk4oaz9","2","69","68","70","","","","","","lextale","false","false","","","","","","","",""
"1940","
  <p style=""font-size: 40px;"">rifle</p>
  <p style=""font-size: 16px;"">J = YES &nbsp;&nbsp;&nbsp; F = NO</p>
","j","html-keyboard-response","30","2.1.0","108604","J=YES, F=NO","9xsbk4oaz9","2","69","68","70","","","","","","lextale","true","false","","","","","","","",""
"1035","
  <p style=""font-size: 40px;"">mush</p>
  <p style=""font-size: 16px;"">J = YES &nbsp;&nbsp;&nbsp; F = NO</p>
","j","html-keyboard-response","31","2.1.0","109641","J=YES, F=NO","9xsbk4oaz9","2","69","68","70","","","","","","lextale","false","false","","","","","","","",""
"712","
  <p style=""font-size: 40px;"">drench</p>
  <p style=""font-size: 16px;"">J = YES &nbsp;&nbsp;&nbsp; F = NO</p>
","f","html-keyboard-response","32","2.1.0","110355","J=YES, F=NO","9xsbk4oaz9","2","69","68","70","","","","","","lextale","true","false","","","","","","","",""
"894","
  <p style=""font-size: 40px;"">snirt</p>
  <p style=""font-size: 16px;"">J = YES &nbsp;&nbsp;&nbsp; F = NO</p>
","f","html-keyboard-response","33","2.1.0","111251","J=YES, F=NO","9xsbk4oaz9","2","69","68","70","","","","","","lextale","false","false","","","","","","","",""
"1044","
  <p style=""font-size: 40px;"">bitter</p>
  <p style=""font-size: 16px;"">J = YES &nbsp;&nbsp;&nbsp; F = NO</p>
","j","html-keyboard-response","34","2.1.0","112297","J=YES, F=NO","9xsbk4oaz9","2","69","68","70","","","","","","lextale","true","false","","","","","","","",""
"784","
  <p style=""font-size: 40px;"">pliff</p>
  <p style=""font-size: 16px;"">J = YES &nbsp;&nbsp;&nbsp; F = NO</p>
","f","html-keyboard-response","35","2.1.0","113083","J=YES, F=NO","9xsbk4oaz9","2","69","68","70","","","","","","lextale","false","false","","","","","","","",""
"655","
  <p style=""font-size: 40px;"">tablet</p>
  <p style=""font-size: 16px;"">J = YES &nbsp;&nbsp;&nbsp; F = NO</p>
","j","html-keyboard-response","36","2.1.0","113739","J=YES, F=NO","9xsbk4oaz9","2","69","68","70","","","","","","lextale","true","false","","","","","","","",""
"790","
  <p style=""font-size: 40px;"">glimmer</p>
  <p style=""font-size: 16px;"">J = YES &nbsp;&nbsp;&nbsp; F = NO</p>
","j","html-keyboard-response","37","2.1.0","114531","J=YES, F=NO","9xsbk4oaz9","2","69","68","70","","","","","","lextale","true","false","","","","","","","",""
"1365","
  <p style=""font-size: 40px;"">slink</p>
  <p style=""font-size: 16px;"">J = YES &nbsp;&nbsp;&nbsp; F = NO</p>
","f","html-keyboard-response","38","2.1.0","115898","J=YES, F=NO","9xsbk4oaz9","2","69","68","70","","","","","","lextale","true","false","","","","","","","",""
"740","
  <p style=""font-size: 40px;"">clever</p>
  <p style=""font-size: 16px;"">J = YES &nbsp;&nbsp;&nbsp; F = NO</p>
","j","html-keyboard-response","39","2.1.0","116640","J=YES, F=NO","9xsbk4oaz9","2","69","68","70","","","","","","lextale","true","false","","","","","","","",""
"808","
  <p style=""font-size: 40px;"">grum</p>
  <p style=""font-size: 16px;"">J = YES &nbsp;&nbsp;&nbsp; F = NO</p>
","f","html-keyboard-response","40","2.1.0","117449","J=YES, F=NO","9xsbk4oaz9","2","69","68","70","","","","","","lextale","false","false","","","","","","","",""
"915","
  <p style=""font-size: 40px;"">string</p>
  <p style=""font-size: 16px;"">J = YES &nbsp;&nbsp;&nbsp; F = NO</p>
","j","html-keyboard-response","41","2.1.0","118366","J=YES, F=NO","9xsbk4oaz9","2","69","68","70","","","","","","lextale","true","false","","","","","","","",""
"833","
  <p style=""font-size: 40px;"">plim</p>
  <p style=""font-size: 16px;"">J = YES &nbsp;&nbsp;&nbsp; F = NO</p>
","j","html-keyboard-response","42","2.1.0","119201","J=YES, F=NO","9xsbk4oaz9","2","69","68","70","","","","","","lextale","false","false","","","","","","","",""
"685","
  <p style=""font-size: 40px;"">cable</p>
  <p style=""font-size: 16px;"">J = YES &nbsp;&nbsp;&nbsp; F = NO</p>
","j","html-keyboard-response","43","2.1.0","119887","J=YES, F=NO","9xsbk4oaz9","2","69","68","70","","","","","","lextale","true","false","","","","","","","",""
"875","
  <p style=""font-size: 40px;"">shrivel</p>
  <p style=""font-size: 16px;"">J = YES &nbsp;&nbsp;&nbsp; F = NO</p>
","f","html-keyboard-response","44","2.1.0","120763","J=YES, F=NO","9xsbk4oaz9","2","69","68","70","","","","","","lextale","true","false","","","","","","","",""
"955","
  <p style=""font-size: 40px;"">tarnish</p>
  <p style=""font-size: 16px;"">J = YES &nbsp;&nbsp;&nbsp; F = NO</p>
","j","html-keyboard-response","45","2.1.0","121720","J=YES, F=NO","9xsbk4oaz9","2","69","68","70","","","","","","lextale","true","false","","","","","","","",""
"1000","
  <p style=""font-size: 40px;"">blim</p>
  <p style=""font-size: 16px;"">J = YES &nbsp;&nbsp;&nbsp; F = NO</p>
","f","html-keyboard-response","46","2.1.0","122722","J=YES, F=NO","9xsbk4oaz9","2","69","68","70","","","","","","lextale","false","false","","","","","","","",""
"1189","
  <p style=""font-size: 40px;"">stifle</p>
  <p style=""font-size: 16px;"">J = YES &nbsp;&nbsp;&nbsp; F = NO</p>
","j","html-keyboard-response","47","2.1.0","123913","J=YES, F=NO","9xsbk4oaz9","2","69","68","70","","","","","","lextale","true","false","","","","","","","",""
"754","
  <p style=""font-size: 40px;"">bint</p>
  <p style=""font-size: 16px;"">J = YES &nbsp;&nbsp;&nbsp; F = NO</p>
","f","html-keyboard-response","48","2.1.0","124668","J=YES, F=NO","9xsbk4oaz9","2","69","68","70","","","","","","lextale","false","false","","","","","","","",""
"795","
  <p style=""font-size: 40px;"">purple</p>
  <p style=""font-size: 16px;"">J = YES &nbsp;&nbsp;&nbsp; F = NO</p>
","j","html-keyboard-response","49","2.1.0","125465","J=YES, F=NO","9xsbk4oaz9","2","69","68","70","","","","","","lextale","true","false","","","","","","","",""
"1304","
  <p style=""font-size: 40px;"">wriggle</p>
  <p style=""font-size: 16px;"">J = YES &nbsp;&nbsp;&nbsp; F = NO</p>
","j","html-keyboard-response","50","2.1.0","126771","J=YES, F=NO","9xsbk4oaz9","2","69","68","70","","","","","","lextale","true","false","","","","","","","",""
"772","
  <p style=""font-size: 40px;"">mangle</p>
  <p style=""font-size: 16px;"">J = YES &nbsp;&nbsp;&nbsp; F = NO</p>
","f","html-keyboard-response","51","2.1.0","127545","J=YES, F=NO","9xsbk4oaz9","2","69","68","70","","","","","","lextale","true","false","","","","","","","",""
"697","
  <p style=""font-size: 40px;"">shramp</p>
  <p style=""font-size: 16px;"">J = YES &nbsp;&nbsp;&nbsp; F = NO</p>
","j","html-keyboard-response","52","2.1.0","128243","J=YES, F=NO","9xsbk4oaz9","2","69","68","70","","","","","","lextale","false","false","","","","","","","",""
"631","
  <p style=""font-size: 40px;"">flirt</p>
  <p style=""font-size: 16px;"">J = YES &nbsp;&nbsp;&nbsp; F = NO</p>
","j","html-keyboard-response","53","2.1.0","128875","J=YES, F=NO","9xsbk4oaz9","2","69","68","70","","","","","","lextale","true","false","","","","","","","",""
"822","
  <p style=""font-size: 40px;"">frip</p>
  <p style=""font-size: 16px;"">J = YES &nbsp;&nbsp;&nbsp; F = NO</p>
","f","html-keyboard-response","54","2.1.0","129698","J=YES, F=NO","9xsbk4oaz9","2","69","68","70","","","","","","lextale","false","false","","","","","","","",""
"914","
  <p style=""font-size: 40px;"">tangle</p>
  <p style=""font-size: 16px;"">J = YES &nbsp;&nbsp;&nbsp; F = NO</p>
","j","html-keyboard-response","55","2.1.0","130614","J=YES, F=NO","9xsbk4oaz9","2","69","68","70","","","","","","lextale","true","false","","","","","","","",""
"665","
  <p style=""font-size: 40px;"">crumble</p>
  <p style=""font-size: 16px;"">J = YES &nbsp;&nbsp;&nbsp; F = NO</p>
","j","html-keyboard-response","56","2.1.0","131281","J=YES, F=NO","9xsbk4oaz9","2","69","68","70","","","","","","lextale","true","false","","","","","","","",""
"686","
  <p style=""font-size: 40px;"">wrinkle</p>
  <p style=""font-size: 16px;"">J = YES &nbsp;&nbsp;&nbsp; F = NO</p>
","j","html-keyboard-response","57","2.1.0","131968","J=YES, F=NO","9xsbk4oaz9","2","69","68","70","","","","","","lextale","true","false","","","","","","","",""
"933","
  <p style=""font-size: 40px;"">slumb</p>
  <p style=""font-size: 16px;"">J = YES &nbsp;&nbsp;&nbsp; F = NO</p>
","j","html-keyboard-response","58","2.1.0","132902","J=YES, F=NO","9xsbk4oaz9","2","69","68","70","","","","","","lextale","false","false","","","","","","","",""
"710","
  <p style=""font-size: 40px;"">jungle</p>
  <p style=""font-size: 16px;"">J = YES &nbsp;&nbsp;&nbsp; F = NO</p>
","j","html-keyboard-response","59","2.1.0","133614","J=YES, F=NO","9xsbk4oaz9","2","69","68","70","","","","","","lextale","true","false","","","","","","","",""
"933","
  <p style=""font-size: 40px;"">frolick</p>
  <p style=""font-size: 16px;"">J = YES &nbsp;&nbsp;&nbsp; F = NO</p>
","f","html-keyboard-response","60","2.1.0","134549","J=YES, F=NO","9xsbk4oaz9","2","69","68","70","","","","","","lextale","false","false","","","","","","","",""
"6114","
      <h2>LexTALE Test Completed</h2>
      <p>Your LexTALE vocabulary score is: <strong>69%</strong></p>
      <p>Press any key to continue.</p>
    "," ","html-keyboard-response","61","2.1.0","140665","J=YES, F=NO","9xsbk4oaz9","2","69","68","70","","","","","","","","","","","","","","","",""
"5169","
    <div style=""max-width: 800px; margin: auto; text-align: left;"">
      <h2>Break Time</h2>
      <p>You have completed the first part of the study.</p>
      <p>You may take a short <strong>30-second break</strong> before continuing.</p>
      <p>When you’re ready, press any key to continue to the final task.</p>
    </div>
  "," ","html-keyboard-response","62","2.1.0","145836","J=YES, F=NO","9xsbk4oaz9","2","69","68","70","","","","","","","","","","","","","","","",""
"20622","
    <div style=""max-width: 800px; margin: auto; text-align: left;"">
      <h2>Part 2: Lexical Decision Task</h2>
      <p>You will now begin the second part of the study.</p>
      <p>Each trial will follow this sequence:</p>
      <ul>
        <li>A fixation cross (+) appears at the center of the screen.</li>
        <li>You will hear a short beep followed by a spoken word.</li>
        <li>A written word will appear briefly on the screen.</li>
      </ul>
      <p>Your task is to judge whether the <strong>written word</strong> is a real English word.</p>
      <p style=""margin-top: 1em;""><strong>Key responses:</strong></p>
      <ul>
        <li><strong>J</strong> = YES (real English word)</li>
        <li><strong>F</strong> = NO (not a real English word)</li>
      </ul>
      <p>Please respond as quickly and accurately as you can.</p>
      <p style=""margin-top: 2em;"">Press any key to continue.</p>
    </div>
  "," ","html-keyboard-response","63","2.1.0","166460","J=YES, F=NO","9xsbk4oaz9","2","69","68","70","","","","","","","","","","","","","","","",""
"12435","
    <div style=""max-width: 800px; margin: auto; text-align: left;"">
      <h2>Before You Begin</h2>
      <p>Make sure your sound is turned on.</p>
      <p>You will hear audio during each trial, but your decision should be based only on the <strong>written word</strong> you see on the screen.</p>
      <p><strong>Reminder:</strong></p>
      <ul>
        <li><strong>J</strong> = YES (real English word)</li>
        <li><strong>F</strong> = NO (not a real English word)</li>
      </ul>
      <p style=""margin-top: 2em;"">Press any key when you are ready to begin.</p>
    </div>
  "," ","html-keyboard-response","64","2.1.0","178897","J=YES, F=NO","9xsbk4oaz9","2","69","68","70","","","","","","","","","","","","","","","",""
"6163","
    <div style=""max-width: 800px; margin: auto; text-align: left;"">
      <h2>Part 2: Practice Trials</h2>
      <p>You will now complete a few <strong>practice trials</strong> to get familiar with the task.</p>
      <p>These trials are <strong>not scored</strong> and are only to help you get used to the format.</p>
      <p style=""margin-top: 2em;"">Press any key to begin.</p>
    </div>
  "," ","html-keyboard-response","65","2.1.0","185062","J=YES, F=NO","9xsbk4oaz9","2","69","68","70","","","","","","","","","","","","","","","",""
"3010","<p>Starting practice block 1 of 2. Press any key to continue.</p>"," ","html-keyboard-response","66","2.1.0","188073","J=YES, F=NO","9xsbk4oaz9","2","69","68","70","","","","","","","","","","","","","","","",""
"null","<p style=""font-size: 50px;"">+</p>","null","html-keyboard-response","67","2.1.0","188380","J=YES, F=NO","9xsbk4oaz9","2","69","68","70","","","","","","","","","","","","","","","",""
"null","audio/beep-329314.mp3","null","audio-keyboard-response","68","2.1.0","190305","J=YES, F=NO","9xsbk4oaz9","2","69","68","70","","","","","","","","","","","","","","","",""
"null","audio/butter1.wav","null","audio-keyboard-response","69","2.1.0","190864","J=YES, F=NO","9xsbk4oaz9","2","69","68","70","","","","","","","","","","","","","","","",""
"null","
          <p id=""word"" style=""font-size: 40px;"">chew</p>
          <p style=""font-size: 16px;"">J = YES &nbsp;&nbsp;&nbsp; F = NO</p>
        ","null","html-keyboard-response","70","2.1.0","192375","J=YES, F=NO","9xsbk4oaz9","2","69","68","70","","","","","","","","","chew","butter1","filler","filler","j","false","",""
"null","<p style=""font-size: 50px;"">+</p>","null","html-keyboard-response","71","2.1.0","192679","J=YES, F=NO","9xsbk4oaz9","2","69","68","70","","","","","","","","","","","","","","","",""
"null","audio/beep-329314.mp3","null","audio-keyboard-response","72","2.1.0","194404","J=YES, F=NO","9xsbk4oaz9","2","69","68","70","","","","","","","","","","","","","","","",""
"null","audio/mind.wav","null","audio-keyboard-response","73","2.1.0","195064","J=YES, F=NO","9xsbk4oaz9","2","69","68","70","","","","","","","","","","","","","","","",""
"932","
          <p id=""word"" style=""font-size: 40px;"">crainate</p>
          <p style=""font-size: 16px;"">J = YES &nbsp;&nbsp;&nbsp; F = NO</p>
        ","f","html-keyboard-response","74","2.1.0","195997","J=YES, F=NO","9xsbk4oaz9","2","69","68","70","","","","","","","","","crainate","mind","pseudoword","pseudoword","f","true","",""
"null","<p style=""font-size: 50px;"">+</p>","null","html-keyboard-response","75","2.1.0","196303","J=YES, F=NO","9xsbk4oaz9","2","69","68","70","","","","","","","","","","","","","","","",""
"null","audio/beep-329314.mp3","null","audio-keyboard-response","76","2.1.0","198044","J=YES, F=NO","9xsbk4oaz9","2","69","68","70","","","","","","","","","","","","","","","",""
"null","audio/brain.wav","null","audio-keyboard-response","77","2.1.0","198644","J=YES, F=NO","9xsbk4oaz9","2","69","68","70","","","","","","","","","","","","","","","",""
"859","
          <p id=""word"" style=""font-size: 40px;"">throw</p>
          <p style=""font-size: 16px;"">J = YES &nbsp;&nbsp;&nbsp; F = NO</p>
        ","j","html-keyboard-response","78","2.1.0","199504","J=YES, F=NO","9xsbk4oaz9","2","69","68","70","","","","","","","","","throw","brain","filler","filler","j","true","",""
"null","<p style=""font-size: 50px;"">+</p>","null","html-keyboard-response","79","2.1.0","199818","J=YES, F=NO","9xsbk4oaz9","2","69","68","70","","","","","","","","","","","","","","","",""
"null","audio/beep-329314.mp3","null","audio-keyboard-response","80","2.1.0","201544","J=YES, F=NO","9xsbk4oaz9","2","69","68","70","","","","","","","","","","","","","","","",""
"null","audio/theory1.wav","null","audio-keyboard-response","81","2.1.0","202423","J=YES, F=NO","9xsbk4oaz9","2","69","68","70","","","","","","","","","","","","","","","",""
"838","
          <p id=""word"" style=""font-size: 40px;"">scolve</p>
          <p style=""font-size: 16px;"">J = YES &nbsp;&nbsp;&nbsp; F = NO</p>
        ","f","html-keyboard-response","82","2.1.0","203263","J=YES, F=NO","9xsbk4oaz9","2","69","68","70","","","","","","","","","scolve","theory1","pseudoword","pseudoword","f","true","",""
"null","<p style=""font-size: 50px;"">+</p>","null","html-keyboard-response","83","2.1.0","203565","J=YES, F=NO","9xsbk4oaz9","2","69","68","70","","","","","","","","","","","","","","","",""
"null","audio/beep-329314.mp3","null","audio-keyboard-response","84","2.1.0","205304","J=YES, F=NO","9xsbk4oaz9","2","69","68","70","","","","","","","","","","","","","","","",""
"null","audio/age1.wav","null","audio-keyboard-response","85","2.1.0","205925","J=YES, F=NO","9xsbk4oaz9","2","69","68","70","","","","","","","","","","","","","","","",""
"836","
          <p id=""word"" style=""font-size: 40px;"">lachry</p>
          <p style=""font-size: 16px;"">J = YES &nbsp;&nbsp;&nbsp; F = NO</p>
        ","f","html-keyboard-response","86","2.1.0","206762","J=YES, F=NO","9xsbk4oaz9","2","69","68","70","","","","","","","","","lachry","age1","pseudoword","pseudoword","f","true","",""
"null","<p style=""font-size: 50px;"">+</p>","null","html-keyboard-response","87","2.1.0","207064","J=YES, F=NO","9xsbk4oaz9","2","69","68","70","","","","","","","","","","","","","","","",""
"null","audio/beep-329314.mp3","null","audio-keyboard-response","88","2.1.0","208804","J=YES, F=NO","9xsbk4oaz9","2","69","68","70","","","","","","","","","","","","","","","",""
"null","audio/strength.wav","null","audio-keyboard-response","89","2.1.0","209663","J=YES, F=NO","9xsbk4oaz9","2","69","68","70","","","","","","","","","","","","","","","",""
"957","
          <p id=""word"" style=""font-size: 40px;"">plabet</p>
          <p style=""font-size: 16px;"">J = YES &nbsp;&nbsp;&nbsp; F = NO</p>
        ","f","html-keyboard-response","90","2.1.0","210622","J=YES, F=NO","9xsbk4oaz9","2","69","68","70","","","","","","","","","plabet","strength","pseudoword","pseudoword","f","true","",""
"null","<p style=""font-size: 50px;"">+</p>","null","html-keyboard-response","91","2.1.0","210924","J=YES, F=NO","9xsbk4oaz9","2","69","68","70","","","","","","","","","","","","","","","",""
"null","audio/beep-329314.mp3","null","audio-keyboard-response","92","2.1.0","212664","J=YES, F=NO","9xsbk4oaz9","2","69","68","70","","","","","","","","","","","","","","","",""
"null","audio/sugar1.wav","null","audio-keyboard-response","93","2.1.0","213404","J=YES, F=NO","9xsbk4oaz9","2","69","68","70","","","","","","","","","","","","","","","",""
"858","
          <p id=""word"" style=""font-size: 40px;"">glung</p>
          <p style=""font-size: 16px;"">J = YES &nbsp;&nbsp;&nbsp; F = NO</p>
        ","f","html-keyboard-response","94","2.1.0","214263","J=YES, F=NO","9xsbk4oaz9","2","69","68","70","","","","","","","","","glung","sugar1","pseudoword","pseudoword","f","true","",""
"null","<p style=""font-size: 50px;"">+</p>","null","html-keyboard-response","95","2.1.0","214570","J=YES, F=NO","9xsbk4oaz9","2","69","68","70","","","","","","","","","","","","","","","",""
"null","audio/beep-329314.mp3","null","audio-keyboard-response","96","2.1.0","216303","J=YES, F=NO","9xsbk4oaz9","2","69","68","70","","","","","","","","","","","","","","","",""
"null","audio/alarm1.wav","null","audio-keyboard-response","97","2.1.0","216963","J=YES, F=NO","9xsbk4oaz9","2","69","68","70","","","","","","","","","","","","","","","",""
"710","
          <p id=""word"" style=""font-size: 40px;"">lock</p>
          <p style=""font-size: 16px;"">J = YES &nbsp;&nbsp;&nbsp; F = NO</p>
        ","j","html-keyboard-response","98","2.1.0","217676","J=YES, F=NO","9xsbk4oaz9","2","69","68","70","","","","","","","","","lock","alarm1","filler","filler","j","true","",""
"null","<p style=""font-size: 50px;"">+</p>","null","html-keyboard-response","99","2.1.0","217983","J=YES, F=NO","9xsbk4oaz9","2","69","68","70","","","","","","","","","","","","","","","",""
"null","audio/beep-329314.mp3","null","audio-keyboard-response","100","2.1.0","219724","J=YES, F=NO","9xsbk4oaz9","2","69","68","70","","","","","","","","","","","","","","","",""
"null","audio/kettle1.wav","null","audio-keyboard-response","101","2.1.0","220264","J=YES, F=NO","9xsbk4oaz9","2","69","68","70","","","","","","","","","","","","","","","",""
"744","
          <p id=""word"" style=""font-size: 40px;"">wrap</p>
          <p style=""font-size: 16px;"">J = YES &nbsp;&nbsp;&nbsp; F = NO</p>
        ","j","html-keyboard-response","102","2.1.0","221010","J=YES, F=NO","9xsbk4oaz9","2","69","68","70","","","","","","","","","wrap","kettle1","filler","filler","j","true","",""
"null","<p style=""font-size: 50px;"">+</p>","null","html-keyboard-response","103","2.1.0","221313","J=YES, F=NO","9xsbk4oaz9","2","69","68","70","","","","","","","","","","","","","","","",""
"null","audio/beep-329314.mp3","null","audio-keyboard-response","104","2.1.0","223044","J=YES, F=NO","9xsbk4oaz9","2","69","68","70","","","","","","","","","","","","","","","",""
"null","audio/truth1.wav","null","audio-keyboard-response","105","2.1.0","223724","J=YES, F=NO","9xsbk4oaz9","2","69","68","70","","","","","","","","","","","","","","","",""
"769","
          <p id=""word"" style=""font-size: 40px;"">calitom</p>
          <p style=""font-size: 16px;"">J = YES &nbsp;&nbsp;&nbsp; F = NO</p>
        ","f","html-keyboard-response","106","2.1.0","224495","J=YES, F=NO","9xsbk4oaz9","2","69","68","70","","","","","","","","","calitom","truth1","pseudoword","pseudoword","f","true","",""
"null","<p style=""font-size: 50px;"">+</p>","null","html-keyboard-response","107","2.1.0","224810","J=YES, F=NO","9xsbk4oaz9","2","69","68","70","","","","","","","","","","","","","","","",""
"null","audio/beep-329314.mp3","null","audio-keyboard-response","108","2.1.0","226544","J=YES, F=NO","9xsbk4oaz9","2","69","68","70","","","","","","","","","","","","","","","",""
"null","audio/novel.wav","null","audio-keyboard-response","109","2.1.0","227104","J=YES, F=NO","9xsbk4oaz9","2","69","68","70","","","","","","","","","","","","","","","",""
"757","
          <p id=""word"" style=""font-size: 40px;"">type</p>
          <p style=""font-size: 16px;"">J = YES &nbsp;&nbsp;&nbsp; F = NO</p>
        ","j","html-keyboard-response","110","2.1.0","227863","J=YES, F=NO","9xsbk4oaz9","2","69","68","70","","","","","","","","","type","novel","filler","filler","j","true","",""
"null","<p style=""font-size: 50px;"">+</p>","null","html-keyboard-response","111","2.1.0","228165","J=YES, F=NO","9xsbk4oaz9","2","69","68","70","","","","","","","","","","","","","","","",""
"null","audio/beep-329314.mp3","null","audio-keyboard-response","112","2.1.0","229904","J=YES, F=NO","9xsbk4oaz9","2","69","68","70","","","","","","","","","","","","","","","",""
"null","audio/birth1.wav","null","audio-keyboard-response","113","2.1.0","230563","J=YES, F=NO","9xsbk4oaz9","2","69","68","70","","","","","","","","","","","","","","","",""
"910","
          <p id=""word"" style=""font-size: 40px;"">peel</p>
          <p style=""font-size: 16px;"">J = YES &nbsp;&nbsp;&nbsp; F = NO</p>
        ","j","html-keyboard-response","114","2.1.0","231474","J=YES, F=NO","9xsbk4oaz9","2","69","68","70","","","","","","","","","peel","birth1","filler","filler","j","true","",""
"9207","<p>Starting practice block 2 of 2. Press any key to continue.</p>"," ","html-keyboard-response","115","2.1.0","240683","J=YES, F=NO","9xsbk4oaz9","2","69","68","70","","","","","","","","","","","","","","","",""
"null","<p style=""font-size: 50px;"">+</p>","null","html-keyboard-response","116","2.1.0","240984","J=YES, F=NO","9xsbk4oaz9","2","69","68","70","","","","","","","","","","","","","","","",""
"null","audio/beep-329314.mp3","null","audio-keyboard-response","117","2.1.0","242496","J=YES, F=NO","9xsbk4oaz9","2","69","68","70","","","","","","","","","","","","","","","",""
"null","audio/meal.wav","null","audio-keyboard-response","118","2.1.0","243175","J=YES, F=NO","9xsbk4oaz9","2","69","68","70","","","","","","","","","","","","","","","",""
"940","
          <p id=""word"" style=""font-size: 40px;"">gallite</p>
          <p style=""font-size: 16px;"">J = YES &nbsp;&nbsp;&nbsp; F = NO</p>
        ","f","html-keyboard-response","119","2.1.0","244116","J=YES, F=NO","9xsbk4oaz9","2","69","68","70","","","","","","","","","gallite","meal","pseudoword","pseudoword","f","true","",""
"null","<p style=""font-size: 50px;"">+</p>","null","html-keyboard-response","120","2.1.0","244424","J=YES, F=NO","9xsbk4oaz9","2","69","68","70","","","","","","","","","","","","","","","",""
"null","audio/beep-329314.mp3","null","audio-keyboard-response","121","2.1.0","245956","J=YES, F=NO","9xsbk4oaz9","2","69","68","70","","","","","","","","","","","","","","","",""
"null","audio/dollar.wav","null","audio-keyboard-response","122","2.1.0","246436","J=YES, F=NO","9xsbk4oaz9","2","69","68","70","","","","","","","","","","","","","","","",""
"966","
          <p id=""word"" style=""font-size: 40px;"">gliptism</p>
          <p style=""font-size: 16px;"">J = YES &nbsp;&nbsp;&nbsp; F = NO</p>
        ","j","html-keyboard-response","123","2.1.0","247403","J=YES, F=NO","9xsbk4oaz9","2","69","68","70","","","","","","","","","gliptism","dollar","pseudoword","pseudoword","f","false","",""
"null","<p style=""font-size: 50px;"">+</p>","null","html-keyboard-response","124","2.1.0","247705","J=YES, F=NO","9xsbk4oaz9","2","69","68","70","","","","","","","","","","","","","","","",""
"null","audio/beep-329314.mp3","null","audio-keyboard-response","125","2.1.0","249236","J=YES, F=NO","9xsbk4oaz9","2","69","68","70","","","","","","","","","","","","","","","",""
"null","audio/bridge.wav","null","audio-keyboard-response","126","2.1.0","249855","J=YES, F=NO","9xsbk4oaz9","2","69","68","70","","","","","","","","","","","","","","","",""
"687","
          <p id=""word"" style=""font-size: 40px;"">crack</p>
          <p style=""font-size: 16px;"">J = YES &nbsp;&nbsp;&nbsp; F = NO</p>
        ","j","html-keyboard-response","127","2.1.0","250544","J=YES, F=NO","9xsbk4oaz9","2","69","68","70","","","","","","","","","crack","bridge","filler","filler","j","true","",""
"null","<p style=""font-size: 50px;"">+</p>","null","html-keyboard-response","128","2.1.0","250847","J=YES, F=NO","9xsbk4oaz9","2","69","68","70","","","","","","","","","","","","","","","",""
"null","audio/beep-329314.mp3","null","audio-keyboard-response","129","2.1.0","252376","J=YES, F=NO","9xsbk4oaz9","2","69","68","70","","","","","","","","","","","","","","","",""
"null","audio/voice.wav","null","audio-keyboard-response","130","2.1.0","253116","J=YES, F=NO","9xsbk4oaz9","2","69","68","70","","","","","","","","","","","","","","","",""
"1008","
          <p id=""word"" style=""font-size: 40px;"">grintle</p>
          <p style=""font-size: 16px;"">J = YES &nbsp;&nbsp;&nbsp; F = NO</p>
        ","j","html-keyboard-response","131","2.1.0","254126","J=YES, F=NO","9xsbk4oaz9","2","69","68","70","","","","","","","","","grintle","voice","pseudoword","pseudoword","f","false","",""
"null","<p style=""font-size: 50px;"">+</p>","null","html-keyboard-response","132","2.1.0","254431","J=YES, F=NO","9xsbk4oaz9","2","69","68","70","","","","","","","","","","","","","","","",""
"null","audio/beep-329314.mp3","null","audio-keyboard-response","133","2.1.0","255956","J=YES, F=NO","9xsbk4oaz9","2","69","68","70","","","","","","","","","","","","","","","",""
"null","audio/budget1.wav","null","audio-keyboard-response","134","2.1.0","256695","J=YES, F=NO","9xsbk4oaz9","2","69","68","70","","","","","","","","","","","","","","","",""
"878","
          <p id=""word"" style=""font-size: 40px;"">sulist</p>
          <p style=""font-size: 16px;"">J = YES &nbsp;&nbsp;&nbsp; F = NO</p>
        ","f","html-keyboard-response","135","2.1.0","257576","J=YES, F=NO","9xsbk4oaz9","2","69","68","70","","","","","","","","","sulist","budget1","pseudoword","pseudoword","f","true","",""
"null","<p style=""font-size: 50px;"">+</p>","null","html-keyboard-response","136","2.1.0","257877","J=YES, F=NO","9xsbk4oaz9","2","69","68","70","","","","","","","","","","","","","","","",""
"null","audio/beep-329314.mp3","null","audio-keyboard-response","137","2.1.0","259415","J=YES, F=NO","9xsbk4oaz9","2","69","68","70","","","","","","","","","","","","","","","",""
"null","audio/hawk1.wav","null","audio-keyboard-response","138","2.1.0","260156","J=YES, F=NO","9xsbk4oaz9","2","69","68","70","","","","","","","","","","","","","","","",""
"876","
          <p id=""word"" style=""font-size: 40px;"">ostach</p>
          <p style=""font-size: 16px;"">J = YES &nbsp;&nbsp;&nbsp; F = NO</p>
        ","f","html-keyboard-response","139","2.1.0","261034","J=YES, F=NO","9xsbk4oaz9","2","69","68","70","","","","","","","","","ostach","hawk1","pseudoword","pseudoword","f","true","",""
"null","<p style=""font-size: 50px;"">+</p>","null","html-keyboard-response","140","2.1.0","261341","J=YES, F=NO","9xsbk4oaz9","2","69","68","70","","","","","","","","","","","","","","","",""
"null","audio/beep-329314.mp3","null","audio-keyboard-response","141","2.1.0","262876","J=YES, F=NO","9xsbk4oaz9","2","69","68","70","","","","","","","","","","","","","","","",""
"null","audio/cancer1.wav","null","audio-keyboard-response","142","2.1.0","263556","J=YES, F=NO","9xsbk4oaz9","2","69","68","70","","","","","","","","","","","","","","","",""
"618","
          <p id=""word"" style=""font-size: 40px;"">draw</p>
          <p style=""font-size: 16px;"">J = YES &nbsp;&nbsp;&nbsp; F = NO</p>
        ","j","html-keyboard-response","143","2.1.0","264176","J=YES, F=NO","9xsbk4oaz9","2","69","68","70","","","","","","","","","draw","cancer1","filler","filler","j","true","",""
"null","<p style=""font-size: 50px;"">+</p>","null","html-keyboard-response","144","2.1.0","264483","J=YES, F=NO","9xsbk4oaz9","2","69","68","70","","","","","","","","","","","","","","","",""
"null","audio/beep-329314.mp3","null","audio-keyboard-response","145","2.1.0","266015","J=YES, F=NO","9xsbk4oaz9","2","69","68","70","","","","","","","","","","","","","","","",""
"null","audio/window1.wav","null","audio-keyboard-response","146","2.1.0","266715","J=YES, F=NO","9xsbk4oaz9","2","69","68","70","","","","","","","","","","","","","","","",""
"703","
          <p id=""word"" style=""font-size: 40px;"">toss</p>
          <p style=""font-size: 16px;"">J = YES &nbsp;&nbsp;&nbsp; F = NO</p>
        ","j","html-keyboard-response","147","2.1.0","267421","J=YES, F=NO","9xsbk4oaz9","2","69","68","70","","","","","","","","","toss","window1","filler","filler","j","true","",""
"null","<p style=""font-size: 50px;"">+</p>","null","html-keyboard-response","148","2.1.0","267735","J=YES, F=NO","9xsbk4oaz9","2","69","68","70","","","","","","","","","","","","","","","",""
"null","audio/beep-329314.mp3","null","audio-keyboard-response","149","2.1.0","269276","J=YES, F=NO","9xsbk4oaz9","2","69","68","70","","","","","","","","","","","","","","","",""
"null","audio/belief.wav","null","audio-keyboard-response","150","2.1.0","270036","J=YES, F=NO","9xsbk4oaz9","2","69","68","70","","","","","","","","","","","","","","","",""
"566","
          <p id=""word"" style=""font-size: 40px;"">read</p>
          <p style=""font-size: 16px;"">J = YES &nbsp;&nbsp;&nbsp; F = NO</p>
        ","j","html-keyboard-response","151","2.1.0","270603","J=YES, F=NO","9xsbk4oaz9","2","69","68","70","","","","","","","","","read","belief","filler","filler","j","true","",""
"null","<p style=""font-size: 50px;"">+</p>","null","html-keyboard-response","152","2.1.0","270915","J=YES, F=NO","9xsbk4oaz9","2","69","68","70","","","","","","","","","","","","","","","",""
"null","audio/beep-329314.mp3","null","audio-keyboard-response","153","2.1.0","272456","J=YES, F=NO","9xsbk4oaz9","2","69","68","70","","","","","","","","","","","","","","","",""
"null","audio/haste1.wav","null","audio-keyboard-response","154","2.1.0","273256","J=YES, F=NO","9xsbk4oaz9","2","69","68","70","","","","","","","","","","","","","","","",""
"888","
          <p id=""word"" style=""font-size: 40px;"">coraconate</p>
          <p style=""font-size: 16px;"">J = YES &nbsp;&nbsp;&nbsp; F = NO</p>
        ","j","html-keyboard-response","155","2.1.0","274145","J=YES, F=NO","9xsbk4oaz9","2","69","68","70","","","","","","","","","coraconate","haste1","pseudoword","pseudoword","f","false","",""
"null","<p style=""font-size: 50px;"">+</p>","null","html-keyboard-response","156","2.1.0","274453","J=YES, F=NO","9xsbk4oaz9","2","69","68","70","","","","","","","","","","","","","","","",""
"null","audio/beep-329314.mp3","null","audio-keyboard-response","157","2.1.0","275976","J=YES, F=NO","9xsbk4oaz9","2","69","68","70","","","","","","","","","","","","","","","",""
"null","audio/account1.wav","null","audio-keyboard-response","158","2.1.0","276916","J=YES, F=NO","9xsbk4oaz9","2","69","68","70","","","","","","","","","","","","","","","",""
"559","
          <p id=""word"" style=""font-size: 40px;"">paint</p>
          <p style=""font-size: 16px;"">J = YES &nbsp;&nbsp;&nbsp; F = NO</p>
        ","j","html-keyboard-response","159","2.1.0","277477","J=YES, F=NO","9xsbk4oaz9","2","69","68","70","","","","","","","","","paint","account1","filler","filler","j","true","",""
"null","<p style=""font-size: 50px;"">+</p>","null","html-keyboard-response","160","2.1.0","277785","J=YES, F=NO","9xsbk4oaz9","2","69","68","70","","","","","","","","","","","","","","","",""
"null","audio/beep-329314.mp3","null","audio-keyboard-response","161","2.1.0","279316","J=YES, F=NO","9xsbk4oaz9","2","69","68","70","","","","","","","","","","","","","","","",""
"null","audio/baby.wav","null","audio-keyboard-response","162","2.1.0","279856","J=YES, F=NO","9xsbk4oaz9","2","69","68","70","","","","","","","","","","","","","","","",""
"635","
          <p id=""word"" style=""font-size: 40px;"">lift</p>
          <p style=""font-size: 16px;"">J = YES &nbsp;&nbsp;&nbsp; F = NO</p>
        ","j","html-keyboard-response","163","2.1.0","280492","J=YES, F=NO","9xsbk4oaz9","2","69","68","70","","","","","","","","","lift","baby","filler","filler","j","true","",""
"48908","
    <div style=""max-width: 800px; margin: auto; text-align: left;"">
      <h2>Part 2: Main Trials</h2>
      <p>Great job on the practice trials!</p>
      <p>You will now begin the <strong>main set of trials</strong>.</p>
      <p>Remember your key assignments:</p>
      <ul>
        <li><strong>J</strong> = YES (real English word)</li>
        <li><strong>F</strong> = NO (not a real English word)</li>
      </ul>
      <p>Try to respond as <strong>quickly and accurately</strong> as possible.</p>
      <p style=""margin-top: 2em;"">Press any key to begin the main trials.</p>
    </div>
  "," ","html-keyboard-response","164","2.1.0","329401","J=YES, F=NO","9xsbk4oaz9","2","69","68","70","","","","","","","","","","","","","","","",""
"1944","<p>Starting main block 1 of 8. Press any key to continue.</p>"," ","html-keyboard-response","165","2.1.0","331347","J=YES, F=NO","9xsbk4oaz9","2","69","68","70","","","","","","","","","","","","","","","",""
"null","<p style=""font-size: 50px;"">+</p>","null","html-keyboard-response","166","2.1.0","331655","J=YES, F=NO","9xsbk4oaz9","2","69","68","70","","","","","","","","","","","","","","","",""
"null","audio/beep-329314.mp3","null","audio-keyboard-response","167","2.1.0","333460","J=YES, F=NO","9xsbk4oaz9","2","69","68","70","","","","","","","","","","","","","","","",""
"null","audio/dome.wav","null","audio-keyboard-response","168","2.1.0","333970","J=YES, F=NO","9xsbk4oaz9","2","69","68","70","","","","","","","","","","","","","","","",""
"1022","
          <p id=""word"" style=""font-size: 40px;"">scrupliness</p>
          <p style=""font-size: 16px;"">J = YES &nbsp;&nbsp;&nbsp; F = NO</p>
        ","f","html-keyboard-response","169","2.1.0","334994","J=YES, F=NO","9xsbk4oaz9","2","69","68","70","","","","","","","","","scrupliness","dome","pseudoword","pseudoword","f","true","",""
"null","<p style=""font-size: 50px;"">+</p>","null","html-keyboard-response","170","2.1.0","335297","J=YES, F=NO","9xsbk4oaz9","2","69","68","70","","","","","","","","","","","","","","","",""
"null","audio/beep-329314.mp3","null","audio-keyboard-response","171","2.1.0","337020","J=YES, F=NO","9xsbk4oaz9","2","69","68","70","","","","","","","","","","","","","","","",""
"null","audio/pine.wav","null","audio-keyboard-response","172","2.1.0","337590","J=YES, F=NO","9xsbk4oaz9","2","69","68","70","","","","","","","","","","","","","","","",""
"935","
          <p id=""word"" style=""font-size: 40px;"">crebble</p>
          <p style=""font-size: 16px;"">J = YES &nbsp;&nbsp;&nbsp; F = NO</p>
        ","f","html-keyboard-response","173","2.1.0","338527","J=YES, F=NO","9xsbk4oaz9","2","69","68","70","","","","","","","","","crebble","pine","pseudoword","pseudoword","f","true","",""
"null","<p style=""font-size: 50px;"">+</p>","null","html-keyboard-response","174","2.1.0","338829","J=YES, F=NO","9xsbk4oaz9","2","69","68","70","","","","","","","","","","","","","","","",""
"null","audio/beep-329314.mp3","null","audio-keyboard-response","175","2.1.0","340560","J=YES, F=NO","9xsbk4oaz9","2","69","68","70","","","","","","","","","","","","","","","",""
"null","audio/noise1.wav","null","audio-keyboard-response","176","2.1.0","341249","J=YES, F=NO","9xsbk4oaz9","2","69","68","70","","","","","","","","","","","","","","","",""
"1072","
          <p id=""word"" style=""font-size: 40px;"">slintered</p>
          <p style=""font-size: 16px;"">J = YES &nbsp;&nbsp;&nbsp; F = NO</p>
        ","f","html-keyboard-response","177","2.1.0","342323","J=YES, F=NO","9xsbk4oaz9","2","69","68","70","","","","","","","","","slintered","noise1","pseudoword","pseudoword","f","true","",""
"null","<p style=""font-size: 50px;"">+</p>","null","html-keyboard-response","178","2.1.0","342625","J=YES, F=NO","9xsbk4oaz9","2","69","68","70","","","","","","","","","","","","","","","",""
"null","audio/beep-329314.mp3","null","audio-keyboard-response","179","2.1.0","344360","J=YES, F=NO","9xsbk4oaz9","2","69","68","70","","","","","","","","","","","","","","","",""
"null","audio/trust.wav","null","audio-keyboard-response","180","2.1.0","345070","J=YES, F=NO","9xsbk4oaz9","2","69","68","70","","","","","","","","","","","","","","","",""
"931","
          <p id=""word"" style=""font-size: 40px;"">swint</p>
          <p style=""font-size: 16px;"">J = YES &nbsp;&nbsp;&nbsp; F = NO</p>
        ","f","html-keyboard-response","181","2.1.0","346003","J=YES, F=NO","9xsbk4oaz9","2","69","68","70","","","","","","","","","swint","trust","pseudoword","pseudoword","f","true","",""
"null","<p style=""font-size: 50px;"">+</p>","null","html-keyboard-response","182","2.1.0","346307","J=YES, F=NO","9xsbk4oaz9","2","69","68","70","","","","","","","","","","","","","","","",""
"null","audio/beep-329314.mp3","null","audio-keyboard-response","183","2.1.0","348040","J=YES, F=NO","9xsbk4oaz9","2","69","68","70","","","","","","","","","","","","","","","",""
"null","audio/scar.wav","null","audio-keyboard-response","184","2.1.0","348710","J=YES, F=NO","9xsbk4oaz9","2","69","68","70","","","","","","","","","","","","","","","",""
"875","
          <p id=""word"" style=""font-size: 40px;"">adelineate</p>
          <p style=""font-size: 16px;"">J = YES &nbsp;&nbsp;&nbsp; F = NO</p>
        ","j","html-keyboard-response","185","2.1.0","349587","J=YES, F=NO","9xsbk4oaz9","2","69","68","70","","","","","","","","","adelineate","scar","pseudoword","pseudoword","f","false","",""
"null","<p style=""font-size: 50px;"">+</p>","null","html-keyboard-response","186","2.1.0","349889","J=YES, F=NO","9xsbk4oaz9","2","69","68","70","","","","","","","","","","","","","","","",""
"null","audio/beep-329314.mp3","null","audio-keyboard-response","187","2.1.0","351620","J=YES, F=NO","9xsbk4oaz9","2","69","68","70","","","","","","","","","","","","","","","",""
"null","audio/show.wav","null","audio-keyboard-response","188","2.1.0","352410","J=YES, F=NO","9xsbk4oaz9","2","69","68","70","","","","","","","","","","","","","","","",""
"696","
          <p id=""word"" style=""font-size: 40px;"">smark</p>
          <p style=""font-size: 16px;"">J = YES &nbsp;&nbsp;&nbsp; F = NO</p>
        ","j","html-keyboard-response","189","2.1.0","353108","J=YES, F=NO","9xsbk4oaz9","2","69","68","70","","","","","","","","","smark","show","pseudoword","pseudoword","f","false","",""
"null","<p style=""font-size: 50px;"">+</p>","null","html-keyboard-response","190","2.1.0","353411","J=YES, F=NO","9xsbk4oaz9","2","69","68","70","","","","","","","","","","","","","","","",""
"null","audio/beep-329314.mp3","null","audio-keyboard-response","191","2.1.0","355140","J=YES, F=NO","9xsbk4oaz9","2","69","68","70","","","","","","","","","","","","","","","",""
"null","audio/sand.wav","null","audio-keyboard-response","192","2.1.0","355870","J=YES, F=NO","9xsbk4oaz9","2","69","68","70","","","","","","","","","","","","","","","",""
"751","
          <p id=""word"" style=""font-size: 40px;"">proted</p>
          <p style=""font-size: 16px;"">J = YES &nbsp;&nbsp;&nbsp; F = NO</p>
        ","j","html-keyboard-response","193","2.1.0","356622","J=YES, F=NO","9xsbk4oaz9","2","69","68","70","","","","","","","","","proted","sand","pseudoword","pseudoword","f","false","",""
"null","<p style=""font-size: 50px;"">+</p>","null","html-keyboard-response","194","2.1.0","356927","J=YES, F=NO","9xsbk4oaz9","2","69","68","70","","","","","","","","","","","","","","","",""
"null","audio/beep-329314.mp3","null","audio-keyboard-response","195","2.1.0","358661","J=YES, F=NO","9xsbk4oaz9","2","69","68","70","","","","","","","","","","","","","","","",""
"null","audio/heart1.wav","null","audio-keyboard-response","196","2.1.0","359369","J=YES, F=NO","9xsbk4oaz9","2","69","68","70","","","","","","","","","","","","","","","",""
"840","
          <p id=""word"" style=""font-size: 40px;"">dralm</p>
          <p style=""font-size: 16px;"">J = YES &nbsp;&nbsp;&nbsp; F = NO</p>
        ","f","html-keyboard-response","197","2.1.0","360211","J=YES, F=NO","9xsbk4oaz9","2","69","68","70","","","","","","","","","dralm","heart1","pseudoword","pseudoword","f","true","",""
"null","<p style=""font-size: 50px;"">+</p>","null","html-keyboard-response","198","2.1.0","360519","J=YES, F=NO","9xsbk4oaz9","2","69","68","70","","","","","","","","","","","","","","","",""
"null","audio/beep-329314.mp3","null","audio-keyboard-response","199","2.1.0","362260","J=YES, F=NO","9xsbk4oaz9","2","69","68","70","","","","","","","","","","","","","","","",""
"null","audio/cinema1.wav","null","audio-keyboard-response","200","2.1.0","362949","J=YES, F=NO","9xsbk4oaz9","2","69","68","70","","","","","","","","","","","","","","","",""
"657","
          <p id=""word"" style=""font-size: 40px;"">murple</p>
          <p style=""font-size: 16px;"">J = YES &nbsp;&nbsp;&nbsp; F = NO</p>
        ","j","html-keyboard-response","201","2.1.0","363609","J=YES, F=NO","9xsbk4oaz9","2","69","68","70","","","","","","","","","murple","cinema1","pseudoword","pseudoword","f","false","",""
"null","<p style=""font-size: 50px;"">+</p>","null","html-keyboard-response","202","2.1.0","363920","J=YES, F=NO","9xsbk4oaz9","2","69","68","70","","","","","","","","","","","","","","","",""
"null","audio/beep-329314.mp3","null","audio-keyboard-response","203","2.1.0","365660","J=YES, F=NO","9xsbk4oaz9","2","69","68","70","","","","","","","","","","","","","","","",""
"null","audio/burden.wav","null","audio-keyboard-response","204","2.1.0","366250","J=YES, F=NO","9xsbk4oaz9","2","69","68","70","","","","","","","","","","","","","","","",""
"606","
          <p id=""word"" style=""font-size: 40px;"">carry</p>
          <p style=""font-size: 16px;"">J = YES &nbsp;&nbsp;&nbsp; F = NO</p>
        ","j","html-keyboard-response","205","2.1.0","366857","J=YES, F=NO","9xsbk4oaz9","2","69","68","70","","","","","","","","","carry","burden","metaphor","experimental","j","true","",""
"null","<p style=""font-size: 50px;"">+</p>","null","html-keyboard-response","206","2.1.0","367170","J=YES, F=NO","9xsbk4oaz9","2","69","68","70","","","","","","","","","","","","","","","",""
"null","audio/beep-329314.mp3","null","audio-keyboard-response","207","2.1.0","368899","J=YES, F=NO","9xsbk4oaz9","2","69","68","70","","","","","","","","","","","","","","","",""
"null","audio/neck.wav","null","audio-keyboard-response","208","2.1.0","369529","J=YES, F=NO","9xsbk4oaz9","2","69","68","70","","","","","","","","","","","","","","","",""
"626","
          <p id=""word"" style=""font-size: 40px;"">share</p>
          <p style=""font-size: 16px;"">J = YES &nbsp;&nbsp;&nbsp; F = NO</p>
        ","j","html-keyboard-response","209","2.1.0","370157","J=YES, F=NO","9xsbk4oaz9","2","69","68","70","","","","","","","","","share","neck","unrelated","experimental","j","true","",""
"null","<p style=""font-size: 50px;"">+</p>","null","html-keyboard-response","210","2.1.0","370463","J=YES, F=NO","9xsbk4oaz9","2","69","68","70","","","","","","","","","","","","","","","",""
"null","audio/beep-329314.mp3","null","audio-keyboard-response","211","2.1.0","372199","J=YES, F=NO","9xsbk4oaz9","2","69","68","70","","","","","","","","","","","","","","","",""
"null","audio/cinema1.wav","null","audio-keyboard-response","212","2.1.0","372809","J=YES, F=NO","9xsbk4oaz9","2","69","68","70","","","","","","","","","","","","","","","",""
"603","
          <p id=""word"" style=""font-size: 40px;"">grow</p>
          <p style=""font-size: 16px;"">J = YES &nbsp;&nbsp;&nbsp; F = NO</p>
        ","j","html-keyboard-response","213","2.1.0","373415","J=YES, F=NO","9xsbk4oaz9","2","69","68","70","","","","","","","","","grow","cinema1","unrelated","experimental","j","true","",""
"null","<p style=""font-size: 50px;"">+</p>","null","html-keyboard-response","214","2.1.0","373730","J=YES, F=NO","9xsbk4oaz9","2","69","68","70","","","","","","","","","","","","","","","",""
"null","audio/beep-329314.mp3","null","audio-keyboard-response","215","2.1.0","375460","J=YES, F=NO","9xsbk4oaz9","2","69","68","70","","","","","","","","","","","","","","","",""
"null","audio/burden.wav","null","audio-keyboard-response","216","2.1.0","375970","J=YES, F=NO","9xsbk4oaz9","2","69","68","70","","","","","","","","","","","","","","","",""
"819","
          <p id=""word"" style=""font-size: 40px;"">whotth</p>
          <p style=""font-size: 16px;"">J = YES &nbsp;&nbsp;&nbsp; F = NO</p>
        ","j","html-keyboard-response","217","2.1.0","376791","J=YES, F=NO","9xsbk4oaz9","2","69","68","70","","","","","","","","","whotth","burden","pseudoword","pseudoword","f","false","",""
"null","<p style=""font-size: 50px;"">+</p>","null","html-keyboard-response","218","2.1.0","377093","J=YES, F=NO","9xsbk4oaz9","2","69","68","70","","","","","","","","","","","","","","","",""
"null","audio/beep-329314.mp3","null","audio-keyboard-response","219","2.1.0","378820","J=YES, F=NO","9xsbk4oaz9","2","69","68","70","","","","","","","","","","","","","","","",""
"null","audio/smirk1.wav","null","audio-keyboard-response","220","2.1.0","379630","J=YES, F=NO","9xsbk4oaz9","2","69","68","70","","","","","","","","","","","","","","","",""
"737","
          <p id=""word"" style=""font-size: 40px;"">wipe</p>
          <p style=""font-size: 16px;"">J = YES &nbsp;&nbsp;&nbsp; F = NO</p>
        ","j","html-keyboard-response","221","2.1.0","380368","J=YES, F=NO","9xsbk4oaz9","2","69","68","70","","","","","","","","","wipe","smirk1","metaphor","experimental","j","true","",""
"null","<p style=""font-size: 50px;"">+</p>","null","html-keyboard-response","222","2.1.0","380670","J=YES, F=NO","9xsbk4oaz9","2","69","68","70","","","","","","","","","","","","","","","",""
"null","audio/beep-329314.mp3","null","audio-keyboard-response","223","2.1.0","382400","J=YES, F=NO","9xsbk4oaz9","2","69","68","70","","","","","","","","","","","","","","","",""
"null","audio/roof1.wav","null","audio-keyboard-response","224","2.1.0","383049","J=YES, F=NO","9xsbk4oaz9","2","69","68","70","","","","","","","","","","","","","","","",""
"696","
          <p id=""word"" style=""font-size: 40px;"">construct</p>
          <p style=""font-size: 16px;"">J = YES &nbsp;&nbsp;&nbsp; F = NO</p>
        ","j","html-keyboard-response","225","2.1.0","383747","J=YES, F=NO","9xsbk4oaz9","2","69","68","70","","","","","","","","","construct","roof1","literal","experimental","j","true","",""
"null","<p style=""font-size: 50px;"">+</p>","null","html-keyboard-response","226","2.1.0","384050","J=YES, F=NO","9xsbk4oaz9","2","69","68","70","","","","","","","","","","","","","","","",""
"null","audio/beep-329314.mp3","null","audio-keyboard-response","227","2.1.0","385780","J=YES, F=NO","9xsbk4oaz9","2","69","68","70","","","","","","","","","","","","","","","",""
"null","audio/arm.wav","null","audio-keyboard-response","228","2.1.0","386469","J=YES, F=NO","9xsbk4oaz9","2","69","68","70","","","","","","","","","","","","","","","",""
"668","
          <p id=""word"" style=""font-size: 40px;"">fold</p>
          <p style=""font-size: 16px;"">J = YES &nbsp;&nbsp;&nbsp; F = NO</p>
        ","j","html-keyboard-response","229","2.1.0","387139","J=YES, F=NO","9xsbk4oaz9","2","69","68","70","","","","","","","","","fold","arm","filler","filler","j","true","",""
"1978","<p>Excellent! You have finished block 1 of 8.</p>
                     <p>Feel free to take a 30 second break.</p>
                     <p>Press any key when you're ready to continue.</p>"," ","html-keyboard-response","230","2.1.0","389118","J=YES, F=NO","9xsbk4oaz9","2","69","68","70","","","","","","","","","","","","","","","",""
"12611","<p>Starting main block 2 of 8. Press any key to continue.</p>"," ","html-keyboard-response","231","2.1.0","401731","J=YES, F=NO","9xsbk4oaz9","2","69","68","70","","","","","","","","","","","","","","","",""
"null","<p style=""font-size: 50px;"">+</p>","null","html-keyboard-response","232","2.1.0","402035","J=YES, F=NO","9xsbk4oaz9","2","69","68","70","","","","","","","","","","","","","","","",""
"null","audio/beep-329314.mp3","null","audio-keyboard-response","233","2.1.0","403865","J=YES, F=NO","9xsbk4oaz9","2","69","68","70","","","","","","","","","","","","","","","",""
"null","audio/holiday1.wav","null","audio-keyboard-response","234","2.1.0","404585","J=YES, F=NO","9xsbk4oaz9","2","69","68","70","","","","","","","","","","","","","","","",""
"942","
          <p id=""word"" style=""font-size: 40px;"">drivets</p>
          <p style=""font-size: 16px;"">J = YES &nbsp;&nbsp;&nbsp; F = NO</p>
        ","f","html-keyboard-response","235","2.1.0","405529","J=YES, F=NO","9xsbk4oaz9","2","69","68","70","","","","","","","","","drivets","holiday1","pseudoword","pseudoword","f","true","",""
"null","<p style=""font-size: 50px;"">+</p>","null","html-keyboard-response","236","2.1.0","405831","J=YES, F=NO","9xsbk4oaz9","2","69","68","70","","","","","","","","","","","","","","","",""
"null","audio/beep-329314.mp3","null","audio-keyboard-response","237","2.1.0","407565","J=YES, F=NO","9xsbk4oaz9","2","69","68","70","","","","","","","","","","","","","","","",""
"null","audio/voice.wav","null","audio-keyboard-response","238","2.1.0","408185","J=YES, F=NO","9xsbk4oaz9","2","69","68","70","","","","","","","","","","","","","","","",""
"645","
          <p id=""word"" style=""font-size: 40px;"">flood</p>
          <p style=""font-size: 16px;"">J = YES &nbsp;&nbsp;&nbsp; F = NO</p>
        ","j","html-keyboard-response","239","2.1.0","408831","J=YES, F=NO","9xsbk4oaz9","2","69","68","70","","","","","","","","","flood","voice","unrelated","experimental","j","true","",""
"null","<p style=""font-size: 50px;"">+</p>","null","html-keyboard-response","240","2.1.0","409134","J=YES, F=NO","9xsbk4oaz9","2","69","68","70","","","","","","","","","","","","","","","",""
"null","audio/beep-329314.mp3","null","audio-keyboard-response","241","2.1.0","410865","J=YES, F=NO","9xsbk4oaz9","2","69","68","70","","","","","","","","","","","","","","","",""
"null","audio/camera1.wav","null","audio-keyboard-response","242","2.1.0","411464","J=YES, F=NO","9xsbk4oaz9","2","69","68","70","","","","","","","","","","","","","","","",""
"654","
          <p id=""word"" style=""font-size: 40px;"">stir</p>
          <p style=""font-size: 16px;"">J = YES &nbsp;&nbsp;&nbsp; F = NO</p>
        ","j","html-keyboard-response","243","2.1.0","412120","J=YES, F=NO","9xsbk4oaz9","2","69","68","70","","","","","","","","","stir","camera1","filler","filler","j","true","",""
"null","<p style=""font-size: 50px;"">+</p>","null","html-keyboard-response","244","2.1.0","412425","J=YES, F=NO","9xsbk4oaz9","2","69","68","70","","","","","","","","","","","","","","","",""
"null","audio/beep-329314.mp3","null","audio-keyboard-response","245","2.1.0","414165","J=YES, F=NO","9xsbk4oaz9","2","69","68","70","","","","","","","","","","","","","","","",""
"null","audio/alarm1.wav","null","audio-keyboard-response","246","2.1.0","414765","J=YES, F=NO","9xsbk4oaz9","2","69","68","70","","","","","","","","","","","","","","","",""
"771","
          <p id=""word"" style=""font-size: 40px;"">swetp</p>
          <p style=""font-size: 16px;"">J = YES &nbsp;&nbsp;&nbsp; F = NO</p>
        ","f","html-keyboard-response","247","2.1.0","415539","J=YES, F=NO","9xsbk4oaz9","2","69","68","70","","","","","","","","","swetp","alarm1","pseudoword","pseudoword","f","true","",""
"null","<p style=""font-size: 50px;"">+</p>","null","html-keyboard-response","248","2.1.0","415842","J=YES, F=NO","9xsbk4oaz9","2","69","68","70","","","","","","","","","","","","","","","",""
"null","audio/beep-329314.mp3","null","audio-keyboard-response","249","2.1.0","417585","J=YES, F=NO","9xsbk4oaz9","2","69","68","70","","","","","","","","","","","","","","","",""
"null","audio/mirror1.wav","null","audio-keyboard-response","250","2.1.0","418065","J=YES, F=NO","9xsbk4oaz9","2","69","68","70","","","","","","","","","","","","","","","",""
"584","
          <p id=""word"" style=""font-size: 40px;"">fight</p>
          <p style=""font-size: 16px;"">J = YES &nbsp;&nbsp;&nbsp; F = NO</p>
        ","j","html-keyboard-response","251","2.1.0","418650","J=YES, F=NO","9xsbk4oaz9","2","69","68","70","","","","","","","","","fight","mirror1","unrelated","experimental","j","true","",""
"null","<p style=""font-size: 50px;"">+</p>","null","html-keyboard-response","252","2.1.0","418952","J=YES, F=NO","9xsbk4oaz9","2","69","68","70","","","","","","","","","","","","","","","",""
"null","audio/beep-329314.mp3","null","audio-keyboard-response","253","2.1.0","420684","J=YES, F=NO","9xsbk4oaz9","2","69","68","70","","","","","","","","","","","","","","","",""
"null","audio/mouth1.wav","null","audio-keyboard-response","254","2.1.0","421324","J=YES, F=NO","9xsbk4oaz9","2","69","68","70","","","","","","","","","","","","","","","",""
"866","
          <p id=""word"" style=""font-size: 40px;"">spolial</p>
          <p style=""font-size: 16px;"">J = YES &nbsp;&nbsp;&nbsp; F = NO</p>
        ","f","html-keyboard-response","255","2.1.0","422192","J=YES, F=NO","9xsbk4oaz9","2","69","68","70","","","","","","","","","spolial","mouth1","pseudoword","pseudoword","f","true","",""
"null","<p style=""font-size: 50px;"">+</p>","null","html-keyboard-response","256","2.1.0","422493","J=YES, F=NO","9xsbk4oaz9","2","69","68","70","","","","","","","","","","","","","","","",""
"null","audio/beep-329314.mp3","null","audio-keyboard-response","257","2.1.0","424224","J=YES, F=NO","9xsbk4oaz9","2","69","68","70","","","","","","","","","","","","","","","",""
"null","audio/table1.wav","null","audio-keyboard-response","258","2.1.0","424824","J=YES, F=NO","9xsbk4oaz9","2","69","68","70","","","","","","","","","","","","","","","",""
"753","
          <p id=""word"" style=""font-size: 40px;"">stimb</p>
          <p style=""font-size: 16px;"">J = YES &nbsp;&nbsp;&nbsp; F = NO</p>
        ","j","html-keyboard-response","259","2.1.0","425579","J=YES, F=NO","9xsbk4oaz9","2","69","68","70","","","","","","","","","stimb","table1","pseudoword","pseudoword","f","false","",""
"null","<p style=""font-size: 50px;"">+</p>","null","html-keyboard-response","260","2.1.0","425881","J=YES, F=NO","9xsbk4oaz9","2","69","68","70","","","","","","","","","","","","","","","",""
"null","audio/beep-329314.mp3","null","audio-keyboard-response","261","2.1.0","427604","J=YES, F=NO","9xsbk4oaz9","2","69","68","70","","","","","","","","","","","","","","","",""
"null","audio/holiday1.wav","null","audio-keyboard-response","262","2.1.0","428245","J=YES, F=NO","9xsbk4oaz9","2","69","68","70","","","","","","","","","","","","","","","",""
"745","
          <p id=""word"" style=""font-size: 40px;"">spend</p>
          <p style=""font-size: 16px;"">J = YES &nbsp;&nbsp;&nbsp; F = NO</p>
        ","j","html-keyboard-response","263","2.1.0","428992","J=YES, F=NO","9xsbk4oaz9","2","69","68","70","","","","","","","","","spend","holiday1","metaphor","experimental","j","true","",""
"null","<p style=""font-size: 50px;"">+</p>","null","html-keyboard-response","264","2.1.0","429295","J=YES, F=NO","9xsbk4oaz9","2","69","68","70","","","","","","","","","","","","","","","",""
"null","audio/beep-329314.mp3","null","audio-keyboard-response","265","2.1.0","431024","J=YES, F=NO","9xsbk4oaz9","2","69","68","70","","","","","","","","","","","","","","","",""
"null","audio/arm.wav","null","audio-keyboard-response","266","2.1.0","431564","J=YES, F=NO","9xsbk4oaz9","2","69","68","70","","","","","","","","","","","","","","","",""
"881","
          <p id=""word"" style=""font-size: 40px;"">pigne</p>
          <p style=""font-size: 16px;"">J = YES &nbsp;&nbsp;&nbsp; F = NO</p>
        ","f","html-keyboard-response","267","2.1.0","432446","J=YES, F=NO","9xsbk4oaz9","2","69","68","70","","","","","","","","","pigne","arm","pseudoword","pseudoword","f","true","",""
"null","<p style=""font-size: 50px;"">+</p>","null","html-keyboard-response","268","2.1.0","432754","J=YES, F=NO","9xsbk4oaz9","2","69","68","70","","","","","","","","","","","","","","","",""
"null","audio/beep-329314.mp3","null","audio-keyboard-response","269","2.1.0","434485","J=YES, F=NO","9xsbk4oaz9","2","69","68","70","","","","","","","","","","","","","","","",""
"null","audio/relief.wav","null","audio-keyboard-response","270","2.1.0","435205","J=YES, F=NO","9xsbk4oaz9","2","69","68","70","","","","","","","","","","","","","","","",""
"940","
          <p id=""word"" style=""font-size: 40px;"">grigg</p>
          <p style=""font-size: 16px;"">J = YES &nbsp;&nbsp;&nbsp; F = NO</p>
        ","f","html-keyboard-response","271","2.1.0","436146","J=YES, F=NO","9xsbk4oaz9","2","69","68","70","","","","","","","","","grigg","relief","pseudoword","pseudoword","f","true","",""
"null","<p style=""font-size: 50px;"">+</p>","null","html-keyboard-response","272","2.1.0","436451","J=YES, F=NO","9xsbk4oaz9","2","69","68","70","","","","","","","","","","","","","","","",""
"null","audio/beep-329314.mp3","null","audio-keyboard-response","273","2.1.0","438184","J=YES, F=NO","9xsbk4oaz9","2","69","68","70","","","","","","","","","","","","","","","",""
"null","audio/ankle1.wav","null","audio-keyboard-response","274","2.1.0","438764","J=YES, F=NO","9xsbk4oaz9","2","69","68","70","","","","","","","","","","","","","","","",""
"664","
          <p id=""word"" style=""font-size: 40px;"">switm</p>
          <p style=""font-size: 16px;"">J = YES &nbsp;&nbsp;&nbsp; F = NO</p>
        ","j","html-keyboard-response","275","2.1.0","439430","J=YES, F=NO","9xsbk4oaz9","2","69","68","70","","","","","","","","","switm","ankle1","pseudoword","pseudoword","f","false","",""
"null","<p style=""font-size: 50px;"">+</p>","null","html-keyboard-response","276","2.1.0","439732","J=YES, F=NO","9xsbk4oaz9","2","69","68","70","","","","","","","","","","","","","","","",""
"null","audio/beep-329314.mp3","null","audio-keyboard-response","277","2.1.0","441464","J=YES, F=NO","9xsbk4oaz9","2","69","68","70","","","","","","","","","","","","","","","",""
"null","audio/cloud1.wav","null","audio-keyboard-response","278","2.1.0","442124","J=YES, F=NO","9xsbk4oaz9","2","69","68","70","","","","","","","","","","","","","","","",""
"778","
          <p id=""word"" style=""font-size: 40px;"">brotant</p>
          <p style=""font-size: 16px;"">J = YES &nbsp;&nbsp;&nbsp; F = NO</p>
        ","j","html-keyboard-response","279","2.1.0","442904","J=YES, F=NO","9xsbk4oaz9","2","69","68","70","","","","","","","","","brotant","cloud1","pseudoword","pseudoword","f","false","",""
"null","<p style=""font-size: 50px;"">+</p>","null","html-keyboard-response","280","2.1.0","443211","J=YES, F=NO","9xsbk4oaz9","2","69","68","70","","","","","","","","","","","","","","","",""
"null","audio/beep-329314.mp3","null","audio-keyboard-response","281","2.1.0","444945","J=YES, F=NO","9xsbk4oaz9","2","69","68","70","","","","","","","","","","","","","","","",""
"null","audio/dollar.wav","null","audio-keyboard-response","282","2.1.0","445344","J=YES, F=NO","9xsbk4oaz9","2","69","68","70","","","","","","","","","","","","","","","",""
"586","
          <p id=""word"" style=""font-size: 40px;"">save</p>
          <p style=""font-size: 16px;"">J = YES &nbsp;&nbsp;&nbsp; F = NO</p>
        ","j","html-keyboard-response","283","2.1.0","445932","J=YES, F=NO","9xsbk4oaz9","2","69","68","70","","","","","","","","","save","dollar","literal","experimental","j","true","",""
"null","<p style=""font-size: 50px;"">+</p>","null","html-keyboard-response","284","2.1.0","446241","J=YES, F=NO","9xsbk4oaz9","2","69","68","70","","","","","","","","","","","","","","","",""
"null","audio/beep-329314.mp3","null","audio-keyboard-response","285","2.1.0","447964","J=YES, F=NO","9xsbk4oaz9","2","69","68","70","","","","","","","","","","","","","","","",""
"null","audio/breath.wav","null","audio-keyboard-response","286","2.1.0","448583","J=YES, F=NO","9xsbk4oaz9","2","69","68","70","","","","","","","","","","","","","","","",""
"662","
          <p id=""word"" style=""font-size: 40px;"">twets</p>
          <p style=""font-size: 16px;"">J = YES &nbsp;&nbsp;&nbsp; F = NO</p>
        ","j","html-keyboard-response","287","2.1.0","449247","J=YES, F=NO","9xsbk4oaz9","2","69","68","70","","","","","","","","","twets","breath","pseudoword","pseudoword","f","false","",""
"null","<p style=""font-size: 50px;"">+</p>","null","html-keyboard-response","288","2.1.0","449551","J=YES, F=NO","9xsbk4oaz9","2","69","68","70","","","","","","","","","","","","","","","",""
"null","audio/beep-329314.mp3","null","audio-keyboard-response","289","2.1.0","451284","J=YES, F=NO","9xsbk4oaz9","2","69","68","70","","","","","","","","","","","","","","","",""
"null","audio/survey1.wav","null","audio-keyboard-response","290","2.1.0","452084","J=YES, F=NO","9xsbk4oaz9","2","69","68","70","","","","","","","","","","","","","","","",""
"676","
          <p id=""word"" style=""font-size: 40px;"">imploth</p>
          <p style=""font-size: 16px;"">J = YES &nbsp;&nbsp;&nbsp; F = NO</p>
        ","f","html-keyboard-response","291","2.1.0","452762","J=YES, F=NO","9xsbk4oaz9","2","69","68","70","","","","","","","","","imploth","survey1","pseudoword","pseudoword","f","true","",""
"null","<p style=""font-size: 50px;"">+</p>","null","html-keyboard-response","292","2.1.0","453068","J=YES, F=NO","9xsbk4oaz9","2","69","68","70","","","","","","","","","","","","","","","",""
"null","audio/beep-329314.mp3","null","audio-keyboard-response","293","2.1.0","454805","J=YES, F=NO","9xsbk4oaz9","2","69","68","70","","","","","","","","","","","","","","","",""
"null","audio/prisoner.wav","null","audio-keyboard-response","294","2.1.0","455445","J=YES, F=NO","9xsbk4oaz9","2","69","68","70","","","","","","","","","","","","","","","",""
"904","
          <p id=""word"" style=""font-size: 40px;"">egotian</p>
          <p style=""font-size: 16px;"">J = YES &nbsp;&nbsp;&nbsp; F = NO</p>
        ","f","html-keyboard-response","295","2.1.0","456351","J=YES, F=NO","9xsbk4oaz9","2","69","68","70","","","","","","","","","egotian","prisoner","pseudoword","pseudoword","f","true","",""
"1135","<p>Excellent! You have finished block 2 of 8.</p>
                     <p>Feel free to take a 30 second break.</p>
                     <p>Press any key when you're ready to continue.</p>","f","html-keyboard-response","296","2.1.0","457488","J=YES, F=NO","9xsbk4oaz9","2","69","68","70","","","","","","","","","","","","","","","",""
"607","<p>Starting main block 3 of 8. Press any key to continue.</p>","f","html-keyboard-response","297","2.1.0","458096","J=YES, F=NO","9xsbk4oaz9","2","69","68","70","","","","","","","","","","","","","","","",""
"null","<p style=""font-size: 50px;"">+</p>","null","html-keyboard-response","298","2.1.0","458398","J=YES, F=NO","9xsbk4oaz9","2","69","68","70","","","","","","","","","","","","","","","",""
"null","audio/beep-329314.mp3","null","audio-keyboard-response","299","2.1.0","460124","J=YES, F=NO","9xsbk4oaz9","2","69","68","70","","","","","","","","","","","","","","","",""
"null","audio/ego.wav","null","audio-keyboard-response","300","2.1.0","460765","J=YES, F=NO","9xsbk4oaz9","2","69","68","70","","","","","","","","","","","","","","","",""
"662","
          <p id=""word"" style=""font-size: 40px;"">bruite</p>
          <p style=""font-size: 16px;"">J = YES &nbsp;&nbsp;&nbsp; F = NO</p>
        ","j","html-keyboard-response","301","2.1.0","461428","J=YES, F=NO","9xsbk4oaz9","2","69","68","70","","","","","","","","","bruite","ego","pseudoword","pseudoword","f","false","",""
"null","<p style=""font-size: 50px;"">+</p>","null","html-keyboard-response","302","2.1.0","461740","J=YES, F=NO","9xsbk4oaz9","2","69","68","70","","","","","","","","","","","","","","","",""
"null","audio/beep-329314.mp3","null","audio-keyboard-response","303","2.1.0","463464","J=YES, F=NO","9xsbk4oaz9","2","69","68","70","","","","","","","","","","","","","","","",""
"null","audio/key1.wav","null","audio-keyboard-response","304","2.1.0","463905","J=YES, F=NO","9xsbk4oaz9","2","69","68","70","","","","","","","","","","","","","","","",""
"736","
          <p id=""word"" style=""font-size: 40px;"">sminsh</p>
          <p style=""font-size: 16px;"">J = YES &nbsp;&nbsp;&nbsp; F = NO</p>
        ","f","html-keyboard-response","305","2.1.0","464642","J=YES, F=NO","9xsbk4oaz9","2","69","68","70","","","","","","","","","sminsh","key1","pseudoword","pseudoword","f","true","",""
"null","<p style=""font-size: 50px;"">+</p>","null","html-keyboard-response","306","2.1.0","464949","J=YES, F=NO","9xsbk4oaz9","2","69","68","70","","","","","","","","","","","","","","","",""
"null","audio/beep-329314.mp3","null","audio-keyboard-response","307","2.1.0","466684","J=YES, F=NO","9xsbk4oaz9","2","69","68","70","","","","","","","","","","","","","","","",""
"null","audio/floor.wav","null","audio-keyboard-response","308","2.1.0","467324","J=YES, F=NO","9xsbk4oaz9","2","69","68","70","","","","","","","","","","","","","","","",""
"549","
          <p id=""word"" style=""font-size: 40px;"">mop</p>
          <p style=""font-size: 16px;"">J = YES &nbsp;&nbsp;&nbsp; F = NO</p>
        ","j","html-keyboard-response","309","2.1.0","467875","J=YES, F=NO","9xsbk4oaz9","2","69","68","70","","","","","","","","","mop","floor","filler","filler","j","true","",""
"null","<p style=""font-size: 50px;"">+</p>","null","html-keyboard-response","310","2.1.0","468177","J=YES, F=NO","9xsbk4oaz9","2","69","68","70","","","","","","","","","","","","","","","",""
"null","audio/beep-329314.mp3","null","audio-keyboard-response","311","2.1.0","469904","J=YES, F=NO","9xsbk4oaz9","2","69","68","70","","","","","","","","","","","","","","","",""
"null","audio/novel.wav","null","audio-keyboard-response","312","2.1.0","470404","J=YES, F=NO","9xsbk4oaz9","2","69","68","70","","","","","","","","","","","","","","","",""
"911","
          <p id=""word"" style=""font-size: 40px;"">devour</p>
          <p style=""font-size: 16px;"">J = YES &nbsp;&nbsp;&nbsp; F = NO</p>
        ","j","html-keyboard-response","313","2.1.0","471318","J=YES, F=NO","9xsbk4oaz9","2","69","68","70","","","","","","","","","devour","novel","metaphor","experimental","j","true","",""
"null","<p style=""font-size: 50px;"">+</p>","null","html-keyboard-response","314","2.1.0","471633","J=YES, F=NO","9xsbk4oaz9","2","69","68","70","","","","","","","","","","","","","","","",""
"null","audio/beep-329314.mp3","null","audio-keyboard-response","315","2.1.0","473364","J=YES, F=NO","9xsbk4oaz9","2","69","68","70","","","","","","","","","","","","","","","",""
"null","audio/mile1.wav","null","audio-keyboard-response","316","2.1.0","473904","J=YES, F=NO","9xsbk4oaz9","2","69","68","70","","","","","","","","","","","","","","","",""
"708","
          <p id=""word"" style=""font-size: 40px;"">writch</p>
          <p style=""font-size: 16px;"">J = YES &nbsp;&nbsp;&nbsp; F = NO</p>
        ","j","html-keyboard-response","317","2.1.0","474614","J=YES, F=NO","9xsbk4oaz9","2","69","68","70","","","","","","","","","writch","mile1","pseudoword","pseudoword","f","false","",""
"null","<p style=""font-size: 50px;"">+</p>","null","html-keyboard-response","318","2.1.0","474927","J=YES, F=NO","9xsbk4oaz9","2","69","68","70","","","","","","","","","","","","","","","",""
"null","audio/beep-329314.mp3","null","audio-keyboard-response","319","2.1.0","476664","J=YES, F=NO","9xsbk4oaz9","2","69","68","70","","","","","","","","","","","","","","","",""
"null","audio/effort.wav","null","audio-keyboard-response","320","2.1.0","477344","J=YES, F=NO","9xsbk4oaz9","2","69","68","70","","","","","","","","","","","","","","","",""
"684","
          <p id=""word"" style=""font-size: 40px;"">whonk</p>
          <p style=""font-size: 16px;"">J = YES &nbsp;&nbsp;&nbsp; F = NO</p>
        ","f","html-keyboard-response","321","2.1.0","478030","J=YES, F=NO","9xsbk4oaz9","2","69","68","70","","","","","","","","","whonk","effort","pseudoword","pseudoword","f","true","",""
"null","<p style=""font-size: 50px;"">+</p>","null","html-keyboard-response","322","2.1.0","478341","J=YES, F=NO","9xsbk4oaz9","2","69","68","70","","","","","","","","","","","","","","","",""
"null","audio/beep-329314.mp3","null","audio-keyboard-response","323","2.1.0","480084","J=YES, F=NO","9xsbk4oaz9","2","69","68","70","","","","","","","","","","","","","","","",""
"null","audio/foot1.wav","null","audio-keyboard-response","324","2.1.0","480704","J=YES, F=NO","9xsbk4oaz9","2","69","68","70","","","","","","","","","","","","","","","",""
"931","
          <p id=""word"" style=""font-size: 40px;"">thrutt</p>
          <p style=""font-size: 16px;"">J = YES &nbsp;&nbsp;&nbsp; F = NO</p>
        ","f","html-keyboard-response","325","2.1.0","481637","J=YES, F=NO","9xsbk4oaz9","2","69","68","70","","","","","","","","","thrutt","foot1","pseudoword","pseudoword","f","true","",""
"null","<p style=""font-size: 50px;"">+</p>","null","html-keyboard-response","326","2.1.0","481939","J=YES, F=NO","9xsbk4oaz9","2","69","68","70","","","","","","","","","","","","","","","",""
"null","audio/beep-329314.mp3","null","audio-keyboard-response","327","2.1.0","483664","J=YES, F=NO","9xsbk4oaz9","2","69","68","70","","","","","","","","","","","","","","","",""
"null","audio/cave1.wav","null","audio-keyboard-response","328","2.1.0","484344","J=YES, F=NO","9xsbk4oaz9","2","69","68","70","","","","","","","","","","","","","","","",""
"558","
          <p id=""word"" style=""font-size: 40px;"">blacket</p>
          <p style=""font-size: 16px;"">J = YES &nbsp;&nbsp;&nbsp; F = NO</p>
        ","j","html-keyboard-response","329","2.1.0","484904","J=YES, F=NO","9xsbk4oaz9","2","69","68","70","","","","","","","","","blacket","cave1","pseudoword","pseudoword","f","false","",""
"null","<p style=""font-size: 50px;"">+</p>","null","html-keyboard-response","330","2.1.0","485214","J=YES, F=NO","9xsbk4oaz9","2","69","68","70","","","","","","","","","","","","","","","",""
"null","audio/beep-329314.mp3","null","audio-keyboard-response","331","2.1.0","486944","J=YES, F=NO","9xsbk4oaz9","2","69","68","70","","","","","","","","","","","","","","","",""
"null","audio/story.wav","null","audio-keyboard-response","332","2.1.0","487684","J=YES, F=NO","9xsbk4oaz9","2","69","68","70","","","","","","","","","","","","","","","",""
"616","
          <p id=""word"" style=""font-size: 40px;"">cover</p>
          <p style=""font-size: 16px;"">J = YES &nbsp;&nbsp;&nbsp; F = NO</p>
        ","j","html-keyboard-response","333","2.1.0","488302","J=YES, F=NO","9xsbk4oaz9","2","69","68","70","","","","","","","","","cover","story","metaphor","experimental","j","true","",""
"null","<p style=""font-size: 50px;"">+</p>","null","html-keyboard-response","334","2.1.0","488604","J=YES, F=NO","9xsbk4oaz9","2","69","68","70","","","","","","","","","","","","","","","",""
"null","audio/beep-329314.mp3","null","audio-keyboard-response","335","2.1.0","490344","J=YES, F=NO","9xsbk4oaz9","2","69","68","70","","","","","","","","","","","","","","","",""
"null","audio/cash1.wav","null","audio-keyboard-response","336","2.1.0","490964","J=YES, F=NO","9xsbk4oaz9","2","69","68","70","","","","","","","","","","","","","","","",""
"701","
          <p id=""word"" style=""font-size: 40px;"">splear</p>
          <p style=""font-size: 16px;"">J = YES &nbsp;&nbsp;&nbsp; F = NO</p>
        ","j","html-keyboard-response","337","2.1.0","491666","J=YES, F=NO","9xsbk4oaz9","2","69","68","70","","","","","","","","","splear","cash1","pseudoword","pseudoword","f","false","",""
"null","<p style=""font-size: 50px;"">+</p>","null","html-keyboard-response","338","2.1.0","491978","J=YES, F=NO","9xsbk4oaz9","2","69","68","70","","","","","","","","","","","","","","","",""
"null","audio/beep-329314.mp3","null","audio-keyboard-response","339","2.1.0","493703","J=YES, F=NO","9xsbk4oaz9","2","69","68","70","","","","","","","","","","","","","","","",""
"null","audio/corpse1.wav","null","audio-keyboard-response","340","2.1.0","494403","J=YES, F=NO","9xsbk4oaz9","2","69","68","70","","","","","","","","","","","","","","","",""
"534","
          <p id=""word"" style=""font-size: 40px;"">bury</p>
          <p style=""font-size: 16px;"">J = YES &nbsp;&nbsp;&nbsp; F = NO</p>
        ","j","html-keyboard-response","341","2.1.0","494939","J=YES, F=NO","9xsbk4oaz9","2","69","68","70","","","","","","","","","bury","corpse1","literal","experimental","j","true","",""
"null","<p style=""font-size: 50px;"">+</p>","null","html-keyboard-response","342","2.1.0","495243","J=YES, F=NO","9xsbk4oaz9","2","69","68","70","","","","","","","","","","","","","","","",""
"null","audio/beep-329314.mp3","null","audio-keyboard-response","343","2.1.0","496984","J=YES, F=NO","9xsbk4oaz9","2","69","68","70","","","","","","","","","","","","","","","",""
"null","audio/empire.wav","null","audio-keyboard-response","344","2.1.0","497684","J=YES, F=NO","9xsbk4oaz9","2","69","68","70","","","","","","","","","","","","","","","",""
"620","
          <p id=""word"" style=""font-size: 40px;"">slorby</p>
          <p style=""font-size: 16px;"">J = YES &nbsp;&nbsp;&nbsp; F = NO</p>
        ","j","html-keyboard-response","345","2.1.0","498306","J=YES, F=NO","9xsbk4oaz9","2","69","68","70","","","","","","","","","slorby","empire","pseudoword","pseudoword","f","false","",""
"null","<p style=""font-size: 50px;"">+</p>","null","html-keyboard-response","346","2.1.0","498614","J=YES, F=NO","9xsbk4oaz9","2","69","68","70","","","","","","","","","","","","","","","",""
"null","audio/beep-329314.mp3","null","audio-keyboard-response","347","2.1.0","500344","J=YES, F=NO","9xsbk4oaz9","2","69","68","70","","","","","","","","","","","","","","","",""
"null","audio/topic.wav","null","audio-keyboard-response","348","2.1.0","500984","J=YES, F=NO","9xsbk4oaz9","2","69","68","70","","","","","","","","","","","","","","","",""
"838","
          <p id=""word"" style=""font-size: 40px;"">infortuitist</p>
          <p style=""font-size: 16px;"">J = YES &nbsp;&nbsp;&nbsp; F = NO</p>
        ","j","html-keyboard-response","349","2.1.0","501824","J=YES, F=NO","9xsbk4oaz9","2","69","68","70","","","","","","","","","infortuitist","topic","pseudoword","pseudoword","f","false","",""
"null","<p style=""font-size: 50px;"">+</p>","null","html-keyboard-response","350","2.1.0","502126","J=YES, F=NO","9xsbk4oaz9","2","69","68","70","","","","","","","","","","","","","","","",""
"null","audio/beep-329314.mp3","null","audio-keyboard-response","351","2.1.0","503864","J=YES, F=NO","9xsbk4oaz9","2","69","68","70","","","","","","","","","","","","","","","",""
"null","audio/gift1.wav","null","audio-keyboard-response","352","2.1.0","504403","J=YES, F=NO","9xsbk4oaz9","2","69","68","70","","","","","","","","","","","","","","","",""
"736","
          <p id=""word"" style=""font-size: 40px;"">protsh</p>
          <p style=""font-size: 16px;"">J = YES &nbsp;&nbsp;&nbsp; F = NO</p>
        ","f","html-keyboard-response","353","2.1.0","505141","J=YES, F=NO","9xsbk4oaz9","2","69","68","70","","","","","","","","","protsh","gift1","pseudoword","pseudoword","f","true","",""
"null","<p style=""font-size: 50px;"">+</p>","null","html-keyboard-response","354","2.1.0","505450","J=YES, F=NO","9xsbk4oaz9","2","69","68","70","","","","","","","","","","","","","","","",""
"null","audio/beep-329314.mp3","null","audio-keyboard-response","355","2.1.0","507183","J=YES, F=NO","9xsbk4oaz9","2","69","68","70","","","","","","","","","","","","","","","",""
"null","audio/foe1.wav","null","audio-keyboard-response","356","2.1.0","507823","J=YES, F=NO","9xsbk4oaz9","2","69","68","70","","","","","","","","","","","","","","","",""
"730","
          <p id=""word"" style=""font-size: 40px;"">creth</p>
          <p style=""font-size: 16px;"">J = YES &nbsp;&nbsp;&nbsp; F = NO</p>
        ","j","html-keyboard-response","357","2.1.0","508554","J=YES, F=NO","9xsbk4oaz9","2","69","68","70","","","","","","","","","creth","foe1","pseudoword","pseudoword","f","false","",""
"null","<p style=""font-size: 50px;"">+</p>","null","html-keyboard-response","358","2.1.0","508856","J=YES, F=NO","9xsbk4oaz9","2","69","68","70","","","","","","","","","","","","","","","",""
"null","audio/beep-329314.mp3","null","audio-keyboard-response","359","2.1.0","510584","J=YES, F=NO","9xsbk4oaz9","2","69","68","70","","","","","","","","","","","","","","","",""
"null","audio/tunnel.wav","null","audio-keyboard-response","360","2.1.0","511083","J=YES, F=NO","9xsbk4oaz9","2","69","68","70","","","","","","","","","","","","","","","",""
"533","
          <p id=""word"" style=""font-size: 40px;"">grasp</p>
          <p style=""font-size: 16px;"">J = YES &nbsp;&nbsp;&nbsp; F = NO</p>
        ","j","html-keyboard-response","361","2.1.0","511618","J=YES, F=NO","9xsbk4oaz9","2","69","68","70","","","","","","","","","grasp","tunnel","unrelated","experimental","j","true","",""
"1838","<p>Excellent! You have finished block 3 of 8.</p>
                     <p>Feel free to take a 30 second break.</p>
                     <p>Press any key when you're ready to continue.</p>"," ","html-keyboard-response","362","2.1.0","513457","J=YES, F=NO","9xsbk4oaz9","2","69","68","70","","","","","","","","","","","","","","","",""
"3179","<p>Starting main block 4 of 8. Press any key to continue.</p>"," ","html-keyboard-response","363","2.1.0","516637","J=YES, F=NO","9xsbk4oaz9","2","69","68","70","","","","","","","","","","","","","","","",""
"null","<p style=""font-size: 50px;"">+</p>","null","html-keyboard-response","364","2.1.0","516951","J=YES, F=NO","9xsbk4oaz9","2","69","68","70","","","","","","","","","","","","","","","",""
"null","audio/beep-329314.mp3","null","audio-keyboard-response","365","2.1.0","518684","J=YES, F=NO","9xsbk4oaz9","2","69","68","70","","","","","","","","","","","","","","","",""
"null","audio/corpse1.wav","null","audio-keyboard-response","366","2.1.0","519324","J=YES, F=NO","9xsbk4oaz9","2","69","68","70","","","","","","","","","","","","","","","",""
"799","
          <p id=""word"" style=""font-size: 40px;"">glonet</p>
          <p style=""font-size: 16px;"">J = YES &nbsp;&nbsp;&nbsp; F = NO</p>
        ","f","html-keyboard-response","367","2.1.0","520125","J=YES, F=NO","9xsbk4oaz9","2","69","68","70","","","","","","","","","glonet","corpse1","pseudoword","pseudoword","f","true","",""
"null","<p style=""font-size: 50px;"">+</p>","null","html-keyboard-response","368","2.1.0","520435","J=YES, F=NO","9xsbk4oaz9","2","69","68","70","","","","","","","","","","","","","","","",""
"null","audio/beep-329314.mp3","null","audio-keyboard-response","369","2.1.0","522164","J=YES, F=NO","9xsbk4oaz9","2","69","68","70","","","","","","","","","","","","","","","",""
"null","audio/test1.wav","null","audio-keyboard-response","370","2.1.0","522804","J=YES, F=NO","9xsbk4oaz9","2","69","68","70","","","","","","","","","","","","","","","",""
"682","
          <p id=""word"" style=""font-size: 40px;"">twopch</p>
          <p style=""font-size: 16px;"">J = YES &nbsp;&nbsp;&nbsp; F = NO</p>
        ","j","html-keyboard-response","371","2.1.0","523487","J=YES, F=NO","9xsbk4oaz9","2","69","68","70","","","","","","","","","twopch","test1","pseudoword","pseudoword","f","false","",""
"null","<p style=""font-size: 50px;"">+</p>","null","html-keyboard-response","372","2.1.0","523799","J=YES, F=NO","9xsbk4oaz9","2","69","68","70","","","","","","","","","","","","","","","",""
"null","audio/beep-329314.mp3","null","audio-keyboard-response","373","2.1.0","525524","J=YES, F=NO","9xsbk4oaz9","2","69","68","70","","","","","","","","","","","","","","","",""
"null","audio/flaw.wav","null","audio-keyboard-response","374","2.1.0","526283","J=YES, F=NO","9xsbk4oaz9","2","69","68","70","","","","","","","","","","","","","","","",""
"747","
          <p id=""word"" style=""font-size: 40px;"">thwool</p>
          <p style=""font-size: 16px;"">J = YES &nbsp;&nbsp;&nbsp; F = NO</p>
        ","j","html-keyboard-response","375","2.1.0","527031","J=YES, F=NO","9xsbk4oaz9","2","69","68","70","","","","","","","","","thwool","flaw","pseudoword","pseudoword","f","false","",""
"null","<p style=""font-size: 50px;"">+</p>","null","html-keyboard-response","376","2.1.0","527343","J=YES, F=NO","9xsbk4oaz9","2","69","68","70","","","","","","","","","","","","","","","",""
"null","audio/beep-329314.mp3","null","audio-keyboard-response","377","2.1.0","529084","J=YES, F=NO","9xsbk4oaz9","2","69","68","70","","","","","","","","","","","","","","","",""
"null","audio/tunnel.wav","null","audio-keyboard-response","378","2.1.0","529524","J=YES, F=NO","9xsbk4oaz9","2","69","68","70","","","","","","","","","","","","","","","",""
"705","
          <p id=""word"" style=""font-size: 40px;"">gred</p>
          <p style=""font-size: 16px;"">J = YES &nbsp;&nbsp;&nbsp; F = NO</p>
        ","j","html-keyboard-response","379","2.1.0","530229","J=YES, F=NO","9xsbk4oaz9","2","69","68","70","","","","","","","","","gred","tunnel","pseudoword","pseudoword","f","false","",""
"null","<p style=""font-size: 50px;"">+</p>","null","html-keyboard-response","380","2.1.0","530539","J=YES, F=NO","9xsbk4oaz9","2","69","68","70","","","","","","","","","","","","","","","",""
"null","audio/beep-329314.mp3","null","audio-keyboard-response","381","2.1.0","532263","J=YES, F=NO","9xsbk4oaz9","2","69","68","70","","","","","","","","","","","","","","","",""
"null","audio/neck.wav","null","audio-keyboard-response","382","2.1.0","532823","J=YES, F=NO","9xsbk4oaz9","2","69","68","70","","","","","","","","","","","","","","","",""
"869","
          <p id=""word"" style=""font-size: 40px;"">werling</p>
          <p style=""font-size: 16px;"">J = YES &nbsp;&nbsp;&nbsp; F = NO</p>
        ","f","html-keyboard-response","383","2.1.0","533694","J=YES, F=NO","9xsbk4oaz9","2","69","68","70","","","","","","","","","werling","neck","pseudoword","pseudoword","f","true","",""
"null","<p style=""font-size: 50px;"">+</p>","null","html-keyboard-response","384","2.1.0","534005","J=YES, F=NO","9xsbk4oaz9","2","69","68","70","","","","","","","","","","","","","","","",""
"null","audio/beep-329314.mp3","null","audio-keyboard-response","385","2.1.0","535744","J=YES, F=NO","9xsbk4oaz9","2","69","68","70","","","","","","","","","","","","","","","",""
"null","audio/desire.wav","null","audio-keyboard-response","386","2.1.0","536424","J=YES, F=NO","9xsbk4oaz9","2","69","68","70","","","","","","","","","","","","","","","",""
"781","
          <p id=""word"" style=""font-size: 40px;"">nophed</p>
          <p style=""font-size: 16px;"">J = YES &nbsp;&nbsp;&nbsp; F = NO</p>
        ","j","html-keyboard-response","387","2.1.0","537206","J=YES, F=NO","9xsbk4oaz9","2","69","68","70","","","","","","","","","nophed","desire","pseudoword","pseudoword","f","false","",""
"null","<p style=""font-size: 50px;"">+</p>","null","html-keyboard-response","388","2.1.0","537514","J=YES, F=NO","9xsbk4oaz9","2","69","68","70","","","","","","","","","","","","","","","",""
"null","audio/beep-329314.mp3","null","audio-keyboard-response","389","2.1.0","539243","J=YES, F=NO","9xsbk4oaz9","2","69","68","70","","","","","","","","","","","","","","","",""
"null","audio/client1.wav","null","audio-keyboard-response","390","2.1.0","540064","J=YES, F=NO","9xsbk4oaz9","2","69","68","70","","","","","","","","","","","","","","","",""
"743","
          <p id=""word"" style=""font-size: 40px;"">droothe</p>
          <p style=""font-size: 16px;"">J = YES &nbsp;&nbsp;&nbsp; F = NO</p>
