"rt","stimulus","response","trial_type","trial_index","plugin_version","time_elapsed","response_mapping","subject_id","list_index","lextale_score","lextale_word_score","lextale_nonword_score","success","timeout","failed_images","failed_audio","failed_video","task","isWord","isDummy","target","prime","prime_type","stimulus_type","correct_response","correct","section","question_order"
"20889","
    <div style=""max-width: 800px; margin: auto; text-align: left;"">
      <h2>STANFORD UNIVERSITY</h2>
      <h3>Research Information Sheet</h3>
      <p><strong>Protocol Director:</strong> Robert Hawkins<br>
      <strong>Protocol Title:</strong> Communication and social cognition in natural audiovisual contexts<br>
      <strong>IRB#:</strong> 77226</p>

      <p><strong>DESCRIPTION:</strong> You are invited to participate in a research study about language and communication. The purpose of the research is to understand how you interact and communicate with other people in naturalistic settings as a fluent English speaker. This research will be conducted through the Prolific platform, including participants from the US, UK, and Canada. If you decide to participate in this research, you will play a communication game in a group with one or more partners.</p>

      <p><strong>TIME INVOLVEMENT:</strong> The task will last the amount of time advertised on Prolific. You are free to withdraw from the study at any time.</p>

      <p><strong>RISKS AND BENEFITS:</strong> You may become frustrated if your partner gets distracted, or experience discomfort if other participants in your group send text that is inappropriate for the task. We ask you to please be respectful of other participants you might be interacting with to mitigate these risks. You may also experience discomfort when being asked to discuss or challenge emotionally salient political beliefs. Study data will be stored securely, in compliance with Stanford University standards, minimizing the risk of confidentiality breach. This study advances our scientific understanding of how people communicate and collaborate in naturalistic settings. This study may lead to further insights about what can go wrong in teamwork, suggest potential interventions to overcome these barriers, and help to develop assistive technologies that collaborate with human partners. We cannot and do not guarantee or promise that you will receive any benefits from this study.</p>

      <p><strong>PAYMENTS:</strong> You will receive payment in the amount advertised on Prolific. If you do not complete this study, you will receive prorated payment based on the time that you have spent. Additionally, you may be eligible for bonus payments as described in the instructions.</p>

      <p><strong>PARTICIPANT’S RIGHTS:</strong> If you have read this form and have decided to participate in this project, please understand your participation is voluntary and you have the right to withdraw your consent or discontinue participation at any time without penalty or loss of benefits to which you are otherwise entitled. The alternative is not to participate. You have the right to refuse to answer particular questions. The results of this research study may be presented at scientific or professional meetings or published in scientific journals. Your individual privacy will be maintained in all published and written data resulting from the study. In accordance with scientific norms, the data from this study may be used or shared with other researchers for future research (after removing personally identifying information) without additional consent from you.</p>

      <p><strong>CONTACT INFORMATION:</strong><br>
      Questions: If you have any questions, concerns or complaints about this research, its procedures, risks and benefits, contact the Protocol Director, Robert Hawkins (<a href=""mailto:rdhawkins@stanford.edu"">rdhawkins@stanford.edu</a>, 217-549-6923).<br>
      Independent Contact: If you are not satisfied with how this study is being conducted, or if you have any concerns, complaints, or general questions about the research or your rights as a participant, please contact the Stanford Institutional Review Board (IRB) to speak to someone independent of the research team at 650-723-2480 or toll free at 1-866-680-2906, or email at <a href=""mailto:irbnon-med@stanford.edu"">irbnon-med@stanford.edu</a>. You can also write to the Stanford IRB, Stanford University, 1705 El Camino Real, Palo Alto, CA 94306.</p>

      <p><strong>Please save or print a copy of this page for your records.</strong></p>
      <p>If you agree to participate in this research, click ""Continue"" below.</p>
    </div>
  ","0","html-button-response","0","2.1.0","20900","F=YES, J=NO","a4ocgkauu6","1","75","65","85","","","","","","","","","","","","","","","",""
"7104","
    <div style=""max-width: 800px; margin: auto; text-align: left;"">
      <h2>Welcome!</h2>
      <p>Thank you for participating in this study. The experiment consists of three parts:</p>
      <ol>
        <li>An English vocabulary test</li>
        <li>A main task in which you will hear and see words, and decide whether the written word is a real English word</li>
        <li>A brief survey about your background</li>
      </ol>
      <p>Each part will be introduced before it begins.</p>
      <p>Please make sure you are in a quiet environment and can hear audio clearly for the final task.</p>
      <p style=""margin-top: 2em;"">Press any key to begin.</p>
    </div>
  "," ","html-keyboard-response","1","2.1.0","28009","F=YES, J=NO","a4ocgkauu6","1","75","65","85","","","","","","","","","","","","","","","",""
"","","","preload","2","2.1.0","29563","F=YES, J=NO","a4ocgkauu6","1","75","65","85","true","false","[]","[]","[]","","","","","","","","","","",""
"7004","
    <div style=""max-width: 800px; margin: auto; text-align: left;"">
      <h2>Part 1: Vocabulary Test</h2>
      <p>You will now complete the first part of the study: a short English vocabulary test.</p>
      <p>This test is called <strong>LexTALE</strong> and helps us get a general sense of your English proficiency.</p>
      <p style=""margin-top: 2em;"">Press any key to continue.</p>
    </div>
  ","Enter","html-keyboard-response","3","2.1.0","36568","F=YES, J=NO","a4ocgkauu6","1","75","65","85","","","","","","","","","","","","","","","",""
"11458","
    <div style=""max-width: 800px; margin: auto; text-align: left;"">
      <h2>LexTALE Vocabulary Test</h2>
      <p>In this test, you will see a series of letter strings—one at a time.</p>
      <p>Your task is to decide whether each string is a real English word.</p>
      <p><strong>Key responses:</strong></p>
      <ul>
        <li><strong>F</strong> = YES (real English word)</li>
        <li><strong>J</strong> = NO (not a real English word)</li>
      </ul>
      <p>There is no time limit, but please try to be accurate.</p>
      <p style=""margin-top: 2em;"">Press any key to begin.</p>
    </div>
  ","Enter","html-keyboard-response","4","2.1.0","48029","F=YES, J=NO","a4ocgkauu6","1","75","65","85","","","","","","","","","","","","","","","",""
"6420","
  <p style=""font-size: 40px;"">platery</p>
  <p style=""font-size: 16px;"">F = YES &nbsp;&nbsp;&nbsp; J = NO</p>
","j","html-keyboard-response","5","2.1.0","54451","F=YES, J=NO","a4ocgkauu6","1","75","65","85","","","","","","lextale","false","true","","","","","","","",""
"3431","
  <p style=""font-size: 40px;"">denial</p>
  <p style=""font-size: 16px;"">F = YES &nbsp;&nbsp;&nbsp; J = NO</p>
","f","html-keyboard-response","6","2.1.0","57884","F=YES, J=NO","a4ocgkauu6","1","75","65","85","","","","","","lextale","true","true","","","","","","","",""
"2081","
  <p style=""font-size: 40px;"">marrit</p>
  <p style=""font-size: 16px;"">F = YES &nbsp;&nbsp;&nbsp; J = NO</p>
","j","html-keyboard-response","7","2.1.0","59967","F=YES, J=NO","a4ocgkauu6","1","75","65","85","","","","","","lextale","false","true","","","","","","","",""
"1481","
  <p style=""font-size: 40px;"">bottle</p>
  <p style=""font-size: 16px;"">F = YES &nbsp;&nbsp;&nbsp; J = NO</p>
","f","html-keyboard-response","8","2.1.0","61448","F=YES, J=NO","a4ocgkauu6","1","75","65","85","","","","","","lextale","true","false","","","","","","","",""
"3555","
  <p style=""font-size: 40px;"">birst</p>
  <p style=""font-size: 16px;"">F = YES &nbsp;&nbsp;&nbsp; J = NO</p>
","j","html-keyboard-response","9","2.1.0","65004","F=YES, J=NO","a4ocgkauu6","1","75","65","85","","","","","","lextale","false","false","","","","","","","",""
"2315","
  <p style=""font-size: 40px;"">envy</p>
  <p style=""font-size: 16px;"">F = YES &nbsp;&nbsp;&nbsp; J = NO</p>
","f","html-keyboard-response","10","2.1.0","67320","F=YES, J=NO","a4ocgkauu6","1","75","65","85","","","","","","lextale","true","false","","","","","","","",""
"11040","
  <p style=""font-size: 40px;"">brang</p>
  <p style=""font-size: 16px;"">F = YES &nbsp;&nbsp;&nbsp; J = NO</p>
","j","html-keyboard-response","11","2.1.0","78362","F=YES, J=NO","a4ocgkauu6","1","75","65","85","","","","","","lextale","false","false","","","","","","","",""
"1334","
  <p style=""font-size: 40px;"">huge</p>
  <p style=""font-size: 16px;"">F = YES &nbsp;&nbsp;&nbsp; J = NO</p>
","f","html-keyboard-response","12","2.1.0","79697","F=YES, J=NO","a4ocgkauu6","1","75","65","85","","","","","","lextale","true","false","","","","","","","",""
"1620","
  <p style=""font-size: 40px;"">plove</p>
  <p style=""font-size: 16px;"">F = YES &nbsp;&nbsp;&nbsp; J = NO</p>
","j","html-keyboard-response","13","2.1.0","81318","F=YES, J=NO","a4ocgkauu6","1","75","65","85","","","","","","lextale","false","false","","","","","","","",""
"1360","
  <p style=""font-size: 40px;"">border</p>
  <p style=""font-size: 16px;"">F = YES &nbsp;&nbsp;&nbsp; J = NO</p>
","f","html-keyboard-response","14","2.1.0","82679","F=YES, J=NO","a4ocgkauu6","1","75","65","85","","","","","","lextale","true","false","","","","","","","",""
"1561","
  <p style=""font-size: 40px;"">flimsy</p>
  <p style=""font-size: 16px;"">F = YES &nbsp;&nbsp;&nbsp; J = NO</p>
","j","html-keyboard-response","15","2.1.0","84242","F=YES, J=NO","a4ocgkauu6","1","75","65","85","","","","","","lextale","true","false","","","","","","","",""
"1120","
  <p style=""font-size: 40px;"">drain</p>
  <p style=""font-size: 16px;"">F = YES &nbsp;&nbsp;&nbsp; J = NO</p>
","f","html-keyboard-response","16","2.1.0","85362","F=YES, J=NO","a4ocgkauu6","1","75","65","85","","","","","","lextale","true","false","","","","","","","",""
"1639","
  <p style=""font-size: 40px;"">twindle</p>
  <p style=""font-size: 16px;"">F = YES &nbsp;&nbsp;&nbsp; J = NO</p>
","j","html-keyboard-response","17","2.1.0","87004","F=YES, J=NO","a4ocgkauu6","1","75","65","85","","","","","","lextale","false","false","","","","","","","",""
"1085","
  <p style=""font-size: 40px;"">propose</p>
  <p style=""font-size: 16px;"">F = YES &nbsp;&nbsp;&nbsp; J = NO</p>
","f","html-keyboard-response","18","2.1.0","88091","F=YES, J=NO","a4ocgkauu6","1","75","65","85","","","","","","lextale","true","false","","","","","","","",""
"1291","
  <p style=""font-size: 40px;"">forlay</p>
  <p style=""font-size: 16px;"">F = YES &nbsp;&nbsp;&nbsp; J = NO</p>
","j","html-keyboard-response","19","2.1.0","89383","F=YES, J=NO","a4ocgkauu6","1","75","65","85","","","","","","lextale","false","false","","","","","","","",""
"972","
  <p style=""font-size: 40px;"">tenant</p>
  <p style=""font-size: 16px;"">F = YES &nbsp;&nbsp;&nbsp; J = NO</p>
","f","html-keyboard-response","20","2.1.0","90355","F=YES, J=NO","a4ocgkauu6","1","75","65","85","","","","","","lextale","true","false","","","","","","","",""
"1041","
  <p style=""font-size: 40px;"">strain</p>
  <p style=""font-size: 16px;"">F = YES &nbsp;&nbsp;&nbsp; J = NO</p>
","f","html-keyboard-response","21","2.1.0","91397","F=YES, J=NO","a4ocgkauu6","1","75","65","85","","","","","","lextale","true","false","","","","","","","",""
"1515","
  <p style=""font-size: 40px;"">holster</p>
  <p style=""font-size: 16px;"">F = YES &nbsp;&nbsp;&nbsp; J = NO</p>
","f","html-keyboard-response","22","2.1.0","92913","F=YES, J=NO","a4ocgkauu6","1","75","65","85","","","","","","lextale","true","false","","","","","","","",""
"1536","
  <p style=""font-size: 40px;"">hinder</p>
  <p style=""font-size: 16px;"">F = YES &nbsp;&nbsp;&nbsp; J = NO</p>
","j","html-keyboard-response","23","2.1.0","94450","F=YES, J=NO","a4ocgkauu6","1","75","65","85","","","","","","lextale","true","false","","","","","","","",""
"1581","
  <p style=""font-size: 40px;"">swindle</p>
  <p style=""font-size: 16px;"">F = YES &nbsp;&nbsp;&nbsp; J = NO</p>
","j","html-keyboard-response","24","2.1.0","96033","F=YES, J=NO","a4ocgkauu6","1","75","65","85","","","","","","lextale","true","false","","","","","","","",""
"1292","
  <p style=""font-size: 40px;"">nuder</p>
  <p style=""font-size: 16px;"">F = YES &nbsp;&nbsp;&nbsp; J = NO</p>
","j","html-keyboard-response","25","2.1.0","97327","F=YES, J=NO","a4ocgkauu6","1","75","65","85","","","","","","lextale","false","false","","","","","","","",""
"1037","
  <p style=""font-size: 40px;"">pillow</p>
  <p style=""font-size: 16px;"">F = YES &nbsp;&nbsp;&nbsp; J = NO</p>
","f","html-keyboard-response","26","2.1.0","98364","F=YES, J=NO","a4ocgkauu6","1","75","65","85","","","","","","lextale","true","false","","","","","","","",""
"1436","
  <p style=""font-size: 40px;"">shumble</p>
  <p style=""font-size: 16px;"">F = YES &nbsp;&nbsp;&nbsp; J = NO</p>
","j","html-keyboard-response","27","2.1.0","99801","F=YES, J=NO","a4ocgkauu6","1","75","65","85","","","","","","lextale","false","false","","","","","","","",""
"1073","
  <p style=""font-size: 40px;"">thirst</p>
  <p style=""font-size: 16px;"">F = YES &nbsp;&nbsp;&nbsp; J = NO</p>
","f","html-keyboard-response","28","2.1.0","100875","F=YES, J=NO","a4ocgkauu6","1","75","65","85","","","","","","lextale","true","false","","","","","","","",""
"1861","
  <p style=""font-size: 40px;"">unsail</p>
  <p style=""font-size: 16px;"">F = YES &nbsp;&nbsp;&nbsp; J = NO</p>
","f","html-keyboard-response","29","2.1.0","102738","F=YES, J=NO","a4ocgkauu6","1","75","65","85","","","","","","lextale","false","false","","","","","","","",""
"2503","
  <p style=""font-size: 40px;"">rifle</p>
  <p style=""font-size: 16px;"">F = YES &nbsp;&nbsp;&nbsp; J = NO</p>
","j","html-keyboard-response","30","2.1.0","105243","F=YES, J=NO","a4ocgkauu6","1","75","65","85","","","","","","lextale","true","false","","","","","","","",""
"1067","
  <p style=""font-size: 40px;"">mush</p>
  <p style=""font-size: 16px;"">F = YES &nbsp;&nbsp;&nbsp; J = NO</p>
","f","html-keyboard-response","31","2.1.0","106310","F=YES, J=NO","a4ocgkauu6","1","75","65","85","","","","","","lextale","false","false","","","","","","","",""
"827","
  <p style=""font-size: 40px;"">drench</p>
  <p style=""font-size: 16px;"">F = YES &nbsp;&nbsp;&nbsp; J = NO</p>
","f","html-keyboard-response","32","2.1.0","107139","F=YES, J=NO","a4ocgkauu6","1","75","65","85","","","","","","lextale","true","false","","","","","","","",""
"1538","
  <p style=""font-size: 40px;"">snirt</p>
  <p style=""font-size: 16px;"">F = YES &nbsp;&nbsp;&nbsp; J = NO</p>
","j","html-keyboard-response","33","2.1.0","108679","F=YES, J=NO","a4ocgkauu6","1","75","65","85","","","","","","lextale","false","false","","","","","","","",""
"902","
  <p style=""font-size: 40px;"">bitter</p>
  <p style=""font-size: 16px;"">F = YES &nbsp;&nbsp;&nbsp; J = NO</p>
","f","html-keyboard-response","34","2.1.0","109582","F=YES, J=NO","a4ocgkauu6","1","75","65","85","","","","","","lextale","true","false","","","","","","","",""
"1745","
  <p style=""font-size: 40px;"">pliff</p>
  <p style=""font-size: 16px;"">F = YES &nbsp;&nbsp;&nbsp; J = NO</p>
","j","html-keyboard-response","35","2.1.0","111328","F=YES, J=NO","a4ocgkauu6","1","75","65","85","","","","","","lextale","false","false","","","","","","","",""
"980","
  <p style=""font-size: 40px;"">tablet</p>
  <p style=""font-size: 16px;"">F = YES &nbsp;&nbsp;&nbsp; J = NO</p>
","f","html-keyboard-response","36","2.1.0","112309","F=YES, J=NO","a4ocgkauu6","1","75","65","85","","","","","","lextale","true","false","","","","","","","",""
"1476","
  <p style=""font-size: 40px;"">glimmer</p>
  <p style=""font-size: 16px;"">F = YES &nbsp;&nbsp;&nbsp; J = NO</p>
","j","html-keyboard-response","37","2.1.0","113786","F=YES, J=NO","a4ocgkauu6","1","75","65","85","","","","","","lextale","true","false","","","","","","","",""
"1515","
  <p style=""font-size: 40px;"">slink</p>
  <p style=""font-size: 16px;"">F = YES &nbsp;&nbsp;&nbsp; J = NO</p>
","j","html-keyboard-response","38","2.1.0","115302","F=YES, J=NO","a4ocgkauu6","1","75","65","85","","","","","","lextale","true","false","","","","","","","",""
"937","
  <p style=""font-size: 40px;"">clever</p>
  <p style=""font-size: 16px;"">F = YES &nbsp;&nbsp;&nbsp; J = NO</p>
","f","html-keyboard-response","39","2.1.0","116240","F=YES, J=NO","a4ocgkauu6","1","75","65","85","","","","","","lextale","true","false","","","","","","","",""
"1046","
  <p style=""font-size: 40px;"">grum</p>
  <p style=""font-size: 16px;"">F = YES &nbsp;&nbsp;&nbsp; J = NO</p>
","j","html-keyboard-response","40","2.1.0","117287","F=YES, J=NO","a4ocgkauu6","1","75","65","85","","","","","","lextale","false","false","","","","","","","",""
"1590","
  <p style=""font-size: 40px;"">string</p>
  <p style=""font-size: 16px;"">F = YES &nbsp;&nbsp;&nbsp; J = NO</p>
","f","html-keyboard-response","41","2.1.0","118878","F=YES, J=NO","a4ocgkauu6","1","75","65","85","","","","","","lextale","true","false","","","","","","","",""
"1302","
  <p style=""font-size: 40px;"">plim</p>
  <p style=""font-size: 16px;"">F = YES &nbsp;&nbsp;&nbsp; J = NO</p>
","j","html-keyboard-response","42","2.1.0","120180","F=YES, J=NO","a4ocgkauu6","1","75","65","85","","","","","","lextale","false","false","","","","","","","",""
"997","
  <p style=""font-size: 40px;"">cable</p>
  <p style=""font-size: 16px;"">F = YES &nbsp;&nbsp;&nbsp; J = NO</p>
","f","html-keyboard-response","43","2.1.0","121178","F=YES, J=NO","a4ocgkauu6","1","75","65","85","","","","","","lextale","true","false","","","","","","","",""
"1505","
  <p style=""font-size: 40px;"">shrivel</p>
  <p style=""font-size: 16px;"">F = YES &nbsp;&nbsp;&nbsp; J = NO</p>
","j","html-keyboard-response","44","2.1.0","122683","F=YES, J=NO","a4ocgkauu6","1","75","65","85","","","","","","lextale","true","false","","","","","","","",""
"1121","
  <p style=""font-size: 40px;"">tarnish</p>
  <p style=""font-size: 16px;"">F = YES &nbsp;&nbsp;&nbsp; J = NO</p>
","f","html-keyboard-response","45","2.1.0","123805","F=YES, J=NO","a4ocgkauu6","1","75","65","85","","","","","","lextale","true","false","","","","","","","",""
"1092","
  <p style=""font-size: 40px;"">blim</p>
  <p style=""font-size: 16px;"">F = YES &nbsp;&nbsp;&nbsp; J = NO</p>
","j","html-keyboard-response","46","2.1.0","124898","F=YES, J=NO","a4ocgkauu6","1","75","65","85","","","","","","lextale","false","false","","","","","","","",""
"4104","
  <p style=""font-size: 40px;"">stifle</p>
  <p style=""font-size: 16px;"">F = YES &nbsp;&nbsp;&nbsp; J = NO</p>
","f","html-keyboard-response","47","2.1.0","129002","F=YES, J=NO","a4ocgkauu6","1","75","65","85","","","","","","lextale","true","false","","","","","","","",""
"1087","
  <p style=""font-size: 40px;"">bint</p>
  <p style=""font-size: 16px;"">F = YES &nbsp;&nbsp;&nbsp; J = NO</p>
","j","html-keyboard-response","48","2.1.0","130090","F=YES, J=NO","a4ocgkauu6","1","75","65","85","","","","","","lextale","false","false","","","","","","","",""
"1022","
  <p style=""font-size: 40px;"">purple</p>
  <p style=""font-size: 16px;"">F = YES &nbsp;&nbsp;&nbsp; J = NO</p>
","f","html-keyboard-response","49","2.1.0","131113","F=YES, J=NO","a4ocgkauu6","1","75","65","85","","","","","","lextale","true","false","","","","","","","",""
"1769","
  <p style=""font-size: 40px;"">wriggle</p>
  <p style=""font-size: 16px;"">F = YES &nbsp;&nbsp;&nbsp; J = NO</p>
","f","html-keyboard-response","50","2.1.0","132883","F=YES, J=NO","a4ocgkauu6","1","75","65","85","","","","","","lextale","true","false","","","","","","","",""
"1421","
  <p style=""font-size: 40px;"">mangle</p>
  <p style=""font-size: 16px;"">F = YES &nbsp;&nbsp;&nbsp; J = NO</p>
","j","html-keyboard-response","51","2.1.0","134305","F=YES, J=NO","a4ocgkauu6","1","75","65","85","","","","","","lextale","true","false","","","","","","","",""
"1549","
  <p style=""font-size: 40px;"">shramp</p>
  <p style=""font-size: 16px;"">F = YES &nbsp;&nbsp;&nbsp; J = NO</p>
","j","html-keyboard-response","52","2.1.0","135855","F=YES, J=NO","a4ocgkauu6","1","75","65","85","","","","","","lextale","false","false","","","","","","","",""
"1071","
  <p style=""font-size: 40px;"">flirt</p>
  <p style=""font-size: 16px;"">F = YES &nbsp;&nbsp;&nbsp; J = NO</p>
","f","html-keyboard-response","53","2.1.0","136927","F=YES, J=NO","a4ocgkauu6","1","75","65","85","","","","","","lextale","true","false","","","","","","","",""
"1092","
  <p style=""font-size: 40px;"">frip</p>
  <p style=""font-size: 16px;"">F = YES &nbsp;&nbsp;&nbsp; J = NO</p>
","j","html-keyboard-response","54","2.1.0","138020","F=YES, J=NO","a4ocgkauu6","1","75","65","85","","","","","","lextale","false","false","","","","","","","",""
"826","
  <p style=""font-size: 40px;"">tangle</p>
  <p style=""font-size: 16px;"">F = YES &nbsp;&nbsp;&nbsp; J = NO</p>
","f","html-keyboard-response","55","2.1.0","138847","F=YES, J=NO","a4ocgkauu6","1","75","65","85","","","","","","lextale","true","false","","","","","","","",""
"733","
  <p style=""font-size: 40px;"">crumble</p>
  <p style=""font-size: 16px;"">F = YES &nbsp;&nbsp;&nbsp; J = NO</p>
","f","html-keyboard-response","56","2.1.0","139581","F=YES, J=NO","a4ocgkauu6","1","75","65","85","","","","","","lextale","true","false","","","","","","","",""
"721","
  <p style=""font-size: 40px;"">wrinkle</p>
  <p style=""font-size: 16px;"">F = YES &nbsp;&nbsp;&nbsp; J = NO</p>
","f","html-keyboard-response","57","2.1.0","140304","F=YES, J=NO","a4ocgkauu6","1","75","65","85","","","","","","lextale","true","false","","","","","","","",""
"1042","
  <p style=""font-size: 40px;"">slumb</p>
  <p style=""font-size: 16px;"">F = YES &nbsp;&nbsp;&nbsp; J = NO</p>
","j","html-keyboard-response","58","2.1.0","141346","F=YES, J=NO","a4ocgkauu6","1","75","65","85","","","","","","lextale","false","false","","","","","","","",""
"833","
  <p style=""font-size: 40px;"">jungle</p>
  <p style=""font-size: 16px;"">F = YES &nbsp;&nbsp;&nbsp; J = NO</p>
","f","html-keyboard-response","59","2.1.0","142179","F=YES, J=NO","a4ocgkauu6","1","75","65","85","","","","","","lextale","true","false","","","","","","","",""
"1226","
  <p style=""font-size: 40px;"">frolick</p>
  <p style=""font-size: 16px;"">F = YES &nbsp;&nbsp;&nbsp; J = NO</p>
","j","html-keyboard-response","60","2.1.0","143406","F=YES, J=NO","a4ocgkauu6","1","75","65","85","","","","","","lextale","false","false","","","","","","","",""
"2712","
      <h2>LexTALE Test Completed</h2>
      <p>Your LexTALE vocabulary score is: <strong>75%</strong></p>
      <p>Press any key to continue.</p>
    ","Enter","html-keyboard-response","61","2.1.0","146127","F=YES, J=NO","a4ocgkauu6","1","75","65","85","","","","","","","","","","","","","","","",""
"6063","
    <div style=""max-width: 800px; margin: auto; text-align: left;"">
      <h2>Break Time</h2>
      <p>You have completed the first part of the study.</p>
      <p>You may take a short <strong>30-second break</strong> before continuing.</p>
      <p>When you’re ready, press any key to continue to the final task.</p>
    </div>
  ","Enter","html-keyboard-response","62","2.1.0","152191","F=YES, J=NO","a4ocgkauu6","1","75","65","85","","","","","","","","","","","","","","","",""
"25005","
    <div style=""max-width: 800px; margin: auto; text-align: left;"">
      <h2>Part 2: Lexical Decision Task</h2>
      <p>You will now begin the second part of the study.</p>
      <p>Each trial will follow this sequence:</p>
      <ul>
        <li>A fixation cross (+) appears at the center of the screen.</li>
        <li>You will hear a short beep followed by a spoken word.</li>
        <li>A written word will appear briefly on the screen.</li>
      </ul>
      <p>Your task is to judge whether the <strong>written word</strong> is a real English word.</p>
      <p style=""margin-top: 1em;""><strong>Key responses:</strong></p>
      <ul>
        <li><strong>F</strong> = YES (real English word)</li>
        <li><strong>J</strong> = NO (not a real English word)</li>
      </ul>
      <p>Please respond as quickly and accurately as you can.</p>
      <p style=""margin-top: 2em;"">Press any key to continue.</p>
    </div>
  ","Enter","html-keyboard-response","63","2.1.0","177201","F=YES, J=NO","a4ocgkauu6","1","75","65","85","","","","","","","","","","","","","","","",""
"9042","
    <div style=""max-width: 800px; margin: auto; text-align: left;"">
      <h2>Before You Begin</h2>
      <p>Make sure your sound is turned on.</p>
      <p>You will hear audio during each trial, but your decision should be based only on the <strong>written word</strong> you see on the screen.</p>
      <p><strong>Reminder:</strong></p>
      <ul>
        <li><strong>F</strong> = YES (real English word)</li>
        <li><strong>J</strong> = NO (not a real English word)</li>
      </ul>
      <p style=""margin-top: 2em;"">Press any key when you are ready to begin.</p>
    </div>
  ","Enter","html-keyboard-response","64","2.1.0","186245","F=YES, J=NO","a4ocgkauu6","1","75","65","85","","","","","","","","","","","","","","","",""
"2048","
    <div style=""max-width: 800px; margin: auto; text-align: left;"">
      <h2>Part 2: Practice Trials</h2>
      <p>You will now complete a few <strong>practice trials</strong> to get familiar with the task.</p>
      <p>These trials are <strong>not scored</strong> and are only to help you get used to the format.</p>
      <p style=""margin-top: 2em;"">Press any key to begin.</p>
    </div>
  ","Enter","html-keyboard-response","65","2.1.0","188295","F=YES, J=NO","a4ocgkauu6","1","75","65","85","","","","","","","","","","","","","","","",""
"1894","<p>Starting practice block 1 of 2. Press any key to continue.</p>","Enter","html-keyboard-response","66","2.1.0","190191","F=YES, J=NO","a4ocgkauu6","1","75","65","85","","","","","","","","","","","","","","","",""
"null","<p style=""font-size: 50px;"">+</p>","null","html-keyboard-response","67","2.1.0","190507","F=YES, J=NO","a4ocgkauu6","1","75","65","85","","","","","","","","","","","","","","","",""
"null","audio/beep-329314.mp3","null","audio-keyboard-response","68","2.1.0","192373","F=YES, J=NO","a4ocgkauu6","1","75","65","85","","","","","","","","","","","","","","","",""
"null","audio/foot1.wav","null","audio-keyboard-response","69","2.1.0","192976","F=YES, J=NO","a4ocgkauu6","1","75","65","85","","","","","","","","","","","","","","","",""
"null","
          <p id=""word"" style=""font-size: 40px;"">thrutt</p>
          <p style=""font-size: 16px;"">F = YES &nbsp;&nbsp;&nbsp; J = NO</p>
        ","null","html-keyboard-response","70","2.1.0","194484","F=YES, J=NO","a4ocgkauu6","1","75","65","85","","","","","","","","","thrutt","foot1","pseudoword","pseudoword","j","false","",""
"null","<p style=""font-size: 50px;"">+</p>","null","html-keyboard-response","71","2.1.0","194800","F=YES, J=NO","a4ocgkauu6","1","75","65","85","","","","","","","","","","","","","","","",""
"null","audio/beep-329314.mp3","null","audio-keyboard-response","72","2.1.0","196326","F=YES, J=NO","a4ocgkauu6","1","75","65","85","","","","","","","","","","","","","","","",""
"null","audio/kettle1.wav","null","audio-keyboard-response","73","2.1.0","196855","F=YES, J=NO","a4ocgkauu6","1","75","65","85","","","","","","","","","","","","","","","",""
"795","
          <p id=""word"" style=""font-size: 40px;"">wrap</p>
          <p style=""font-size: 16px;"">F = YES &nbsp;&nbsp;&nbsp; J = NO</p>
        ","f","html-keyboard-response","74","2.1.0","197651","F=YES, J=NO","a4ocgkauu6","1","75","65","85","","","","","","","","","wrap","kettle1","filler","filler","f","true","",""
"null","<p style=""font-size: 50px;"">+</p>","null","html-keyboard-response","75","2.1.0","197965","F=YES, J=NO","a4ocgkauu6","1","75","65","85","","","","","","","","","","","","","","","",""
"null","audio/beep-329314.mp3","null","audio-keyboard-response","76","2.1.0","199505","F=YES, J=NO","a4ocgkauu6","1","75","65","85","","","","","","","","","","","","","","","",""
"null","audio/sand.wav","null","audio-keyboard-response","77","2.1.0","200255","F=YES, J=NO","a4ocgkauu6","1","75","65","85","","","","","","","","","","","","","","","",""
"null","
          <p id=""word"" style=""font-size: 40px;"">proted</p>
          <p style=""font-size: 16px;"">F = YES &nbsp;&nbsp;&nbsp; J = NO</p>
        ","null","html-keyboard-response","78","2.1.0","201772","F=YES, J=NO","a4ocgkauu6","1","75","65","85","","","","","","","","","proted","sand","pseudoword","pseudoword","j","false","",""
"null","<p style=""font-size: 50px;"">+</p>","null","html-keyboard-response","79","2.1.0","202080","F=YES, J=NO","a4ocgkauu6","1","75","65","85","","","","","","","","","","","","","","","",""
"null","audio/beep-329314.mp3","null","audio-keyboard-response","80","2.1.0","203605","F=YES, J=NO","a4ocgkauu6","1","75","65","85","","","","","","","","","","","","","","","",""
"null","audio/baby.wav","null","audio-keyboard-response","81","2.1.0","204196","F=YES, J=NO","a4ocgkauu6","1","75","65","85","","","","","","","","","","","","","","","",""
"699","
          <p id=""word"" style=""font-size: 40px;"">lift</p>
          <p style=""font-size: 16px;"">F = YES &nbsp;&nbsp;&nbsp; J = NO</p>
        ","f","html-keyboard-response","82","2.1.0","204897","F=YES, J=NO","a4ocgkauu6","1","75","65","85","","","","","","","","","lift","baby","filler","filler","f","true","",""
"null","<p style=""font-size: 50px;"">+</p>","null","html-keyboard-response","83","2.1.0","205202","F=YES, J=NO","a4ocgkauu6","1","75","65","85","","","","","","","","","","","","","","","",""
"null","audio/beep-329314.mp3","null","audio-keyboard-response","84","2.1.0","206726","F=YES, J=NO","a4ocgkauu6","1","75","65","85","","","","","","","","","","","","","","","",""
"null","audio/cloud1.wav","null","audio-keyboard-response","85","2.1.0","207296","F=YES, J=NO","a4ocgkauu6","1","75","65","85","","","","","","","","","","","","","","","",""
"740","
          <p id=""word"" style=""font-size: 40px;"">brotant</p>
          <p style=""font-size: 16px;"">F = YES &nbsp;&nbsp;&nbsp; J = NO</p>
        ","j","html-keyboard-response","86","2.1.0","208037","F=YES, J=NO","a4ocgkauu6","1","75","65","85","","","","","","","","","brotant","cloud1","pseudoword","pseudoword","j","true","",""
"null","<p style=""font-size: 50px;"">+</p>","null","html-keyboard-response","87","2.1.0","208347","F=YES, J=NO","a4ocgkauu6","1","75","65","85","","","","","","","","","","","","","","","",""
"null","audio/beep-329314.mp3","null","audio-keyboard-response","88","2.1.0","209886","F=YES, J=NO","a4ocgkauu6","1","75","65","85","","","","","","","","","","","","","","","",""
"null","audio/bottle.wav","null","audio-keyboard-response","89","2.1.0","210476","F=YES, J=NO","a4ocgkauu6","1","75","65","85","","","","","","","","","","","","","","","",""
"512","
          <p id=""word"" style=""font-size: 40px;"">watch</p>
          <p style=""font-size: 16px;"">F = YES &nbsp;&nbsp;&nbsp; J = NO</p>
        ","f","html-keyboard-response","90","2.1.0","210990","F=YES, J=NO","a4ocgkauu6","1","75","65","85","","","","","","","","","watch","bottle","filler","filler","f","true","",""
"null","<p style=""font-size: 50px;"">+</p>","null","html-keyboard-response","91","2.1.0","211301","F=YES, J=NO","a4ocgkauu6","1","75","65","85","","","","","","","","","","","","","","","",""
"null","audio/beep-329314.mp3","null","audio-keyboard-response","92","2.1.0","212826","F=YES, J=NO","a4ocgkauu6","1","75","65","85","","","","","","","","","","","","","","","",""
"null","audio/purpose.wav","null","audio-keyboard-response","93","2.1.0","213536","F=YES, J=NO","a4ocgkauu6","1","75","65","85","","","","","","","","","","","","","","","",""
"775","
          <p id=""word"" style=""font-size: 40px;"">whigm</p>
          <p style=""font-size: 16px;"">F = YES &nbsp;&nbsp;&nbsp; J = NO</p>
        ","j","html-keyboard-response","94","2.1.0","214312","F=YES, J=NO","a4ocgkauu6","1","75","65","85","","","","","","","","","whigm","purpose","pseudoword","pseudoword","j","true","",""
"null","<p style=""font-size: 50px;"">+</p>","null","html-keyboard-response","95","2.1.0","214623","F=YES, J=NO","a4ocgkauu6","1","75","65","85","","","","","","","","","","","","","","","",""
"null","audio/beep-329314.mp3","null","audio-keyboard-response","96","2.1.0","216146","F=YES, J=NO","a4ocgkauu6","1","75","65","85","","","","","","","","","","","","","","","",""
"null","audio/age1.wav","null","audio-keyboard-response","97","2.1.0","216696","F=YES, J=NO","a4ocgkauu6","1","75","65","85","","","","","","","","","","","","","","","",""
"497","
          <p id=""word"" style=""font-size: 40px;"">bake</p>
          <p style=""font-size: 16px;"">F = YES &nbsp;&nbsp;&nbsp; J = NO</p>
        ","f","html-keyboard-response","98","2.1.0","217195","F=YES, J=NO","a4ocgkauu6","1","75","65","85","","","","","","","","","bake","age1","filler","filler","f","true","",""
"null","<p style=""font-size: 50px;"">+</p>","null","html-keyboard-response","99","2.1.0","217497","F=YES, J=NO","a4ocgkauu6","1","75","65","85","","","","","","","","","","","","","","","",""
"null","audio/beep-329314.mp3","null","audio-keyboard-response","100","2.1.0","219026","F=YES, J=NO","a4ocgkauu6","1","75","65","85","","","","","","","","","","","","","","","",""
"null","audio/floor.wav","null","audio-keyboard-response","101","2.1.0","219696","F=YES, J=NO","a4ocgkauu6","1","75","65","85","","","","","","","","","","","","","","","",""
"813","
          <p id=""word"" style=""font-size: 40px;"">mop</p>
          <p style=""font-size: 16px;"">F = YES &nbsp;&nbsp;&nbsp; J = NO</p>
        ","f","html-keyboard-response","102","2.1.0","220511","F=YES, J=NO","a4ocgkauu6","1","75","65","85","","","","","","","","","mop","floor","filler","filler","f","true","",""
"null","<p style=""font-size: 50px;"">+</p>","null","html-keyboard-response","103","2.1.0","220816","F=YES, J=NO","a4ocgkauu6","1","75","65","85","","","","","","","","","","","","","","","",""
"null","audio/beep-329314.mp3","null","audio-keyboard-response","104","2.1.0","222346","F=YES, J=NO","a4ocgkauu6","1","75","65","85","","","","","","","","","","","","","","","",""
"null","audio/stain.wav","null","audio-keyboard-response","105","2.1.0","223016","F=YES, J=NO","a4ocgkauu6","1","75","65","85","","","","","","","","","","","","","","","",""
"800","
          <p id=""word"" style=""font-size: 40px;"">rumpsied</p>
          <p style=""font-size: 16px;"">F = YES &nbsp;&nbsp;&nbsp; J = NO</p>
        ","j","html-keyboard-response","106","2.1.0","223817","F=YES, J=NO","a4ocgkauu6","1","75","65","85","","","","","","","","","rumpsied","stain","pseudoword","pseudoword","j","true","",""
"null","<p style=""font-size: 50px;"">+</p>","null","html-keyboard-response","107","2.1.0","224130","F=YES, J=NO","a4ocgkauu6","1","75","65","85","","","","","","","","","","","","","","","",""
"null","audio/beep-329314.mp3","null","audio-keyboard-response","108","2.1.0","225666","F=YES, J=NO","a4ocgkauu6","1","75","65","85","","","","","","","","","","","","","","","",""
"null","audio/bridge.wav","null","audio-keyboard-response","109","2.1.0","226256","F=YES, J=NO","a4ocgkauu6","1","75","65","85","","","","","","","","","","","","","","","",""
"713","
          <p id=""word"" style=""font-size: 40px;"">crack</p>
          <p style=""font-size: 16px;"">F = YES &nbsp;&nbsp;&nbsp; J = NO</p>
        ","f","html-keyboard-response","110","2.1.0","226971","F=YES, J=NO","a4ocgkauu6","1","75","65","85","","","","","","","","","crack","bridge","filler","filler","f","true","",""
"null","<p style=""font-size: 50px;"">+</p>","null","html-keyboard-response","111","2.1.0","227279","F=YES, J=NO","a4ocgkauu6","1","75","65","85","","","","","","","","","","","","","","","",""
"null","audio/beep-329314.mp3","null","audio-keyboard-response","112","2.1.0","228806","F=YES, J=NO","a4ocgkauu6","1","75","65","85","","","","","","","","","","","","","","","",""
"null","audio/camera1.wav","null","audio-keyboard-response","113","2.1.0","229416","F=YES, J=NO","a4ocgkauu6","1","75","65","85","","","","","","","","","","","","","","","",""
"934","
          <p id=""word"" style=""font-size: 40px;"">stir</p>
          <p style=""font-size: 16px;"">F = YES &nbsp;&nbsp;&nbsp; J = NO</p>
        ","f","html-keyboard-response","114","2.1.0","230352","F=YES, J=NO","a4ocgkauu6","1","75","65","85","","","","","","","","","stir","camera1","filler","filler","f","true","",""
"4358","<p>Starting practice block 2 of 2. Press any key to continue.</p>","Enter","html-keyboard-response","115","2.1.0","234711","F=YES, J=NO","a4ocgkauu6","1","75","65","85","","","","","","","","","","","","","","","",""
"null","<p style=""font-size: 50px;"">+</p>","null","html-keyboard-response","116","2.1.0","235027","F=YES, J=NO","a4ocgkauu6","1","75","65","85","","","","","","","","","","","","","","","",""
"null","audio/beep-329314.mp3","null","audio-keyboard-response","117","2.1.0","236566","F=YES, J=NO","a4ocgkauu6","1","75","65","85","","","","","","","","","","","","","","","",""
"null","audio/meal.wav","null","audio-keyboard-response","118","2.1.0","237036","F=YES, J=NO","a4ocgkauu6","1","75","65","85","","","","","","","","","","","","","","","",""
"936","
          <p id=""word"" style=""font-size: 40px;"">gallite</p>
          <p style=""font-size: 16px;"">F = YES &nbsp;&nbsp;&nbsp; J = NO</p>
        ","j","html-keyboard-response","119","2.1.0","237976","F=YES, J=NO","a4ocgkauu6","1","75","65","85","","","","","","","","","gallite","meal","pseudoword","pseudoword","j","true","",""
"null","<p style=""font-size: 50px;"">+</p>","null","html-keyboard-response","120","2.1.0","238281","F=YES, J=NO","a4ocgkauu6","1","75","65","85","","","","","","","","","","","","","","","",""
"null","audio/beep-329314.mp3","null","audio-keyboard-response","121","2.1.0","239809","F=YES, J=NO","a4ocgkauu6","1","75","65","85","","","","","","","","","","","","","","","",""
"null","audio/terrain.wav","null","audio-keyboard-response","122","2.1.0","240418","F=YES, J=NO","a4ocgkauu6","1","75","65","85","","","","","","","","","","","","","","","",""
"628","
          <p id=""word"" style=""font-size: 40px;"">twist</p>
          <p style=""font-size: 16px;"">F = YES &nbsp;&nbsp;&nbsp; J = NO</p>
        ","f","html-keyboard-response","123","2.1.0","241048","F=YES, J=NO","a4ocgkauu6","1","75","65","85","","","","","","","","","twist","terrain","filler","filler","f","true","",""
"null","<p style=""font-size: 50px;"">+</p>","null","html-keyboard-response","124","2.1.0","241362","F=YES, J=NO","a4ocgkauu6","1","75","65","85","","","","","","","","","","","","","","","",""
"null","audio/beep-329314.mp3","null","audio-keyboard-response","125","2.1.0","242889","F=YES, J=NO","a4ocgkauu6","1","75","65","85","","","","","","","","","","","","","","","",""
"null","audio/desire.wav","null","audio-keyboard-response","126","2.1.0","243518","F=YES, J=NO","a4ocgkauu6","1","75","65","85","","","","","","","","","","","","","","","",""
"610","
          <p id=""word"" style=""font-size: 40px;"">nophed</p>
          <p style=""font-size: 16px;"">F = YES &nbsp;&nbsp;&nbsp; J = NO</p>
        ","j","html-keyboard-response","127","2.1.0","244130","F=YES, J=NO","a4ocgkauu6","1","75","65","85","","","","","","","","","nophed","desire","pseudoword","pseudoword","j","true","",""
"null","<p style=""font-size: 50px;"">+</p>","null","html-keyboard-response","128","2.1.0","244447","F=YES, J=NO","a4ocgkauu6","1","75","65","85","","","","","","","","","","","","","","","",""
"null","audio/beep-329314.mp3","null","audio-keyboard-response","129","2.1.0","245989","F=YES, J=NO","a4ocgkauu6","1","75","65","85","","","","","","","","","","","","","","","",""
"null","audio/bush1.wav","null","audio-keyboard-response","130","2.1.0","246558","F=YES, J=NO","a4ocgkauu6","1","75","65","85","","","","","","","","","","","","","","","",""
"997","
          <p id=""word"" style=""font-size: 40px;"">platined</p>
          <p style=""font-size: 16px;"">F = YES &nbsp;&nbsp;&nbsp; J = NO</p>
        ","f","html-keyboard-response","131","2.1.0","247557","F=YES, J=NO","a4ocgkauu6","1","75","65","85","","","","","","","","","platined","bush1","pseudoword","pseudoword","j","false","",""
"null","<p style=""font-size: 50px;"">+</p>","null","html-keyboard-response","132","2.1.0","247866","F=YES, J=NO","a4ocgkauu6","1","75","65","85","","","","","","","","","","","","","","","",""
"null","audio/beep-329314.mp3","null","audio-keyboard-response","133","2.1.0","249408","F=YES, J=NO","a4ocgkauu6","1","75","65","85","","","","","","","","","","","","","","","",""
"null","audio/theory1.wav","null","audio-keyboard-response","134","2.1.0","250178","F=YES, J=NO","a4ocgkauu6","1","75","65","85","","","","","","","","","","","","","","","",""
"993","
          <p id=""word"" style=""font-size: 40px;"">scolve</p>
          <p style=""font-size: 16px;"">F = YES &nbsp;&nbsp;&nbsp; J = NO</p>
        ","f","html-keyboard-response","135","2.1.0","251173","F=YES, J=NO","a4ocgkauu6","1","75","65","85","","","","","","","","","scolve","theory1","pseudoword","pseudoword","j","false","",""
"null","<p style=""font-size: 50px;"">+</p>","null","html-keyboard-response","136","2.1.0","251478","F=YES, J=NO","a4ocgkauu6","1","75","65","85","","","","","","","","","","","","","","","",""
"null","audio/beep-329314.mp3","null","audio-keyboard-response","137","2.1.0","253009","F=YES, J=NO","a4ocgkauu6","1","75","65","85","","","","","","","","","","","","","","","",""
"null","audio/butter1.wav","null","audio-keyboard-response","138","2.1.0","253498","F=YES, J=NO","a4ocgkauu6","1","75","65","85","","","","","","","","","","","","","","","",""
"636","
          <p id=""word"" style=""font-size: 40px;"">chew</p>
          <p style=""font-size: 16px;"">F = YES &nbsp;&nbsp;&nbsp; J = NO</p>
        ","f","html-keyboard-response","139","2.1.0","254136","F=YES, J=NO","a4ocgkauu6","1","75","65","85","","","","","","","","","chew","butter1","filler","filler","f","true","",""
"null","<p style=""font-size: 50px;"">+</p>","null","html-keyboard-response","140","2.1.0","254449","F=YES, J=NO","a4ocgkauu6","1","75","65","85","","","","","","","","","","","","","","","",""
"null","audio/beep-329314.mp3","null","audio-keyboard-response","141","2.1.0","255988","F=YES, J=NO","a4ocgkauu6","1","75","65","85","","","","","","","","","","","","","","","",""
"null","audio/beach1.wav","null","audio-keyboard-response","142","2.1.0","256579","F=YES, J=NO","a4ocgkauu6","1","75","65","85","","","","","","","","","","","","","","","",""
"506","
          <p id=""word"" style=""font-size: 40px;"">drive</p>
          <p style=""font-size: 16px;"">F = YES &nbsp;&nbsp;&nbsp; J = NO</p>
        ","f","html-keyboard-response","143","2.1.0","257086","F=YES, J=NO","a4ocgkauu6","1","75","65","85","","","","","","","","","drive","beach1","filler","filler","f","true","",""
"null","<p style=""font-size: 50px;"">+</p>","null","html-keyboard-response","144","2.1.0","257394","F=YES, J=NO","a4ocgkauu6","1","75","65","85","","","","","","","","","","","","","","","",""
"null","audio/beep-329314.mp3","null","audio-keyboard-response","145","2.1.0","258928","F=YES, J=NO","a4ocgkauu6","1","75","65","85","","","","","","","","","","","","","","","",""
"null","audio/weight1.wav","null","audio-keyboard-response","146","2.1.0","259557","F=YES, J=NO","a4ocgkauu6","1","75","65","85","","","","","","","","","","","","","","","",""
"797","
          <p id=""word"" style=""font-size: 40px;"">crimsh</p>
          <p style=""font-size: 16px;"">F = YES &nbsp;&nbsp;&nbsp; J = NO</p>
        ","j","html-keyboard-response","147","2.1.0","260355","F=YES, J=NO","a4ocgkauu6","1","75","65","85","","","","","","","","","crimsh","weight1","pseudoword","pseudoword","j","true","",""
"null","<p style=""font-size: 50px;"">+</p>","null","html-keyboard-response","148","2.1.0","260659","F=YES, J=NO","a4ocgkauu6","1","75","65","85","","","","","","","","","","","","","","","",""
"null","audio/beep-329314.mp3","null","audio-keyboard-response","149","2.1.0","262189","F=YES, J=NO","a4ocgkauu6","1","75","65","85","","","","","","","","","","","","","","","",""
"null","audio/handle.wav","null","audio-keyboard-response","150","2.1.0","262839","F=YES, J=NO","a4ocgkauu6","1","75","65","85","","","","","","","","","","","","","","","",""
"1236","
          <p id=""word"" style=""font-size: 40px;"">moutes</p>
          <p style=""font-size: 16px;"">F = YES &nbsp;&nbsp;&nbsp; J = NO</p>
        ","j","html-keyboard-response","151","2.1.0","264076","F=YES, J=NO","a4ocgkauu6","1","75","65","85","","","","","","","","","moutes","handle","pseudoword","pseudoword","j","true","",""
"null","<p style=""font-size: 50px;"">+</p>","null","html-keyboard-response","152","2.1.0","264393","F=YES, J=NO","a4ocgkauu6","1","75","65","85","","","","","","","","","","","","","","","",""
"null","audio/beep-329314.mp3","null","audio-keyboard-response","153","2.1.0","265928","F=YES, J=NO","a4ocgkauu6","1","75","65","85","","","","","","","","","","","","","","","",""
"null","audio/account1.wav","null","audio-keyboard-response","154","2.1.0","266658","F=YES, J=NO","a4ocgkauu6","1","75","65","85","","","","","","","","","","","","","","","",""
"548","
          <p id=""word"" style=""font-size: 40px;"">paint</p>
          <p style=""font-size: 16px;"">F = YES &nbsp;&nbsp;&nbsp; J = NO</p>
        ","f","html-keyboard-response","155","2.1.0","267208","F=YES, J=NO","a4ocgkauu6","1","75","65","85","","","","","","","","","paint","account1","filler","filler","f","true","",""
"null","<p style=""font-size: 50px;"">+</p>","null","html-keyboard-response","156","2.1.0","267511","F=YES, J=NO","a4ocgkauu6","1","75","65","85","","","","","","","","","","","","","","","",""
"null","audio/beep-329314.mp3","null","audio-keyboard-response","157","2.1.0","269049","F=YES, J=NO","a4ocgkauu6","1","75","65","85","","","","","","","","","","","","","","","",""
"null","audio/burden.wav","null","audio-keyboard-response","158","2.1.0","269678","F=YES, J=NO","a4ocgkauu6","1","75","65","85","","","","","","","","","","","","","","","",""
"705","
          <p id=""word"" style=""font-size: 40px;"">whotth</p>
          <p style=""font-size: 16px;"">F = YES &nbsp;&nbsp;&nbsp; J = NO</p>
        ","j","html-keyboard-response","159","2.1.0","270385","F=YES, J=NO","a4ocgkauu6","1","75","65","85","","","","","","","","","whotth","burden","pseudoword","pseudoword","j","true","",""
"null","<p style=""font-size: 50px;"">+</p>","null","html-keyboard-response","160","2.1.0","270695","F=YES, J=NO","a4ocgkauu6","1","75","65","85","","","","","","","","","","","","","","","",""
"null","audio/beep-329314.mp3","null","audio-keyboard-response","161","2.1.0","272229","F=YES, J=NO","a4ocgkauu6","1","75","65","85","","","","","","","","","","","","","","","",""
"null","audio/pattern.wav","null","audio-keyboard-response","162","2.1.0","272778","F=YES, J=NO","a4ocgkauu6","1","75","65","85","","","","","","","","","","","","","","","",""
"658","
          <p id=""word"" style=""font-size: 40px;"">tug</p>
          <p style=""font-size: 16px;"">F = YES &nbsp;&nbsp;&nbsp; J = NO</p>
        ","f","html-keyboard-response","163","2.1.0","273438","F=YES, J=NO","a4ocgkauu6","1","75","65","85","","","","","","","","","tug","pattern","filler","filler","f","true","",""
"9872","
    <div style=""max-width: 800px; margin: auto; text-align: left;"">
      <h2>Part 2: Main Trials</h2>
      <p>Great job on the practice trials!</p>
      <p>You will now begin the <strong>main set of trials</strong>.</p>
      <p>Remember your key assignments:</p>
      <ul>
        <li><strong>F</strong> = YES (real English word)</li>
        <li><strong>J</strong> = NO (not a real English word)</li>
      </ul>
      <p>Try to respond as <strong>quickly and accurately</strong> as possible.</p>
      <p style=""margin-top: 2em;"">Press any key to begin the main trials.</p>
    </div>
  ","Enter","html-keyboard-response","164","2.1.0","283311","F=YES, J=NO","a4ocgkauu6","1","75","65","85","","","","","","","","","","","","","","","",""
"2774","<p>Starting main block 1 of 8. Press any key to continue.</p>","Enter","html-keyboard-response","165","2.1.0","286085","F=YES, J=NO","a4ocgkauu6","1","75","65","85","","","","","","","","","","","","","","","",""
"null","<p style=""font-size: 50px;"">+</p>","null","html-keyboard-response","166","2.1.0","286396","F=YES, J=NO","a4ocgkauu6","1","75","65","85","","","","","","","","","","","","","","","",""
"null","audio/beep-329314.mp3","null","audio-keyboard-response","167","2.1.0","287902","F=YES, J=NO","a4ocgkauu6","1","75","65","85","","","","","","","","","","","","","","","",""
"null","audio/holiday1.wav","null","audio-keyboard-response","168","2.1.0","288564","F=YES, J=NO","a4ocgkauu6","1","75","65","85","","","","","","","","","","","","","","","",""
"1020","
          <p id=""word"" style=""font-size: 40px;"">drivets</p>
          <p style=""font-size: 16px;"">F = YES &nbsp;&nbsp;&nbsp; J = NO</p>
        ","j","html-keyboard-response","169","2.1.0","289586","F=YES, J=NO","a4ocgkauu6","1","75","65","85","","","","","","","","","drivets","holiday1","pseudoword","pseudoword","j","true","",""
"null","<p style=""font-size: 50px;"">+</p>","null","html-keyboard-response","170","2.1.0","289889","F=YES, J=NO","a4ocgkauu6","1","75","65","85","","","","","","","","","","","","","","","",""
"null","audio/beep-329314.mp3","null","audio-keyboard-response","171","2.1.0","291424","F=YES, J=NO","a4ocgkauu6","1","75","65","85","","","","","","","","","","","","","","","",""
"null","audio/pig.wav","null","audio-keyboard-response","172","2.1.0","291823","F=YES, J=NO","a4ocgkauu6","1","75","65","85","","","","","","","","","","","","","","","",""
"600","
          <p id=""word"" style=""font-size: 40px;"">feed</p>
          <p style=""font-size: 16px;"">F = YES &nbsp;&nbsp;&nbsp; J = NO</p>
        ","f","html-keyboard-response","173","2.1.0","292425","F=YES, J=NO","a4ocgkauu6","1","75","65","85","","","","","","","","","feed","pig","literal","experimental","f","true","",""
"null","<p style=""font-size: 50px;"">+</p>","null","html-keyboard-response","174","2.1.0","292740","F=YES, J=NO","a4ocgkauu6","1","75","65","85","","","","","","","","","","","","","","","",""
"null","audio/beep-329314.mp3","null","audio-keyboard-response","175","2.1.0","294264","F=YES, J=NO","a4ocgkauu6","1","75","65","85","","","","","","","","","","","","","","","",""
"null","audio/pine.wav","null","audio-keyboard-response","176","2.1.0","294763","F=YES, J=NO","a4ocgkauu6","1","75","65","85","","","","","","","","","","","","","","","",""
"752","
          <p id=""word"" style=""font-size: 40px;"">crebble</p>
          <p style=""font-size: 16px;"">F = YES &nbsp;&nbsp;&nbsp; J = NO</p>
        ","j","html-keyboard-response","177","2.1.0","295517","F=YES, J=NO","a4ocgkauu6","1","75","65","85","","","","","","","","","crebble","pine","pseudoword","pseudoword","j","true","",""
"null","<p style=""font-size: 50px;"">+</p>","null","html-keyboard-response","178","2.1.0","295823","F=YES, J=NO","a4ocgkauu6","1","75","65","85","","","","","","","","","","","","","","","",""
"null","audio/beep-329314.mp3","null","audio-keyboard-response","179","2.1.0","297367","F=YES, J=NO","a4ocgkauu6","1","75","65","85","","","","","","","","","","","","","","","",""
"null","audio/stain.wav","null","audio-keyboard-response","180","2.1.0","298007","F=YES, J=NO","a4ocgkauu6","1","75","65","85","","","","","","","","","","","","","","","",""
"490","
          <p id=""word"" style=""font-size: 40px;"">wipe</p>
          <p style=""font-size: 16px;"">F = YES &nbsp;&nbsp;&nbsp; J = NO</p>
        ","f","html-keyboard-response","181","2.1.0","298498","F=YES, J=NO","a4ocgkauu6","1","75","65","85","","","","","","","","","wipe","stain","literal","experimental","f","true","",""
"null","<p style=""font-size: 50px;"">+</p>","null","html-keyboard-response","182","2.1.0","298807","F=YES, J=NO","a4ocgkauu6","1","75","65","85","","","","","","","","","","","","","","","",""
"null","audio/beep-329314.mp3","null","audio-keyboard-response","183","2.1.0","300348","F=YES, J=NO","a4ocgkauu6","1","75","65","85","","","","","","","","","","","","","","","",""
"null","audio/cash1.wav","null","audio-keyboard-response","184","2.1.0","300927","F=YES, J=NO","a4ocgkauu6","1","75","65","85","","","","","","","","","","","","","","","",""
"623","
          <p id=""word"" style=""font-size: 40px;"">invest</p>
          <p style=""font-size: 16px;"">F = YES &nbsp;&nbsp;&nbsp; J = NO</p>
        ","f","html-keyboard-response","185","2.1.0","301551","F=YES, J=NO","a4ocgkauu6","1","75","65","85","","","","","","","","","invest","cash1","literal","experimental","f","true","",""
"null","<p style=""font-size: 50px;"">+</p>","null","html-keyboard-response","186","2.1.0","301857","F=YES, J=NO","a4ocgkauu6","1","75","65","85","","","","","","","","","","","","","","","",""
"null","audio/beep-329314.mp3","null","audio-keyboard-response","187","2.1.0","303387","F=YES, J=NO","a4ocgkauu6","1","75","65","85","","","","","","","","","","","","","","","",""
"null","audio/client1.wav","null","audio-keyboard-response","188","2.1.0","304168","F=YES, J=NO","a4ocgkauu6","1","75","65","85","","","","","","","","","","","","","","","",""
"729","
          <p id=""word"" style=""font-size: 40px;"">droothe</p>
          <p style=""font-size: 16px;"">F = YES &nbsp;&nbsp;&nbsp; J = NO</p>
        ","j","html-keyboard-response","189","2.1.0","304898","F=YES, J=NO","a4ocgkauu6","1","75","65","85","","","","","","","","","droothe","client1","pseudoword","pseudoword","j","true","",""
"null","<p style=""font-size: 50px;"">+</p>","null","html-keyboard-response","190","2.1.0","305208","F=YES, J=NO","a4ocgkauu6","1","75","65","85","","","","","","","","","","","","","","","",""
"null","audio/beep-329314.mp3","null","audio-keyboard-response","191","2.1.0","306748","F=YES, J=NO","a4ocgkauu6","1","75","65","85","","","","","","","","","","","","","","","",""
"null","audio/baby.wav","null","audio-keyboard-response","192","2.1.0","307208","F=YES, J=NO","a4ocgkauu6","1","75","65","85","","","","","","","","","","","","","","","",""
"448","
          <p id=""word"" style=""font-size: 40px;"">hold</p>
          <p style=""font-size: 16px;"">F = YES &nbsp;&nbsp;&nbsp; J = NO</p>
        ","f","html-keyboard-response","193","2.1.0","307658","F=YES, J=NO","a4ocgkauu6","1","75","65","85","","","","","","","","","hold","baby","literal","experimental","f","true","",""
"null","<p style=""font-size: 50px;"">+</p>","null","html-keyboard-response","194","2.1.0","307960","F=YES, J=NO","a4ocgkauu6","1","75","65","85","","","","","","","","","","","","","","","",""
"null","audio/beep-329314.mp3","null","audio-keyboard-response","195","2.1.0","309488","F=YES, J=NO","a4ocgkauu6","1","75","65","85","","","","","","","","","","","","","","","",""
"null","audio/prisoner.wav","null","audio-keyboard-response","196","2.1.0","310008","F=YES, J=NO","a4ocgkauu6","1","75","65","85","","","","","","","","","","","","","","","",""
"1004","
          <p id=""word"" style=""font-size: 40px;"">egotian</p>
          <p style=""font-size: 16px;"">F = YES &nbsp;&nbsp;&nbsp; J = NO</p>
        ","j","html-keyboard-response","197","2.1.0","311014","F=YES, J=NO","a4ocgkauu6","1","75","65","85","","","","","","","","","egotian","prisoner","pseudoword","pseudoword","j","true","",""
"null","<p style=""font-size: 50px;"">+</p>","null","html-keyboard-response","198","2.1.0","311324","F=YES, J=NO","a4ocgkauu6","1","75","65","85","","","","","","","","","","","","","","","",""
"null","audio/beep-329314.mp3","null","audio-keyboard-response","199","2.1.0","312848","F=YES, J=NO","a4ocgkauu6","1","75","65","85","","","","","","","","","","","","","","","",""
"null","audio/train.wav","null","audio-keyboard-response","200","2.1.0","313368","F=YES, J=NO","a4ocgkauu6","1","75","65","85","","","","","","","","","","","","","","","",""
"482","
          <p id=""word"" style=""font-size: 40px;"">catch</p>
          <p style=""font-size: 16px;"">F = YES &nbsp;&nbsp;&nbsp; J = NO</p>
        ","f","html-keyboard-response","201","2.1.0","313852","F=YES, J=NO","a4ocgkauu6","1","75","65","85","","","","","","","","","catch","train","metaphor","experimental","f","true","",""
"null","<p style=""font-size: 50px;"">+</p>","null","html-keyboard-response","202","2.1.0","314160","F=YES, J=NO","a4ocgkauu6","1","75","65","85","","","","","","","","","","","","","","","",""
"null","audio/beep-329314.mp3","null","audio-keyboard-response","203","2.1.0","315688","F=YES, J=NO","a4ocgkauu6","1","75","65","85","","","","","","","","","","","","","","","",""
"null","audio/tomato.wav","null","audio-keyboard-response","204","2.1.0","316367","F=YES, J=NO","a4ocgkauu6","1","75","65","85","","","","","","","","","","","","","","","",""
"736","
          <p id=""word"" style=""font-size: 40px;"">gladies</p>
          <p style=""font-size: 16px;"">F = YES &nbsp;&nbsp;&nbsp; J = NO</p>
        ","j","html-keyboard-response","205","2.1.0","317104","F=YES, J=NO","a4ocgkauu6","1","75","65","85","","","","","","","","","gladies","tomato","pseudoword","pseudoword","j","true","",""
"null","<p style=""font-size: 50px;"">+</p>","null","html-keyboard-response","206","2.1.0","317410","F=YES, J=NO","a4ocgkauu6","1","75","65","85","","","","","","","","","","","","","","","",""
"null","audio/beep-329314.mp3","null","audio-keyboard-response","207","2.1.0","318948","F=YES, J=NO","a4ocgkauu6","1","75","65","85","","","","","","","","","","","","","","","",""
"null","audio/trust.wav","null","audio-keyboard-response","208","2.1.0","319788","F=YES, J=NO","a4ocgkauu6","1","75","65","85","","","","","","","","","","","","","","","",""
"806","
          <p id=""word"" style=""font-size: 40px;"">swint</p>
          <p style=""font-size: 16px;"">F = YES &nbsp;&nbsp;&nbsp; J = NO</p>
        ","j","html-keyboard-response","209","2.1.0","320595","F=YES, J=NO","a4ocgkauu6","1","75","65","85","","","","","","","","","swint","trust","pseudoword","pseudoword","j","true","",""
"null","<p style=""font-size: 50px;"">+</p>","null","html-keyboard-response","210","2.1.0","320903","F=YES, J=NO","a4ocgkauu6","1","75","65","85","","","","","","","","","","","","","","","",""
"null","audio/beep-329314.mp3","null","audio-keyboard-response","211","2.1.0","322428","F=YES, J=NO","a4ocgkauu6","1","75","65","85","","","","","","","","","","","","","","","",""
"null","audio/emotion.wav","null","audio-keyboard-response","212","2.1.0","323228","F=YES, J=NO","a4ocgkauu6","1","75","65","85","","","","","","","","","","","","","","","",""
"497","
          <p id=""word"" style=""font-size: 40px;"">bury</p>
          <p style=""font-size: 16px;"">F = YES &nbsp;&nbsp;&nbsp; J = NO</p>
        ","f","html-keyboard-response","213","2.1.0","323727","F=YES, J=NO","a4ocgkauu6","1","75","65","85","","","","","","","","","bury","emotion","metaphor","experimental","f","true","",""
"null","<p style=""font-size: 50px;"">+</p>","null","html-keyboard-response","214","2.1.0","324040","F=YES, J=NO","a4ocgkauu6","1","75","65","85","","","","","","","","","","","","","","","",""
"null","audio/beep-329314.mp3","null","audio-keyboard-response","215","2.1.0","325568","F=YES, J=NO","a4ocgkauu6","1","75","65","85","","","","","","","","","","","","","","","",""
"null","audio/mile1.wav","null","audio-keyboard-response","216","2.1.0","326068","F=YES, J=NO","a4ocgkauu6","1","75","65","85","","","","","","","","","","","","","","","",""
"490","
          <p id=""word"" style=""font-size: 40px;"">writch</p>
          <p style=""font-size: 16px;"">F = YES &nbsp;&nbsp;&nbsp; J = NO</p>
        ","f","html-keyboard-response","217","2.1.0","326560","F=YES, J=NO","a4ocgkauu6","1","75","65","85","","","","","","","","","writch","mile1","pseudoword","pseudoword","j","false","",""
"null","<p style=""font-size: 50px;"">+</p>","null","html-keyboard-response","218","2.1.0","326872","F=YES, J=NO","a4ocgkauu6","1","75","65","85","","","","","","","","","","","","","","","",""
"null","audio/beep-329314.mp3","null","audio-keyboard-response","219","2.1.0","328408","F=YES, J=NO","a4ocgkauu6","1","75","65","85","","","","","","","","","","","","","","","",""
"null","audio/noise1.wav","null","audio-keyboard-response","220","2.1.0","329028","F=YES, J=NO","a4ocgkauu6","1","75","65","85","","","","","","","","","","","","","","","",""
"728","
          <p id=""word"" style=""font-size: 40px;"">slintered</p>
          <p style=""font-size: 16px;"">F = YES &nbsp;&nbsp;&nbsp; J = NO</p>
        ","j","html-keyboard-response","221","2.1.0","329757","F=YES, J=NO","a4ocgkauu6","1","75","65","85","","","","","","","","","slintered","noise1","pseudoword","pseudoword","j","true","",""
"null","<p style=""font-size: 50px;"">+</p>","null","html-keyboard-response","222","2.1.0","330061","F=YES, J=NO","a4ocgkauu6","1","75","65","85","","","","","","","","","","","","","","","",""
"null","audio/beep-329314.mp3","null","audio-keyboard-response","223","2.1.0","331588","F=YES, J=NO","a4ocgkauu6","1","75","65","85","","","","","","","","","","","","","","","",""
"null","audio/heart1.wav","null","audio-keyboard-response","224","2.1.0","332228","F=YES, J=NO","a4ocgkauu6","1","75","65","85","","","","","","","","","","","","","","","",""
"494","
          <p id=""word"" style=""font-size: 40px;"">touch</p>
          <p style=""font-size: 16px;"">F = YES &nbsp;&nbsp;&nbsp; J = NO</p>
        ","f","html-keyboard-response","225","2.1.0","332724","F=YES, J=NO","a4ocgkauu6","1","75","65","85","","","","","","","","","touch","heart1","metaphor","experimental","f","true","",""
"null","<p style=""font-size: 50px;"">+</p>","null","html-keyboard-response","226","2.1.0","333038","F=YES, J=NO","a4ocgkauu6","1","75","65","85","","","","","","","","","","","","","","","",""
"null","audio/beep-329314.mp3","null","audio-keyboard-response","227","2.1.0","334568","F=YES, J=NO","a4ocgkauu6","1","75","65","85","","","","","","","","","","","","","","","",""
"null","audio/strength.wav","null","audio-keyboard-response","228","2.1.0","335308","F=YES, J=NO","a4ocgkauu6","1","75","65","85","","","","","","","","","","","","","","","",""
"767","
          <p id=""word"" style=""font-size: 40px;"">possess</p>
          <p style=""font-size: 16px;"">F = YES &nbsp;&nbsp;&nbsp; J = NO</p>
        ","f","html-keyboard-response","229","2.1.0","336076","F=YES, J=NO","a4ocgkauu6","1","75","65","85","","","","","","","","","possess","strength","metaphor","experimental","f","true","",""
"4297","<p>Excellent! You have finished block 1 of 8.</p>
                     <p>Feel free to take a 30 second break.</p>
                     <p>Press any key when you're ready to continue.</p>","Enter","html-keyboard-response","230","2.1.0","340375","F=YES, J=NO","a4ocgkauu6","1","75","65","85","","","","","","","","","","","","","","","",""
"2378","<p>Starting main block 2 of 8. Press any key to continue.</p>","Enter","html-keyboard-response","231","2.1.0","342754","F=YES, J=NO","a4ocgkauu6","1","75","65","85","","","","","","","","","","","","","","","",""
"null","<p style=""font-size: 50px;"">+</p>","null","html-keyboard-response","232","2.1.0","343070","F=YES, J=NO","a4ocgkauu6","1","75","65","85","","","","","","","","","","","","","","","",""
"null","audio/beep-329314.mp3","null","audio-keyboard-response","233","2.1.0","344608","F=YES, J=NO","a4ocgkauu6","1","75","65","85","","","","","","","","","","","","","","","",""
"null","audio/beach1.wav","null","audio-keyboard-response","234","2.1.0","345188","F=YES, J=NO","a4ocgkauu6","1","75","65","85","","","","","","","","","","","","","","","",""
"557","
          <p id=""word"" style=""font-size: 40px;"">cut</p>
          <p style=""font-size: 16px;"">F = YES &nbsp;&nbsp;&nbsp; J = NO</p>
        ","f","html-keyboard-response","235","2.1.0","345747","F=YES, J=NO","a4ocgkauu6","1","75","65","85","","","","","","","","","cut","beach1","unrelated","experimental","f","true","",""
"null","<p style=""font-size: 50px;"">+</p>","null","html-keyboard-response","236","2.1.0","346054","F=YES, J=NO","a4ocgkauu6","1","75","65","85","","","","","","","","","","","","","","","",""
"null","audio/beep-329314.mp3","null","audio-keyboard-response","237","2.1.0","347588","F=YES, J=NO","a4ocgkauu6","1","75","65","85","","","","","","","","","","","","","","","",""
"null","audio/pine.wav","null","audio-keyboard-response","238","2.1.0","348068","F=YES, J=NO","a4ocgkauu6","1","75","65","85","","","","","","","","","","","","","","","",""
"904","
          <p id=""word"" style=""font-size: 40px;"">weave</p>
          <p style=""font-size: 16px;"">F = YES &nbsp;&nbsp;&nbsp; J = NO</p>
        ","j","html-keyboard-response","239","2.1.0","348974","F=YES, J=NO","a4ocgkauu6","1","75","65","85","","","","","","","","","weave","pine","unrelated","experimental","f","false","",""
"null","<p style=""font-size: 50px;"">+</p>","null","html-keyboard-response","240","2.1.0","349286","F=YES, J=NO","a4ocgkauu6","1","75","65","85","","","","","","","","","","","","","","","",""
"null","audio/beep-329314.mp3","null","audio-keyboard-response","241","2.1.0","350829","F=YES, J=NO","a4ocgkauu6","1","75","65","85","","","","","","","","","","","","","","","",""
"null","audio/cave1.wav","null","audio-keyboard-response","242","2.1.0","351388","F=YES, J=NO","a4ocgkauu6","1","75","65","85","","","","","","","","","","","","","","","",""
"512","
          <p id=""word"" style=""font-size: 40px;"">blacket</p>
          <p style=""font-size: 16px;"">F = YES &nbsp;&nbsp;&nbsp; J = NO</p>
        ","f","html-keyboard-response","243","2.1.0","351901","F=YES, J=NO","a4ocgkauu6","1","75","65","85","","","","","","","","","blacket","cave1","pseudoword","pseudoword","j","false","",""
"null","<p style=""font-size: 50px;"">+</p>","null","html-keyboard-response","244","2.1.0","352203","F=YES, J=NO","a4ocgkauu6","1","75","65","85","","","","","","","","","","","","","","","",""
"null","audio/beep-329314.mp3","null","audio-keyboard-response","245","2.1.0","353728","F=YES, J=NO","a4ocgkauu6","1","75","65","85","","","","","","","","","","","","","","","",""
"null","audio/pig.wav","null","audio-keyboard-response","246","2.1.0","354108","F=YES, J=NO","a4ocgkauu6","1","75","65","85","","","","","","","","","","","","","","","",""
"789","
          <p id=""word"" style=""font-size: 40px;"">tirlike</p>
          <p style=""font-size: 16px;"">F = YES &nbsp;&nbsp;&nbsp; J = NO</p>
        ","j","html-keyboard-response","247","2.1.0","354899","F=YES, J=NO","a4ocgkauu6","1","75","65","85","","","","","","","","","tirlike","pig","pseudoword","pseudoword","j","true","",""
"null","<p style=""font-size: 50px;"">+</p>","null","html-keyboard-response","248","2.1.0","355204","F=YES, J=NO","a4ocgkauu6","1","75","65","85","","","","","","","","","","","","","","","",""
"null","audio/beep-329314.mp3","null","audio-keyboard-response","249","2.1.0","356728","F=YES, J=NO","a4ocgkauu6","1","75","65","85","","","","","","","","","","","","","","","",""
"null","audio/inch1.wav","null","audio-keyboard-response","250","2.1.0","357328","F=YES, J=NO","a4ocgkauu6","1","75","65","85","","","","","","","","","","","","","","","",""
"467","
          <p id=""word"" style=""font-size: 40px;"">lose</p>
          <p style=""font-size: 16px;"">F = YES &nbsp;&nbsp;&nbsp; J = NO</p>
        ","f","html-keyboard-response","251","2.1.0","357801","F=YES, J=NO","a4ocgkauu6","1","75","65","85","","","","","","","","","lose","inch1","metaphor","experimental","f","true","",""
"null","<p style=""font-size: 50px;"">+</p>","null","html-keyboard-response","252","2.1.0","358105","F=YES, J=NO","a4ocgkauu6","1","75","65","85","","","","","","","","","","","","","","","",""
"null","audio/beep-329314.mp3","null","audio-keyboard-response","253","2.1.0","359633","F=YES, J=NO","a4ocgkauu6","1","75","65","85","","","","","","","","","","","","","","","",""
"null","audio/ankle1.wav","null","audio-keyboard-response","254","2.1.0","360373","F=YES, J=NO","a4ocgkauu6","1","75","65","85","","","","","","","","","","","","","","","",""
"479","
          <p id=""word"" style=""font-size: 40px;"">kick</p>
          <p style=""font-size: 16px;"">F = YES &nbsp;&nbsp;&nbsp; J = NO</p>
        ","f","html-keyboard-response","255","2.1.0","360854","F=YES, J=NO","a4ocgkauu6","1","75","65","85","","","","","","","","","kick","ankle1","filler","filler","f","true","",""
"null","<p style=""font-size: 50px;"">+</p>","null","html-keyboard-response","256","2.1.0","361156","F=YES, J=NO","a4ocgkauu6","1","75","65","85","","","","","","","","","","","","","","","",""
"null","audio/beep-329314.mp3","null","audio-keyboard-response","257","2.1.0","362692","F=YES, J=NO","a4ocgkauu6","1","75","65","85","","","","","","","","","","","","","","","",""
"null","audio/terrain.wav","null","audio-keyboard-response","258","2.1.0","363273","F=YES, J=NO","a4ocgkauu6","1","75","65","85","","","","","","","","","","","","","","","",""
"741","
          <p id=""word"" style=""font-size: 40px;"">navigate</p>
          <p style=""font-size: 16px;"">F = YES &nbsp;&nbsp;&nbsp; J = NO</p>
        ","f","html-keyboard-response","259","2.1.0","364015","F=YES, J=NO","a4ocgkauu6","1","75","65","85","","","","","","","","","navigate","terrain","literal","experimental","f","true","",""
"null","<p style=""font-size: 50px;"">+</p>","null","html-keyboard-response","260","2.1.0","364322","F=YES, J=NO","a4ocgkauu6","1","75","65","85","","","","","","","","","","","","","","","",""
"null","audio/beep-329314.mp3","null","audio-keyboard-response","261","2.1.0","365853","F=YES, J=NO","a4ocgkauu6","1","75","65","85","","","","","","","","","","","","","","","",""
"null","audio/cinema1.wav","null","audio-keyboard-response","262","2.1.0","366613","F=YES, J=NO","a4ocgkauu6","1","75","65","85","","","","","","","","","","","","","","","",""
"749","
          <p id=""word"" style=""font-size: 40px;"">murple</p>
          <p style=""font-size: 16px;"">F = YES &nbsp;&nbsp;&nbsp; J = NO</p>
        ","j","html-keyboard-response","263","2.1.0","367363","F=YES, J=NO","a4ocgkauu6","1","75","65","85","","","","","","","","","murple","cinema1","pseudoword","pseudoword","j","true","",""
"null","<p style=""font-size: 50px;"">+</p>","null","html-keyboard-response","264","2.1.0","367671","F=YES, J=NO","a4ocgkauu6","1","75","65","85","","","","","","","","","","","","","","","",""
"null","audio/beep-329314.mp3","null","audio-keyboard-response","265","2.1.0","369213","F=YES, J=NO","a4ocgkauu6","1","75","65","85","","","","","","","","","","","","","","","",""
"null","audio/birth1.wav","null","audio-keyboard-response","266","2.1.0","369773","F=YES, J=NO","a4ocgkauu6","1","75","65","85","","","","","","","","","","","","","","","",""
"631","
          <p id=""word"" style=""font-size: 40px;"">peel</p>
          <p style=""font-size: 16px;"">F = YES &nbsp;&nbsp;&nbsp; J = NO</p>
        ","f","html-keyboard-response","267","2.1.0","370405","F=YES, J=NO","a4ocgkauu6","1","75","65","85","","","","","","","","","peel","birth1","filler","filler","f","true","",""
"null","<p style=""font-size: 50px;"">+</p>","null","html-keyboard-response","268","2.1.0","370718","F=YES, J=NO","a4ocgkauu6","1","75","65","85","","","","","","","","","","","","","","","",""
"null","audio/beep-329314.mp3","null","audio-keyboard-response","269","2.1.0","372253","F=YES, J=NO","a4ocgkauu6","1","75","65","85","","","","","","","","","","","","","","","",""
"null","audio/meal.wav","null","audio-keyboard-response","270","2.1.0","372693","F=YES, J=NO","a4ocgkauu6","1","75","65","85","","","","","","","","","","","","","","","",""
"629","
          <p id=""word"" style=""font-size: 40px;"">share</p>
          <p style=""font-size: 16px;"">F = YES &nbsp;&nbsp;&nbsp; J = NO</p>
        ","f","html-keyboard-response","271","2.1.0","373323","F=YES, J=NO","a4ocgkauu6","1","75","65","85","","","","","","","","","share","meal","literal","experimental","f","true","",""
"null","<p style=""font-size: 50px;"">+</p>","null","html-keyboard-response","272","2.1.0","373630","F=YES, J=NO","a4ocgkauu6","1","75","65","85","","","","","","","","","","","","","","","",""
"null","audio/beep-329314.mp3","null","audio-keyboard-response","273","2.1.0","375172","F=YES, J=NO","a4ocgkauu6","1","75","65","85","","","","","","","","","","","","","","","",""
"null","audio/foot1.wav","null","audio-keyboard-response","274","2.1.0","375731","F=YES, J=NO","a4ocgkauu6","1","75","65","85","","","","","","","","","","","","","","","",""
"547","
          <p id=""word"" style=""font-size: 40px;"">close</p>
          <p style=""font-size: 16px;"">F = YES &nbsp;&nbsp;&nbsp; J = NO</p>
        ","f","html-keyboard-response","275","2.1.0","376279","F=YES, J=NO","a4ocgkauu6","1","75","65","85","","","","","","","","","close","foot1","unrelated","experimental","f","true","",""
"null","<p style=""font-size: 50px;"">+</p>","null","html-keyboard-response","276","2.1.0","376584","F=YES, J=NO","a4ocgkauu6","1","75","65","85","","","","","","","","","","","","","","","",""
"null","audio/beep-329314.mp3","null","audio-keyboard-response","277","2.1.0","378112","F=YES, J=NO","a4ocgkauu6","1","75","65","85","","","","","","","","","","","","","","","",""
"null","audio/soul.wav","null","audio-keyboard-response","278","2.1.0","378691","F=YES, J=NO","a4ocgkauu6","1","75","65","85","","","","","","","","","","","","","","","",""
"490","
          <p id=""word"" style=""font-size: 40px;"">sell</p>
          <p style=""font-size: 16px;"">F = YES &nbsp;&nbsp;&nbsp; J = NO</p>
        ","f","html-keyboard-response","279","2.1.0","379183","F=YES, J=NO","a4ocgkauu6","1","75","65","85","","","","","","","","","sell","soul","metaphor","experimental","f","true","",""
"null","<p style=""font-size: 50px;"">+</p>","null","html-keyboard-response","280","2.1.0","379485","F=YES, J=NO","a4ocgkauu6","1","75","65","85","","","","","","","","","","","","","","","",""
"null","audio/beep-329314.mp3","null","audio-keyboard-response","281","2.1.0","381013","F=YES, J=NO","a4ocgkauu6","1","75","65","85","","","","","","","","","","","","","","","",""
"null","audio/gossip1.wav","null","audio-keyboard-response","282","2.1.0","381853","F=YES, J=NO","a4ocgkauu6","1","75","65","85","","","","","","","","","","","","","","","",""
"617","
          <p id=""word"" style=""font-size: 40px;"">camerish</p>
          <p style=""font-size: 16px;"">F = YES &nbsp;&nbsp;&nbsp; J = NO</p>
        ","j","html-keyboard-response","283","2.1.0","382472","F=YES, J=NO","a4ocgkauu6","1","75","65","85","","","","","","","","","camerish","gossip1","pseudoword","pseudoword","j","true","",""
"null","<p style=""font-size: 50px;"">+</p>","null","html-keyboard-response","284","2.1.0","382785","F=YES, J=NO","a4ocgkauu6","1","75","65","85","","","","","","","","","","","","","","","",""
"null","audio/beep-329314.mp3","null","audio-keyboard-response","285","2.1.0","384313","F=YES, J=NO","a4ocgkauu6","1","75","65","85","","","","","","","","","","","","","","","",""
"null","audio/emotion.wav","null","audio-keyboard-response","286","2.1.0","384953","F=YES, J=NO","a4ocgkauu6","1","75","65","85","","","","","","","","","","","","","","","",""
"842","
          <p id=""word"" style=""font-size: 40px;"">devering</p>
          <p style=""font-size: 16px;"">F = YES &nbsp;&nbsp;&nbsp; J = NO</p>
        ","j","html-keyboard-response","287","2.1.0","385797","F=YES, J=NO","a4ocgkauu6","1","75","65","85","","","","","","","","","devering","emotion","pseudoword","pseudoword","j","true","",""
"null","<p style=""font-size: 50px;"">+</p>","null","html-keyboard-response","288","2.1.0","386103","F=YES, J=NO","a4ocgkauu6","1","75","65","85","","","","","","","","","","","","","","","",""
"null","audio/beep-329314.mp3","null","audio-keyboard-response","289","2.1.0","387633","F=YES, J=NO","a4ocgkauu6","1","75","65","85","","","","","","","","","","","","","","","",""
"null","audio/cinema1.wav","null","audio-keyboard-response","290","2.1.0","388232","F=YES, J=NO","a4ocgkauu6","1","75","65","85","","","","","","","","","","","","","","","",""
"655","
          <p id=""word"" style=""font-size: 40px;"">grow</p>
          <p style=""font-size: 16px;"">F = YES &nbsp;&nbsp;&nbsp; J = NO</p>
        ","f","html-keyboard-response","291","2.1.0","388889","F=YES, J=NO","a4ocgkauu6","1","75","65","85","","","","","","","","","grow","cinema1","unrelated","experimental","f","true","",""
"null","<p style=""font-size: 50px;"">+</p>","null","html-keyboard-response","292","2.1.0","389198","F=YES, J=NO","a4ocgkauu6","1","75","65","85","","","","","","","","","","","","","","","",""
"null","audio/beep-329314.mp3","null","audio-keyboard-response","293","2.1.0","390733","F=YES, J=NO","a4ocgkauu6","1","75","65","85","","","","","","","","","","","","","","","",""
"null","audio/hotel1.wav","null","audio-keyboard-response","294","2.1.0","391553","F=YES, J=NO","a4ocgkauu6","1","75","65","85","","","","","","","","","","","","","","","",""
"767","
          <p id=""word"" style=""font-size: 40px;"">flanter</p>
          <p style=""font-size: 16px;"">F = YES &nbsp;&nbsp;&nbsp; J = NO</p>
        ","j","html-keyboard-response","295","2.1.0","392321","F=YES, J=NO","a4ocgkauu6","1","75","65","85","","","","","","","","","flanter","hotel1","pseudoword","pseudoword","j","true","",""
"12668","<p>Excellent! You have finished block 2 of 8.</p>
                     <p>Feel free to take a 30 second break.</p>
                     <p>Press any key when you're ready to continue.</p>"," ","html-keyboard-response","296","2.1.0","404990","F=YES, J=NO","a4ocgkauu6","1","75","65","85","","","","","","","","","","","","","","","",""
"1984","<p>Starting main block 3 of 8. Press any key to continue.</p>"," ","html-keyboard-response","297","2.1.0","406975","F=YES, J=NO","a4ocgkauu6","1","75","65","85","","","","","","","","","","","","","","","",""
"null","<p style=""font-size: 50px;"">+</p>","null","html-keyboard-response","298","2.1.0","407289","F=YES, J=NO","a4ocgkauu6","1","75","65","85","","","","","","","","","","","","","","","",""
"null","audio/beep-329314.mp3","null","audio-keyboard-response","299","2.1.0","408941","F=YES, J=NO","a4ocgkauu6","1","75","65","85","","","","","","","","","","","","","","","",""
"null","audio/alarm1.wav","null","audio-keyboard-response","300","2.1.0","409651","F=YES, J=NO","a4ocgkauu6","1","75","65","85","","","","","","","","","","","","","","","",""
"748","
          <p id=""word"" style=""font-size: 40px;"">swetp</p>
          <p style=""font-size: 16px;"">F = YES &nbsp;&nbsp;&nbsp; J = NO</p>
        ","j","html-keyboard-response","301","2.1.0","410400","F=YES, J=NO","a4ocgkauu6","1","75","65","85","","","","","","","","","swetp","alarm1","pseudoword","pseudoword","j","true","",""
"null","<p style=""font-size: 50px;"">+</p>","null","html-keyboard-response","302","2.1.0","410707","F=YES, J=NO","a4ocgkauu6","1","75","65","85","","","","","","","","","","","","","","","",""
"null","audio/beep-329314.mp3","null","audio-keyboard-response","303","2.1.0","412241","F=YES, J=NO","a4ocgkauu6","1","75","65","85","","","","","","","","","","","","","","","",""
"null","audio/arm.wav","null","audio-keyboard-response","304","2.1.0","412912","F=YES, J=NO","a4ocgkauu6","1","75","65","85","","","","","","","","","","","","","","","",""
"519","
          <p id=""word"" style=""font-size: 40px;"">fold</p>
          <p style=""font-size: 16px;"">F = YES &nbsp;&nbsp;&nbsp; J = NO</p>
        ","f","html-keyboard-response","305","2.1.0","413433","F=YES, J=NO","a4ocgkauu6","1","75","65","85","","","","","","","","","fold","arm","filler","filler","f","true","",""
"null","<p style=""font-size: 50px;"">+</p>","null","html-keyboard-response","306","2.1.0","413746","F=YES, J=NO","a4ocgkauu6","1","75","65","85","","","","","","","","","","","","","","","",""
"null","audio/beep-329314.mp3","null","audio-keyboard-response","307","2.1.0","415282","F=YES, J=NO","a4ocgkauu6","1","75","65","85","","","","","","","","","","","","","","","",""
"null","audio/strength.wav","null","audio-keyboard-response","308","2.1.0","415992","F=YES, J=NO","a4ocgkauu6","1","75","65","85","","","","","","","","","","","","","","","",""
"716","
          <p id=""word"" style=""font-size: 40px;"">plabet</p>
          <p style=""font-size: 16px;"">F = YES &nbsp;&nbsp;&nbsp; J = NO</p>
        ","j","html-keyboard-response","309","2.1.0","416710","F=YES, J=NO","a4ocgkauu6","1","75","65","85","","","","","","","","","plabet","strength","pseudoword","pseudoword","j","true","",""
"null","<p style=""font-size: 50px;"">+</p>","null","html-keyboard-response","310","2.1.0","417014","F=YES, J=NO","a4ocgkauu6","1","75","65","85","","","","","","","","","","","","","","","",""
"null","audio/beep-329314.mp3","null","audio-keyboard-response","311","2.1.0","418546","F=YES, J=NO","a4ocgkauu6","1","75","65","85","","","","","","","","","","","","","","","",""
"null","audio/dollar.wav","null","audio-keyboard-response","312","2.1.0","418936","F=YES, J=NO","a4ocgkauu6","1","75","65","85","","","","","","","","","","","","","","","",""
"726","
          <p id=""word"" style=""font-size: 40px;"">gliptism</p>
          <p style=""font-size: 16px;"">F = YES &nbsp;&nbsp;&nbsp; J = NO</p>
        ","j","html-keyboard-response","313","2.1.0","419664","F=YES, J=NO","a4ocgkauu6","1","75","65","85","","","","","","","","","gliptism","dollar","pseudoword","pseudoword","j","true","",""
"null","<p style=""font-size: 50px;"">+</p>","null","html-keyboard-response","314","2.1.0","419968","F=YES, J=NO","a4ocgkauu6","1","75","65","85","","","","","","","","","","","","","","","",""
"null","audio/beep-329314.mp3","null","audio-keyboard-response","315","2.1.0","421506","F=YES, J=NO","a4ocgkauu6","1","75","65","85","","","","","","","","","","","","","","","",""
"null","audio/foe1.wav","null","audio-keyboard-response","316","2.1.0","422216","F=YES, J=NO","a4ocgkauu6","1","75","65","85","","","","","","","","","","","","","","","",""
"746","
          <p id=""word"" style=""font-size: 40px;"">creth</p>
          <p style=""font-size: 16px;"">F = YES &nbsp;&nbsp;&nbsp; J = NO</p>
        ","j","html-keyboard-response","317","2.1.0","422964","F=YES, J=NO","a4ocgkauu6","1","75","65","85","","","","","","","","","creth","foe1","pseudoword","pseudoword","j","true","",""
"null","<p style=""font-size: 50px;"">+</p>","null","html-keyboard-response","318","2.1.0","423267","F=YES, J=NO","a4ocgkauu6","1","75","65","85","","","","","","","","","","","","","","","",""
"null","audio/beep-329314.mp3","null","audio-keyboard-response","319","2.1.0","424807","F=YES, J=NO","a4ocgkauu6","1","75","65","85","","","","","","","","","","","","","","","",""
"null","audio/novel.wav","null","audio-keyboard-response","320","2.1.0","425436","F=YES, J=NO","a4ocgkauu6","1","75","65","85","","","","","","","","","","","","","","","",""
"573","
          <p id=""word"" style=""font-size: 40px;"">type</p>
          <p style=""font-size: 16px;"">F = YES &nbsp;&nbsp;&nbsp; J = NO</p>
        ","f","html-keyboard-response","321","2.1.0","426011","F=YES, J=NO","a4ocgkauu6","1","75","65","85","","","","","","","","","type","novel","filler","filler","f","true","",""
"null","<p style=""font-size: 50px;"">+</p>","null","html-keyboard-response","322","2.1.0","426317","F=YES, J=NO","a4ocgkauu6","1","75","65","85","","","","","","","","","","","","","","","",""
"null","audio/beep-329314.mp3","null","audio-keyboard-response","323","2.1.0","427847","F=YES, J=NO","a4ocgkauu6","1","75","65","85","","","","","","","","","","","","","","","",""
"null","audio/scar.wav","null","audio-keyboard-response","324","2.1.0","428476","F=YES, J=NO","a4ocgkauu6","1","75","65","85","","","","","","","","","","","","","","","",""
"890","
          <p id=""word"" style=""font-size: 40px;"">adelineate</p>
          <p style=""font-size: 16px;"">F = YES &nbsp;&nbsp;&nbsp; J = NO</p>
        ","j","html-keyboard-response","325","2.1.0","429369","F=YES, J=NO","a4ocgkauu6","1","75","65","85","","","","","","","","","adelineate","scar","pseudoword","pseudoword","j","true","",""
"null","<p style=""font-size: 50px;"">+</p>","null","html-keyboard-response","326","2.1.0","429685","F=YES, J=NO","a4ocgkauu6","1","75","65","85","","","","","","","","","","","","","","","",""
"null","audio/beep-329314.mp3","null","audio-keyboard-response","327","2.1.0","431227","F=YES, J=NO","a4ocgkauu6","1","75","65","85","","","","","","","","","","","","","","","",""
"null","audio/breath.wav","null","audio-keyboard-response","328","2.1.0","431997","F=YES, J=NO","a4ocgkauu6","1","75","65","85","","","","","","","","","","","","","","","",""
"547","
          <p id=""word"" style=""font-size: 40px;"">pack</p>
          <p style=""font-size: 16px;"">F = YES &nbsp;&nbsp;&nbsp; J = NO</p>
        ","f","html-keyboard-response","329","2.1.0","432545","F=YES, J=NO","a4ocgkauu6","1","75","65","85","","","","","","","","","pack","breath","filler","filler","f","true","",""
"null","<p style=""font-size: 50px;"">+</p>","null","html-keyboard-response","330","2.1.0","432862","F=YES, J=NO","a4ocgkauu6","1","75","65","85","","","","","","","","","","","","","","","",""
"null","audio/beep-329314.mp3","null","audio-keyboard-response","331","2.1.0","434387","F=YES, J=NO","a4ocgkauu6","1","75","65","85","","","","","","","","","","","","","","","",""
"null","audio/promise1.wav","null","audio-keyboard-response","332","2.1.0","435037","F=YES, J=NO","a4ocgkauu6","1","75","65","85","","","","","","","","","","","","","","","",""
"509","
          <p id=""word"" style=""font-size: 40px;"">break</p>
          <p style=""font-size: 16px;"">F = YES &nbsp;&nbsp;&nbsp; J = NO</p>
        ","f","html-keyboard-response","333","2.1.0","435547","F=YES, J=NO","a4ocgkauu6","1","75","65","85","","","","","","","","","break","promise1","metaphor","experimental","f","true","",""
"null","<p style=""font-size: 50px;"">+</p>","null","html-keyboard-response","334","2.1.0","435851","F=YES, J=NO","a4ocgkauu6","1","75","65","85","","","","","","","","","","","","","","","",""
"null","audio/beep-329314.mp3","null","audio-keyboard-response","335","2.1.0","437387","F=YES, J=NO","a4ocgkauu6","1","75","65","85","","","","","","","","","","","","","","","",""
"null","audio/topic.wav","null","audio-keyboard-response","336","2.1.0","437996","F=YES, J=NO","a4ocgkauu6","1","75","65","85","","","","","","","","","","","","","","","",""
"522","
          <p id=""word"" style=""font-size: 40px;"">approach</p>
          <p style=""font-size: 16px;"">F = YES &nbsp;&nbsp;&nbsp; J = NO</p>
        ","f","html-keyboard-response","337","2.1.0","438520","F=YES, J=NO","a4ocgkauu6","1","75","65","85","","","","","","","","","approach","topic","metaphor","experimental","f","true","",""
"null","<p style=""font-size: 50px;"">+</p>","null","html-keyboard-response","338","2.1.0","438832","F=YES, J=NO","a4ocgkauu6","1","75","65","85","","","","","","","","","","","","","","","",""
"null","audio/beep-329314.mp3","null","audio-keyboard-response","339","2.1.0","440367","F=YES, J=NO","a4ocgkauu6","1","75","65","85","","","","","","","","","","","","","","","",""
"null","audio/skin1.wav","null","audio-keyboard-response","340","2.1.0","440956","F=YES, J=NO","a4ocgkauu6","1","75","65","85","","","","","","","","","","","","","","","",""
"679","
          <p id=""word"" style=""font-size: 40px;"">expose</p>
          <p style=""font-size: 16px;"">F = YES &nbsp;&nbsp;&nbsp; J = NO</p>
        ","f","html-keyboard-response","341","2.1.0","441637","F=YES, J=NO","a4ocgkauu6","1","75","65","85","","","","","","","","","expose","skin1","literal","experimental","f","true","",""
"null","<p style=""font-size: 50px;"">+</p>","null","html-keyboard-response","342","2.1.0","441943","F=YES, J=NO","a4ocgkauu6","1","75","65","85","","","","","","","","","","","","","","","",""
"null","audio/beep-329314.mp3","null","audio-keyboard-response","343","2.1.0","443467","F=YES, J=NO","a4ocgkauu6","1","75","65","85","","","","","","","","","","","","","","","",""
"null","audio/corpse1.wav","null","audio-keyboard-response","344","2.1.0","444296","F=YES, J=NO","a4ocgkauu6","1","75","65","85","","","","","","","","","","","","","","","",""
"690","
          <p id=""word"" style=""font-size: 40px;"">glonet</p>
          <p style=""font-size: 16px;"">F = YES &nbsp;&nbsp;&nbsp; J = NO</p>
        ","j","html-keyboard-response","345","2.1.0","444988","F=YES, J=NO","a4ocgkauu6","1","75","65","85","","","","","","","","","glonet","corpse1","pseudoword","pseudoword","j","true","",""
"null","<p style=""font-size: 50px;"">+</p>","null","html-keyboard-response","346","2.1.0","445299","F=YES, J=NO","a4ocgkauu6","1","75","65","85","","","","","","","","","","","","","","","",""
"null","audio/beep-329314.mp3","null","audio-keyboard-response","347","2.1.0","446827","F=YES, J=NO","a4ocgkauu6","1","75","65","85","","","","","","","","","","","","","","","",""
"null","audio/roof1.wav","null","audio-keyboard-response","348","2.1.0","447396","F=YES, J=NO","a4ocgkauu6","1","75","65","85","","","","","","","","","","","","","","","",""
"1276","
          <p id=""word"" style=""font-size: 40px;"">construct</p>
          <p style=""font-size: 16px;"">F = YES &nbsp;&nbsp;&nbsp; J = NO</p>
        ","f","html-keyboard-response","349","2.1.0","448674","F=YES, J=NO","a4ocgkauu6","1","75","65","85","","","","","","","","","construct","roof1","literal","experimental","f","true","",""
"null","<p style=""font-size: 50px;"">+</p>","null","html-keyboard-response","350","2.1.0","448983","F=YES, J=NO","a4ocgkauu6","1","75","65","85","","","","","","","","","","","","","","","",""
"null","audio/beep-329314.mp3","null","audio-keyboard-response","351","2.1.0","450507","F=YES, J=NO","a4ocgkauu6","1","75","65","85","","","","","","","","","","","","","","","",""
"null","audio/pain1.wav","null","audio-keyboard-response","352","2.1.0","450956","F=YES, J=NO","a4ocgkauu6","1","75","65","85","","","","","","","","","","","","","","","",""
"659","
          <p id=""word"" style=""font-size: 40px;"">tritted</p>
          <p style=""font-size: 16px;"">F = YES &nbsp;&nbsp;&nbsp; J = NO</p>
        ","j","html-keyboard-response","353","2.1.0","451617","F=YES, J=NO","a4ocgkauu6","1","75","65","85","","","","","","","","","tritted","pain1","pseudoword","pseudoword","j","true","",""
"null","<p style=""font-size: 50px;"">+</p>","null","html-keyboard-response","354","2.1.0","451930","F=YES, J=NO","a4ocgkauu6","1","75","65","85","","","","","","","","","","","","","","","",""
"null","audio/beep-329314.mp3","null","audio-keyboard-response","355","2.1.0","453466","F=YES, J=NO","a4ocgkauu6","1","75","65","85","","","","","","","","","","","","","","","",""
"null","audio/bomb1.wav","null","audio-keyboard-response","356","2.1.0","453856","F=YES, J=NO","a4ocgkauu6","1","75","65","85","","","","","","","","","","","","","","","",""
"498","
          <p id=""word"" style=""font-size: 40px;"">clean</p>
          <p style=""font-size: 16px;"">F = YES &nbsp;&nbsp;&nbsp; J = NO</p>
        ","f","html-keyboard-response","357","2.1.0","454356","F=YES, J=NO","a4ocgkauu6","1","75","65","85","","","","","","","","","clean","bomb1","filler","filler","f","true","",""
"null","<p style=""font-size: 50px;"">+</p>","null","html-keyboard-response","358","2.1.0","454667","F=YES, J=NO","a4ocgkauu6","1","75","65","85","","","","","","","","","","","","","","","",""
"null","audio/beep-329314.mp3","null","audio-keyboard-response","359","2.1.0","456206","F=YES, J=NO","a4ocgkauu6","1","75","65","85","","","","","","","","","","","","","","","",""
"null","audio/roof1.wav","null","audio-keyboard-response","360","2.1.0","456716","F=YES, J=NO","a4ocgkauu6","1","75","65","85","","","","","","","","","","","","","","","",""
"664","
          <p id=""word"" style=""font-size: 40px;"">wronb</p>
          <p style=""font-size: 16px;"">F = YES &nbsp;&nbsp;&nbsp; J = NO</p>
        ","j","html-keyboard-response","361","2.1.0","457382","F=YES, J=NO","a4ocgkauu6","1","75","65","85","","","","","","","","","wronb","roof1","pseudoword","pseudoword","j","true","",""
"2493","<p>Excellent! You have finished block 3 of 8.</p>
                     <p>Feel free to take a 30 second break.</p>
                     <p>Press any key when you're ready to continue.</p>"," ","html-keyboard-response","362","2.1.0","459877","F=YES, J=NO","a4ocgkauu6","1","75","65","85","","","","","","","","","","","","","","","",""
"448","<p>Starting main block 4 of 8. Press any key to continue.</p>"," ","html-keyboard-response","363","2.1.0","460325","F=YES, J=NO","a4ocgkauu6","1","75","65","85","","","","","","","","","","","","","","","",""
"null","<p style=""font-size: 50px;"">+</p>","null","html-keyboard-response","364","2.1.0","460628","F=YES, J=NO","a4ocgkauu6","1","75","65","85","","","","","","","","","","","","","","","",""
"null","audio/beep-329314.mp3","null","audio-keyboard-response","365","2.1.0","462166","F=YES, J=NO","a4ocgkauu6","1","75","65","85","","","","","","","","","","","","","","","",""
"null","audio/van1.wav","null","audio-keyboard-response","366","2.1.0","462756","F=YES, J=NO","a4ocgkauu6","1","75","65","85","","","","","","","","","","","","","","","",""
"545","
          <p id=""word"" style=""font-size: 40px;"">support</p>
          <p style=""font-size: 16px;"">F = YES &nbsp;&nbsp;&nbsp; J = NO</p>
        ","f","html-keyboard-response","367","2.1.0","463303","F=YES, J=NO","a4ocgkauu6","1","75","65","85","","","","","","","","","support","van1","unrelated","experimental","f","true","",""
"null","<p style=""font-size: 50px;"">+</p>","null","html-keyboard-response","368","2.1.0","463614","F=YES, J=NO","a4ocgkauu6","1","75","65","85","","","","","","","","","","","","","","","",""
"null","audio/beep-329314.mp3","null","audio-keyboard-response","369","2.1.0","465147","F=YES, J=NO","a4ocgkauu6","1","75","65","85","","","","","","","","","","","","","","","",""
"null","audio/menu.wav","null","audio-keyboard-response","370","2.1.0","465757","F=YES, J=NO","a4ocgkauu6","1","75","65","85","","","","","","","","","","","","","","","",""
"503","
          <p id=""word"" style=""font-size: 40px;"">slice</p>
          <p style=""font-size: 16px;"">F = YES &nbsp;&nbsp;&nbsp; J = NO</p>
        ","f","html-keyboard-response","371","2.1.0","466261","F=YES, J=NO","a4ocgkauu6","1","75","65","85","","","","","","","","","slice","menu","filler","filler","f","true","",""
"null","<p style=""font-size: 50px;"">+</p>","null","html-keyboard-response","372","2.1.0","466563","F=YES, J=NO","a4ocgkauu6","1","75","65","85","","","","","","","","","","","","","","","",""
"null","audio/beep-329314.mp3","null","audio-keyboard-response","373","2.1.0","468087","F=YES, J=NO","a4ocgkauu6","1","75","65","85","","","","","","","","","","","","","","","",""
"null","audio/mind.wav","null","audio-keyboard-response","374","2.1.0","468696","F=YES, J=NO","a4ocgkauu6","1","75","65","85","","","","","","","","","","","","","","","",""
"434","
          <p id=""word"" style=""font-size: 40px;"">crainate</p>
          <p style=""font-size: 16px;"">F = YES &nbsp;&nbsp;&nbsp; J = NO</p>
        ","f","html-keyboard-response","375","2.1.0","469132","F=YES, J=NO","a4ocgkauu6","1","75","65","85","","","","","","","","","crainate","mind","pseudoword","pseudoword","j","false","",""
"null","<p style=""font-size: 50px;"">+</p>","null","html-keyboard-response","376","2.1.0","469445","F=YES, J=NO","a4ocgkauu6","1","75","65","85","","","","","","","","","","","","","","","",""
"null","audio/beep-329314.mp3","null","audio-keyboard-response","377","2.1.0","470986","F=YES, J=NO","a4ocgkauu6","1","75","65","85","","","","","","","","","","","","","","","",""
"null","audio/fear.wav","null","audio-keyboard-response","378","2.1.0","471716","F=YES, J=NO","a4ocgkauu6","1","75","65","85","","","","","","","","","","","","","","","",""
"871","
          <p id=""word"" style=""font-size: 40px;"">spread</p>
          <p style=""font-size: 16px;"">F = YES &nbsp;&nbsp;&nbsp; J = NO</p>
        ","f","html-keyboard-response","379","2.1.0","472589","F=YES, J=NO","a4ocgkauu6","1","75","65","85","","","","","","","","","spread","fear","metaphor","experimental","f","true","",""
"null","<p style=""font-size: 50px;"">+</p>","null","html-keyboard-response","380","2.1.0","472896","F=YES, J=NO","a4ocgkauu6","1","75","65","85","","","","","","","","","","","","","","","",""
"null","audio/beep-329314.mp3","null","audio-keyboard-response","381","2.1.0","474426","F=YES, J=NO","a4ocgkauu6","1","75","65","85","","","","","","","","","","","","","","","",""
"null","audio/alarm1.wav","null","audio-keyboard-response","382","2.1.0","474996","F=YES, J=NO","a4ocgkauu6","1","75","65","85","","","","","","","","","","","","","","","",""
"538","
          <p id=""word"" style=""font-size: 40px;"">save</p>
          <p style=""font-size: 16px;"">F = YES &nbsp;&nbsp;&nbsp; J = NO</p>
        ","f","html-keyboard-response","383","2.1.0","475536","F=YES, J=NO","a4ocgkauu6","1","75","65","85","","","","","","","","","save","alarm1","unrelated","experimental","f","true","",""
"null","<p style=""font-size: 50px;"">+</p>","null","html-keyboard-response","384","2.1.0","475844","F=YES, J=NO","a4ocgkauu6","1","75","65","85","","","","","","","","","","","","","","","",""
"null","audio/beep-329314.mp3","null","audio-keyboard-response","385","2.1.0","477386","F=YES, J=NO","a4ocgkauu6","1","75","65","85","","","","","","","","","","","","","","","",""
"null","audio/golf1.wav","null","audio-keyboard-response","386","2.1.0","477976","F=YES, J=NO","a4ocgkauu6","1","75","65","85","","","","","","","","","","","","","","","",""
"720","
          <p id=""word"" style=""font-size: 40px;"">drabble</p>
          <p style=""font-size: 16px;"">F = YES &nbsp;&nbsp;&nbsp; J = NO</p>
        ","j","html-keyboard-response","387","2.1.0","478702","F=YES, J=NO","a4ocgkauu6","1","75","65","85","","","","","","","","","drabble","golf1","pseudoword","pseudoword","j","true","",""
"null","<p style=""font-size: 50px;"">+</p>","null","html-keyboard-response","388","2.1.0","479014","F=YES, J=NO","a4ocgkauu6","1","75","65","85","","","","","","","","","","","","","","","",""
"null","audio/beep-329314.mp3","null","audio-keyboard-response","389","2.1.0","480551","F=YES, J=NO","a4ocgkauu6","1","75","65","85","","","","","","","","","","","","","","","",""
"null","audio/empire.wav","null","audio-keyboard-response","390","2.1.0","481281","F=YES, J=NO","a4ocgkauu6","1","75","65","85","","","","","","","","","","","","","","","",""
"792","
          <p id=""word"" style=""font-size: 40px;"">slorby</p>
          <p style=""font-size: 16px;"">F = YES &nbsp;&nbsp;&nbsp; J = NO</p>
