"rt","stimulus","response","trial_type","trial_index","plugin_version","time_elapsed","response_mapping","subject_id","list_index","lextale_score","lextale_word_score","lextale_nonword_score","success","timeout","failed_images","failed_audio","failed_video","task","isWord","isDummy","target","prime","prime_type","stimulus_type","correct_response","correct","section","question_order"
"1489032","
    <div style=""max-width: 800px; margin: auto; text-align: left;"">
      <h2>STANFORD UNIVERSITY</h2>
      <h3>Research Information Sheet</h3>
      <p><strong>Protocol Director:</strong> Robert Hawkins<br>
      <strong>Protocol Title:</strong> Communication and social cognition in natural audiovisual contexts<br>
      <strong>IRB#:</strong> 77226</p>

      <p><strong>DESCRIPTION:</strong> You are invited to participate in a research study about language and communication. The purpose of the research is to understand how you interact and communicate with other people in naturalistic settings as a fluent English speaker. This research will be conducted through the Prolific platform, including participants from the US, UK, and Canada. If you decide to participate in this research, you will play a communication game in a group with one or more partners.</p>

      <p><strong>TIME INVOLVEMENT:</strong> The task will last the amount of time advertised on Prolific. You are free to withdraw from the study at any time.</p>

      <p><strong>RISKS AND BENEFITS:</strong> You may become frustrated if your partner gets distracted, or experience discomfort if other participants in your group send text that is inappropriate for the task. We ask you to please be respectful of other participants you might be interacting with to mitigate these risks. You may also experience discomfort when being asked to discuss or challenge emotionally salient political beliefs. Study data will be stored securely, in compliance with Stanford University standards, minimizing the risk of confidentiality breach. This study advances our scientific understanding of how people communicate and collaborate in naturalistic settings. This study may lead to further insights about what can go wrong in teamwork, suggest potential interventions to overcome these barriers, and help to develop assistive technologies that collaborate with human partners. We cannot and do not guarantee or promise that you will receive any benefits from this study.</p>

      <p><strong>PAYMENTS:</strong> You will receive payment in the amount advertised on Prolific. If you do not complete this study, you will receive prorated payment based on the time that you have spent. Additionally, you may be eligible for bonus payments as described in the instructions.</p>

      <p><strong>PARTICIPANT’S RIGHTS:</strong> If you have read this form and have decided to participate in this project, please understand your participation is voluntary and you have the right to withdraw your consent or discontinue participation at any time without penalty or loss of benefits to which you are otherwise entitled. The alternative is not to participate. You have the right to refuse to answer particular questions. The results of this research study may be presented at scientific or professional meetings or published in scientific journals. Your individual privacy will be maintained in all published and written data resulting from the study. In accordance with scientific norms, the data from this study may be used or shared with other researchers for future research (after removing personally identifying information) without additional consent from you.</p>

      <p><strong>CONTACT INFORMATION:</strong><br>
      Questions: If you have any questions, concerns or complaints about this research, its procedures, risks and benefits, contact the Protocol Director, Robert Hawkins (<a href=""mailto:rdhawkins@stanford.edu"">rdhawkins@stanford.edu</a>, 217-549-6923).<br>
      Independent Contact: If you are not satisfied with how this study is being conducted, or if you have any concerns, complaints, or general questions about the research or your rights as a participant, please contact the Stanford Institutional Review Board (IRB) to speak to someone independent of the research team at 650-723-2480 or toll free at 1-866-680-2906, or email at <a href=""mailto:irbnon-med@stanford.edu"">irbnon-med@stanford.edu</a>. You can also write to the Stanford IRB, Stanford University, 1705 El Camino Real, Palo Alto, CA 94306.</p>

      <p><strong>Please save or print a copy of this page for your records.</strong></p>
      <p>If you agree to participate in this research, click ""Continue"" below.</p>
    </div>
  ","0","html-button-response","0","2.1.0","1489041","F=YES, J=NO","ab6fgterpt","1","63","70","55","","","","","","","","","","","","","","","",""
"5481","
    <div style=""max-width: 800px; margin: auto; text-align: left;"">
      <h2>Welcome!</h2>
      <p>Thank you for participating in this study. The experiment consists of three parts:</p>
      <ol>
        <li>An English vocabulary test</li>
        <li>A main task in which you will hear and see words, and decide whether the written word is a real English word</li>
        <li>A brief survey about your background</li>
      </ol>
      <p>Each part will be introduced before it begins.</p>
      <p>Please make sure you are in a quiet environment and can hear audio clearly for the final task.</p>
      <p style=""margin-top: 2em;"">Press any key to begin.</p>
    </div>
  ","Meta","html-keyboard-response","1","2.1.0","1494525","F=YES, J=NO","ab6fgterpt","1","63","70","55","","","","","","","","","","","","","","","",""
"","","","preload","2","2.1.0","1495020","F=YES, J=NO","ab6fgterpt","1","63","70","55","true","false","[]","[]","[]","","","","","","","","","","",""
"6432","
    <div style=""max-width: 800px; margin: auto; text-align: left;"">
      <h2>Part 1: Vocabulary Test</h2>
      <p>You will now complete the first part of the study: a short English vocabulary test.</p>
      <p>This test is called <strong>LexTALE</strong> and helps us get a general sense of your English proficiency.</p>
      <p style=""margin-top: 2em;"">Press any key to continue.</p>
    </div>
  ","h","html-keyboard-response","3","2.1.0","1501453","F=YES, J=NO","ab6fgterpt","1","63","70","55","","","","","","","","","","","","","","","",""
"6251","
    <div style=""max-width: 800px; margin: auto; text-align: left;"">
      <h2>LexTALE Vocabulary Test</h2>
      <p>In this test, you will see a series of letter strings—one at a time.</p>
      <p>Your task is to decide whether each string is a real English word.</p>
      <p><strong>Key responses:</strong></p>
      <ul>
        <li><strong>F</strong> = YES (real English word)</li>
        <li><strong>J</strong> = NO (not a real English word)</li>
      </ul>
      <p>There is no time limit, but please try to be accurate.</p>
      <p style=""margin-top: 2em;"">Press any key to begin.</p>
    </div>
  ","j","html-keyboard-response","4","2.1.0","1507707","F=YES, J=NO","ab6fgterpt","1","63","70","55","","","","","","","","","","","","","","","",""
"1833","
  <p style=""font-size: 40px;"">platery</p>
  <p style=""font-size: 16px;"">F = YES &nbsp;&nbsp;&nbsp; J = NO</p>
","f","html-keyboard-response","5","2.1.0","1509539","F=YES, J=NO","ab6fgterpt","1","63","70","55","","","","","","lextale","false","true","","","","","","","",""
"954","
  <p style=""font-size: 40px;"">denial</p>
  <p style=""font-size: 16px;"">F = YES &nbsp;&nbsp;&nbsp; J = NO</p>
","f","html-keyboard-response","6","2.1.0","1510493","F=YES, J=NO","ab6fgterpt","1","63","70","55","","","","","","lextale","true","true","","","","","","","",""
"1288","
  <p style=""font-size: 40px;"">marrit</p>
  <p style=""font-size: 16px;"">F = YES &nbsp;&nbsp;&nbsp; J = NO</p>
","j","html-keyboard-response","7","2.1.0","1511784","F=YES, J=NO","ab6fgterpt","1","63","70","55","","","","","","lextale","false","true","","","","","","","",""
"693","
  <p style=""font-size: 40px;"">bottle</p>
  <p style=""font-size: 16px;"">F = YES &nbsp;&nbsp;&nbsp; J = NO</p>
","f","html-keyboard-response","8","2.1.0","1512477","F=YES, J=NO","ab6fgterpt","1","63","70","55","","","","","","lextale","true","false","","","","","","","",""
"802","
  <p style=""font-size: 40px;"">birst</p>
  <p style=""font-size: 16px;"">F = YES &nbsp;&nbsp;&nbsp; J = NO</p>
","j","html-keyboard-response","9","2.1.0","1513280","F=YES, J=NO","ab6fgterpt","1","63","70","55","","","","","","lextale","false","false","","","","","","","",""
"1018","
  <p style=""font-size: 40px;"">envy</p>
  <p style=""font-size: 16px;"">F = YES &nbsp;&nbsp;&nbsp; J = NO</p>
","f","html-keyboard-response","10","2.1.0","1514299","F=YES, J=NO","ab6fgterpt","1","63","70","55","","","","","","lextale","true","false","","","","","","","",""
"1507","
  <p style=""font-size: 40px;"">brang</p>
  <p style=""font-size: 16px;"">F = YES &nbsp;&nbsp;&nbsp; J = NO</p>
","j","html-keyboard-response","11","2.1.0","1515807","F=YES, J=NO","ab6fgterpt","1","63","70","55","","","","","","lextale","false","false","","","","","","","",""
"629","
  <p style=""font-size: 40px;"">huge</p>
  <p style=""font-size: 16px;"">F = YES &nbsp;&nbsp;&nbsp; J = NO</p>
","f","html-keyboard-response","12","2.1.0","1516436","F=YES, J=NO","ab6fgterpt","1","63","70","55","","","","","","lextale","true","false","","","","","","","",""
"834","
  <p style=""font-size: 40px;"">plove</p>
  <p style=""font-size: 16px;"">F = YES &nbsp;&nbsp;&nbsp; J = NO</p>
","f","html-keyboard-response","13","2.1.0","1517270","F=YES, J=NO","ab6fgterpt","1","63","70","55","","","","","","lextale","false","false","","","","","","","",""
"544","
  <p style=""font-size: 40px;"">border</p>
  <p style=""font-size: 16px;"">F = YES &nbsp;&nbsp;&nbsp; J = NO</p>
","f","html-keyboard-response","14","2.1.0","1517813","F=YES, J=NO","ab6fgterpt","1","63","70","55","","","","","","lextale","true","false","","","","","","","",""
"769","
  <p style=""font-size: 40px;"">flimsy</p>
  <p style=""font-size: 16px;"">F = YES &nbsp;&nbsp;&nbsp; J = NO</p>
","j","html-keyboard-response","15","2.1.0","1518583","F=YES, J=NO","ab6fgterpt","1","63","70","55","","","","","","lextale","true","false","","","","","","","",""
"738","
  <p style=""font-size: 40px;"">drain</p>
  <p style=""font-size: 16px;"">F = YES &nbsp;&nbsp;&nbsp; J = NO</p>
","f","html-keyboard-response","16","2.1.0","1519321","F=YES, J=NO","ab6fgterpt","1","63","70","55","","","","","","lextale","true","false","","","","","","","",""
"885","
  <p style=""font-size: 40px;"">twindle</p>
  <p style=""font-size: 16px;"">F = YES &nbsp;&nbsp;&nbsp; J = NO</p>
","f","html-keyboard-response","17","2.1.0","1520208","F=YES, J=NO","ab6fgterpt","1","63","70","55","","","","","","lextale","false","false","","","","","","","",""
"617","
  <p style=""font-size: 40px;"">propose</p>
  <p style=""font-size: 16px;"">F = YES &nbsp;&nbsp;&nbsp; J = NO</p>
","f","html-keyboard-response","18","2.1.0","1520826","F=YES, J=NO","ab6fgterpt","1","63","70","55","","","","","","lextale","true","false","","","","","","","",""
"727","
  <p style=""font-size: 40px;"">forlay</p>
  <p style=""font-size: 16px;"">F = YES &nbsp;&nbsp;&nbsp; J = NO</p>
","j","html-keyboard-response","19","2.1.0","1521553","F=YES, J=NO","ab6fgterpt","1","63","70","55","","","","","","lextale","false","false","","","","","","","",""
"1085","
  <p style=""font-size: 40px;"">tenant</p>
  <p style=""font-size: 16px;"">F = YES &nbsp;&nbsp;&nbsp; J = NO</p>
","f","html-keyboard-response","20","2.1.0","1522639","F=YES, J=NO","ab6fgterpt","1","63","70","55","","","","","","lextale","true","false","","","","","","","",""
"1657","
  <p style=""font-size: 40px;"">strain</p>
  <p style=""font-size: 16px;"">F = YES &nbsp;&nbsp;&nbsp; J = NO</p>
","f","html-keyboard-response","21","2.1.0","1524298","F=YES, J=NO","ab6fgterpt","1","63","70","55","","","","","","lextale","true","false","","","","","","","",""
"769","
  <p style=""font-size: 40px;"">holster</p>
  <p style=""font-size: 16px;"">F = YES &nbsp;&nbsp;&nbsp; J = NO</p>
","j","html-keyboard-response","22","2.1.0","1525068","F=YES, J=NO","ab6fgterpt","1","63","70","55","","","","","","lextale","true","false","","","","","","","",""
"842","
  <p style=""font-size: 40px;"">hinder</p>
  <p style=""font-size: 16px;"">F = YES &nbsp;&nbsp;&nbsp; J = NO</p>
","j","html-keyboard-response","23","2.1.0","1525911","F=YES, J=NO","ab6fgterpt","1","63","70","55","","","","","","lextale","true","false","","","","","","","",""
"1150","
  <p style=""font-size: 40px;"">swindle</p>
  <p style=""font-size: 16px;"">F = YES &nbsp;&nbsp;&nbsp; J = NO</p>
","f","html-keyboard-response","24","2.1.0","1527061","F=YES, J=NO","ab6fgterpt","1","63","70","55","","","","","","lextale","true","false","","","","","","","",""
"986","
  <p style=""font-size: 40px;"">nuder</p>
  <p style=""font-size: 16px;"">F = YES &nbsp;&nbsp;&nbsp; J = NO</p>
","j","html-keyboard-response","25","2.1.0","1528047","F=YES, J=NO","ab6fgterpt","1","63","70","55","","","","","","lextale","false","false","","","","","","","",""
"597","
  <p style=""font-size: 40px;"">pillow</p>
  <p style=""font-size: 16px;"">F = YES &nbsp;&nbsp;&nbsp; J = NO</p>
","f","html-keyboard-response","26","2.1.0","1528644","F=YES, J=NO","ab6fgterpt","1","63","70","55","","","","","","lextale","true","false","","","","","","","",""
"629","
  <p style=""font-size: 40px;"">shumble</p>
  <p style=""font-size: 16px;"">F = YES &nbsp;&nbsp;&nbsp; J = NO</p>
","f","html-keyboard-response","27","2.1.0","1529274","F=YES, J=NO","ab6fgterpt","1","63","70","55","","","","","","lextale","false","false","","","","","","","",""
"616","
  <p style=""font-size: 40px;"">thirst</p>
  <p style=""font-size: 16px;"">F = YES &nbsp;&nbsp;&nbsp; J = NO</p>
","f","html-keyboard-response","28","2.1.0","1529890","F=YES, J=NO","ab6fgterpt","1","63","70","55","","","","","","lextale","true","false","","","","","","","",""
"736","
  <p style=""font-size: 40px;"">unsail</p>
  <p style=""font-size: 16px;"">F = YES &nbsp;&nbsp;&nbsp; J = NO</p>
","f","html-keyboard-response","29","2.1.0","1530627","F=YES, J=NO","ab6fgterpt","1","63","70","55","","","","","","lextale","false","false","","","","","","","",""
"543","
  <p style=""font-size: 40px;"">rifle</p>
  <p style=""font-size: 16px;"">F = YES &nbsp;&nbsp;&nbsp; J = NO</p>
","f","html-keyboard-response","30","2.1.0","1531171","F=YES, J=NO","ab6fgterpt","1","63","70","55","","","","","","lextale","true","false","","","","","","","",""
"476","
  <p style=""font-size: 40px;"">mush</p>
  <p style=""font-size: 16px;"">F = YES &nbsp;&nbsp;&nbsp; J = NO</p>
","f","html-keyboard-response","31","2.1.0","1531648","F=YES, J=NO","ab6fgterpt","1","63","70","55","","","","","","lextale","false","false","","","","","","","",""
"587","
  <p style=""font-size: 40px;"">drench</p>
  <p style=""font-size: 16px;"">F = YES &nbsp;&nbsp;&nbsp; J = NO</p>
","f","html-keyboard-response","32","2.1.0","1532235","F=YES, J=NO","ab6fgterpt","1","63","70","55","","","","","","lextale","true","false","","","","","","","",""
"778","
  <p style=""font-size: 40px;"">snirt</p>
  <p style=""font-size: 16px;"">F = YES &nbsp;&nbsp;&nbsp; J = NO</p>
","j","html-keyboard-response","33","2.1.0","1533013","F=YES, J=NO","ab6fgterpt","1","63","70","55","","","","","","lextale","false","false","","","","","","","",""
"651","
  <p style=""font-size: 40px;"">bitter</p>
  <p style=""font-size: 16px;"">F = YES &nbsp;&nbsp;&nbsp; J = NO</p>
","f","html-keyboard-response","34","2.1.0","1533665","F=YES, J=NO","ab6fgterpt","1","63","70","55","","","","","","lextale","true","false","","","","","","","",""
"769","
  <p style=""font-size: 40px;"">pliff</p>
  <p style=""font-size: 16px;"">F = YES &nbsp;&nbsp;&nbsp; J = NO</p>
","j","html-keyboard-response","35","2.1.0","1534436","F=YES, J=NO","ab6fgterpt","1","63","70","55","","","","","","lextale","false","false","","","","","","","",""
"474","
  <p style=""font-size: 40px;"">tablet</p>
  <p style=""font-size: 16px;"">F = YES &nbsp;&nbsp;&nbsp; J = NO</p>
","f","html-keyboard-response","36","2.1.0","1534912","F=YES, J=NO","ab6fgterpt","1","63","70","55","","","","","","lextale","true","false","","","","","","","",""
"825","
  <p style=""font-size: 40px;"">glimmer</p>
  <p style=""font-size: 16px;"">F = YES &nbsp;&nbsp;&nbsp; J = NO</p>
","f","html-keyboard-response","37","2.1.0","1535736","F=YES, J=NO","ab6fgterpt","1","63","70","55","","","","","","lextale","true","false","","","","","","","",""
"911","
  <p style=""font-size: 40px;"">slink</p>
  <p style=""font-size: 16px;"">F = YES &nbsp;&nbsp;&nbsp; J = NO</p>
","j","html-keyboard-response","38","2.1.0","1536646","F=YES, J=NO","ab6fgterpt","1","63","70","55","","","","","","lextale","true","false","","","","","","","",""
"498","
  <p style=""font-size: 40px;"">clever</p>
  <p style=""font-size: 16px;"">F = YES &nbsp;&nbsp;&nbsp; J = NO</p>
","f","html-keyboard-response","39","2.1.0","1537145","F=YES, J=NO","ab6fgterpt","1","63","70","55","","","","","","lextale","true","false","","","","","","","",""
"1876","
  <p style=""font-size: 40px;"">grum</p>
  <p style=""font-size: 16px;"">F = YES &nbsp;&nbsp;&nbsp; J = NO</p>
","j","html-keyboard-response","40","2.1.0","1539021","F=YES, J=NO","ab6fgterpt","1","63","70","55","","","","","","lextale","false","false","","","","","","","",""
"714","
  <p style=""font-size: 40px;"">string</p>
  <p style=""font-size: 16px;"">F = YES &nbsp;&nbsp;&nbsp; J = NO</p>
","f","html-keyboard-response","41","2.1.0","1539736","F=YES, J=NO","ab6fgterpt","1","63","70","55","","","","","","lextale","true","false","","","","","","","",""
"911","
  <p style=""font-size: 40px;"">plim</p>
  <p style=""font-size: 16px;"">F = YES &nbsp;&nbsp;&nbsp; J = NO</p>
","j","html-keyboard-response","42","2.1.0","1540646","F=YES, J=NO","ab6fgterpt","1","63","70","55","","","","","","lextale","false","false","","","","","","","",""
"705","
  <p style=""font-size: 40px;"">cable</p>
  <p style=""font-size: 16px;"">F = YES &nbsp;&nbsp;&nbsp; J = NO</p>
","f","html-keyboard-response","43","2.1.0","1541352","F=YES, J=NO","ab6fgterpt","1","63","70","55","","","","","","lextale","true","false","","","","","","","",""
"833","
  <p style=""font-size: 40px;"">shrivel</p>
  <p style=""font-size: 16px;"">F = YES &nbsp;&nbsp;&nbsp; J = NO</p>
","j","html-keyboard-response","44","2.1.0","1542187","F=YES, J=NO","ab6fgterpt","1","63","70","55","","","","","","lextale","true","false","","","","","","","",""
"987","
  <p style=""font-size: 40px;"">tarnish</p>
  <p style=""font-size: 16px;"">F = YES &nbsp;&nbsp;&nbsp; J = NO</p>
","j","html-keyboard-response","45","2.1.0","1543174","F=YES, J=NO","ab6fgterpt","1","63","70","55","","","","","","lextale","true","false","","","","","","","",""
"825","
  <p style=""font-size: 40px;"">blim</p>
  <p style=""font-size: 16px;"">F = YES &nbsp;&nbsp;&nbsp; J = NO</p>
","j","html-keyboard-response","46","2.1.0","1543999","F=YES, J=NO","ab6fgterpt","1","63","70","55","","","","","","lextale","false","false","","","","","","","",""
"810","
  <p style=""font-size: 40px;"">stifle</p>
  <p style=""font-size: 16px;"">F = YES &nbsp;&nbsp;&nbsp; J = NO</p>
","f","html-keyboard-response","47","2.1.0","1544810","F=YES, J=NO","ab6fgterpt","1","63","70","55","","","","","","lextale","true","false","","","","","","","",""
"737","
  <p style=""font-size: 40px;"">bint</p>
  <p style=""font-size: 16px;"">F = YES &nbsp;&nbsp;&nbsp; J = NO</p>
","j","html-keyboard-response","48","2.1.0","1545547","F=YES, J=NO","ab6fgterpt","1","63","70","55","","","","","","lextale","false","false","","","","","","","",""
"488","
  <p style=""font-size: 40px;"">purple</p>
  <p style=""font-size: 16px;"">F = YES &nbsp;&nbsp;&nbsp; J = NO</p>
","f","html-keyboard-response","49","2.1.0","1546035","F=YES, J=NO","ab6fgterpt","1","63","70","55","","","","","","lextale","true","false","","","","","","","",""
"672","
  <p style=""font-size: 40px;"">wriggle</p>
  <p style=""font-size: 16px;"">F = YES &nbsp;&nbsp;&nbsp; J = NO</p>
","f","html-keyboard-response","50","2.1.0","1546708","F=YES, J=NO","ab6fgterpt","1","63","70","55","","","","","","lextale","true","false","","","","","","","",""
"510","
  <p style=""font-size: 40px;"">mangle</p>
  <p style=""font-size: 16px;"">F = YES &nbsp;&nbsp;&nbsp; J = NO</p>
","f","html-keyboard-response","51","2.1.0","1547219","F=YES, J=NO","ab6fgterpt","1","63","70","55","","","","","","lextale","true","false","","","","","","","",""
"680","
  <p style=""font-size: 40px;"">shramp</p>
  <p style=""font-size: 16px;"">F = YES &nbsp;&nbsp;&nbsp; J = NO</p>
","f","html-keyboard-response","52","2.1.0","1547901","F=YES, J=NO","ab6fgterpt","1","63","70","55","","","","","","lextale","false","false","","","","","","","",""
"596","
  <p style=""font-size: 40px;"">flirt</p>
  <p style=""font-size: 16px;"">F = YES &nbsp;&nbsp;&nbsp; J = NO</p>
","f","html-keyboard-response","53","2.1.0","1548498","F=YES, J=NO","ab6fgterpt","1","63","70","55","","","","","","lextale","true","false","","","","","","","",""
"605","
  <p style=""font-size: 40px;"">frip</p>
  <p style=""font-size: 16px;"">F = YES &nbsp;&nbsp;&nbsp; J = NO</p>
","f","html-keyboard-response","54","2.1.0","1549104","F=YES, J=NO","ab6fgterpt","1","63","70","55","","","","","","lextale","false","false","","","","","","","",""
"1139","
  <p style=""font-size: 40px;"">tangle</p>
  <p style=""font-size: 16px;"">F = YES &nbsp;&nbsp;&nbsp; J = NO</p>
","f","html-keyboard-response","55","2.1.0","1550243","F=YES, J=NO","ab6fgterpt","1","63","70","55","","","","","","lextale","true","false","","","","","","","",""
"574","
  <p style=""font-size: 40px;"">crumble</p>
  <p style=""font-size: 16px;"">F = YES &nbsp;&nbsp;&nbsp; J = NO</p>
","f","html-keyboard-response","56","2.1.0","1550817","F=YES, J=NO","ab6fgterpt","1","63","70","55","","","","","","lextale","true","false","","","","","","","",""
"628","
  <p style=""font-size: 40px;"">wrinkle</p>
  <p style=""font-size: 16px;"">F = YES &nbsp;&nbsp;&nbsp; J = NO</p>
","f","html-keyboard-response","57","2.1.0","1551445","F=YES, J=NO","ab6fgterpt","1","63","70","55","","","","","","lextale","true","false","","","","","","","",""
"1214","
  <p style=""font-size: 40px;"">slumb</p>
  <p style=""font-size: 16px;"">F = YES &nbsp;&nbsp;&nbsp; J = NO</p>
","f","html-keyboard-response","58","2.1.0","1552661","F=YES, J=NO","ab6fgterpt","1","63","70","55","","","","","","lextale","false","false","","","","","","","",""
"574","
  <p style=""font-size: 40px;"">jungle</p>
  <p style=""font-size: 16px;"">F = YES &nbsp;&nbsp;&nbsp; J = NO</p>
","f","html-keyboard-response","59","2.1.0","1553235","F=YES, J=NO","ab6fgterpt","1","63","70","55","","","","","","lextale","true","false","","","","","","","",""
"681","
  <p style=""font-size: 40px;"">frolick</p>
  <p style=""font-size: 16px;"">F = YES &nbsp;&nbsp;&nbsp; J = NO</p>
","j","html-keyboard-response","60","2.1.0","1553917","F=YES, J=NO","ab6fgterpt","1","63","70","55","","","","","","lextale","false","false","","","","","","","",""
"3309","
      <h2>LexTALE Test Completed</h2>
      <p>Your LexTALE vocabulary score is: <strong>63%</strong></p>
      <p>Press any key to continue.</p>
    ","j","html-keyboard-response","61","2.1.0","1557227","F=YES, J=NO","ab6fgterpt","1","63","70","55","","","","","","","","","","","","","","","",""
"3164","
    <div style=""max-width: 800px; margin: auto; text-align: left;"">
      <h2>Break Time</h2>
      <p>You have completed the first part of the study.</p>
      <p>You may take a short <strong>30-second break</strong> before continuing.</p>
      <p>When you’re ready, press any key to continue to the final task.</p>
    </div>
  ","j","html-keyboard-response","62","2.1.0","1560392","F=YES, J=NO","ab6fgterpt","1","63","70","55","","","","","","","","","","","","","","","",""
"2276","
    <div style=""max-width: 800px; margin: auto; text-align: left;"">
      <h2>Part 2: Lexical Decision Task</h2>
      <p>You will now begin the second part of the study.</p>
      <p>Each trial will follow this sequence:</p>
      <ul>
        <li>A fixation cross (+) appears at the center of the screen.</li>
        <li>You will hear a short beep followed by a spoken word.</li>
        <li>A written word will appear briefly on the screen.</li>
      </ul>
      <p>Your task is to judge whether the <strong>written word</strong> is a real English word.</p>
      <p style=""margin-top: 1em;""><strong>Key responses:</strong></p>
      <ul>
        <li><strong>F</strong> = YES (real English word)</li>
        <li><strong>J</strong> = NO (not a real English word)</li>
      </ul>
      <p>Please respond as quickly and accurately as you can.</p>
      <p style=""margin-top: 2em;"">Press any key to continue.</p>
    </div>
  ","f","html-keyboard-response","63","2.1.0","1562669","F=YES, J=NO","ab6fgterpt","1","63","70","55","","","","","","","","","","","","","","","",""
"898","
    <div style=""max-width: 800px; margin: auto; text-align: left;"">
      <h2>Before You Begin</h2>
      <p>Make sure your sound is turned on.</p>
      <p>You will hear audio during each trial, but your decision should be based only on the <strong>written word</strong> you see on the screen.</p>
      <p><strong>Reminder:</strong></p>
      <ul>
        <li><strong>F</strong> = YES (real English word)</li>
        <li><strong>J</strong> = NO (not a real English word)</li>
      </ul>
      <p style=""margin-top: 2em;"">Press any key when you are ready to begin.</p>
    </div>
  ","j","html-keyboard-response","64","2.1.0","1563567","F=YES, J=NO","ab6fgterpt","1","63","70","55","","","","","","","","","","","","","","","",""
"1292","
    <div style=""max-width: 800px; margin: auto; text-align: left;"">
      <h2>Part 2: Practice Trials</h2>
      <p>You will now complete a few <strong>practice trials</strong> to get familiar with the task.</p>
      <p>These trials are <strong>not scored</strong> and are only to help you get used to the format.</p>
      <p style=""margin-top: 2em;"">Press any key to begin.</p>
    </div>
  ","j","html-keyboard-response","65","2.1.0","1564859","F=YES, J=NO","ab6fgterpt","1","63","70","55","","","","","","","","","","","","","","","",""
"2979","<p>Starting practice block 1 of 2. Press any key to continue.</p>","j","html-keyboard-response","66","2.1.0","1567839","F=YES, J=NO","ab6fgterpt","1","63","70","55","","","","","","","","","","","","","","","",""
"null","<p style=""font-size: 50px;"">+</p>","null","html-keyboard-response","67","2.1.0","1568152","F=YES, J=NO","ab6fgterpt","1","63","70","55","","","","","","","","","","","","","","","",""
"null","audio/beep-329314.mp3","null","audio-keyboard-response","68","2.1.0","1569647","F=YES, J=NO","ab6fgterpt","1","63","70","55","","","","","","","","","","","","","","","",""
"null","audio/road.wav","null","audio-keyboard-response","69","2.1.0","1570018","F=YES, J=NO","ab6fgterpt","1","63","70","55","","","","","","","","","","","","","","","",""
"1217","
          <p id=""word"" style=""font-size: 40px;"">wappings</p>
          <p style=""font-size: 16px;"">F = YES &nbsp;&nbsp;&nbsp; J = NO</p>
        ","j","html-keyboard-response","70","2.1.0","1571234","F=YES, J=NO","ab6fgterpt","1","63","70","55","","","","","","","","","wappings","road","pseudoword","pseudoword","j","true","",""
"null","<p style=""font-size: 50px;"">+</p>","null","html-keyboard-response","71","2.1.0","1571547","F=YES, J=NO","ab6fgterpt","1","63","70","55","","","","","","","","","","","","","","","",""
"null","audio/beep-329314.mp3","null","audio-keyboard-response","72","2.1.0","1573038","F=YES, J=NO","ab6fgterpt","1","63","70","55","","","","","","","","","","","","","","","",""
"null","audio/theory1.wav","null","audio-keyboard-response","73","2.1.0","1573791","F=YES, J=NO","ab6fgterpt","1","63","70","55","","","","","","","","","","","","","","","",""
"1238","
          <p id=""word"" style=""font-size: 40px;"">scolve</p>
          <p style=""font-size: 16px;"">F = YES &nbsp;&nbsp;&nbsp; J = NO</p>
        ","j","html-keyboard-response","74","2.1.0","1575031","F=YES, J=NO","ab6fgterpt","1","63","70","55","","","","","","","","","scolve","theory1","pseudoword","pseudoword","j","true","",""
"null","<p style=""font-size: 50px;"">+</p>","null","html-keyboard-response","75","2.1.0","1575335","F=YES, J=NO","ab6fgterpt","1","63","70","55","","","","","","","","","","","","","","","",""
"null","audio/beep-329314.mp3","null","audio-keyboard-response","76","2.1.0","1576830","F=YES, J=NO","ab6fgterpt","1","63","70","55","","","","","","","","","","","","","","","",""
"null","audio/effort.wav","null","audio-keyboard-response","77","2.1.0","1577521","F=YES, J=NO","ab6fgterpt","1","63","70","55","","","","","","","","","","","","","","","",""
"738","
          <p id=""word"" style=""font-size: 40px;"">whonk</p>
          <p style=""font-size: 16px;"">F = YES &nbsp;&nbsp;&nbsp; J = NO</p>
        ","j","html-keyboard-response","78","2.1.0","1578260","F=YES, J=NO","ab6fgterpt","1","63","70","55","","","","","","","","","whonk","effort","pseudoword","pseudoword","j","true","",""
"null","<p style=""font-size: 50px;"">+</p>","null","html-keyboard-response","79","2.1.0","1578564","F=YES, J=NO","ab6fgterpt","1","63","70","55","","","","","","","","","","","","","","","",""
"null","audio/beep-329314.mp3","null","audio-keyboard-response","80","2.1.0","1580047","F=YES, J=NO","ab6fgterpt","1","63","70","55","","","","","","","","","","","","","","","",""
"null","audio/novel.wav","null","audio-keyboard-response","81","2.1.0","1580667","F=YES, J=NO","ab6fgterpt","1","63","70","55","","","","","","","","","","","","","","","",""
"695","
          <p id=""word"" style=""font-size: 40px;"">type</p>
          <p style=""font-size: 16px;"">F = YES &nbsp;&nbsp;&nbsp; J = NO</p>
        ","f","html-keyboard-response","82","2.1.0","1581362","F=YES, J=NO","ab6fgterpt","1","63","70","55","","","","","","","","","type","novel","filler","filler","f","true","",""
"null","<p style=""font-size: 50px;"">+</p>","null","html-keyboard-response","83","2.1.0","1581671","F=YES, J=NO","ab6fgterpt","1","63","70","55","","","","","","","","","","","","","","","",""
"null","audio/beep-329314.mp3","null","audio-keyboard-response","84","2.1.0","1583160","F=YES, J=NO","ab6fgterpt","1","63","70","55","","","","","","","","","","","","","","","",""
"null","audio/breath.wav","null","audio-keyboard-response","85","2.1.0","1583827","F=YES, J=NO","ab6fgterpt","1","63","70","55","","","","","","","","","","","","","","","",""
"701","
          <p id=""word"" style=""font-size: 40px;"">pack</p>
          <p style=""font-size: 16px;"">F = YES &nbsp;&nbsp;&nbsp; J = NO</p>
        ","f","html-keyboard-response","86","2.1.0","1584529","F=YES, J=NO","ab6fgterpt","1","63","70","55","","","","","","","","","pack","breath","filler","filler","f","true","",""
"null","<p style=""font-size: 50px;"">+</p>","null","html-keyboard-response","87","2.1.0","1584839","F=YES, J=NO","ab6fgterpt","1","63","70","55","","","","","","","","","","","","","","","",""
"null","audio/beep-329314.mp3","null","audio-keyboard-response","88","2.1.0","1586327","F=YES, J=NO","ab6fgterpt","1","63","70","55","","","","","","","","","","","","","","","",""
"null","audio/emotion.wav","null","audio-keyboard-response","89","2.1.0","1587097","F=YES, J=NO","ab6fgterpt","1","63","70","55","","","","","","","","","","","","","","","",""
"866","
          <p id=""word"" style=""font-size: 40px;"">devering</p>
          <p style=""font-size: 16px;"">F = YES &nbsp;&nbsp;&nbsp; J = NO</p>
        ","f","html-keyboard-response","90","2.1.0","1587964","F=YES, J=NO","ab6fgterpt","1","63","70","55","","","","","","","","","devering","emotion","pseudoword","pseudoword","j","false","",""
"null","<p style=""font-size: 50px;"">+</p>","null","html-keyboard-response","91","2.1.0","1588276","F=YES, J=NO","ab6fgterpt","1","63","70","55","","","","","","","","","","","","","","","",""
"null","audio/beep-329314.mp3","null","audio-keyboard-response","92","2.1.0","1589757","F=YES, J=NO","ab6fgterpt","1","63","70","55","","","","","","","","","","","","","","","",""
"null","audio/baby.wav","null","audio-keyboard-response","93","2.1.0","1590328","F=YES, J=NO","ab6fgterpt","1","63","70","55","","","","","","","","","","","","","","","",""
"899","
          <p id=""word"" style=""font-size: 40px;"">lift</p>
          <p style=""font-size: 16px;"">F = YES &nbsp;&nbsp;&nbsp; J = NO</p>
        ","f","html-keyboard-response","94","2.1.0","1591227","F=YES, J=NO","ab6fgterpt","1","63","70","55","","","","","","","","","lift","baby","filler","filler","f","true","",""
"null","<p style=""font-size: 50px;"">+</p>","null","html-keyboard-response","95","2.1.0","1591539","F=YES, J=NO","ab6fgterpt","1","63","70","55","","","","","","","","","","","","","","","",""
"null","audio/beep-329314.mp3","null","audio-keyboard-response","96","2.1.0","1593026","F=YES, J=NO","ab6fgterpt","1","63","70","55","","","","","","","","","","","","","","","",""
"null","audio/trout1.wav","null","audio-keyboard-response","97","2.1.0","1593737","F=YES, J=NO","ab6fgterpt","1","63","70","55","","","","","","","","","","","","","","","",""
"851","
          <p id=""word"" style=""font-size: 40px;"">spimt</p>
          <p style=""font-size: 16px;"">F = YES &nbsp;&nbsp;&nbsp; J = NO</p>
        ","j","html-keyboard-response","98","2.1.0","1594589","F=YES, J=NO","ab6fgterpt","1","63","70","55","","","","","","","","","spimt","trout1","pseudoword","pseudoword","j","true","",""
"null","<p style=""font-size: 50px;"">+</p>","null","html-keyboard-response","99","2.1.0","1594892","F=YES, J=NO","ab6fgterpt","1","63","70","55","","","","","","","","","","","","","","","",""
"null","audio/beep-329314.mp3","null","audio-keyboard-response","100","2.1.0","1596377","F=YES, J=NO","ab6fgterpt","1","63","70","55","","","","","","","","","","","","","","","",""
"null","audio/age1.wav","null","audio-keyboard-response","101","2.1.0","1596868","F=YES, J=NO","ab6fgterpt","1","63","70","55","","","","","","","","","","","","","","","",""
"724","
          <p id=""word"" style=""font-size: 40px;"">bake</p>
          <p style=""font-size: 16px;"">F = YES &nbsp;&nbsp;&nbsp; J = NO</p>
        ","f","html-keyboard-response","102","2.1.0","1597592","F=YES, J=NO","ab6fgterpt","1","63","70","55","","","","","","","","","bake","age1","filler","filler","f","true","",""
"null","<p style=""font-size: 50px;"">+</p>","null","html-keyboard-response","103","2.1.0","1597905","F=YES, J=NO","ab6fgterpt","1","63","70","55","","","","","","","","","","","","","","","",""
"null","audio/beep-329314.mp3","null","audio-keyboard-response","104","2.1.0","1599388","F=YES, J=NO","ab6fgterpt","1","63","70","55","","","","","","","","","","","","","","","",""
"null","audio/pattern.wav","null","audio-keyboard-response","105","2.1.0","1600077","F=YES, J=NO","ab6fgterpt","1","63","70","55","","","","","","","","","","","","","","","",""
"735","
          <p id=""word"" style=""font-size: 40px;"">tug</p>
          <p style=""font-size: 16px;"">F = YES &nbsp;&nbsp;&nbsp; J = NO</p>
        ","j","html-keyboard-response","106","2.1.0","1600813","F=YES, J=NO","ab6fgterpt","1","63","70","55","","","","","","","","","tug","pattern","filler","filler","f","false","",""
"null","<p style=""font-size: 50px;"">+</p>","null","html-keyboard-response","107","2.1.0","1601125","F=YES, J=NO","ab6fgterpt","1","63","70","55","","","","","","","","","","","","","","","",""
"null","audio/beep-329314.mp3","null","audio-keyboard-response","108","2.1.0","1602607","F=YES, J=NO","ab6fgterpt","1","63","70","55","","","","","","","","","","","","","","","",""
"null","audio/breath.wav","null","audio-keyboard-response","109","2.1.0","1603107","F=YES, J=NO","ab6fgterpt","1","63","70","55","","","","","","","","","","","","","","","",""
"860","
          <p id=""word"" style=""font-size: 40px;"">twets</p>
          <p style=""font-size: 16px;"">F = YES &nbsp;&nbsp;&nbsp; J = NO</p>
        ","j","html-keyboard-response","110","2.1.0","1603968","F=YES, J=NO","ab6fgterpt","1","63","70","55","","","","","","","","","twets","breath","pseudoword","pseudoword","j","true","",""
"null","<p style=""font-size: 50px;"">+</p>","null","html-keyboard-response","111","2.1.0","1604280","F=YES, J=NO","ab6fgterpt","1","63","70","55","","","","","","","","","","","","","","","",""
"null","audio/beep-329314.mp3","null","audio-keyboard-response","112","2.1.0","1605767","F=YES, J=NO","ab6fgterpt","1","63","70","55","","","","","","","","","","","","","","","",""
"null","audio/menu.wav","null","audio-keyboard-response","113","2.1.0","1606647","F=YES, J=NO","ab6fgterpt","1","63","70","55","","","","","","","","","","","","","","","",""
"669","
          <p id=""word"" style=""font-size: 40px;"">slice</p>
          <p style=""font-size: 16px;"">F = YES &nbsp;&nbsp;&nbsp; J = NO</p>
        ","f","html-keyboard-response","114","2.1.0","1607318","F=YES, J=NO","ab6fgterpt","1","63","70","55","","","","","","","","","slice","menu","filler","filler","f","true","",""
"3372","<p>Starting practice block 2 of 2. Press any key to continue.</p>","j","html-keyboard-response","115","2.1.0","1610690","F=YES, J=NO","ab6fgterpt","1","63","70","55","","","","","","","","","","","","","","","",""
"null","<p style=""font-size: 50px;"">+</p>","null","html-keyboard-response","116","2.1.0","1610994","F=YES, J=NO","ab6fgterpt","1","63","70","55","","","","","","","","","","","","","","","",""
"null","audio/beep-329314.mp3","null","audio-keyboard-response","117","2.1.0","1612479","F=YES, J=NO","ab6fgterpt","1","63","70","55","","","","","","","","","","","","","","","",""
"null","audio/alarm1.wav","null","audio-keyboard-response","118","2.1.0","1612990","F=YES, J=NO","ab6fgterpt","1","63","70","55","","","","","","","","","","","","","","","",""
"726","
          <p id=""word"" style=""font-size: 40px;"">swetp</p>
          <p style=""font-size: 16px;"">F = YES &nbsp;&nbsp;&nbsp; J = NO</p>
        ","j","html-keyboard-response","119","2.1.0","1613715","F=YES, J=NO","ab6fgterpt","1","63","70","55","","","","","","","","","swetp","alarm1","pseudoword","pseudoword","j","true","",""
"null","<p style=""font-size: 50px;"">+</p>","null","html-keyboard-response","120","2.1.0","1614025","F=YES, J=NO","ab6fgterpt","1","63","70","55","","","","","","","","","","","","","","","",""
"null","audio/beep-329314.mp3","null","audio-keyboard-response","121","2.1.0","1615512","F=YES, J=NO","ab6fgterpt","1","63","70","55","","","","","","","","","","","","","","","",""
"null","audio/ego.wav","null","audio-keyboard-response","122","2.1.0","1616022","F=YES, J=NO","ab6fgterpt","1","63","70","55","","","","","","","","","","","","","","","",""
"739","
          <p id=""word"" style=""font-size: 40px;"">bruite</p>
          <p style=""font-size: 16px;"">F = YES &nbsp;&nbsp;&nbsp; J = NO</p>
        ","j","html-keyboard-response","123","2.1.0","1616762","F=YES, J=NO","ab6fgterpt","1","63","70","55","","","","","","","","","bruite","ego","pseudoword","pseudoword","j","true","",""
"null","<p style=""font-size: 50px;"">+</p>","null","html-keyboard-response","124","2.1.0","1617074","F=YES, J=NO","ab6fgterpt","1","63","70","55","","","","","","","","","","","","","","","",""
"null","audio/beep-329314.mp3","null","audio-keyboard-response","125","2.1.0","1618563","F=YES, J=NO","ab6fgterpt","1","63","70","55","","","","","","","","","","","","","","","",""
"null","audio/account1.wav","null","audio-keyboard-response","126","2.1.0","1619367","F=YES, J=NO","ab6fgterpt","1","63","70","55","","","","","","","","","","","","","","","",""
"681","
          <p id=""word"" style=""font-size: 40px;"">paint</p>
          <p style=""font-size: 16px;"">F = YES &nbsp;&nbsp;&nbsp; J = NO</p>
        ","f","html-keyboard-response","127","2.1.0","1620049","F=YES, J=NO","ab6fgterpt","1","63","70","55","","","","","","","","","paint","account1","filler","filler","f","true","",""
"null","<p style=""font-size: 50px;"">+</p>","null","html-keyboard-response","128","2.1.0","1620362","F=YES, J=NO","ab6fgterpt","1","63","70","55","","","","","","","","","","","","","","","",""
"null","audio/beep-329314.mp3","null","audio-keyboard-response","129","2.1.0","1621849","F=YES, J=NO","ab6fgterpt","1","63","70","55","","","","","","","","","","","","","","","",""
"null","audio/van1.wav","null","audio-keyboard-response","130","2.1.0","1622440","F=YES, J=NO","ab6fgterpt","1","63","70","55","","","","","","","","","","","","","","","",""
"643","
          <p id=""word"" style=""font-size: 40px;"">push</p>
          <p style=""font-size: 16px;"">F = YES &nbsp;&nbsp;&nbsp; J = NO</p>
        ","f","html-keyboard-response","131","2.1.0","1623083","F=YES, J=NO","ab6fgterpt","1","63","70","55","","","","","","","","","push","van1","filler","filler","f","true","",""
"null","<p style=""font-size: 50px;"">+</p>","null","html-keyboard-response","132","2.1.0","1623414","F=YES, J=NO","ab6fgterpt","1","63","70","55","","","","","","","","","","","","","","","",""
"null","audio/beep-329314.mp3","null","audio-keyboard-response","133","2.1.0","1624899","F=YES, J=NO","ab6fgterpt","1","63","70","55","","","","","","","","","","","","","","","",""
"null","audio/fence.wav","null","audio-keyboard-response","134","2.1.0","1625503","F=YES, J=NO","ab6fgterpt","1","63","70","55","","","","","","","","","","","","","","","",""
"995","
          <p id=""word"" style=""font-size: 40px;"">trim</p>
          <p style=""font-size: 16px;"">F = YES &nbsp;&nbsp;&nbsp; J = NO</p>
        ","f","html-keyboard-response","135","2.1.0","1626498","F=YES, J=NO","ab6fgterpt","1","63","70","55","","","","","","","","","trim","fence","filler","filler","f","true","",""
"null","<p style=""font-size: 50px;"">+</p>","null","html-keyboard-response","136","2.1.0","1626802","F=YES, J=NO","ab6fgterpt","1","63","70","55","","","","","","","","","","","","","","","",""
"null","audio/beep-329314.mp3","null","audio-keyboard-response","137","2.1.0","1628284","F=YES, J=NO","ab6fgterpt","1","63","70","55","","","","","","","","","","","","","","","",""
"null","audio/window1.wav","null","audio-keyboard-response","138","2.1.0","1629009","F=YES, J=NO","ab6fgterpt","1","63","70","55","","","","","","","","","","","","","","","",""
"829","
          <p id=""word"" style=""font-size: 40px;"">toss</p>
          <p style=""font-size: 16px;"">F = YES &nbsp;&nbsp;&nbsp; J = NO</p>
        ","f","html-keyboard-response","139","2.1.0","1629840","F=YES, J=NO","ab6fgterpt","1","63","70","55","","","","","","","","","toss","window1","filler","filler","f","true","",""
"null","<p style=""font-size: 50px;"">+</p>","null","html-keyboard-response","140","2.1.0","1630150","F=YES, J=NO","ab6fgterpt","1","63","70","55","","","","","","","","","","","","","","","",""
"null","audio/beep-329314.mp3","null","audio-keyboard-response","141","2.1.0","1631637","F=YES, J=NO","ab6fgterpt","1","63","70","55","","","","","","","","","","","","","","","",""
"null","audio/ankle1.wav","null","audio-keyboard-response","142","2.1.0","1632100","F=YES, J=NO","ab6fgterpt","1","63","70","55","","","","","","","","","","","","","","","",""
"675","
          <p id=""word"" style=""font-size: 40px;"">kick</p>
          <p style=""font-size: 16px;"">F = YES &nbsp;&nbsp;&nbsp; J = NO</p>
        ","f","html-keyboard-response","143","2.1.0","1632776","F=YES, J=NO","ab6fgterpt","1","63","70","55","","","","","","","","","kick","ankle1","filler","filler","f","true","",""
"null","<p style=""font-size: 50px;"">+</p>","null","html-keyboard-response","144","2.1.0","1633091","F=YES, J=NO","ab6fgterpt","1","63","70","55","","","","","","","","","","","","","","","",""
"null","audio/beep-329314.mp3","null","audio-keyboard-response","145","2.1.0","1634581","F=YES, J=NO","ab6fgterpt","1","63","70","55","","","","","","","","","","","","","","","",""
"null","audio/golf1.wav","null","audio-keyboard-response","146","2.1.0","1635249","F=YES, J=NO","ab6fgterpt","1","63","70","55","","","","","","","","","","","","","","","",""
"836","
          <p id=""word"" style=""font-size: 40px;"">drabble</p>
          <p style=""font-size: 16px;"">F = YES &nbsp;&nbsp;&nbsp; J = NO</p>
        ","j","html-keyboard-response","147","2.1.0","1636085","F=YES, J=NO","ab6fgterpt","1","63","70","55","","","","","","","","","drabble","golf1","pseudoword","pseudoword","j","true","",""
"null","<p style=""font-size: 50px;"">+</p>","null","html-keyboard-response","148","2.1.0","1636394","F=YES, J=NO","ab6fgterpt","1","63","70","55","","","","","","","","","","","","","","","",""
"null","audio/beep-329314.mp3","null","audio-keyboard-response","149","2.1.0","1637879","F=YES, J=NO","ab6fgterpt","1","63","70","55","","","","","","","","","","","","","","","",""
"null","audio/handle.wav","null","audio-keyboard-response","150","2.1.0","1638608","F=YES, J=NO","ab6fgterpt","1","63","70","55","","","","","","","","","","","","","","","",""
"751","
          <p id=""word"" style=""font-size: 40px;"">moutes</p>
          <p style=""font-size: 16px;"">F = YES &nbsp;&nbsp;&nbsp; J = NO</p>
        ","j","html-keyboard-response","151","2.1.0","1639359","F=YES, J=NO","ab6fgterpt","1","63","70","55","","","","","","","","","moutes","handle","pseudoword","pseudoword","j","true","",""
"null","<p style=""font-size: 50px;"">+</p>","null","html-keyboard-response","152","2.1.0","1639705","F=YES, J=NO","ab6fgterpt","1","63","70","55","","","","","","","","","","","","","","","",""
"null","audio/beep-329314.mp3","null","audio-keyboard-response","153","2.1.0","1641188","F=YES, J=NO","ab6fgterpt","1","63","70","55","","","","","","","","","","","","","","","",""
"null","audio/voice.wav","null","audio-keyboard-response","154","2.1.0","1641928","F=YES, J=NO","ab6fgterpt","1","63","70","55","","","","","","","","","","","","","","","",""
"769","
          <p id=""word"" style=""font-size: 40px;"">grintle</p>
          <p style=""font-size: 16px;"">F = YES &nbsp;&nbsp;&nbsp; J = NO</p>
        ","j","html-keyboard-response","155","2.1.0","1642699","F=YES, J=NO","ab6fgterpt","1","63","70","55","","","","","","","","","grintle","voice","pseudoword","pseudoword","j","true","",""
"null","<p style=""font-size: 50px;"">+</p>","null","html-keyboard-response","156","2.1.0","1643014","F=YES, J=NO","ab6fgterpt","1","63","70","55","","","","","","","","","","","","","","","",""
"null","audio/beep-329314.mp3","null","audio-keyboard-response","157","2.1.0","1644495","F=YES, J=NO","ab6fgterpt","1","63","70","55","","","","","","","","","","","","","","","",""
"null","audio/floor.wav","null","audio-keyboard-response","158","2.1.0","1645175","F=YES, J=NO","ab6fgterpt","1","63","70","55","","","","","","","","","","","","","","","",""
"796","
          <p id=""word"" style=""font-size: 40px;"">mop</p>
          <p style=""font-size: 16px;"">F = YES &nbsp;&nbsp;&nbsp; J = NO</p>
        ","j","html-keyboard-response","159","2.1.0","1645971","F=YES, J=NO","ab6fgterpt","1","63","70","55","","","","","","","","","mop","floor","filler","filler","f","false","",""
"null","<p style=""font-size: 50px;"">+</p>","null","html-keyboard-response","160","2.1.0","1646273","F=YES, J=NO","ab6fgterpt","1","63","70","55","","","","","","","","","","","","","","","",""
"null","audio/beep-329314.mp3","null","audio-keyboard-response","161","2.1.0","1647757","F=YES, J=NO","ab6fgterpt","1","63","70","55","","","","","","","","","","","","","","","",""
"null","audio/cinema1.wav","null","audio-keyboard-response","162","2.1.0","1648313","F=YES, J=NO","ab6fgterpt","1","63","70","55","","","","","","","","","","","","","","","",""
"770","
          <p id=""word"" style=""font-size: 40px;"">murple</p>
          <p style=""font-size: 16px;"">F = YES &nbsp;&nbsp;&nbsp; J = NO</p>
        ","j","html-keyboard-response","163","2.1.0","1649084","F=YES, J=NO","ab6fgterpt","1","63","70","55","","","","","","","","","murple","cinema1","pseudoword","pseudoword","j","true","",""
"2679","
    <div style=""max-width: 800px; margin: auto; text-align: left;"">
      <h2>Part 2: Main Trials</h2>
      <p>Great job on the practice trials!</p>
      <p>You will now begin the <strong>main set of trials</strong>.</p>
      <p>Remember your key assignments:</p>
      <ul>
        <li><strong>F</strong> = YES (real English word)</li>
        <li><strong>J</strong> = NO (not a real English word)</li>
      </ul>
      <p>Try to respond as <strong>quickly and accurately</strong> as possible.</p>
      <p style=""margin-top: 2em;"">Press any key to begin the main trials.</p>
    </div>
  "," ","html-keyboard-response","164","2.1.0","1651763","F=YES, J=NO","ab6fgterpt","1","63","70","55","","","","","","","","","","","","","","","",""
"2220","<p>Starting main block 1 of 8. Press any key to continue.</p>"," ","html-keyboard-response","165","2.1.0","1653984","F=YES, J=NO","ab6fgterpt","1","63","70","55","","","","","","","","","","","","","","","",""
"null","<p style=""font-size: 50px;"">+</p>","null","html-keyboard-response","166","2.1.0","1654288","F=YES, J=NO","ab6fgterpt","1","63","70","55","","","","","","","","","","","","","","","",""
"null","audio/beep-329314.mp3","null","audio-keyboard-response","167","2.1.0","1655770","F=YES, J=NO","ab6fgterpt","1","63","70","55","","","","","","","","","","","","","","","",""
"null","audio/purpose.wav","null","audio-keyboard-response","168","2.1.0","1656374","F=YES, J=NO","ab6fgterpt","1","63","70","55","","","","","","","","","","","","","","","",""
"711","
          <p id=""word"" style=""font-size: 40px;"">whigm</p>
          <p style=""font-size: 16px;"">F = YES &nbsp;&nbsp;&nbsp; J = NO</p>
        ","j","html-keyboard-response","169","2.1.0","1657087","F=YES, J=NO","ab6fgterpt","1","63","70","55","","","","","","","","","whigm","purpose","pseudoword","pseudoword","j","true","",""
"null","<p style=""font-size: 50px;"">+</p>","null","html-keyboard-response","170","2.1.0","1657394","F=YES, J=NO","ab6fgterpt","1","63","70","55","","","","","","","","","","","","","","","",""
"null","audio/beep-329314.mp3","null","audio-keyboard-response","171","2.1.0","1658877","F=YES, J=NO","ab6fgterpt","1","63","70","55","","","","","","","","","","","","","","","",""
"null","audio/butter1.wav","null","audio-keyboard-response","172","2.1.0","1659296","F=YES, J=NO","ab6fgterpt","1","63","70","55","","","","","","","","","","","","","","","",""
"869","
          <p id=""word"" style=""font-size: 40px;"">chew</p>
          <p style=""font-size: 16px;"">F = YES &nbsp;&nbsp;&nbsp; J = NO</p>
        ","f","html-keyboard-response","173","2.1.0","1660165","F=YES, J=NO","ab6fgterpt","1","63","70","55","","","","","","","","","chew","butter1","filler","filler","f","true","",""
"null","<p style=""font-size: 50px;"">+</p>","null","html-keyboard-response","174","2.1.0","1660471","F=YES, J=NO","ab6fgterpt","1","63","70","55","","","","","","","","","","","","","","","",""
"null","audio/beep-329314.mp3","null","audio-keyboard-response","175","2.1.0","1661954","F=YES, J=NO","ab6fgterpt","1","63","70","55","","","","","","","","","","","","","","","",""
"null","audio/brain.wav","null","audio-keyboard-response","176","2.1.0","1662372","F=YES, J=NO","ab6fgterpt","1","63","70","55","","","","","","","","","","","","","","","",""
"655","
          <p id=""word"" style=""font-size: 40px;"">throw</p>
          <p style=""font-size: 16px;"">F = YES &nbsp;&nbsp;&nbsp; J = NO</p>
        ","f","html-keyboard-response","177","2.1.0","1663027","F=YES, J=NO","ab6fgterpt","1","63","70","55","","","","","","","","","throw","brain","filler","filler","f","true","",""
"null","<p style=""font-size: 50px;"">+</p>","null","html-keyboard-response","178","2.1.0","1663329","F=YES, J=NO","ab6fgterpt","1","63","70","55","","","","","","","","","","","","","","","",""
"null","audio/beep-329314.mp3","null","audio-keyboard-response","179","2.1.0","1664810","F=YES, J=NO","ab6fgterpt","1","63","70","55","","","","","","","","","","","","","","","",""
"null","audio/beach1.wav","null","audio-keyboard-response","180","2.1.0","1665370","F=YES, J=NO","ab6fgterpt","1","63","70","55","","","","","","","","","","","","","","","",""
"509","
          <p id=""word"" style=""font-size: 40px;"">drive</p>
          <p style=""font-size: 16px;"">F = YES &nbsp;&nbsp;&nbsp; J = NO</p>
        ","f","html-keyboard-response","181","2.1.0","1665879","F=YES, J=NO","ab6fgterpt","1","63","70","55","","","","","","","","","drive","beach1","filler","filler","f","true","",""
"null","<p style=""font-size: 50px;"">+</p>","null","html-keyboard-response","182","2.1.0","1666189","F=YES, J=NO","ab6fgterpt","1","63","70","55","","","","","","","","","","","","","","","",""
"null","audio/beep-329314.mp3","null","audio-keyboard-response","183","2.1.0","1667666","F=YES, J=NO","ab6fgterpt","1","63","70","55","","","","","","","","","","","","","","","",""
"null","audio/tomato.wav","null","audio-keyboard-response","184","2.1.0","1668270","F=YES, J=NO","ab6fgterpt","1","63","70","55","","","","","","","","","","","","","","","",""
"885","
          <p id=""word"" style=""font-size: 40px;"">gladies</p>
          <p style=""font-size: 16px;"">F = YES &nbsp;&nbsp;&nbsp; J = NO</p>
        ","j","html-keyboard-response","185","2.1.0","1669156","F=YES, J=NO","ab6fgterpt","1","63","70","55","","","","","","","","","gladies","tomato","pseudoword","pseudoword","j","true","",""
"null","<p style=""font-size: 50px;"">+</p>","null","html-keyboard-response","186","2.1.0","1669461","F=YES, J=NO","ab6fgterpt","1","63","70","55","","","","","","","","","","","","","","","",""
"null","audio/beep-329314.mp3","null","audio-keyboard-response","187","2.1.0","1670947","F=YES, J=NO","ab6fgterpt","1","63","70","55","","","","","","","","","","","","","","","",""
"null","audio/terrain.wav","null","audio-keyboard-response","188","2.1.0","1671503","F=YES, J=NO","ab6fgterpt","1","63","70","55","","","","","","","","","","","","","","","",""
"946","
          <p id=""word"" style=""font-size: 40px;"">twist</p>
          <p style=""font-size: 16px;"">F = YES &nbsp;&nbsp;&nbsp; J = NO</p>
        ","f","html-keyboard-response","189","2.1.0","1672449","F=YES, J=NO","ab6fgterpt","1","63","70","55","","","","","","","","","twist","terrain","filler","filler","f","true","",""
"null","<p style=""font-size: 50px;"">+</p>","null","html-keyboard-response","190","2.1.0","1672754","F=YES, J=NO","ab6fgterpt","1","63","70","55","","","","","","","","","","","","","","","",""
"null","audio/beep-329314.mp3","null","audio-keyboard-response","191","2.1.0","1674241","F=YES, J=NO","ab6fgterpt","1","63","70","55","","","","","","","","","","","","","","","",""
"null","audio/battle1.wav","null","audio-keyboard-response","192","2.1.0","1674659","F=YES, J=NO","ab6fgterpt","1","63","70","55","","","","","","","","","","","","","","","",""
"707","
          <p id=""word"" style=""font-size: 40px;"">boil</p>
          <p style=""font-size: 16px;"">F = YES &nbsp;&nbsp;&nbsp; J = NO</p>
        ","f","html-keyboard-response","193","2.1.0","1675366","F=YES, J=NO","ab6fgterpt","1","63","70","55","","","","","","","","","boil","battle1","filler","filler","f","true","",""
"null","<p style=""font-size: 50px;"">+</p>","null","html-keyboard-response","194","2.1.0","1675682","F=YES, J=NO","ab6fgterpt","1","63","70","55","","","","","","","","","","","","","","","",""
"null","audio/beep-329314.mp3","null","audio-keyboard-response","195","2.1.0","1677163","F=YES, J=NO","ab6fgterpt","1","63","70","55","","","","","","","","","","","","","","","",""
"null","audio/promise1.wav","null","audio-keyboard-response","196","2.1.0","1677767","F=YES, J=NO","ab6fgterpt","1","63","70","55","","","","","","","","","","","","","","","",""
"570","
          <p id=""word"" style=""font-size: 40px;"">break</p>
          <p style=""font-size: 16px;"">F = YES &nbsp;&nbsp;&nbsp; J = NO</p>
        ","f","html-keyboard-response","197","2.1.0","1678337","F=YES, J=NO","ab6fgterpt","1","63","70","55","","","","","","","","","break","promise1","metaphor","experimental","f","true","",""
"null","<p style=""font-size: 50px;"">+</p>","null","html-keyboard-response","198","2.1.0","1678648","F=YES, J=NO","ab6fgterpt","1","63","70","55","","","","","","","","","","","","","","","",""
"null","audio/beep-329314.mp3","null","audio-keyboard-response","199","2.1.0","1680132","F=YES, J=NO","ab6fgterpt","1","63","70","55","","","","","","","","","","","","","","","",""
"null","audio/haste1.wav","null","audio-keyboard-response","200","2.1.0","1680641","F=YES, J=NO","ab6fgterpt","1","63","70","55","","","","","","","","","","","","","","","",""
"null","
          <p id=""word"" style=""font-size: 40px;"">coraconate</p>
          <p style=""font-size: 16px;"">F = YES &nbsp;&nbsp;&nbsp; J = NO</p>
        ","null","html-keyboard-response","201","2.1.0","1682145","F=YES, J=NO","ab6fgterpt","1","63","70","55","","","","","","","","","coraconate","haste1","pseudoword","pseudoword","j","false","",""
"null","<p style=""font-size: 50px;"">+</p>","null","html-keyboard-response","202","2.1.0","1682454","F=YES, J=NO","ab6fgterpt","1","63","70","55","","","","","","","","","","","","","","","",""
"null","audio/beep-329314.mp3","null","audio-keyboard-response","203","2.1.0","1683939","F=YES, J=NO","ab6fgterpt","1","63","70","55","","","","","","","","","","","","","","","",""
"null","audio/holiday1.wav","null","audio-keyboard-response","204","2.1.0","1684496","F=YES, J=NO","ab6fgterpt","1","63","70","55","","","","","","","","","","","","","","","",""
"629","
          <p id=""word"" style=""font-size: 40px;"">drivets</p>
          <p style=""font-size: 16px;"">F = YES &nbsp;&nbsp;&nbsp; J = NO</p>
        ","j","html-keyboard-response","205","2.1.0","1685125","F=YES, J=NO","ab6fgterpt","1","63","70","55","","","","","","","","","drivets","holiday1","pseudoword","pseudoword","j","true","",""
"null","<p style=""font-size: 50px;"">+</p>","null","html-keyboard-response","206","2.1.0","1685426","F=YES, J=NO","ab6fgterpt","1","63","70","55","","","","","","","","","","","","","","","",""
"null","audio/beep-329314.mp3","null","audio-keyboard-response","207","2.1.0","1686912","F=YES, J=NO","ab6fgterpt","1","63","70","55","","","","","","","","","","","","","","","",""
"null","audio/strength.wav","null","audio-keyboard-response","208","2.1.0","1687611","F=YES, J=NO","ab6fgterpt","1","63","70","55","","","","","","","","","","","","","","","",""
"625","
          <p id=""word"" style=""font-size: 40px;"">plabet</p>
          <p style=""font-size: 16px;"">F = YES &nbsp;&nbsp;&nbsp; J = NO</p>
        ","j","html-keyboard-response","209","2.1.0","1688236","F=YES, J=NO","ab6fgterpt","1","63","70","55","","","","","","","","","plabet","strength","pseudoword","pseudoword","j","true","",""
"null","<p style=""font-size: 50px;"">+</p>","null","html-keyboard-response","210","2.1.0","1688552","F=YES, J=NO","ab6fgterpt","1","63","70","55","","","","","","","","","","","","","","","",""
"null","audio/beep-329314.mp3","null","audio-keyboard-response","211","2.1.0","1690032","F=YES, J=NO","ab6fgterpt","1","63","70","55","","","","","","","","","","","","","","","",""
"null","audio/heart1.wav","null","audio-keyboard-response","212","2.1.0","1690589","F=YES, J=NO","ab6fgterpt","1","63","70","55","","","","","","","","","","","","","","","",""
"652","
          <p id=""word"" style=""font-size: 40px;"">touch</p>
          <p style=""font-size: 16px;"">F = YES &nbsp;&nbsp;&nbsp; J = NO</p>
        ","f","html-keyboard-response","213","2.1.0","1691240","F=YES, J=NO","ab6fgterpt","1","63","70","55","","","","","","","","","touch","heart1","metaphor","experimental","f","true","",""
"null","<p style=""font-size: 50px;"">+</p>","null","html-keyboard-response","214","2.1.0","1691548","F=YES, J=NO","ab6fgterpt","1","63","70","55","","","","","","","","","","","","","","","",""
"null","audio/beep-329314.mp3","null","audio-keyboard-response","215","2.1.0","1693029","F=YES, J=NO","ab6fgterpt","1","63","70","55","","","","","","","","","","","","","","","",""
"null","audio/bishop1.wav","null","audio-keyboard-response","216","2.1.0","1693584","F=YES, J=NO","ab6fgterpt","1","63","70","55","","","","","","","","","","","","","","","",""
"539","
          <p id=""word"" style=""font-size: 40px;"">play</p>
          <p style=""font-size: 16px;"">F = YES &nbsp;&nbsp;&nbsp; J = NO</p>
        ","f","html-keyboard-response","217","2.1.0","1694124","F=YES, J=NO","ab6fgterpt","1","63","70","55","","","","","","","","","play","bishop1","filler","filler","f","true","",""
"null","<p style=""font-size: 50px;"">+</p>","null","html-keyboard-response","218","2.1.0","1694433","F=YES, J=NO","ab6fgterpt","1","63","70","55","","","","","","","","","","","","","","","",""
"null","audio/beep-329314.mp3","null","audio-keyboard-response","219","2.1.0","1695921","F=YES, J=NO","ab6fgterpt","1","63","70","55","","","","","","","","","","","","","","","",""
"null","audio/bottle.wav","null","audio-keyboard-response","220","2.1.0","1696339","F=YES, J=NO","ab6fgterpt","1","63","70","55","","","","","","","","","","","","","","","",""
"527","
          <p id=""word"" style=""font-size: 40px;"">watch</p>
          <p style=""font-size: 16px;"">F = YES &nbsp;&nbsp;&nbsp; J = NO</p>
        ","f","html-keyboard-response","221","2.1.0","1696866","F=YES, J=NO","ab6fgterpt","1","63","70","55","","","","","","","","","watch","bottle","filler","filler","f","true","",""
"null","<p style=""font-size: 50px;"">+</p>","null","html-keyboard-response","222","2.1.0","1697170","F=YES, J=NO","ab6fgterpt","1","63","70","55","","","","","","","","","","","","","","","",""
"null","audio/beep-329314.mp3","null","audio-keyboard-response","223","2.1.0","1698656","F=YES, J=NO","ab6fgterpt","1","63","70","55","","","","","","","","","","","","","","","",""
"null","audio/camera1.wav","null","audio-keyboard-response","224","2.1.0","1699121","F=YES, J=NO","ab6fgterpt","1","63","70","55","","","","","","","","","","","","","","","",""
"618","
          <p id=""word"" style=""font-size: 40px;"">stir</p>
          <p style=""font-size: 16px;"">F = YES &nbsp;&nbsp;&nbsp; J = NO</p>
        ","j","html-keyboard-response","225","2.1.0","1699740","F=YES, J=NO","ab6fgterpt","1","63","70","55","","","","","","","","","stir","camera1","filler","filler","f","false","",""
"null","<p style=""font-size: 50px;"">+</p>","null","html-keyboard-response","226","2.1.0","1700048","F=YES, J=NO","ab6fgterpt","1","63","70","55","","","","","","","","","","","","","","","",""
"null","audio/beep-329314.mp3","null","audio-keyboard-response","227","2.1.0","1701530","F=YES, J=NO","ab6fgterpt","1","63","70","55","","","","","","","","","","","","","","","",""
"null","audio/belief.wav","null","audio-keyboard-response","228","2.1.0","1702085","F=YES, J=NO","ab6fgterpt","1","63","70","55","","","","","","","","","","","","","","","",""
"571","
          <p id=""word"" style=""font-size: 40px;"">share</p>
          <p style=""font-size: 16px;"">F = YES &nbsp;&nbsp;&nbsp; J = NO</p>
        ","f","html-keyboard-response","229","2.1.0","1702656","F=YES, J=NO","ab6fgterpt","1","63","70","55","","","","","","","","","share","belief","metaphor","experimental","f","true","",""
"2006","<p>Excellent! You have finished block 1 of 8.</p>
                     <p>Feel free to take a 30 second break.</p>
                     <p>Press any key when you're ready to continue.</p>"," ","html-keyboard-response","230","2.1.0","1704663","F=YES, J=NO","ab6fgterpt","1","63","70","55","","","","","","","","","","","","","","","",""
"486","<p>Starting main block 2 of 8. Press any key to continue.</p>"," ","html-keyboard-response","231","2.1.0","1705150","F=YES, J=NO","ab6fgterpt","1","63","70","55","","","","","","","","","","","","","","","",""
"null","<p style=""font-size: 50px;"">+</p>","null","html-keyboard-response","232","2.1.0","1705454","F=YES, J=NO","ab6fgterpt","1","63","70","55","","","","","","","","","","","","","","","",""
"null","audio/beep-329314.mp3","null","audio-keyboard-response","233","2.1.0","1706944","F=YES, J=NO","ab6fgterpt","1","63","70","55","","","","","","","","","","","","","","","",""
"null","audio/dome.wav","null","audio-keyboard-response","234","2.1.0","1707317","F=YES, J=NO","ab6fgterpt","1","63","70","55","","","","","","","","","","","","","","","",""
"847","
          <p id=""word"" style=""font-size: 40px;"">scrupliness</p>
          <p style=""font-size: 16px;"">F = YES &nbsp;&nbsp;&nbsp; J = NO</p>
        ","j","html-keyboard-response","235","2.1.0","1708165","F=YES, J=NO","ab6fgterpt","1","63","70","55","","","","","","","","","scrupliness","dome","pseudoword","pseudoword","j","true","",""
"null","<p style=""font-size: 50px;"">+</p>","null","html-keyboard-response","236","2.1.0","1708474","F=YES, J=NO","ab6fgterpt","1","63","70","55","","","","","","","","","","","","","","","",""
"null","audio/beep-329314.mp3","null","audio-keyboard-response","237","2.1.0","1709953","F=YES, J=NO","ab6fgterpt","1","63","70","55","","","","","","","","","","","","","","","",""
"null","audio/test1.wav","null","audio-keyboard-response","238","2.1.0","1710463","F=YES, J=NO","ab6fgterpt","1","63","70","55","","","","","","","","","","","","","","","",""
"641","
          <p id=""word"" style=""font-size: 40px;"">twopch</p>
          <p style=""font-size: 16px;"">F = YES &nbsp;&nbsp;&nbsp; J = NO</p>
        ","j","html-keyboard-response","239","2.1.0","1711105","F=YES, J=NO","ab6fgterpt","1","63","70","55","","","","","","","","","twopch","test1","pseudoword","pseudoword","j","true","",""
"null","<p style=""font-size: 50px;"">+</p>","null","html-keyboard-response","240","2.1.0","1711421","F=YES, J=NO","ab6fgterpt","1","63","70","55","","","","","","","","","","","","","","","",""
"null","audio/beep-329314.mp3","null","audio-keyboard-response","241","2.1.0","1712902","F=YES, J=NO","ab6fgterpt","1","63","70","55","","","","","","","","","","","","","","","",""
"null","audio/dollar.wav","null","audio-keyboard-response","242","2.1.0","1713229","F=YES, J=NO","ab6fgterpt","1","63","70","55","","","","","","","","","","","","","","","",""
"727","
          <p id=""word"" style=""font-size: 40px;"">gliptism</p>
          <p style=""font-size: 16px;"">F = YES &nbsp;&nbsp;&nbsp; J = NO</p>
        ","j","html-keyboard-response","243","2.1.0","1713956","F=YES, J=NO","ab6fgterpt","1","63","70","55","","","","","","","","","gliptism","dollar","pseudoword","pseudoword","j","true","",""
"null","<p style=""font-size: 50px;"">+</p>","null","html-keyboard-response","244","2.1.0","1714263","F=YES, J=NO","ab6fgterpt","1","63","70","55","","","","","","","","","","","","","","","",""
"null","audio/beep-329314.mp3","null","audio-keyboard-response","245","2.1.0","1715750","F=YES, J=NO","ab6fgterpt","1","63","70","55","","","","","","","","","","","","","","","",""
"null","audio/fox.wav","null","audio-keyboard-response","246","2.1.0","1716493","F=YES, J=NO","ab6fgterpt","1","63","70","55","","","","","","","","","","","","","","","",""
"921","
          <p id=""word"" style=""font-size: 40px;"">conquer</p>
          <p style=""font-size: 16px;"">F = YES &nbsp;&nbsp;&nbsp; J = NO</p>
        ","f","html-keyboard-response","247","2.1.0","1717414","F=YES, J=NO","ab6fgterpt","1","63","70","55","","","","","","","","","conquer","fox","unrelated","experimental","f","true","",""
"null","<p style=""font-size: 50px;"">+</p>","null","html-keyboard-response","248","2.1.0","1717729","F=YES, J=NO","ab6fgterpt","1","63","70","55","","","","","","","","","","","","","","","",""
"null","audio/beep-329314.mp3","null","audio-keyboard-response","249","2.1.0","1719215","F=YES, J=NO","ab6fgterpt","1","63","70","55","","","","","","","","","","","","","","","",""
"null","audio/relief.wav","null","audio-keyboard-response","250","2.1.0","1719821","F=YES, J=NO","ab6fgterpt","1","63","70","55","","","","","","","","","","","","","","","",""
"596","
          <p id=""word"" style=""font-size: 40px;"">grigg</p>
          <p style=""font-size: 16px;"">F = YES &nbsp;&nbsp;&nbsp; J = NO</p>
        ","j","html-keyboard-response","251","2.1.0","1720417","F=YES, J=NO","ab6fgterpt","1","63","70","55","","","","","","","","","grigg","relief","pseudoword","pseudoword","j","true","",""
"null","<p style=""font-size: 50px;"">+</p>","null","html-keyboard-response","252","2.1.0","1720721","F=YES, J=NO","ab6fgterpt","1","63","70","55","","","","","","","","","","","","","","","",""
"null","audio/beep-329314.mp3","null","audio-keyboard-response","253","2.1.0","1722207","F=YES, J=NO","ab6fgterpt","1","63","70","55","","","","","","","","","","","","","","","",""
"null","audio/meal.wav","null","audio-keyboard-response","254","2.1.0","1722625","F=YES, J=NO","ab6fgterpt","1","63","70","55","","","","","","","","","","","","","","","",""
"578","
          <p id=""word"" style=""font-size: 40px;"">gallite</p>
          <p style=""font-size: 16px;"">F = YES &nbsp;&nbsp;&nbsp; J = NO</p>
        ","j","html-keyboard-response","255","2.1.0","1723205","F=YES, J=NO","ab6fgterpt","1","63","70","55","","","","","","","","","gallite","meal","pseudoword","pseudoword","j","true","",""
"null","<p style=""font-size: 50px;"">+</p>","null","html-keyboard-response","256","2.1.0","1723507","F=YES, J=NO","ab6fgterpt","1","63","70","55","","","","","","","","","","","","","","","",""
"null","audio/beep-329314.mp3","null","audio-keyboard-response","257","2.1.0","1724988","F=YES, J=NO","ab6fgterpt","1","63","70","55","","","","","","","","","","","","","","","",""
"null","audio/gossip1.wav","null","audio-keyboard-response","258","2.1.0","1725544","F=YES, J=NO","ab6fgterpt","1","63","70","55","","","","","","","","","","","","","","","",""
"696","
          <p id=""word"" style=""font-size: 40px;"">camerish</p>
          <p style=""font-size: 16px;"">F = YES &nbsp;&nbsp;&nbsp; J = NO</p>
        ","j","html-keyboard-response","259","2.1.0","1726241","F=YES, J=NO","ab6fgterpt","1","63","70","55","","","","","","","","","camerish","gossip1","pseudoword","pseudoword","j","true","",""
"null","<p style=""font-size: 50px;"">+</p>","null","html-keyboard-response","260","2.1.0","1726550","F=YES, J=NO","ab6fgterpt","1","63","70","55","","","","","","","","","","","","","","","",""
"null","audio/beep-329314.mp3","null","audio-keyboard-response","261","2.1.0","1728030","F=YES, J=NO","ab6fgterpt","1","63","70","55","","","","","","","","","","","","","","","",""
"null","audio/cottage1.wav","null","audio-keyboard-response","262","2.1.0","1728634","F=YES, J=NO","ab6fgterpt","1","63","70","55","","","","","","","","","","","","","","","",""
"975","
          <p id=""word"" style=""font-size: 40px;"">release</p>
          <p style=""font-size: 16px;"">F = YES &nbsp;&nbsp;&nbsp; J = NO</p>
        ","f","html-keyboard-response","263","2.1.0","1729611","F=YES, J=NO","ab6fgterpt","1","63","70","55","","","","","","","","","release","cottage1","unrelated","experimental","f","true","",""
"null","<p style=""font-size: 50px;"">+</p>","null","html-keyboard-response","264","2.1.0","1729918","F=YES, J=NO","ab6fgterpt","1","63","70","55","","","","","","","","","","","","","","","",""
"null","audio/beep-329314.mp3","null","audio-keyboard-response","265","2.1.0","1731401","F=YES, J=NO","ab6fgterpt","1","63","70","55","","","","","","","","","","","","","","","",""
"null","audio/plot1.wav","null","audio-keyboard-response","266","2.1.0","1731914","F=YES, J=NO","ab6fgterpt","1","63","70","55","","","","","","","","","","","","","","","",""
"710","
          <p id=""word"" style=""font-size: 40px;"">glenter</p>
          <p style=""font-size: 16px;"">F = YES &nbsp;&nbsp;&nbsp; J = NO</p>
        ","j","html-keyboard-response","267","2.1.0","1732625","F=YES, J=NO","ab6fgterpt","1","63","70","55","","","","","","","","","glenter","plot1","pseudoword","pseudoword","j","true","",""
"null","<p style=""font-size: 50px;"">+</p>","null","html-keyboard-response","268","2.1.0","1732936","F=YES, J=NO","ab6fgterpt","1","63","70","55","","","","","","","","","","","","","","","",""
"null","audio/beep-329314.mp3","null","audio-keyboard-response","269","2.1.0","1734417","F=YES, J=NO","ab6fgterpt","1","63","70","55","","","","","","","","","","","","","","","",""
"null","audio/alarm1.wav","null","audio-keyboard-response","270","2.1.0","1734973","F=YES, J=NO","ab6fgterpt","1","63","70","55","","","","","","","","","","","","","","","",""
"915","
          <p id=""word"" style=""font-size: 40px;"">lock</p>
          <p style=""font-size: 16px;"">F = YES &nbsp;&nbsp;&nbsp; J = NO</p>
        ","f","html-keyboard-response","271","2.1.0","1735889","F=YES, J=NO","ab6fgterpt","1","63","70","55","","","","","","","","","lock","alarm1","filler","filler","f","true","",""
"null","<p style=""font-size: 50px;"">+</p>","null","html-keyboard-response","272","2.1.0","1736192","F=YES, J=NO","ab6fgterpt","1","63","70","55","","","","","","","","","","","","","","","",""
"null","audio/beep-329314.mp3","null","audio-keyboard-response","273","2.1.0","1737677","F=YES, J=NO","ab6fgterpt","1","63","70","55","","","","","","","","","","","","","","","",""
"null","audio/scar.wav","null","audio-keyboard-response","274","2.1.0","1738235","F=YES, J=NO","ab6fgterpt","1","63","70","55","","","","","","","","","","","","","","","",""
"896","
          <p id=""word"" style=""font-size: 40px;"">adelineate</p>
          <p style=""font-size: 16px;"">F = YES &nbsp;&nbsp;&nbsp; J = NO</p>
        ","j","html-keyboard-response","275","2.1.0","1739132","F=YES, J=NO","ab6fgterpt","1","63","70","55","","","","","","","","","adelineate","scar","pseudoword","pseudoword","j","true","",""
"null","<p style=""font-size: 50px;"">+</p>","null","html-keyboard-response","276","2.1.0","1739442","F=YES, J=NO","ab6fgterpt","1","63","70","55","","","","","","","","","","","","","","","",""
"null","audio/beep-329314.mp3","null","audio-keyboard-response","277","2.1.0","1740927","F=YES, J=NO","ab6fgterpt","1","63","70","55","","","","","","","","","","","","","","","",""
"null","audio/scar.wav","null","audio-keyboard-response","278","2.1.0","1741482","F=YES, J=NO","ab6fgterpt","1","63","70","55","","","","","","","","","","","","","","","",""
"598","
          <p id=""word"" style=""font-size: 40px;"">hide</p>
          <p style=""font-size: 16px;"">F = YES &nbsp;&nbsp;&nbsp; J = NO</p>
        ","f","html-keyboard-response","279","2.1.0","1742082","F=YES, J=NO","ab6fgterpt","1","63","70","55","","","","","","","","","hide","scar","literal","experimental","f","true","",""
"null","<p style=""font-size: 50px;"">+</p>","null","html-keyboard-response","280","2.1.0","1742389","F=YES, J=NO","ab6fgterpt","1","63","70","55","","","","","","","","","","","","","","","",""
"null","audio/beep-329314.mp3","null","audio-keyboard-response","281","2.1.0","1743873","F=YES, J=NO","ab6fgterpt","1","63","70","55","","","","","","","","","","","","","","","",""
"null","audio/relief.wav","null","audio-keyboard-response","282","2.1.0","1744477","F=YES, J=NO","ab6fgterpt","1","63","70","55","","","","","","","","","","","","","","","",""
"952","
          <p id=""word"" style=""font-size: 40px;"">bring</p>
          <p style=""font-size: 16px;"">F = YES &nbsp;&nbsp;&nbsp; J = NO</p>
        ","f","html-keyboard-response","283","2.1.0","1745431","F=YES, J=NO","ab6fgterpt","1","63","70","55","","","","","","","","","bring","relief","metaphor","experimental","f","true","",""
"null","<p style=""font-size: 50px;"">+</p>","null","html-keyboard-response","284","2.1.0","1745744","F=YES, J=NO","ab6fgterpt","1","63","70","55","","","","","","","","","","","","","","","",""
"null","audio/beep-329314.mp3","null","audio-keyboard-response","285","2.1.0","1747230","F=YES, J=NO","ab6fgterpt","1","63","70","55","","","","","","","","","","","","","","","",""
"null","audio/mirror1.wav","null","audio-keyboard-response","286","2.1.0","1747601","F=YES, J=NO","ab6fgterpt","1","63","70","55","","","","","","","","","","","","","","","",""
"746","
          <p id=""word"" style=""font-size: 40px;"">fight</p>
          <p style=""font-size: 16px;"">F = YES &nbsp;&nbsp;&nbsp; J = NO</p>
        ","f","html-keyboard-response","287","2.1.0","1748349","F=YES, J=NO","ab6fgterpt","1","63","70","55","","","","","","","","","fight","mirror1","unrelated","experimental","f","true","",""
"null","<p style=""font-size: 50px;"">+</p>","null","html-keyboard-response","288","2.1.0","1748650","F=YES, J=NO","ab6fgterpt","1","63","70","55","","","","","","","","","","","","","","","",""
"null","audio/beep-329314.mp3","null","audio-keyboard-response","289","2.1.0","1750135","F=YES, J=NO","ab6fgterpt","1","63","70","55","","","","","","","","","","","","","","","",""
"null","audio/gift1.wav","null","audio-keyboard-response","290","2.1.0","1750554","F=YES, J=NO","ab6fgterpt","1","63","70","55","","","","","","","","","","","","","","","",""
"1015","
          <p id=""word"" style=""font-size: 40px;"">protsh</p>
          <p style=""font-size: 16px;"">F = YES &nbsp;&nbsp;&nbsp; J = NO</p>
        ","j","html-keyboard-response","291","2.1.0","1751569","F=YES, J=NO","ab6fgterpt","1","63","70","55","","","","","","","","","protsh","gift1","pseudoword","pseudoword","j","true","",""
"null","<p style=""font-size: 50px;"">+</p>","null","html-keyboard-response","292","2.1.0","1751873","F=YES, J=NO","ab6fgterpt","1","63","70","55","","","","","","","","","","","","","","","",""
"null","audio/beep-329314.mp3","null","audio-keyboard-response","293","2.1.0","1753354","F=YES, J=NO","ab6fgterpt","1","63","70","55","","","","","","","","","","","","","","","",""
"null","audio/table1.wav","null","audio-keyboard-response","294","2.1.0","1753820","F=YES, J=NO","ab6fgterpt","1","63","70","55","","","","","","","","","","","","","","","",""
"926","
          <p id=""word"" style=""font-size: 40px;"">clear</p>
          <p style=""font-size: 16px;"">F = YES &nbsp;&nbsp;&nbsp; J = NO</p>
        ","f","html-keyboard-response","295","2.1.0","1754746","F=YES, J=NO","ab6fgterpt","1","63","70","55","","","","","","","","","clear","table1","literal","experimental","f","true","",""
"6351","<p>Excellent! You have finished block 2 of 8.</p>
                     <p>Feel free to take a 30 second break.</p>
                     <p>Press any key when you're ready to continue.</p>"," ","html-keyboard-response","296","2.1.0","1761098","F=YES, J=NO","ab6fgterpt","1","63","70","55","","","","","","","","","","","","","","","",""
"866","<p>Starting main block 3 of 8. Press any key to continue.</p>"," ","html-keyboard-response","297","2.1.0","1761965","F=YES, J=NO","ab6fgterpt","1","63","70","55","","","","","","","","","","","","","","","",""
"null","<p style=""font-size: 50px;"">+</p>","null","html-keyboard-response","298","2.1.0","1762267","F=YES, J=NO","ab6fgterpt","1","63","70","55","","","","","","","","","","","","","","","",""
"null","audio/beep-329314.mp3","null","audio-keyboard-response","299","2.1.0","1763749","F=YES, J=NO","ab6fgterpt","1","63","70","55","","","","","","","","","","","","","","","",""
"null","audio/roof1.wav","null","audio-keyboard-response","300","2.1.0","1764215","F=YES, J=NO","ab6fgterpt","1","63","70","55","","","","","","","","","","","","","","","",""
"688","
          <p id=""word"" style=""font-size: 40px;"">construct</p>
          <p style=""font-size: 16px;"">F = YES &nbsp;&nbsp;&nbsp; J = NO</p>
        ","f","html-keyboard-response","301","2.1.0","1764904","F=YES, J=NO","ab6fgterpt","1","63","70","55","","","","","","","","","construct","roof1","literal","experimental","f","true","",""
"null","<p style=""font-size: 50px;"">+</p>","null","html-keyboard-response","302","2.1.0","1765219","F=YES, J=NO","ab6fgterpt","1","63","70","55","","","","","","","","","","","","","","","",""
"null","audio/beep-329314.mp3","null","audio-keyboard-response","303","2.1.0","1766706","F=YES, J=NO","ab6fgterpt","1","63","70","55","","","","","","","","","","","","","","","",""
"null","audio/cave1.wav","null","audio-keyboard-response","304","2.1.0","1767216","F=YES, J=NO","ab6fgterpt","1","63","70","55","","","","","","","","","","","","","","","",""
"540","
          <p id=""word"" style=""font-size: 40px;"">hurt</p>
          <p style=""font-size: 16px;"">F = YES &nbsp;&nbsp;&nbsp; J = NO</p>
        ","f","html-keyboard-response","305","2.1.0","1767756","F=YES, J=NO","ab6fgterpt","1","63","70","55","","","","","","","","","hurt","cave1","unrelated","experimental","f","true","",""
"null","<p style=""font-size: 50px;"">+</p>","null","html-keyboard-response","306","2.1.0","1768066","F=YES, J=NO","ab6fgterpt","1","63","70","55","","","","","","","","","","","","","","","",""
"null","audio/beep-329314.mp3","null","audio-keyboard-response","307","2.1.0","1769547","F=YES, J=NO","ab6fgterpt","1","63","70","55","","","","","","","","","","","","","","","",""
"null","audio/neck.wav","null","audio-keyboard-response","308","2.1.0","1770057","F=YES, J=NO","ab6fgterpt","1","63","70","55","","","","","","","","","","","","","","","",""
"983","
          <p id=""word"" style=""font-size: 40px;"">werling</p>
          <p style=""font-size: 16px;"">F = YES &nbsp;&nbsp;&nbsp; J = NO</p>
        ","j","html-keyboard-response","309","2.1.0","1771041","F=YES, J=NO","ab6fgterpt","1","63","70","55","","","","","","","","","werling","neck","pseudoword","pseudoword","j","true","",""
"null","<p style=""font-size: 50px;"">+</p>","null","html-keyboard-response","310","2.1.0","1771344","F=YES, J=NO","ab6fgterpt","1","63","70","55","","","","","","","","","","","","","","","",""
"null","audio/beep-329314.mp3","null","audio-keyboard-response","311","2.1.0","1772828","F=YES, J=NO","ab6fgterpt","1","63","70","55","","","","","","","","","","","","","","","",""
"null","audio/mouth1.wav","null","audio-keyboard-response","312","2.1.0","1773339","F=YES, J=NO","ab6fgterpt","1","63","70","55","","","","","","","","","","","","","","","",""
"900","
          <p id=""word"" style=""font-size: 40px;"">spolial</p>
          <p style=""font-size: 16px;"">F = YES &nbsp;&nbsp;&nbsp; J = NO</p>
        ","j","html-keyboard-response","313","2.1.0","1774240","F=YES, J=NO","ab6fgterpt","1","63","70","55","","","","","","","","","spolial","mouth1","pseudoword","pseudoword","j","true","",""
"null","<p style=""font-size: 50px;"">+</p>","null","html-keyboard-response","314","2.1.0","1774547","F=YES, J=NO","ab6fgterpt","1","63","70","55","","","","","","","","","","","","","","","",""
"null","audio/beep-329314.mp3","null","audio-keyboard-response","315","2.1.0","1776033","F=YES, J=NO","ab6fgterpt","1","63","70","55","","","","","","","","","","","","","","","",""
"null","audio/birth1.wav","null","audio-keyboard-response","316","2.1.0","1776499","F=YES, J=NO","ab6fgterpt","1","63","70","55","","","","","","","","","","","","","","","",""
"638","
          <p id=""word"" style=""font-size: 40px;"">peel</p>
          <p style=""font-size: 16px;"">F = YES &nbsp;&nbsp;&nbsp; J = NO</p>
        ","f","html-keyboard-response","317","2.1.0","1777137","F=YES, J=NO","ab6fgterpt","1","63","70","55","","","","","","","","","peel","birth1","filler","filler","f","true","",""
"null","<p style=""font-size: 50px;"">+</p>","null","html-keyboard-response","318","2.1.0","1777443","F=YES, J=NO","ab6fgterpt","1","63","70","55","","","","","","","","","","","","","","","",""
"null","audio/beep-329314.mp3","null","audio-keyboard-response","319","2.1.0","1778931","F=YES, J=NO","ab6fgterpt","1","63","70","55","","","","","","","","","","","","","","","",""
"null","audio/fence.wav","null","audio-keyboard-response","320","2.1.0","1779533","F=YES, J=NO","ab6fgterpt","1","63","70","55","","","","","","","","","","","","","","","",""
"647","
          <p id=""word"" style=""font-size: 40px;"">climb</p>
          <p style=""font-size: 16px;"">F = YES &nbsp;&nbsp;&nbsp; J = NO</p>
        ","f","html-keyboard-response","321","2.1.0","1780181","F=YES, J=NO","ab6fgterpt","1","63","70","55","","","","","","","","","climb","fence","literal","experimental","f","true","",""
"null","<p style=""font-size: 50px;"">+</p>","null","html-keyboard-response","322","2.1.0","1780495","F=YES, J=NO","ab6fgterpt","1","63","70","55","","","","","","","","","","","","","","","",""
"null","audio/beep-329314.mp3","null","audio-keyboard-response","323","2.1.0","1781978","F=YES, J=NO","ab6fgterpt","1","63","70","55","","","","","","","","","","","","","","","",""
"null","audio/mile1.wav","null","audio-keyboard-response","324","2.1.0","1782397","F=YES, J=NO","ab6fgterpt","1","63","70","55","","","","","","","","","","","","","","","",""
"701","
          <p id=""word"" style=""font-size: 40px;"">writch</p>
          <p style=""font-size: 16px;"">F = YES &nbsp;&nbsp;&nbsp; J = NO</p>
        ","j","html-keyboard-response","325","2.1.0","1783098","F=YES, J=NO","ab6fgterpt","1","63","70","55","","","","","","","","","writch","mile1","pseudoword","pseudoword","j","true","",""
"null","<p style=""font-size: 50px;"">+</p>","null","html-keyboard-response","326","2.1.0","1783402","F=YES, J=NO","ab6fgterpt","1","63","70","55","","","","","","","","","","","","","","","",""
"null","audio/beep-329314.mp3","null","audio-keyboard-response","327","2.1.0","1784887","F=YES, J=NO","ab6fgterpt","1","63","70","55","","","","","","","","","","","","","","","",""
"null","audio/client1.wav","null","audio-keyboard-response","328","2.1.0","1785538","F=YES, J=NO","ab6fgterpt","1","63","70","55","","","","","","","","","","","","","","","",""
"661","
          <p id=""word"" style=""font-size: 40px;"">droothe</p>
          <p style=""font-size: 16px;"">F = YES &nbsp;&nbsp;&nbsp; J = NO</p>
        ","j","html-keyboard-response","329","2.1.0","1786200","F=YES, J=NO","ab6fgterpt","1","63","70","55","","","","","","","","","droothe","client1","pseudoword","pseudoword","j","true","",""
"null","<p style=""font-size: 50px;"">+</p>","null","html-keyboard-response","330","2.1.0","1786502","F=YES, J=NO","ab6fgterpt","1","63","70","55","","","","","","","","","","","","","","","",""
"null","audio/beep-329314.mp3","null","audio-keyboard-response","331","2.1.0","1787984","F=YES, J=NO","ab6fgterpt","1","63","70","55","","","","","","","","","","","","","","","",""
"null","audio/desire.wav","null","audio-keyboard-response","332","2.1.0","1788542","F=YES, J=NO","ab6fgterpt","1","63","70","55","","","","","","","","","","","","","","","",""
"606","
          <p id=""word"" style=""font-size: 40px;"">open</p>
          <p style=""font-size: 16px;"">F = YES &nbsp;&nbsp;&nbsp; J = NO</p>
        ","f","html-keyboard-response","333","2.1.0","1789148","F=YES, J=NO","ab6fgterpt","1","63","70","55","","","","","","","","","open","desire","unrelated","experimental","f","true","",""
"null","<p style=""font-size: 50px;"">+</p>","null","html-keyboard-response","334","2.1.0","1789450","F=YES, J=NO","ab6fgterpt","1","63","70","55","","","","","","","","","","","","","","","",""
"null","audio/beep-329314.mp3","null","audio-keyboard-response","335","2.1.0","1790932","F=YES, J=NO","ab6fgterpt","1","63","70","55","","","","","","","","","","","","","","","",""
"null","audio/key1.wav","null","audio-keyboard-response","336","2.1.0","1791256","F=YES, J=NO","ab6fgterpt","1","63","70","55","","","","","","","","","","","","","","","",""
"807","
          <p id=""word"" style=""font-size: 40px;"">sminsh</p>
          <p style=""font-size: 16px;"">F = YES &nbsp;&nbsp;&nbsp; J = NO</p>
        ","j","html-keyboard-response","337","2.1.0","1792064","F=YES, J=NO","ab6fgterpt","1","63","70","55","","","","","","","","","sminsh","key1","pseudoword","pseudoword","j","true","",""
"null","<p style=""font-size: 50px;"">+</p>","null","html-keyboard-response","338","2.1.0","1792367","F=YES, J=NO","ab6fgterpt","1","63","70","55","","","","","","","","","","","","","","","",""
"null","audio/beep-329314.mp3","null","audio-keyboard-response","339","2.1.0","1793853","F=YES, J=NO","ab6fgterpt","1","63","70","55","","","","","","","","","","","","","","","",""
"null","audio/desire.wav","null","audio-keyboard-response","340","2.1.0","1794409","F=YES, J=NO","ab6fgterpt","1","63","70","55","","","","","","","","","","","","","","","",""
"875","
          <p id=""word"" style=""font-size: 40px;"">nophed</p>
          <p style=""font-size: 16px;"">F = YES &nbsp;&nbsp;&nbsp; J = NO</p>
        ","j","html-keyboard-response","341","2.1.0","1795286","F=YES, J=NO","ab6fgterpt","1","63","70","55","","","","","","","","","nophed","desire","pseudoword","pseudoword","j","true","",""
"null","<p style=""font-size: 50px;"">+</p>","null","html-keyboard-response","342","2.1.0","1795600","F=YES, J=NO","ab6fgterpt","1","63","70","55","","","","","","","","","","","","","","","",""
"null","audio/beep-329314.mp3","null","audio-keyboard-response","343","2.1.0","1797085","F=YES, J=NO","ab6fgterpt","1","63","70","55","","","","","","","","","","","","","","","",""
"null","audio/road.wav","null","audio-keyboard-response","344","2.1.0","1797457","F=YES, J=NO","ab6fgterpt","1","63","70","55","","","","","","","","","","","","","","","",""
"625","
          <p id=""word"" style=""font-size: 40px;"">flood</p>
          <p style=""font-size: 16px;"">F = YES &nbsp;&nbsp;&nbsp; J = NO</p>
        ","f","html-keyboard-response","345","2.1.0","1798083","F=YES, J=NO","ab6fgterpt","1","63","70","55","","","","","","","","","flood","road","literal","experimental","f","true","",""
"null","<p style=""font-size: 50px;"">+</p>","null","html-keyboard-response","346","2.1.0","1798384","F=YES, J=NO","ab6fgterpt","1","63","70","55","","","","","","","","","","","","","","","",""
"null","audio/beep-329314.mp3","null","audio-keyboard-response","347","2.1.0","1799866","F=YES, J=NO","ab6fgterpt","1","63","70","55","","","","","","","","","","","","","","","",""
"null","audio/arm.wav","null","audio-keyboard-response","348","2.1.0","1800329","F=YES, J=NO","ab6fgterpt","1","63","70","55","","","","","","","","","","","","","","","",""
"689","
          <p id=""word"" style=""font-size: 40px;"">pigne</p>
          <p style=""font-size: 16px;"">F = YES &nbsp;&nbsp;&nbsp; J = NO</p>
        ","j","html-keyboard-response","349","2.1.0","1801020","F=YES, J=NO","ab6fgterpt","1","63","70","55","","","","","","","","","pigne","arm","pseudoword","pseudoword","j","true","",""
"null","<p style=""font-size: 50px;"">+</p>","null","html-keyboard-response","350","2.1.0","1801333","F=YES, J=NO","ab6fgterpt","1","63","70","55","","","","","","","","","","","","","","","",""
"null","audio/beep-329314.mp3","null","audio-keyboard-response","351","2.1.0","1802818","F=YES, J=NO","ab6fgterpt","1","63","70","55","","","","","","","","","","","","","","","",""
"null","audio/terrain.wav","null","audio-keyboard-response","352","2.1.0","1803329","F=YES, J=NO","ab6fgterpt","1","63","70","55","","","","","","","","","","","","","","","",""
"672","
          <p id=""word"" style=""font-size: 40px;"">navigate</p>
          <p style=""font-size: 16px;"">F = YES &nbsp;&nbsp;&nbsp; J = NO</p>
        ","f","html-keyboard-response","353","2.1.0","1804002","F=YES, J=NO","ab6fgterpt","1","63","70","55","","","","","","","","","navigate","terrain","literal","experimental","f","true","",""
"null","<p style=""font-size: 50px;"">+</p>","null","html-keyboard-response","354","2.1.0","1804317","F=YES, J=NO","ab6fgterpt","1","63","70","55","","","","","","","","","","","","","","","",""
"null","audio/beep-329314.mp3","null","audio-keyboard-response","355","2.1.0","1805803","F=YES, J=NO","ab6fgterpt","1","63","70","55","","","","","","","","","","","","","","","",""
"null","audio/street.wav","null","audio-keyboard-response","356","2.1.0","1806450","F=YES, J=NO","ab6fgterpt","1","63","70","55","","","","","","","","","","","","","","","",""
"554","
          <p id=""word"" style=""font-size: 40px;"">hold</p>
          <p style=""font-size: 16px;"">F = YES &nbsp;&nbsp;&nbsp; J = NO</p>
        ","f","html-keyboard-response","357","2.1.0","1807005","F=YES, J=NO","ab6fgterpt","1","63","70","55","","","","","","","","","hold","street","unrelated","experimental","f","true","",""
"null","<p style=""font-size: 50px;"">+</p>","null","html-keyboard-response","358","2.1.0","1807318","F=YES, J=NO","ab6fgterpt","1","63","70","55","","","","","","","","","","","","","","","",""
"null","audio/beep-329314.mp3","null","audio-keyboard-response","359","2.1.0","1808804","F=YES, J=NO","ab6fgterpt","1","63","70","55","","","","","","","","","","","","","","","",""
"null","audio/planet1.wav","null","audio-keyboard-response","360","2.1.0","1809361","F=YES, J=NO","ab6fgterpt","1","63","70","55","","","","","","","","","","","","","","","",""
"517","
          <p id=""word"" style=""font-size: 40px;"">save</p>
          <p style=""font-size: 16px;"">F = YES &nbsp;&nbsp;&nbsp; J = NO</p>
        ","f","html-keyboard-response","361","2.1.0","1809879","F=YES, J=NO","ab6fgterpt","1","63","70","55","","","","","","","","","save","planet1","metaphor","experimental","f","true","",""
"1019","<p>Excellent! You have finished block 3 of 8.</p>
                     <p>Feel free to take a 30 second break.</p>
                     <p>Press any key when you're ready to continue.</p>","f","html-keyboard-response","362","2.1.0","1810898","F=YES, J=NO","ab6fgterpt","1","63","70","55","","","","","","","","","","","","","","","",""
"466","<p>Starting main block 4 of 8. Press any key to continue.</p>","f","html-keyboard-response","363","2.1.0","1811364","F=YES, J=NO","ab6fgterpt","1","63","70","55","","","","","","","","","","","","","","","",""
"null","<p style=""font-size: 50px;"">+</p>","null","html-keyboard-response","364","2.1.0","1811674","F=YES, J=NO","ab6fgterpt","1","63","70","55","","","","","","","","","","","","","","","",""
"null","audio/beep-329314.mp3","null","audio-keyboard-response","365","2.1.0","1813162","F=YES, J=NO","ab6fgterpt","1","63","70","55","","","","","","","","","","","","","","","",""
"null","audio/ankle1.wav","null","audio-keyboard-response","366","2.1.0","1813626","F=YES, J=NO","ab6fgterpt","1","63","70","55","","","","","","","","","","","","","","","",""
"633","
          <p id=""word"" style=""font-size: 40px;"">switm</p>
          <p style=""font-size: 16px;"">F = YES &nbsp;&nbsp;&nbsp; J = NO</p>
        ","j","html-keyboard-response","367","2.1.0","1814260","F=YES, J=NO","ab6fgterpt","1","63","70","55","","","","","","","","","switm","ankle1","pseudoword","pseudoword","j","true","",""
"null","<p style=""font-size: 50px;"">+</p>","null","html-keyboard-response","368","2.1.0","1814567","F=YES, J=NO","ab6fgterpt","1","63","70","55","","","","","","","","","","","","","","","",""
"null","audio/beep-329314.mp3","null","audio-keyboard-response","369","2.1.0","1816052","F=YES, J=NO","ab6fgterpt","1","63","70","55","","","","","","","","","","","","","","","",""
"null","audio/vehicle1.wav","null","audio-keyboard-response","370","2.1.0","1816653","F=YES, J=NO","ab6fgterpt","1","63","70","55","","","","","","","","","","","","","","","",""
"728","
          <p id=""word"" style=""font-size: 40px;"">dropt</p>
          <p style=""font-size: 16px;"">F = YES &nbsp;&nbsp;&nbsp; J = NO</p>
        ","j","html-keyboard-response","371","2.1.0","1817383","F=YES, J=NO","ab6fgterpt","1","63","70","55","","","","","","","","","dropt","vehicle1","pseudoword","pseudoword","j","true","",""
"null","<p style=""font-size: 50px;"">+</p>","null","html-keyboard-response","372","2.1.0","1817687","F=YES, J=NO","ab6fgterpt","1","63","70","55","","","","","","","","","","","","","","","",""
"null","audio/beep-329314.mp3","null","audio-keyboard-response","373","2.1.0","1819174","F=YES, J=NO","ab6fgterpt","1","63","70","55","","","","","","","","","","","","","","","",""
"null","audio/test1.wav","null","audio-keyboard-response","374","2.1.0","1819683","F=YES, J=NO","ab6fgterpt","1","63","70","55","","","","","","","","","","","","","","","",""
"832","
          <p id=""word"" style=""font-size: 40px;"">run</p>
          <p style=""font-size: 16px;"">F = YES &nbsp;&nbsp;&nbsp; J = NO</p>
        ","f","html-keyboard-response","375","2.1.0","1820516","F=YES, J=NO","ab6fgterpt","1","63","70","55","","","","","","","","","run","test1","metaphor","experimental","f","true","",""
"null","<p style=""font-size: 50px;"">+</p>","null","html-keyboard-response","376","2.1.0","1820824","F=YES, J=NO","ab6fgterpt","1","63","70","55","","","","","","","","","","","","","","","",""
"null","audio/beep-329314.mp3","null","audio-keyboard-response","377","2.1.0","1822307","F=YES, J=NO","ab6fgterpt","1","63","70","55","","","","","","","","","","","","","","","",""
"null","audio/hotel1.wav","null","audio-keyboard-response","378","2.1.0","1822863","F=YES, J=NO","ab6fgterpt","1","63","70","55","","","","","","","","","","","","","","","",""
"1046","
          <p id=""word"" style=""font-size: 40px;"">spread</p>
          <p style=""font-size: 16px;"">F = YES &nbsp;&nbsp;&nbsp; J = NO</p>
        ","f","html-keyboard-response","379","2.1.0","1823909","F=YES, J=NO","ab6fgterpt","1","63","70","55","","","","","","","","","spread","hotel1","unrelated","experimental","f","true","",""
"null","<p style=""font-size: 50px;"">+</p>","null","html-keyboard-response","380","2.1.0","1824224","F=YES, J=NO","ab6fgterpt","1","63","70","55","","","","","","","","","","","","","","","",""
"null","audio/beep-329314.mp3","null","audio-keyboard-response","381","2.1.0","1825711","F=YES, J=NO","ab6fgterpt","1","63","70","55","","","","","","","","","","","","","","","",""
"null","audio/tunnel.wav","null","audio-keyboard-response","382","2.1.0","1826080","F=YES, J=NO","ab6fgterpt","1","63","70","55","","","","","","","","","","","","","","","",""
"1070","
          <p id=""word"" style=""font-size: 40px;"">gred</p>
          <p style=""font-size: 16px;"">F = YES &nbsp;&nbsp;&nbsp; J = NO</p>
        ","f","html-keyboard-response","383","2.1.0","1827151","F=YES, J=NO","ab6fgterpt","1","63","70","55","","","","","","","","","gred","tunnel","pseudoword","pseudoword","j","false","",""
"null","<p style=""font-size: 50px;"">+</p>","null","html-keyboard-response","384","2.1.0","1827453","F=YES, J=NO","ab6fgterpt","1","63","70","55","","","","","","","","","","","","","","","",""
"null","audio/beep-329314.mp3","null","audio-keyboard-response","385","2.1.0","1828938","F=YES, J=NO","ab6fgterpt","1","63","70","55","","","","","","","","","","","","","","","",""
"null","audio/corpse1.wav","null","audio-keyboard-response","386","2.1.0","1829540","F=YES, J=NO","ab6fgterpt","1","63","70","55","","","","","","","","","","","","","","","",""
"699","
          <p id=""word"" style=""font-size: 40px;"">glonet</p>
          <p style=""font-size: 16px;"">F = YES &nbsp;&nbsp;&nbsp; J = NO</p>
        ","j","html-keyboard-response","387","2.1.0","1830241","F=YES, J=NO","ab6fgterpt","1","63","70","55","","","","","","","","","glonet","corpse1","pseudoword","pseudoword","j","true","",""
"null","<p style=""font-size: 50px;"">+</p>","null","html-keyboard-response","388","2.1.0","1830546","F=YES, J=NO","ab6fgterpt","1","63","70","55","","","","","","","","","","","","","","","",""
"null","audio/beep-329314.mp3","null","audio-keyboard-response","389","2.1.0","1832033","F=YES, J=NO","ab6fgterpt","1","63","70","55","","","","","","","","","","","","","","","",""
