"rt","stimulus","response","trial_type","trial_index","plugin_version","time_elapsed","response_mapping","subject_id","list_index","lextale_score","lextale_word_score","lextale_nonword_score","success","timeout","failed_images","failed_audio","failed_video","task","isWord","isDummy","target","prime","prime_type","stimulus_type","correct_response","correct","section","question_order"
"221439","
    <div style=""max-width: 800px; margin: auto; text-align: left;"">
      <h2>STANFORD UNIVERSITY</h2>
      <h3>Research Information Sheet</h3>
      <p><strong>Protocol Director:</strong> Robert Hawkins<br>
      <strong>Protocol Title:</strong> Communication and social cognition in natural audiovisual contexts<br>
      <strong>IRB#:</strong> 77226</p>

      <p><strong>DESCRIPTION:</strong> You are invited to participate in a research study about language and communication. The purpose of the research is to understand how you interact and communicate with other people in naturalistic settings as a fluent English speaker. This research will be conducted through the Prolific platform, including participants from the US, UK, and Canada. If you decide to participate in this research, you will play a communication game in a group with one or more partners.</p>

      <p><strong>TIME INVOLVEMENT:</strong> The task will last the amount of time advertised on Prolific. You are free to withdraw from the study at any time.</p>

      <p><strong>RISKS AND BENEFITS:</strong> You may become frustrated if your partner gets distracted, or experience discomfort if other participants in your group send text that is inappropriate for the task. We ask you to please be respectful of other participants you might be interacting with to mitigate these risks. You may also experience discomfort when being asked to discuss or challenge emotionally salient political beliefs. Study data will be stored securely, in compliance with Stanford University standards, minimizing the risk of confidentiality breach. This study advances our scientific understanding of how people communicate and collaborate in naturalistic settings. This study may lead to further insights about what can go wrong in teamwork, suggest potential interventions to overcome these barriers, and help to develop assistive technologies that collaborate with human partners. We cannot and do not guarantee or promise that you will receive any benefits from this study.</p>

      <p><strong>PAYMENTS:</strong> You will receive payment in the amount advertised on Prolific. If you do not complete this study, you will receive prorated payment based on the time that you have spent. Additionally, you may be eligible for bonus payments as described in the instructions.</p>

      <p><strong>PARTICIPANT’S RIGHTS:</strong> If you have read this form and have decided to participate in this project, please understand your participation is voluntary and you have the right to withdraw your consent or discontinue participation at any time without penalty or loss of benefits to which you are otherwise entitled. The alternative is not to participate. You have the right to refuse to answer particular questions. The results of this research study may be presented at scientific or professional meetings or published in scientific journals. Your individual privacy will be maintained in all published and written data resulting from the study. In accordance with scientific norms, the data from this study may be used or shared with other researchers for future research (after removing personally identifying information) without additional consent from you.</p>

      <p><strong>CONTACT INFORMATION:</strong><br>
      Questions: If you have any questions, concerns or complaints about this research, its procedures, risks and benefits, contact the Protocol Director, Robert Hawkins (<a href=""mailto:rdhawkins@stanford.edu"">rdhawkins@stanford.edu</a>, 217-549-6923).<br>
      Independent Contact: If you are not satisfied with how this study is being conducted, or if you have any concerns, complaints, or general questions about the research or your rights as a participant, please contact the Stanford Institutional Review Board (IRB) to speak to someone independent of the research team at 650-723-2480 or toll free at 1-866-680-2906, or email at <a href=""mailto:irbnon-med@stanford.edu"">irbnon-med@stanford.edu</a>. You can also write to the Stanford IRB, Stanford University, 1705 El Camino Real, Palo Alto, CA 94306.</p>

      <p><strong>Please save or print a copy of this page for your records.</strong></p>
      <p>If you agree to participate in this research, click ""Continue"" below.</p>
    </div>
  ","0","html-button-response","0","2.1.0","221452","F=YES, J=NO","akeahdk3q8","1","66","83","50","","","","","","","","","","","","","","","",""
"11197","
    <div style=""max-width: 800px; margin: auto; text-align: left;"">
      <h2>Welcome!</h2>
      <p>Thank you for participating in this study. The experiment consists of three parts:</p>
      <ol>
        <li>An English vocabulary test</li>
        <li>A main task in which you will hear and see words, and decide whether the written word is a real English word</li>
        <li>A brief survey about your background</li>
      </ol>
      <p>Each part will be introduced before it begins.</p>
      <p>Please make sure you are in a quiet environment and can hear audio clearly for the final task.</p>
      <p style=""margin-top: 2em;"">Press any key to begin.</p>
    </div>
  "," ","html-keyboard-response","1","2.1.0","232652","F=YES, J=NO","akeahdk3q8","1","66","83","50","","","","","","","","","","","","","","","",""
"","","","preload","2","2.1.0","233425","F=YES, J=NO","akeahdk3q8","1","66","83","50","true","false","[]","[]","[]","","","","","","","","","","",""
"884","
    <div style=""max-width: 800px; margin: auto; text-align: left;"">
      <h2>Part 1: Vocabulary Test</h2>
      <p>You will now complete the first part of the study: a short English vocabulary test.</p>
      <p>This test is called <strong>LexTALE</strong> and helps us get a general sense of your English proficiency.</p>
      <p style=""margin-top: 2em;"">Press any key to continue.</p>
    </div>
  ","AudioVolumeUp","html-keyboard-response","3","2.1.0","234310","F=YES, J=NO","akeahdk3q8","1","66","83","50","","","","","","","","","","","","","","","",""
"4924","
    <div style=""max-width: 800px; margin: auto; text-align: left;"">
      <h2>LexTALE Vocabulary Test</h2>
      <p>In this test, you will see a series of letter strings—one at a time.</p>
      <p>Your task is to decide whether each string is a real English word.</p>
      <p><strong>Key responses:</strong></p>
      <ul>
        <li><strong>F</strong> = YES (real English word)</li>
        <li><strong>J</strong> = NO (not a real English word)</li>
      </ul>
      <p>There is no time limit, but please try to be accurate.</p>
      <p style=""margin-top: 2em;"">Press any key to begin.</p>
    </div>
  ","f","html-keyboard-response","4","2.1.0","239235","F=YES, J=NO","akeahdk3q8","1","66","83","50","","","","","","","","","","","","","","","",""
"2334","
  <p style=""font-size: 40px;"">platery</p>
  <p style=""font-size: 16px;"">F = YES &nbsp;&nbsp;&nbsp; J = NO</p>
","j","html-keyboard-response","5","2.1.0","241570","F=YES, J=NO","akeahdk3q8","1","66","83","50","","","","","","lextale","false","true","","","","","","","",""
"1526","
  <p style=""font-size: 40px;"">denial</p>
  <p style=""font-size: 16px;"">F = YES &nbsp;&nbsp;&nbsp; J = NO</p>
","f","html-keyboard-response","6","2.1.0","243096","F=YES, J=NO","akeahdk3q8","1","66","83","50","","","","","","lextale","true","true","","","","","","","",""
"1153","
  <p style=""font-size: 40px;"">marrit</p>
  <p style=""font-size: 16px;"">F = YES &nbsp;&nbsp;&nbsp; J = NO</p>
","f","html-keyboard-response","7","2.1.0","244250","F=YES, J=NO","akeahdk3q8","1","66","83","50","","","","","","lextale","false","true","","","","","","","",""
"656","
  <p style=""font-size: 40px;"">bottle</p>
  <p style=""font-size: 16px;"">F = YES &nbsp;&nbsp;&nbsp; J = NO</p>
","f","html-keyboard-response","8","2.1.0","244907","F=YES, J=NO","akeahdk3q8","1","66","83","50","","","","","","lextale","true","false","","","","","","","",""
"3567","
  <p style=""font-size: 40px;"">birst</p>
  <p style=""font-size: 16px;"">F = YES &nbsp;&nbsp;&nbsp; J = NO</p>
","j","html-keyboard-response","9","2.1.0","248475","F=YES, J=NO","akeahdk3q8","1","66","83","50","","","","","","lextale","false","false","","","","","","","",""
"1270","
  <p style=""font-size: 40px;"">envy</p>
  <p style=""font-size: 16px;"">F = YES &nbsp;&nbsp;&nbsp; J = NO</p>
","f","html-keyboard-response","10","2.1.0","249746","F=YES, J=NO","akeahdk3q8","1","66","83","50","","","","","","lextale","true","false","","","","","","","",""
"1311","
  <p style=""font-size: 40px;"">brang</p>
  <p style=""font-size: 16px;"">F = YES &nbsp;&nbsp;&nbsp; J = NO</p>
","j","html-keyboard-response","11","2.1.0","251058","F=YES, J=NO","akeahdk3q8","1","66","83","50","","","","","","lextale","false","false","","","","","","","",""
"1781","
  <p style=""font-size: 40px;"">huge</p>
  <p style=""font-size: 16px;"">F = YES &nbsp;&nbsp;&nbsp; J = NO</p>
","f","html-keyboard-response","12","2.1.0","252840","F=YES, J=NO","akeahdk3q8","1","66","83","50","","","","","","lextale","true","false","","","","","","","",""
"2221","
  <p style=""font-size: 40px;"">plove</p>
  <p style=""font-size: 16px;"">F = YES &nbsp;&nbsp;&nbsp; J = NO</p>
","f","html-keyboard-response","13","2.1.0","255062","F=YES, J=NO","akeahdk3q8","1","66","83","50","","","","","","lextale","false","false","","","","","","","",""
"708","
  <p style=""font-size: 40px;"">border</p>
  <p style=""font-size: 16px;"">F = YES &nbsp;&nbsp;&nbsp; J = NO</p>
","f","html-keyboard-response","14","2.1.0","255771","F=YES, J=NO","akeahdk3q8","1","66","83","50","","","","","","lextale","true","false","","","","","","","",""
"1096","
  <p style=""font-size: 40px;"">flimsy</p>
  <p style=""font-size: 16px;"">F = YES &nbsp;&nbsp;&nbsp; J = NO</p>
","f","html-keyboard-response","15","2.1.0","256868","F=YES, J=NO","akeahdk3q8","1","66","83","50","","","","","","lextale","true","false","","","","","","","",""
"750","
  <p style=""font-size: 40px;"">drain</p>
  <p style=""font-size: 16px;"">F = YES &nbsp;&nbsp;&nbsp; J = NO</p>
","f","html-keyboard-response","16","2.1.0","257619","F=YES, J=NO","akeahdk3q8","1","66","83","50","","","","","","lextale","true","false","","","","","","","",""
"951","
  <p style=""font-size: 40px;"">twindle</p>
  <p style=""font-size: 16px;"">F = YES &nbsp;&nbsp;&nbsp; J = NO</p>
","f","html-keyboard-response","17","2.1.0","258571","F=YES, J=NO","akeahdk3q8","1","66","83","50","","","","","","lextale","false","false","","","","","","","",""
"639","
  <p style=""font-size: 40px;"">propose</p>
  <p style=""font-size: 16px;"">F = YES &nbsp;&nbsp;&nbsp; J = NO</p>
","f","html-keyboard-response","18","2.1.0","259211","F=YES, J=NO","akeahdk3q8","1","66","83","50","","","","","","lextale","true","false","","","","","","","",""
"975","
  <p style=""font-size: 40px;"">forlay</p>
  <p style=""font-size: 16px;"">F = YES &nbsp;&nbsp;&nbsp; J = NO</p>
","j","html-keyboard-response","19","2.1.0","260188","F=YES, J=NO","akeahdk3q8","1","66","83","50","","","","","","lextale","false","false","","","","","","","",""
"790","
  <p style=""font-size: 40px;"">tenant</p>
  <p style=""font-size: 16px;"">F = YES &nbsp;&nbsp;&nbsp; J = NO</p>
","f","html-keyboard-response","20","2.1.0","260979","F=YES, J=NO","akeahdk3q8","1","66","83","50","","","","","","lextale","true","false","","","","","","","",""
"600","
  <p style=""font-size: 40px;"">strain</p>
  <p style=""font-size: 16px;"">F = YES &nbsp;&nbsp;&nbsp; J = NO</p>
","f","html-keyboard-response","21","2.1.0","261579","F=YES, J=NO","akeahdk3q8","1","66","83","50","","","","","","lextale","true","false","","","","","","","",""
"1006","
  <p style=""font-size: 40px;"">holster</p>
  <p style=""font-size: 16px;"">F = YES &nbsp;&nbsp;&nbsp; J = NO</p>
","f","html-keyboard-response","22","2.1.0","262586","F=YES, J=NO","akeahdk3q8","1","66","83","50","","","","","","lextale","true","false","","","","","","","",""
"601","
  <p style=""font-size: 40px;"">hinder</p>
  <p style=""font-size: 16px;"">F = YES &nbsp;&nbsp;&nbsp; J = NO</p>
","f","html-keyboard-response","23","2.1.0","263187","F=YES, J=NO","akeahdk3q8","1","66","83","50","","","","","","lextale","true","false","","","","","","","",""
"606","
  <p style=""font-size: 40px;"">swindle</p>
  <p style=""font-size: 16px;"">F = YES &nbsp;&nbsp;&nbsp; J = NO</p>
","f","html-keyboard-response","24","2.1.0","263794","F=YES, J=NO","akeahdk3q8","1","66","83","50","","","","","","lextale","true","false","","","","","","","",""
"984","
  <p style=""font-size: 40px;"">nuder</p>
  <p style=""font-size: 16px;"">F = YES &nbsp;&nbsp;&nbsp; J = NO</p>
","j","html-keyboard-response","25","2.1.0","264779","F=YES, J=NO","akeahdk3q8","1","66","83","50","","","","","","lextale","false","false","","","","","","","",""
"610","
  <p style=""font-size: 40px;"">pillow</p>
  <p style=""font-size: 16px;"">F = YES &nbsp;&nbsp;&nbsp; J = NO</p>
","f","html-keyboard-response","26","2.1.0","265390","F=YES, J=NO","akeahdk3q8","1","66","83","50","","","","","","lextale","true","false","","","","","","","",""
"948","
  <p style=""font-size: 40px;"">shumble</p>
  <p style=""font-size: 16px;"">F = YES &nbsp;&nbsp;&nbsp; J = NO</p>
","f","html-keyboard-response","27","2.1.0","266339","F=YES, J=NO","akeahdk3q8","1","66","83","50","","","","","","lextale","false","false","","","","","","","",""
"583","
  <p style=""font-size: 40px;"">thirst</p>
  <p style=""font-size: 16px;"">F = YES &nbsp;&nbsp;&nbsp; J = NO</p>
","f","html-keyboard-response","28","2.1.0","266923","F=YES, J=NO","akeahdk3q8","1","66","83","50","","","","","","lextale","true","false","","","","","","","",""
"1071","
  <p style=""font-size: 40px;"">unsail</p>
  <p style=""font-size: 16px;"">F = YES &nbsp;&nbsp;&nbsp; J = NO</p>
","f","html-keyboard-response","29","2.1.0","267995","F=YES, J=NO","akeahdk3q8","1","66","83","50","","","","","","lextale","false","false","","","","","","","",""
"975","
  <p style=""font-size: 40px;"">rifle</p>
  <p style=""font-size: 16px;"">F = YES &nbsp;&nbsp;&nbsp; J = NO</p>
","f","html-keyboard-response","30","2.1.0","268971","F=YES, J=NO","akeahdk3q8","1","66","83","50","","","","","","lextale","true","false","","","","","","","",""
"616","
  <p style=""font-size: 40px;"">mush</p>
  <p style=""font-size: 16px;"">F = YES &nbsp;&nbsp;&nbsp; J = NO</p>
","f","html-keyboard-response","31","2.1.0","269588","F=YES, J=NO","akeahdk3q8","1","66","83","50","","","","","","lextale","false","false","","","","","","","",""
"608","
  <p style=""font-size: 40px;"">drench</p>
  <p style=""font-size: 16px;"">F = YES &nbsp;&nbsp;&nbsp; J = NO</p>
","f","html-keyboard-response","32","2.1.0","270196","F=YES, J=NO","akeahdk3q8","1","66","83","50","","","","","","lextale","true","false","","","","","","","",""
"1310","
  <p style=""font-size: 40px;"">snirt</p>
  <p style=""font-size: 16px;"">F = YES &nbsp;&nbsp;&nbsp; J = NO</p>
","j","html-keyboard-response","33","2.1.0","271508","F=YES, J=NO","akeahdk3q8","1","66","83","50","","","","","","lextale","false","false","","","","","","","",""
"751","
  <p style=""font-size: 40px;"">bitter</p>
  <p style=""font-size: 16px;"">F = YES &nbsp;&nbsp;&nbsp; J = NO</p>
","f","html-keyboard-response","34","2.1.0","272259","F=YES, J=NO","akeahdk3q8","1","66","83","50","","","","","","lextale","true","false","","","","","","","",""
"1063","
  <p style=""font-size: 40px;"">pliff</p>
  <p style=""font-size: 16px;"">F = YES &nbsp;&nbsp;&nbsp; J = NO</p>
","j","html-keyboard-response","35","2.1.0","273323","F=YES, J=NO","akeahdk3q8","1","66","83","50","","","","","","lextale","false","false","","","","","","","",""
"543","
  <p style=""font-size: 40px;"">tablet</p>
  <p style=""font-size: 16px;"">F = YES &nbsp;&nbsp;&nbsp; J = NO</p>
","f","html-keyboard-response","36","2.1.0","273867","F=YES, J=NO","akeahdk3q8","1","66","83","50","","","","","","lextale","true","false","","","","","","","",""
"631","
  <p style=""font-size: 40px;"">glimmer</p>
  <p style=""font-size: 16px;"">F = YES &nbsp;&nbsp;&nbsp; J = NO</p>
","f","html-keyboard-response","37","2.1.0","274498","F=YES, J=NO","akeahdk3q8","1","66","83","50","","","","","","lextale","true","false","","","","","","","",""
"736","
  <p style=""font-size: 40px;"">slink</p>
  <p style=""font-size: 16px;"">F = YES &nbsp;&nbsp;&nbsp; J = NO</p>
","f","html-keyboard-response","38","2.1.0","275235","F=YES, J=NO","akeahdk3q8","1","66","83","50","","","","","","lextale","true","false","","","","","","","",""
"594","
  <p style=""font-size: 40px;"">clever</p>
  <p style=""font-size: 16px;"">F = YES &nbsp;&nbsp;&nbsp; J = NO</p>
","f","html-keyboard-response","39","2.1.0","275830","F=YES, J=NO","akeahdk3q8","1","66","83","50","","","","","","lextale","true","false","","","","","","","",""
"1300","
  <p style=""font-size: 40px;"">grum</p>
  <p style=""font-size: 16px;"">F = YES &nbsp;&nbsp;&nbsp; J = NO</p>
","j","html-keyboard-response","40","2.1.0","277131","F=YES, J=NO","akeahdk3q8","1","66","83","50","","","","","","lextale","false","false","","","","","","","",""
"3566","
  <p style=""font-size: 40px;"">string</p>
  <p style=""font-size: 16px;"">F = YES &nbsp;&nbsp;&nbsp; J = NO</p>
","f","html-keyboard-response","41","2.1.0","280700","F=YES, J=NO","akeahdk3q8","1","66","83","50","","","","","","lextale","true","false","","","","","","","",""
"1249","
  <p style=""font-size: 40px;"">plim</p>
  <p style=""font-size: 16px;"">F = YES &nbsp;&nbsp;&nbsp; J = NO</p>
","j","html-keyboard-response","42","2.1.0","281949","F=YES, J=NO","akeahdk3q8","1","66","83","50","","","","","","lextale","false","false","","","","","","","",""
"1135","
  <p style=""font-size: 40px;"">cable</p>
  <p style=""font-size: 16px;"">F = YES &nbsp;&nbsp;&nbsp; J = NO</p>
","f","html-keyboard-response","43","2.1.0","283085","F=YES, J=NO","akeahdk3q8","1","66","83","50","","","","","","lextale","true","false","","","","","","","",""
"887","
  <p style=""font-size: 40px;"">shrivel</p>
  <p style=""font-size: 16px;"">F = YES &nbsp;&nbsp;&nbsp; J = NO</p>
","j","html-keyboard-response","44","2.1.0","283973","F=YES, J=NO","akeahdk3q8","1","66","83","50","","","","","","lextale","true","false","","","","","","","",""
"775","
  <p style=""font-size: 40px;"">tarnish</p>
  <p style=""font-size: 16px;"">F = YES &nbsp;&nbsp;&nbsp; J = NO</p>
","f","html-keyboard-response","45","2.1.0","284749","F=YES, J=NO","akeahdk3q8","1","66","83","50","","","","","","lextale","true","false","","","","","","","",""
"31206","
  <p style=""font-size: 40px;"">blim</p>
  <p style=""font-size: 16px;"">F = YES &nbsp;&nbsp;&nbsp; J = NO</p>
","f","html-keyboard-response","46","2.1.0","315956","F=YES, J=NO","akeahdk3q8","1","66","83","50","","","","","","lextale","false","false","","","","","","","",""
"1281","
  <p style=""font-size: 40px;"">stifle</p>
  <p style=""font-size: 16px;"">F = YES &nbsp;&nbsp;&nbsp; J = NO</p>
","f","html-keyboard-response","47","2.1.0","317237","F=YES, J=NO","akeahdk3q8","1","66","83","50","","","","","","lextale","true","false","","","","","","","",""
"910","
  <p style=""font-size: 40px;"">bint</p>
  <p style=""font-size: 16px;"">F = YES &nbsp;&nbsp;&nbsp; J = NO</p>
","j","html-keyboard-response","48","2.1.0","318147","F=YES, J=NO","akeahdk3q8","1","66","83","50","","","","","","lextale","false","false","","","","","","","",""
"512","
  <p style=""font-size: 40px;"">purple</p>
  <p style=""font-size: 16px;"">F = YES &nbsp;&nbsp;&nbsp; J = NO</p>
","f","html-keyboard-response","49","2.1.0","318660","F=YES, J=NO","akeahdk3q8","1","66","83","50","","","","","","lextale","true","false","","","","","","","",""
"599","
  <p style=""font-size: 40px;"">wriggle</p>
  <p style=""font-size: 16px;"">F = YES &nbsp;&nbsp;&nbsp; J = NO</p>
","f","html-keyboard-response","50","2.1.0","319260","F=YES, J=NO","akeahdk3q8","1","66","83","50","","","","","","lextale","true","false","","","","","","","",""
"544","
  <p style=""font-size: 40px;"">mangle</p>
  <p style=""font-size: 16px;"">F = YES &nbsp;&nbsp;&nbsp; J = NO</p>
","f","html-keyboard-response","51","2.1.0","319804","F=YES, J=NO","akeahdk3q8","1","66","83","50","","","","","","lextale","true","false","","","","","","","",""
"656","
  <p style=""font-size: 40px;"">shramp</p>
  <p style=""font-size: 16px;"">F = YES &nbsp;&nbsp;&nbsp; J = NO</p>
","f","html-keyboard-response","52","2.1.0","320461","F=YES, J=NO","akeahdk3q8","1","66","83","50","","","","","","lextale","false","false","","","","","","","",""
"542","
  <p style=""font-size: 40px;"">flirt</p>
  <p style=""font-size: 16px;"">F = YES &nbsp;&nbsp;&nbsp; J = NO</p>
","f","html-keyboard-response","53","2.1.0","321004","F=YES, J=NO","akeahdk3q8","1","66","83","50","","","","","","lextale","true","false","","","","","","","",""
"736","
  <p style=""font-size: 40px;"">frip</p>
  <p style=""font-size: 16px;"">F = YES &nbsp;&nbsp;&nbsp; J = NO</p>
","j","html-keyboard-response","54","2.1.0","321741","F=YES, J=NO","akeahdk3q8","1","66","83","50","","","","","","lextale","false","false","","","","","","","",""
"535","
  <p style=""font-size: 40px;"">tangle</p>
  <p style=""font-size: 16px;"">F = YES &nbsp;&nbsp;&nbsp; J = NO</p>
","f","html-keyboard-response","55","2.1.0","322276","F=YES, J=NO","akeahdk3q8","1","66","83","50","","","","","","lextale","true","false","","","","","","","",""
"591","
  <p style=""font-size: 40px;"">crumble</p>
  <p style=""font-size: 16px;"">F = YES &nbsp;&nbsp;&nbsp; J = NO</p>
","f","html-keyboard-response","56","2.1.0","322868","F=YES, J=NO","akeahdk3q8","1","66","83","50","","","","","","lextale","true","false","","","","","","","",""
"632","
  <p style=""font-size: 40px;"">wrinkle</p>
  <p style=""font-size: 16px;"">F = YES &nbsp;&nbsp;&nbsp; J = NO</p>
","f","html-keyboard-response","57","2.1.0","323501","F=YES, J=NO","akeahdk3q8","1","66","83","50","","","","","","lextale","true","false","","","","","","","",""
"1015","
  <p style=""font-size: 40px;"">slumb</p>
  <p style=""font-size: 16px;"">F = YES &nbsp;&nbsp;&nbsp; J = NO</p>
","f","html-keyboard-response","58","2.1.0","324516","F=YES, J=NO","akeahdk3q8","1","66","83","50","","","","","","lextale","false","false","","","","","","","",""
"819","
  <p style=""font-size: 40px;"">jungle</p>
  <p style=""font-size: 16px;"">F = YES &nbsp;&nbsp;&nbsp; J = NO</p>
","f","html-keyboard-response","59","2.1.0","325336","F=YES, J=NO","akeahdk3q8","1","66","83","50","","","","","","lextale","true","false","","","","","","","",""
"872","
  <p style=""font-size: 40px;"">frolick</p>
  <p style=""font-size: 16px;"">F = YES &nbsp;&nbsp;&nbsp; J = NO</p>
","f","html-keyboard-response","60","2.1.0","326209","F=YES, J=NO","akeahdk3q8","1","66","83","50","","","","","","lextale","false","false","","","","","","","",""
"3018","
      <h2>LexTALE Test Completed</h2>
      <p>Your LexTALE vocabulary score is: <strong>66%</strong></p>
      <p>Press any key to continue.</p>
    ","f","html-keyboard-response","61","2.1.0","329229","F=YES, J=NO","akeahdk3q8","1","66","83","50","","","","","","","","","","","","","","","",""
"3431","
    <div style=""max-width: 800px; margin: auto; text-align: left;"">
      <h2>Break Time</h2>
      <p>You have completed the first part of the study.</p>
      <p>You may take a short <strong>30-second break</strong> before continuing.</p>
      <p>When you’re ready, press any key to continue to the final task.</p>
    </div>
  ","j","html-keyboard-response","62","2.1.0","332661","F=YES, J=NO","akeahdk3q8","1","66","83","50","","","","","","","","","","","","","","","",""
"3434","
    <div style=""max-width: 800px; margin: auto; text-align: left;"">
      <h2>Part 2: Lexical Decision Task</h2>
      <p>You will now begin the second part of the study.</p>
      <p>Each trial will follow this sequence:</p>
      <ul>
        <li>A fixation cross (+) appears at the center of the screen.</li>
        <li>You will hear a short beep followed by a spoken word.</li>
        <li>A written word will appear briefly on the screen.</li>
      </ul>
      <p>Your task is to judge whether the <strong>written word</strong> is a real English word.</p>
      <p style=""margin-top: 1em;""><strong>Key responses:</strong></p>
      <ul>
        <li><strong>F</strong> = YES (real English word)</li>
        <li><strong>J</strong> = NO (not a real English word)</li>
      </ul>
      <p>Please respond as quickly and accurately as you can.</p>
      <p style=""margin-top: 2em;"">Press any key to continue.</p>
    </div>
  ","f","html-keyboard-response","63","2.1.0","336096","F=YES, J=NO","akeahdk3q8","1","66","83","50","","","","","","","","","","","","","","","",""
"1220","
    <div style=""max-width: 800px; margin: auto; text-align: left;"">
      <h2>Before You Begin</h2>
      <p>Make sure your sound is turned on.</p>
      <p>You will hear audio during each trial, but your decision should be based only on the <strong>written word</strong> you see on the screen.</p>
      <p><strong>Reminder:</strong></p>
      <ul>
        <li><strong>F</strong> = YES (real English word)</li>
        <li><strong>J</strong> = NO (not a real English word)</li>
      </ul>
      <p style=""margin-top: 2em;"">Press any key when you are ready to begin.</p>
    </div>
  ","f","html-keyboard-response","64","2.1.0","337317","F=YES, J=NO","akeahdk3q8","1","66","83","50","","","","","","","","","","","","","","","",""
"1310","
    <div style=""max-width: 800px; margin: auto; text-align: left;"">
      <h2>Part 2: Practice Trials</h2>
      <p>You will now complete a few <strong>practice trials</strong> to get familiar with the task.</p>
      <p>These trials are <strong>not scored</strong> and are only to help you get used to the format.</p>
      <p style=""margin-top: 2em;"">Press any key to begin.</p>
    </div>
  ","f","html-keyboard-response","65","2.1.0","338628","F=YES, J=NO","akeahdk3q8","1","66","83","50","","","","","","","","","","","","","","","",""
"1552","<p>Starting practice block 1 of 2. Press any key to continue.</p>","f","html-keyboard-response","66","2.1.0","340181","F=YES, J=NO","akeahdk3q8","1","66","83","50","","","","","","","","","","","","","","","",""
"null","<p style=""font-size: 50px;"">+</p>","null","html-keyboard-response","67","2.1.0","340488","F=YES, J=NO","akeahdk3q8","1","66","83","50","","","","","","","","","","","","","","","",""
"null","audio/beep-329314.mp3","null","audio-keyboard-response","68","2.1.0","342221","F=YES, J=NO","akeahdk3q8","1","66","83","50","","","","","","","","","","","","","","","",""
"null","audio/breath.wav","null","audio-keyboard-response","69","2.1.0","342950","F=YES, J=NO","akeahdk3q8","1","66","83","50","","","","","","","","","","","","","","","",""
"null","
          <p id=""word"" style=""font-size: 40px;"">pack</p>
          <p style=""font-size: 16px;"">F = YES &nbsp;&nbsp;&nbsp; J = NO</p>
        ","null","html-keyboard-response","70","2.1.0","344455","F=YES, J=NO","akeahdk3q8","1","66","83","50","","","","","","","","","pack","breath","filler","filler","f","false","",""
"null","<p style=""font-size: 50px;"">+</p>","null","html-keyboard-response","71","2.1.0","344763","F=YES, J=NO","akeahdk3q8","1","66","83","50","","","","","","","","","","","","","","","",""
"null","audio/beep-329314.mp3","null","audio-keyboard-response","72","2.1.0","346301","F=YES, J=NO","akeahdk3q8","1","66","83","50","","","","","","","","","","","","","","","",""
"null","audio/roof1.wav","null","audio-keyboard-response","73","2.1.0","347010","F=YES, J=NO","akeahdk3q8","1","66","83","50","","","","","","","","","","","","","","","",""
"null","
          <p id=""word"" style=""font-size: 40px;"">wronb</p>
          <p style=""font-size: 16px;"">F = YES &nbsp;&nbsp;&nbsp; J = NO</p>
        ","null","html-keyboard-response","74","2.1.0","348521","F=YES, J=NO","akeahdk3q8","1","66","83","50","","","","","","","","","wronb","roof1","pseudoword","pseudoword","j","false","",""
"null","<p style=""font-size: 50px;"">+</p>","null","html-keyboard-response","75","2.1.0","348827","F=YES, J=NO","akeahdk3q8","1","66","83","50","","","","","","","","","","","","","","","",""
"null","audio/beep-329314.mp3","null","audio-keyboard-response","76","2.1.0","350361","F=YES, J=NO","akeahdk3q8","1","66","83","50","","","","","","","","","","","","","","","",""
"null","audio/bottle.wav","null","audio-keyboard-response","77","2.1.0","350990","F=YES, J=NO","akeahdk3q8","1","66","83","50","","","","","","","","","","","","","","","",""
"583","
          <p id=""word"" style=""font-size: 40px;"">watch</p>
          <p style=""font-size: 16px;"">F = YES &nbsp;&nbsp;&nbsp; J = NO</p>
        ","f","html-keyboard-response","78","2.1.0","351575","F=YES, J=NO","akeahdk3q8","1","66","83","50","","","","","","","","","watch","bottle","filler","filler","f","true","",""
"null","<p style=""font-size: 50px;"">+</p>","null","html-keyboard-response","79","2.1.0","351892","F=YES, J=NO","akeahdk3q8","1","66","83","50","","","","","","","","","","","","","","","",""
"null","audio/beep-329314.mp3","null","audio-keyboard-response","80","2.1.0","353421","F=YES, J=NO","akeahdk3q8","1","66","83","50","","","","","","","","","","","","","","","",""
"null","audio/bridge.wav","null","audio-keyboard-response","81","2.1.0","354010","F=YES, J=NO","akeahdk3q8","1","66","83","50","","","","","","","","","","","","","","","",""
"28","
          <p id=""word"" style=""font-size: 40px;"">crack</p>
          <p style=""font-size: 16px;"">F = YES &nbsp;&nbsp;&nbsp; J = NO</p>
        ","f","html-keyboard-response","82","2.1.0","354039","F=YES, J=NO","akeahdk3q8","1","66","83","50","","","","","","","","","crack","bridge","filler","filler","f","true","",""
"null","<p style=""font-size: 50px;"">+</p>","null","html-keyboard-response","83","2.1.0","354343","F=YES, J=NO","akeahdk3q8","1","66","83","50","","","","","","","","","","","","","","","",""
"null","audio/beep-329314.mp3","null","audio-keyboard-response","84","2.1.0","355901","F=YES, J=NO","akeahdk3q8","1","66","83","50","","","","","","","","","","","","","","","",""
"null","audio/pain1.wav","null","audio-keyboard-response","85","2.1.0","356510","F=YES, J=NO","akeahdk3q8","1","66","83","50","","","","","","","","","","","","","","","",""
"633","
          <p id=""word"" style=""font-size: 40px;"">tritted</p>
          <p style=""font-size: 16px;"">F = YES &nbsp;&nbsp;&nbsp; J = NO</p>
        ","f","html-keyboard-response","86","2.1.0","357143","F=YES, J=NO","akeahdk3q8","1","66","83","50","","","","","","","","","tritted","pain1","pseudoword","pseudoword","j","false","",""
"null","<p style=""font-size: 50px;"">+</p>","null","html-keyboard-response","87","2.1.0","357451","F=YES, J=NO","akeahdk3q8","1","66","83","50","","","","","","","","","","","","","","","",""
"null","audio/beep-329314.mp3","null","audio-keyboard-response","88","2.1.0","359001","F=YES, J=NO","akeahdk3q8","1","66","83","50","","","","","","","","","","","","","","","",""
"null","audio/battle1.wav","null","audio-keyboard-response","89","2.1.0","359490","F=YES, J=NO","akeahdk3q8","1","66","83","50","","","","","","","","","","","","","","","",""
"244","
          <p id=""word"" style=""font-size: 40px;"">boil</p>
          <p style=""font-size: 16px;"">F = YES &nbsp;&nbsp;&nbsp; J = NO</p>
        ","j","html-keyboard-response","90","2.1.0","359735","F=YES, J=NO","akeahdk3q8","1","66","83","50","","","","","","","","","boil","battle1","filler","filler","f","false","",""
"null","<p style=""font-size: 50px;"">+</p>","null","html-keyboard-response","91","2.1.0","360041","F=YES, J=NO","akeahdk3q8","1","66","83","50","","","","","","","","","","","","","","","",""
"null","audio/beep-329314.mp3","null","audio-keyboard-response","92","2.1.0","361581","F=YES, J=NO","akeahdk3q8","1","66","83","50","","","","","","","","","","","","","","","",""
"null","audio/bishop1.wav","null","audio-keyboard-response","93","2.1.0","362211","F=YES, J=NO","akeahdk3q8","1","66","83","50","","","","","","","","","","","","","","","",""
"201","
          <p id=""word"" style=""font-size: 40px;"">play</p>
          <p style=""font-size: 16px;"">F = YES &nbsp;&nbsp;&nbsp; J = NO</p>
        ","f","html-keyboard-response","94","2.1.0","362413","F=YES, J=NO","akeahdk3q8","1","66","83","50","","","","","","","","","play","bishop1","filler","filler","f","true","",""
"null","<p style=""font-size: 50px;"">+</p>","null","html-keyboard-response","95","2.1.0","362725","F=YES, J=NO","akeahdk3q8","1","66","83","50","","","","","","","","","","","","","","","",""
"null","audio/beep-329314.mp3","null","audio-keyboard-response","96","2.1.0","364261","F=YES, J=NO","akeahdk3q8","1","66","83","50","","","","","","","","","","","","","","","",""
"null","audio/planet1.wav","null","audio-keyboard-response","97","2.1.0","364890","F=YES, J=NO","akeahdk3q8","1","66","83","50","","","","","","","","","","","","","","","",""
"268","
          <p id=""word"" style=""font-size: 40px;"">cratched</p>
          <p style=""font-size: 16px;"">F = YES &nbsp;&nbsp;&nbsp; J = NO</p>
        ","f","html-keyboard-response","98","2.1.0","365158","F=YES, J=NO","akeahdk3q8","1","66","83","50","","","","","","","","","cratched","planet1","pseudoword","pseudoword","j","false","",""
"null","<p style=""font-size: 50px;"">+</p>","null","html-keyboard-response","99","2.1.0","365467","F=YES, J=NO","akeahdk3q8","1","66","83","50","","","","","","","","","","","","","","","",""
"null","audio/beep-329314.mp3","null","audio-keyboard-response","100","2.1.0","367000","F=YES, J=NO","akeahdk3q8","1","66","83","50","","","","","","","","","","","","","","","",""
"null","audio/alarm1.wav","null","audio-keyboard-response","101","2.1.0","367750","F=YES, J=NO","akeahdk3q8","1","66","83","50","","","","","","","","","","","","","","","",""
"298","
          <p id=""word"" style=""font-size: 40px;"">lock</p>
          <p style=""font-size: 16px;"">F = YES &nbsp;&nbsp;&nbsp; J = NO</p>
        ","j","html-keyboard-response","102","2.1.0","368050","F=YES, J=NO","akeahdk3q8","1","66","83","50","","","","","","","","","lock","alarm1","filler","filler","f","false","",""
"null","<p style=""font-size: 50px;"">+</p>","null","html-keyboard-response","103","2.1.0","368353","F=YES, J=NO","akeahdk3q8","1","66","83","50","","","","","","","","","","","","","","","",""
"null","audio/beep-329314.mp3","null","audio-keyboard-response","104","2.1.0","369900","F=YES, J=NO","akeahdk3q8","1","66","83","50","","","","","","","","","","","","","","","",""
"null","audio/floor.wav","null","audio-keyboard-response","105","2.1.0","370471","F=YES, J=NO","akeahdk3q8","1","66","83","50","","","","","","","","","","","","","","","",""
"399","
          <p id=""word"" style=""font-size: 40px;"">mop</p>
          <p style=""font-size: 16px;"">F = YES &nbsp;&nbsp;&nbsp; J = NO</p>
        ","f","html-keyboard-response","106","2.1.0","370871","F=YES, J=NO","akeahdk3q8","1","66","83","50","","","","","","","","","mop","floor","filler","filler","f","true","",""
"null","<p style=""font-size: 50px;"">+</p>","null","html-keyboard-response","107","2.1.0","371185","F=YES, J=NO","akeahdk3q8","1","66","83","50","","","","","","","","","","","","","","","",""
"null","audio/beep-329314.mp3","null","audio-keyboard-response","108","2.1.0","372720","F=YES, J=NO","akeahdk3q8","1","66","83","50","","","","","","","","","","","","","","","",""
"null","audio/tomato.wav","null","audio-keyboard-response","109","2.1.0","373430","F=YES, J=NO","akeahdk3q8","1","66","83","50","","","","","","","","","","","","","","","",""
"224","
          <p id=""word"" style=""font-size: 40px;"">gladies</p>
          <p style=""font-size: 16px;"">F = YES &nbsp;&nbsp;&nbsp; J = NO</p>
        ","f","html-keyboard-response","110","2.1.0","373655","F=YES, J=NO","akeahdk3q8","1","66","83","50","","","","","","","","","gladies","tomato","pseudoword","pseudoword","j","false","",""
"null","<p style=""font-size: 50px;"">+</p>","null","html-keyboard-response","111","2.1.0","373967","F=YES, J=NO","akeahdk3q8","1","66","83","50","","","","","","","","","","","","","","","",""
"null","audio/beep-329314.mp3","null","audio-keyboard-response","112","2.1.0","375501","F=YES, J=NO","akeahdk3q8","1","66","83","50","","","","","","","","","","","","","","","",""
"null","audio/age1.wav","null","audio-keyboard-response","113","2.1.0","376211","F=YES, J=NO","akeahdk3q8","1","66","83","50","","","","","","","","","","","","","","","",""
"267","
          <p id=""word"" style=""font-size: 40px;"">bake</p>
          <p style=""font-size: 16px;"">F = YES &nbsp;&nbsp;&nbsp; J = NO</p>
        ","f","html-keyboard-response","114","2.1.0","376479","F=YES, J=NO","akeahdk3q8","1","66","83","50","","","","","","","","","bake","age1","filler","filler","f","true","",""
"2256","<p>Starting practice block 2 of 2. Press any key to continue.</p>","j","html-keyboard-response","115","2.1.0","378736","F=YES, J=NO","akeahdk3q8","1","66","83","50","","","","","","","","","","","","","","","",""
"null","<p style=""font-size: 50px;"">+</p>","null","html-keyboard-response","116","2.1.0","379043","F=YES, J=NO","akeahdk3q8","1","66","83","50","","","","","","","","","","","","","","","",""
"null","audio/beep-329314.mp3","null","audio-keyboard-response","117","2.1.0","380601","F=YES, J=NO","akeahdk3q8","1","66","83","50","","","","","","","","","","","","","","","",""
"null","audio/purpose.wav","null","audio-keyboard-response","118","2.1.0","381430","F=YES, J=NO","akeahdk3q8","1","66","83","50","","","","","","","","","","","","","","","",""
"320","
          <p id=""word"" style=""font-size: 40px;"">whigm</p>
          <p style=""font-size: 16px;"">F = YES &nbsp;&nbsp;&nbsp; J = NO</p>
        ","f","html-keyboard-response","119","2.1.0","381751","F=YES, J=NO","akeahdk3q8","1","66","83","50","","","","","","","","","whigm","purpose","pseudoword","pseudoword","j","false","",""
"null","<p style=""font-size: 50px;"">+</p>","null","html-keyboard-response","120","2.1.0","382065","F=YES, J=NO","akeahdk3q8","1","66","83","50","","","","","","","","","","","","","","","",""
"null","audio/beep-329314.mp3","null","audio-keyboard-response","121","2.1.0","383600","F=YES, J=NO","akeahdk3q8","1","66","83","50","","","","","","","","","","","","","","","",""
"null","audio/noise1.wav","null","audio-keyboard-response","122","2.1.0","384230","F=YES, J=NO","akeahdk3q8","1","66","83","50","","","","","","","","","","","","","","","",""
"511","
          <p id=""word"" style=""font-size: 40px;"">slintered</p>
          <p style=""font-size: 16px;"">F = YES &nbsp;&nbsp;&nbsp; J = NO</p>
        ","j","html-keyboard-response","123","2.1.0","384742","F=YES, J=NO","akeahdk3q8","1","66","83","50","","","","","","","","","slintered","noise1","pseudoword","pseudoword","j","true","",""
"null","<p style=""font-size: 50px;"">+</p>","null","html-keyboard-response","124","2.1.0","385049","F=YES, J=NO","akeahdk3q8","1","66","83","50","","","","","","","","","","","","","","","",""
"null","audio/beep-329314.mp3","null","audio-keyboard-response","125","2.1.0","386581","F=YES, J=NO","akeahdk3q8","1","66","83","50","","","","","","","","","","","","","","","",""
"null","audio/truth1.wav","null","audio-keyboard-response","126","2.1.0","387170","F=YES, J=NO","akeahdk3q8","1","66","83","50","","","","","","","","","","","","","","","",""
"1427","
          <p id=""word"" style=""font-size: 40px;"">calitom</p>
          <p style=""font-size: 16px;"">F = YES &nbsp;&nbsp;&nbsp; J = NO</p>
        ","f","html-keyboard-response","127","2.1.0","388599","F=YES, J=NO","akeahdk3q8","1","66","83","50","","","","","","","","","calitom","truth1","pseudoword","pseudoword","j","false","",""
"null","<p style=""font-size: 50px;"">+</p>","null","html-keyboard-response","128","2.1.0","388911","F=YES, J=NO","akeahdk3q8","1","66","83","50","","","","","","","","","","","","","","","",""
"null","audio/beep-329314.mp3","null","audio-keyboard-response","129","2.1.0","390460","F=YES, J=NO","akeahdk3q8","1","66","83","50","","","","","","","","","","","","","","","",""
"null","audio/beach1.wav","null","audio-keyboard-response","130","2.1.0","391050","F=YES, J=NO","akeahdk3q8","1","66","83","50","","","","","","","","","","","","","","","",""
"323","
          <p id=""word"" style=""font-size: 40px;"">drive</p>
          <p style=""font-size: 16px;"">F = YES &nbsp;&nbsp;&nbsp; J = NO</p>
        ","f","html-keyboard-response","131","2.1.0","391374","F=YES, J=NO","akeahdk3q8","1","66","83","50","","","","","","","","","drive","beach1","filler","filler","f","true","",""
"null","<p style=""font-size: 50px;"">+</p>","null","html-keyboard-response","132","2.1.0","391686","F=YES, J=NO","akeahdk3q8","1","66","83","50","","","","","","","","","","","","","","","",""
"null","audio/beep-329314.mp3","null","audio-keyboard-response","133","2.1.0","393220","F=YES, J=NO","akeahdk3q8","1","66","83","50","","","","","","","","","","","","","","","",""
"null","audio/foot1.wav","null","audio-keyboard-response","134","2.1.0","393770","F=YES, J=NO","akeahdk3q8","1","66","83","50","","","","","","","","","","","","","","","",""
"606","
          <p id=""word"" style=""font-size: 40px;"">thrutt</p>
          <p style=""font-size: 16px;"">F = YES &nbsp;&nbsp;&nbsp; J = NO</p>
        ","f","html-keyboard-response","135","2.1.0","394377","F=YES, J=NO","akeahdk3q8","1","66","83","50","","","","","","","","","thrutt","foot1","pseudoword","pseudoword","j","false","",""
"null","<p style=""font-size: 50px;"">+</p>","null","html-keyboard-response","136","2.1.0","394683","F=YES, J=NO","akeahdk3q8","1","66","83","50","","","","","","","","","","","","","","","",""
"null","audio/beep-329314.mp3","null","audio-keyboard-response","137","2.1.0","396221","F=YES, J=NO","akeahdk3q8","1","66","83","50","","","","","","","","","","","","","","","",""
"null","audio/baby.wav","null","audio-keyboard-response","138","2.1.0","396850","F=YES, J=NO","akeahdk3q8","1","66","83","50","","","","","","","","","","","","","","","",""
"836","
          <p id=""word"" style=""font-size: 40px;"">lift</p>
          <p style=""font-size: 16px;"">F = YES &nbsp;&nbsp;&nbsp; J = NO</p>
        ","f","html-keyboard-response","139","2.1.0","397686","F=YES, J=NO","akeahdk3q8","1","66","83","50","","","","","","","","","lift","baby","filler","filler","f","true","",""
"null","<p style=""font-size: 50px;"">+</p>","null","html-keyboard-response","140","2.1.0","397990","F=YES, J=NO","akeahdk3q8","1","66","83","50","","","","","","","","","","","","","","","",""
"null","audio/beep-329314.mp3","null","audio-keyboard-response","141","2.1.0","399520","F=YES, J=NO","akeahdk3q8","1","66","83","50","","","","","","","","","","","","","","","",""
"null","audio/strength.wav","null","audio-keyboard-response","142","2.1.0","400250","F=YES, J=NO","akeahdk3q8","1","66","83","50","","","","","","","","","","","","","","","",""
"435","
          <p id=""word"" style=""font-size: 40px;"">plabet</p>
          <p style=""font-size: 16px;"">F = YES &nbsp;&nbsp;&nbsp; J = NO</p>
        ","f","html-keyboard-response","143","2.1.0","400686","F=YES, J=NO","akeahdk3q8","1","66","83","50","","","","","","","","","plabet","strength","pseudoword","pseudoword","j","false","",""
"null","<p style=""font-size: 50px;"">+</p>","null","html-keyboard-response","144","2.1.0","400994","F=YES, J=NO","akeahdk3q8","1","66","83","50","","","","","","","","","","","","","","","",""
"null","audio/beep-329314.mp3","null","audio-keyboard-response","145","2.1.0","402521","F=YES, J=NO","akeahdk3q8","1","66","83","50","","","","","","","","","","","","","","","",""
"null","audio/birth1.wav","null","audio-keyboard-response","146","2.1.0","403231","F=YES, J=NO","akeahdk3q8","1","66","83","50","","","","","","","","","","","","","","","",""
"244","
          <p id=""word"" style=""font-size: 40px;"">peel</p>
          <p style=""font-size: 16px;"">F = YES &nbsp;&nbsp;&nbsp; J = NO</p>
        ","f","html-keyboard-response","147","2.1.0","403476","F=YES, J=NO","akeahdk3q8","1","66","83","50","","","","","","","","","peel","birth1","filler","filler","f","true","",""
"null","<p style=""font-size: 50px;"">+</p>","null","html-keyboard-response","148","2.1.0","403777","F=YES, J=NO","akeahdk3q8","1","66","83","50","","","","","","","","","","","","","","","",""
"null","audio/beep-329314.mp3","null","audio-keyboard-response","149","2.1.0","405301","F=YES, J=NO","akeahdk3q8","1","66","83","50","","","","","","","","","","","","","","","",""
"null","audio/desire.wav","null","audio-keyboard-response","150","2.1.0","406091","F=YES, J=NO","akeahdk3q8","1","66","83","50","","","","","","","","","","","","","","","",""
"null","
          <p id=""word"" style=""font-size: 40px;"">nophed</p>
          <p style=""font-size: 16px;"">F = YES &nbsp;&nbsp;&nbsp; J = NO</p>
        ","null","html-keyboard-response","151","2.1.0","407599","F=YES, J=NO","akeahdk3q8","1","66","83","50","","","","","","","","","nophed","desire","pseudoword","pseudoword","j","false","",""
"null","<p style=""font-size: 50px;"">+</p>","null","html-keyboard-response","152","2.1.0","407907","F=YES, J=NO","akeahdk3q8","1","66","83","50","","","","","","","","","","","","","","","",""
"null","audio/beep-329314.mp3","null","audio-keyboard-response","153","2.1.0","409441","F=YES, J=NO","akeahdk3q8","1","66","83","50","","","","","","","","","","","","","","","",""
"null","audio/arm.wav","null","audio-keyboard-response","154","2.1.0","410130","F=YES, J=NO","akeahdk3q8","1","66","83","50","","","","","","","","","","","","","","","",""
"252","
          <p id=""word"" style=""font-size: 40px;"">pigne</p>
          <p style=""font-size: 16px;"">F = YES &nbsp;&nbsp;&nbsp; J = NO</p>
        ","f","html-keyboard-response","155","2.1.0","410383","F=YES, J=NO","akeahdk3q8","1","66","83","50","","","","","","","","","pigne","arm","pseudoword","pseudoword","j","false","",""
"null","<p style=""font-size: 50px;"">+</p>","null","html-keyboard-response","156","2.1.0","410694","F=YES, J=NO","akeahdk3q8","1","66","83","50","","","","","","","","","","","","","","","",""
"null","audio/beep-329314.mp3","null","audio-keyboard-response","157","2.1.0","412221","F=YES, J=NO","akeahdk3q8","1","66","83","50","","","","","","","","","","","","","","","",""
"null","audio/foe1.wav","null","audio-keyboard-response","158","2.1.0","412751","F=YES, J=NO","akeahdk3q8","1","66","83","50","","","","","","","","","","","","","","","",""
"363","
          <p id=""word"" style=""font-size: 40px;"">creth</p>
          <p style=""font-size: 16px;"">F = YES &nbsp;&nbsp;&nbsp; J = NO</p>
        ","f","html-keyboard-response","159","2.1.0","413114","F=YES, J=NO","akeahdk3q8","1","66","83","50","","","","","","","","","creth","foe1","pseudoword","pseudoword","j","false","",""
"null","<p style=""font-size: 50px;"">+</p>","null","html-keyboard-response","160","2.1.0","413418","F=YES, J=NO","akeahdk3q8","1","66","83","50","","","","","","","","","","","","","","","",""
"null","audio/beep-329314.mp3","null","audio-keyboard-response","161","2.1.0","414941","F=YES, J=NO","akeahdk3q8","1","66","83","50","","","","","","","","","","","","","","","",""
"null","audio/arm.wav","null","audio-keyboard-response","162","2.1.0","415470","F=YES, J=NO","akeahdk3q8","1","66","83","50","","","","","","","","","","","","","","","",""
"337","
          <p id=""word"" style=""font-size: 40px;"">fold</p>
          <p style=""font-size: 16px;"">F = YES &nbsp;&nbsp;&nbsp; J = NO</p>
        ","f","html-keyboard-response","163","2.1.0","415808","F=YES, J=NO","akeahdk3q8","1","66","83","50","","","","","","","","","fold","arm","filler","filler","f","true","",""
"3363","
    <div style=""max-width: 800px; margin: auto; text-align: left;"">
      <h2>Part 2: Main Trials</h2>
      <p>Great job on the practice trials!</p>
      <p>You will now begin the <strong>main set of trials</strong>.</p>
      <p>Remember your key assignments:</p>
      <ul>
        <li><strong>F</strong> = YES (real English word)</li>
        <li><strong>J</strong> = NO (not a real English word)</li>
      </ul>
      <p>Try to respond as <strong>quickly and accurately</strong> as possible.</p>
      <p style=""margin-top: 2em;"">Press any key to begin the main trials.</p>
    </div>
  ","f","html-keyboard-response","164","2.1.0","419172","F=YES, J=NO","akeahdk3q8","1","66","83","50","","","","","","","","","","","","","","","",""
"1979","<p>Starting main block 1 of 8. Press any key to continue.</p>","f","html-keyboard-response","165","2.1.0","421151","F=YES, J=NO","akeahdk3q8","1","66","83","50","","","","","","","","","","","","","","","",""
"null","<p style=""font-size: 50px;"">+</p>","null","html-keyboard-response","166","2.1.0","421464","F=YES, J=NO","akeahdk3q8","1","66","83","50","","","","","","","","","","","","","","","",""
"null","audio/beep-329314.mp3","null","audio-keyboard-response","167","2.1.0","423021","F=YES, J=NO","akeahdk3q8","1","66","83","50","","","","","","","","","","","","","","","",""
"null","audio/gossip1.wav","null","audio-keyboard-response","168","2.1.0","423650","F=YES, J=NO","akeahdk3q8","1","66","83","50","","","","","","","","","","","","","","","",""
"null","
          <p id=""word"" style=""font-size: 40px;"">camerish</p>
          <p style=""font-size: 16px;"">F = YES &nbsp;&nbsp;&nbsp; J = NO</p>
        ","null","html-keyboard-response","169","2.1.0","425160","F=YES, J=NO","akeahdk3q8","1","66","83","50","","","","","","","","","camerish","gossip1","pseudoword","pseudoword","j","false","",""
"null","<p style=""font-size: 50px;"">+</p>","null","html-keyboard-response","170","2.1.0","425461","F=YES, J=NO","akeahdk3q8","1","66","83","50","","","","","","","","","","","","","","","",""
"null","audio/beep-329314.mp3","null","audio-keyboard-response","171","2.1.0","427021","F=YES, J=NO","akeahdk3q8","1","66","83","50","","","","","","","","","","","","","","","",""
"null","audio/age1.wav","null","audio-keyboard-response","172","2.1.0","427551","F=YES, J=NO","akeahdk3q8","1","66","83","50","","","","","","","","","","","","","","","",""
"null","
          <p id=""word"" style=""font-size: 40px;"">lachry</p>
          <p style=""font-size: 16px;"">F = YES &nbsp;&nbsp;&nbsp; J = NO</p>
        ","null","html-keyboard-response","173","2.1.0","429055","F=YES, J=NO","akeahdk3q8","1","66","83","50","","","","","","","","","lachry","age1","pseudoword","pseudoword","j","false","",""
"null","<p style=""font-size: 50px;"">+</p>","null","html-keyboard-response","174","2.1.0","429358","F=YES, J=NO","akeahdk3q8","1","66","83","50","","","","","","","","","","","","","","","",""
"null","audio/beep-329314.mp3","null","audio-keyboard-response","175","2.1.0","430881","F=YES, J=NO","akeahdk3q8","1","66","83","50","","","","","","","","","","","","","","","",""
"null","audio/ankle1.wav","null","audio-keyboard-response","176","2.1.0","431571","F=YES, J=NO","akeahdk3q8","1","66","83","50","","","","","","","","","","","","","","","",""
"null","
          <p id=""word"" style=""font-size: 40px;"">kick</p>
          <p style=""font-size: 16px;"">F = YES &nbsp;&nbsp;&nbsp; J = NO</p>
        ","null","html-keyboard-response","177","2.1.0","433085","F=YES, J=NO","akeahdk3q8","1","66","83","50","","","","","","","","","kick","ankle1","filler","filler","f","false","",""
"null","<p style=""font-size: 50px;"">+</p>","null","html-keyboard-response","178","2.1.0","433402","F=YES, J=NO","akeahdk3q8","1","66","83","50","","","","","","","","","","","","","","","",""
"null","audio/beep-329314.mp3","null","audio-keyboard-response","179","2.1.0","434941","F=YES, J=NO","akeahdk3q8","1","66","83","50","","","","","","","","","","","","","","","",""
"null","audio/strength.wav","null","audio-keyboard-response","180","2.1.0","435650","F=YES, J=NO","akeahdk3q8","1","66","83","50","","","","","","","","","","","","","","","",""
"null","
          <p id=""word"" style=""font-size: 40px;"">possess</p>
          <p style=""font-size: 16px;"">F = YES &nbsp;&nbsp;&nbsp; J = NO</p>
        ","null","html-keyboard-response","181","2.1.0","437163","F=YES, J=NO","akeahdk3q8","1","66","83","50","","","","","","","","","possess","strength","metaphor","experimental","f","false","",""
"null","<p style=""font-size: 50px;"">+</p>","null","html-keyboard-response","182","2.1.0","437474","F=YES, J=NO","akeahdk3q8","1","66","83","50","","","","","","","","","","","","","","","",""
"null","audio/beep-329314.mp3","null","audio-keyboard-response","183","2.1.0","439020","F=YES, J=NO","akeahdk3q8","1","66","83","50","","","","","","","","","","","","","","","",""
"null","audio/plot1.wav","null","audio-keyboard-response","184","2.1.0","439572","F=YES, J=NO","akeahdk3q8","1","66","83","50","","","","","","","","","","","","","","","",""
"null","
          <p id=""word"" style=""font-size: 40px;"">glenter</p>
          <p style=""font-size: 16px;"">F = YES &nbsp;&nbsp;&nbsp; J = NO</p>
        ","null","html-keyboard-response","185","2.1.0","441083","F=YES, J=NO","akeahdk3q8","1","66","83","50","","","","","","","","","glenter","plot1","pseudoword","pseudoword","j","false","",""
"null","<p style=""font-size: 50px;"">+</p>","null","html-keyboard-response","186","2.1.0","441386","F=YES, J=NO","akeahdk3q8","1","66","83","50","","","","","","","","","","","","","","","",""
"null","audio/beep-329314.mp3","null","audio-keyboard-response","187","2.1.0","442921","F=YES, J=NO","akeahdk3q8","1","66","83","50","","","","","","","","","","","","","","","",""
"null","audio/account1.wav","null","audio-keyboard-response","188","2.1.0","443610","F=YES, J=NO","akeahdk3q8","1","66","83","50","","","","","","","","","","","","","","","",""
"null","
          <p id=""word"" style=""font-size: 40px;"">paint</p>
          <p style=""font-size: 16px;"">F = YES &nbsp;&nbsp;&nbsp; J = NO</p>
        ","null","html-keyboard-response","189","2.1.0","445113","F=YES, J=NO","akeahdk3q8","1","66","83","50","","","","","","","","","paint","account1","filler","filler","f","false","",""
"null","<p style=""font-size: 50px;"">+</p>","null","html-keyboard-response","190","2.1.0","445422","F=YES, J=NO","akeahdk3q8","1","66","83","50","","","","","","","","","","","","","","","",""
"null","audio/beep-329314.mp3","null","audio-keyboard-response","191","2.1.0","446961","F=YES, J=NO","akeahdk3q8","1","66","83","50","","","","","","","","","","","","","","","",""
"null","audio/sugar1.wav","null","audio-keyboard-response","192","2.1.0","447611","F=YES, J=NO","akeahdk3q8","1","66","83","50","","","","","","","","","","","","","","","",""
"null","
          <p id=""word"" style=""font-size: 40px;"">glung</p>
          <p style=""font-size: 16px;"">F = YES &nbsp;&nbsp;&nbsp; J = NO</p>
        ","null","html-keyboard-response","193","2.1.0","449128","F=YES, J=NO","akeahdk3q8","1","66","83","50","","","","","","","","","glung","sugar1","pseudoword","pseudoword","j","false","",""
"null","<p style=""font-size: 50px;"">+</p>","null","html-keyboard-response","194","2.1.0","449429","F=YES, J=NO","akeahdk3q8","1","66","83","50","","","","","","","","","","","","","","","",""
"null","audio/beep-329314.mp3","null","audio-keyboard-response","195","2.1.0","450961","F=YES, J=NO","akeahdk3q8","1","66","83","50","","","","","","","","","","","","","","","",""
"null","audio/camera1.wav","null","audio-keyboard-response","196","2.1.0","451611","F=YES, J=NO","akeahdk3q8","1","66","83","50","","","","","","","","","","","","","","","",""
"null","
          <p id=""word"" style=""font-size: 40px;"">bring</p>
          <p style=""font-size: 16px;"">F = YES &nbsp;&nbsp;&nbsp; J = NO</p>
        ","null","html-keyboard-response","197","2.1.0","453125","F=YES, J=NO","akeahdk3q8","1","66","83","50","","","","","","","","","bring","camera1","literal","experimental","f","false","",""
"null","<p style=""font-size: 50px;"">+</p>","null","html-keyboard-response","198","2.1.0","453436","F=YES, J=NO","akeahdk3q8","1","66","83","50","","","","","","","","","","","","","","","",""
"null","audio/beep-329314.mp3","null","audio-keyboard-response","199","2.1.0","454961","F=YES, J=NO","akeahdk3q8","1","66","83","50","","","","","","","","","","","","","","","",""
"null","audio/dollar.wav","null","audio-keyboard-response","200","2.1.0","455351","F=YES, J=NO","akeahdk3q8","1","66","83","50","","","","","","","","","","","","","","","",""
"null","
          <p id=""word"" style=""font-size: 40px;"">gliptism</p>
          <p style=""font-size: 16px;"">F = YES &nbsp;&nbsp;&nbsp; J = NO</p>
        ","null","html-keyboard-response","201","2.1.0","456855","F=YES, J=NO","akeahdk3q8","1","66","83","50","","","","","","","","","gliptism","dollar","pseudoword","pseudoword","j","false","",""
"null","<p style=""font-size: 50px;"">+</p>","null","html-keyboard-response","202","2.1.0","457159","F=YES, J=NO","akeahdk3q8","1","66","83","50","","","","","","","","","","","","","","","",""
"null","audio/beep-329314.mp3","null","audio-keyboard-response","203","2.1.0","458700","F=YES, J=NO","akeahdk3q8","1","66","83","50","","","","","","","","","","","","","","","",""
"null","audio/winter.wav","null","audio-keyboard-response","204","2.1.0","459430","F=YES, J=NO","akeahdk3q8","1","66","83","50","","","","","","","","","","","","","","","",""
"null","
          <p id=""word"" style=""font-size: 40px;"">straven</p>
          <p style=""font-size: 16px;"">F = YES &nbsp;&nbsp;&nbsp; J = NO</p>
        ","null","html-keyboard-response","205","2.1.0","460933","F=YES, J=NO","akeahdk3q8","1","66","83","50","","","","","","","","","straven","winter","pseudoword","pseudoword","j","false","",""
"null","<p style=""font-size: 50px;"">+</p>","null","html-keyboard-response","206","2.1.0","461236","F=YES, J=NO","akeahdk3q8","1","66","83","50","","","","","","","","","","","","","","","",""
"null","audio/beep-329314.mp3","null","audio-keyboard-response","207","2.1.0","462781","F=YES, J=NO","akeahdk3q8","1","66","83","50","","","","","","","","","","","","","","","",""
"null","audio/heart1.wav","null","audio-keyboard-response","208","2.1.0","463570","F=YES, J=NO","akeahdk3q8","1","66","83","50","","","","","","","","","","","","","","","",""
"null","
          <p id=""word"" style=""font-size: 40px;"">dralm</p>
          <p style=""font-size: 16px;"">F = YES &nbsp;&nbsp;&nbsp; J = NO</p>
        ","null","html-keyboard-response","209","2.1.0","465075","F=YES, J=NO","akeahdk3q8","1","66","83","50","","","","","","","","","dralm","heart1","pseudoword","pseudoword","j","false","",""
"null","<p style=""font-size: 50px;"">+</p>","null","html-keyboard-response","210","2.1.0","465377","F=YES, J=NO","akeahdk3q8","1","66","83","50","","","","","","","","","","","","","","","",""
"null","audio/beep-329314.mp3","null","audio-keyboard-response","211","2.1.0","466901","F=YES, J=NO","akeahdk3q8","1","66","83","50","","","","","","","","","","","","","","","",""
"null","audio/purpose.wav","null","audio-keyboard-response","212","2.1.0","467550","F=YES, J=NO","akeahdk3q8","1","66","83","50","","","","","","","","","","","","","","","",""
"null","
          <p id=""word"" style=""font-size: 40px;"">defeat</p>
          <p style=""font-size: 16px;"">F = YES &nbsp;&nbsp;&nbsp; J = NO</p>
        ","null","html-keyboard-response","213","2.1.0","469053","F=YES, J=NO","akeahdk3q8","1","66","83","50","","","","","","","","","defeat","purpose","metaphor","experimental","f","false","",""
"null","<p style=""font-size: 50px;"">+</p>","null","html-keyboard-response","214","2.1.0","469357","F=YES, J=NO","akeahdk3q8","1","66","83","50","","","","","","","","","","","","","","","",""
"null","audio/beep-329314.mp3","null","audio-keyboard-response","215","2.1.0","470881","F=YES, J=NO","akeahdk3q8","1","66","83","50","","","","","","","","","","","","","","","",""
"null","audio/effort.wav","null","audio-keyboard-response","216","2.1.0","471710","F=YES, J=NO","akeahdk3q8","1","66","83","50","","","","","","","","","","","","","","","",""
"null","
          <p id=""word"" style=""font-size: 40px;"">whonk</p>
          <p style=""font-size: 16px;"">F = YES &nbsp;&nbsp;&nbsp; J = NO</p>
        ","null","html-keyboard-response","217","2.1.0","473217","F=YES, J=NO","akeahdk3q8","1","66","83","50","","","","","","","","","whonk","effort","pseudoword","pseudoword","j","false","",""
"null","<p style=""font-size: 50px;"">+</p>","null","html-keyboard-response","218","2.1.0","473528","F=YES, J=NO","akeahdk3q8","1","66","83","50","","","","","","","","","","","","","","","",""
"null","audio/beep-329314.mp3","null","audio-keyboard-response","219","2.1.0","475061","F=YES, J=NO","akeahdk3q8","1","66","83","50","","","","","","","","","","","","","","","",""
"null","audio/kettle1.wav","null","audio-keyboard-response","220","2.1.0","475690","F=YES, J=NO","akeahdk3q8","1","66","83","50","","","","","","","","","","","","","","","",""
"null","
          <p id=""word"" style=""font-size: 40px;"">navigate</p>
          <p style=""font-size: 16px;"">F = YES &nbsp;&nbsp;&nbsp; J = NO</p>
        ","null","html-keyboard-response","221","2.1.0","477199","F=YES, J=NO","akeahdk3q8","1","66","83","50","","","","","","","","","navigate","kettle1","unrelated","experimental","f","false","",""
"null","<p style=""font-size: 50px;"">+</p>","null","html-keyboard-response","222","2.1.0","477509","F=YES, J=NO","akeahdk3q8","1","66","83","50","","","","","","","","","","","","","","","",""
"null","audio/beep-329314.mp3","null","audio-keyboard-response","223","2.1.0","479041","F=YES, J=NO","akeahdk3q8","1","66","83","50","","","","","","","","","","","","","","","",""
"null","audio/life1.wav","null","audio-keyboard-response","224","2.1.0","479770","F=YES, J=NO","akeahdk3q8","1","66","83","50","","","","","","","","","","","","","","","",""
"null","
          <p id=""word"" style=""font-size: 40px;"">flimch</p>
          <p style=""font-size: 16px;"">F = YES &nbsp;&nbsp;&nbsp; J = NO</p>
        ","null","html-keyboard-response","225","2.1.0","481278","F=YES, J=NO","akeahdk3q8","1","66","83","50","","","","","","","","","flimch","life1","pseudoword","pseudoword","j","false","",""
"null","<p style=""font-size: 50px;"">+</p>","null","html-keyboard-response","226","2.1.0","481591","F=YES, J=NO","akeahdk3q8","1","66","83","50","","","","","","","","","","","","","","","",""
"null","audio/beep-329314.mp3","null","audio-keyboard-response","227","2.1.0","483121","F=YES, J=NO","akeahdk3q8","1","66","83","50","","","","","","","","","","","","","","","",""
"null","audio/hotel1.wav","null","audio-keyboard-response","228","2.1.0","483910","F=YES, J=NO","akeahdk3q8","1","66","83","50","","","","","","","","","","","","","","","",""
"null","
          <p id=""word"" style=""font-size: 40px;"">flanter</p>
          <p style=""font-size: 16px;"">F = YES &nbsp;&nbsp;&nbsp; J = NO</p>
        ","null","html-keyboard-response","229","2.1.0","485425","F=YES, J=NO","akeahdk3q8","1","66","83","50","","","","","","","","","flanter","hotel1","pseudoword","pseudoword","j","false","",""
"83708","<p>Excellent! You have finished block 1 of 8.</p>
                     <p>Feel free to take a 30 second break.</p>
                     <p>Press any key when you're ready to continue.</p>","f","html-keyboard-response","230","2.1.0","569134","F=YES, J=NO","akeahdk3q8","1","66","83","50","","","","","","","","","","","","","","","",""
"2735","<p>Starting main block 2 of 8. Press any key to continue.</p>","f","html-keyboard-response","231","2.1.0","571870","F=YES, J=NO","akeahdk3q8","1","66","83","50","","","","","","","","","","","","","","","",""
"null","<p style=""font-size: 50px;"">+</p>","null","html-keyboard-response","232","2.1.0","572181","F=YES, J=NO","akeahdk3q8","1","66","83","50","","","","","","","","","","","","","","","",""
"null","audio/beep-329314.mp3","null","audio-keyboard-response","233","2.1.0","573740","F=YES, J=NO","akeahdk3q8","1","66","83","50","","","","","","","","","","","","","","","",""
"null","audio/flaw.wav","null","audio-keyboard-response","234","2.1.0","574390","F=YES, J=NO","akeahdk3q8","1","66","83","50","","","","","","","","","","","","","","","",""
"415","
          <p id=""word"" style=""font-size: 40px;"">thwool</p>
          <p style=""font-size: 16px;"">F = YES &nbsp;&nbsp;&nbsp; J = NO</p>
        ","f","html-keyboard-response","235","2.1.0","574806","F=YES, J=NO","akeahdk3q8","1","66","83","50","","","","","","","","","thwool","flaw","pseudoword","pseudoword","j","false","",""
"null","<p style=""font-size: 50px;"">+</p>","null","html-keyboard-response","236","2.1.0","575110","F=YES, J=NO","akeahdk3q8","1","66","83","50","","","","","","","","","","","","","","","",""
"null","audio/beep-329314.mp3","null","audio-keyboard-response","237","2.1.0","576640","F=YES, J=NO","akeahdk3q8","1","66","83","50","","","","","","","","","","","","","","","",""
"null","audio/golf1.wav","null","audio-keyboard-response","238","2.1.0","577210","F=YES, J=NO","akeahdk3q8","1","66","83","50","","","","","","","","","","","","","","","",""
"195","
          <p id=""word"" style=""font-size: 40px;"">drabble</p>
          <p style=""font-size: 16px;"">F = YES &nbsp;&nbsp;&nbsp; J = NO</p>
        ","f","html-keyboard-response","239","2.1.0","577406","F=YES, J=NO","akeahdk3q8","1","66","83","50","","","","","","","","","drabble","golf1","pseudoword","pseudoword","j","false","",""
"null","<p style=""font-size: 50px;"">+</p>","null","html-keyboard-response","240","2.1.0","577719","F=YES, J=NO","akeahdk3q8","1","66","83","50","","","","","","","","","","","","","","","",""
"null","audio/beep-329314.mp3","null","audio-keyboard-response","241","2.1.0","579260","F=YES, J=NO","akeahdk3q8","1","66","83","50","","","","","","","","","","","","","","","",""
"null","audio/theory1.wav","null","audio-keyboard-response","242","2.1.0","579909","F=YES, J=NO","akeahdk3q8","1","66","83","50","","","","","","","","","","","","","","","",""
"191","
          <p id=""word"" style=""font-size: 40px;"">scolve</p>
          <p style=""font-size: 16px;"">F = YES &nbsp;&nbsp;&nbsp; J = NO</p>
        ","f","html-keyboard-response","243","2.1.0","580101","F=YES, J=NO","akeahdk3q8","1","66","83","50","","","","","","","","","scolve","theory1","pseudoword","pseudoword","j","false","",""
"null","<p style=""font-size: 50px;"">+</p>","null","html-keyboard-response","244","2.1.0","580419","F=YES, J=NO","akeahdk3q8","1","66","83","50","","","","","","","","","","","","","","","",""
"null","audio/beep-329314.mp3","null","audio-keyboard-response","245","2.1.0","581960","F=YES, J=NO","akeahdk3q8","1","66","83","50","","","","","","","","","","","","","","","",""
"null","audio/skin1.wav","null","audio-keyboard-response","246","2.1.0","582690","F=YES, J=NO","akeahdk3q8","1","66","83","50","","","","","","","","","","","","","","","",""
"379","
          <p id=""word"" style=""font-size: 40px;"">expose</p>
          <p style=""font-size: 16px;"">F = YES &nbsp;&nbsp;&nbsp; J = NO</p>
        ","f","html-keyboard-response","247","2.1.0","583069","F=YES, J=NO","akeahdk3q8","1","66","83","50","","","","","","","","","expose","skin1","literal","experimental","f","true","",""
"null","<p style=""font-size: 50px;"">+</p>","null","html-keyboard-response","248","2.1.0","583378","F=YES, J=NO","akeahdk3q8","1","66","83","50","","","","","","","","","","","","","","","",""
"null","audio/beep-329314.mp3","null","audio-keyboard-response","249","2.1.0","584900","F=YES, J=NO","akeahdk3q8","1","66","83","50","","","","","","","","","","","","","","","",""
"null","audio/window1.wav","null","audio-keyboard-response","250","2.1.0","585510","F=YES, J=NO","akeahdk3q8","1","66","83","50","","","","","","","","","","","","","","","",""
"6","
          <p id=""word"" style=""font-size: 40px;"">toss</p>
          <p style=""font-size: 16px;"">F = YES &nbsp;&nbsp;&nbsp; J = NO</p>
        ","f","html-keyboard-response","251","2.1.0","585517","F=YES, J=NO","akeahdk3q8","1","66","83","50","","","","","","","","","toss","window1","filler","filler","f","true","",""
"null","<p style=""font-size: 50px;"">+</p>","null","html-keyboard-response","252","2.1.0","585830","F=YES, J=NO","akeahdk3q8","1","66","83","50","","","","","","","","","","","","","","","",""
"null","audio/beep-329314.mp3","null","audio-keyboard-response","253","2.1.0","587360","F=YES, J=NO","akeahdk3q8","1","66","83","50","","","","","","","","","","","","","","","",""
"null","audio/camera1.wav","null","audio-keyboard-response","254","2.1.0","587830","F=YES, J=NO","akeahdk3q8","1","66","83","50","","","","","","","","","","","","","","","",""
"95","
          <p id=""word"" style=""font-size: 40px;"">stir</p>
          <p style=""font-size: 16px;"">F = YES &nbsp;&nbsp;&nbsp; J = NO</p>
        ","j","html-keyboard-response","255","2.1.0","587926","F=YES, J=NO","akeahdk3q8","1","66","83","50","","","","","","","","","stir","camera1","filler","filler","f","false","",""
"null","<p style=""font-size: 50px;"">+</p>","null","html-keyboard-response","256","2.1.0","588229","F=YES, J=NO","akeahdk3q8","1","66","83","50","","","","","","","","","","","","","","","",""
"null","audio/beep-329314.mp3","null","audio-keyboard-response","257","2.1.0","589760","F=YES, J=NO","akeahdk3q8","1","66","83","50","","","","","","","","","","","","","","","",""
"null","audio/table1.wav","null","audio-keyboard-response","258","2.1.0","590249","F=YES, J=NO","akeahdk3q8","1","66","83","50","","","","","","","","","","","","","","","",""
"79","
          <p id=""word"" style=""font-size: 40px;"">stimb</p>
          <p style=""font-size: 16px;"">F = YES &nbsp;&nbsp;&nbsp; J = NO</p>
        ","j","html-keyboard-response","259","2.1.0","590329","F=YES, J=NO","akeahdk3q8","1","66","83","50","","","","","","","","","stimb","table1","pseudoword","pseudoword","j","true","",""
"null","<p style=""font-size: 50px;"">+</p>","null","html-keyboard-response","260","2.1.0","590635","F=YES, J=NO","akeahdk3q8","1","66","83","50","","","","","","","","","","","","","","","",""
"null","audio/beep-329314.mp3","null","audio-keyboard-response","261","2.1.0","592160","F=YES, J=NO","akeahdk3q8","1","66","83","50","","","","","","","","","","","","","","","",""
"null","audio/roof1.wav","null","audio-keyboard-response","262","2.1.0","592690","F=YES, J=NO","akeahdk3q8","1","66","83","50","","","","","","","","","","","","","","","",""
"508","
          <p id=""word"" style=""font-size: 40px;"">construct</p>
          <p style=""font-size: 16px;"">F = YES &nbsp;&nbsp;&nbsp; J = NO</p>
        ","j","html-keyboard-response","263","2.1.0","593198","F=YES, J=NO","akeahdk3q8","1","66","83","50","","","","","","","","","construct","roof1","literal","experimental","f","false","",""
"null","<p style=""font-size: 50px;"">+</p>","null","html-keyboard-response","264","2.1.0","593504","F=YES, J=NO","akeahdk3q8","1","66","83","50","","","","","","","","","","","","","","","",""
"null","audio/beep-329314.mp3","null","audio-keyboard-response","265","2.1.0","595040","F=YES, J=NO","akeahdk3q8","1","66","83","50","","","","","","","","","","","","","","","",""
"null","audio/emotion.wav","null","audio-keyboard-response","266","2.1.0","595850","F=YES, J=NO","akeahdk3q8","1","66","83","50","","","","","","","","","","","","","","","",""
"467","
          <p id=""word"" style=""font-size: 40px;"">devering</p>
          <p style=""font-size: 16px;"">F = YES &nbsp;&nbsp;&nbsp; J = NO</p>
        ","j","html-keyboard-response","267","2.1.0","596318","F=YES, J=NO","akeahdk3q8","1","66","83","50","","","","","","","","","devering","emotion","pseudoword","pseudoword","j","true","",""
"null","<p style=""font-size: 50px;"">+</p>","null","html-keyboard-response","268","2.1.0","596633","F=YES, J=NO","akeahdk3q8","1","66","83","50","","","","","","","","","","","","","","","",""
"null","audio/beep-329314.mp3","null","audio-keyboard-response","269","2.1.0","598160","F=YES, J=NO","akeahdk3q8","1","66","83","50","","","","","","","","","","","","","","","",""
"null","audio/van1.wav","null","audio-keyboard-response","270","2.1.0","598649","F=YES, J=NO","akeahdk3q8","1","66","83","50","","","","","","","","","","","","","","","",""
"340","
          <p id=""word"" style=""font-size: 40px;"">support</p>
          <p style=""font-size: 16px;"">F = YES &nbsp;&nbsp;&nbsp; J = NO</p>
        ","j","html-keyboard-response","271","2.1.0","598990","F=YES, J=NO","akeahdk3q8","1","66","83","50","","","","","","","","","support","van1","unrelated","experimental","f","false","",""
"null","<p style=""font-size: 50px;"">+</p>","null","html-keyboard-response","272","2.1.0","599293","F=YES, J=NO","akeahdk3q8","1","66","83","50","","","","","","","","","","","","","","","",""
"null","audio/beep-329314.mp3","null","audio-keyboard-response","273","2.1.0","600820","F=YES, J=NO","akeahdk3q8","1","66","83","50","","","","","","","","","","","","","","","",""
"null","audio/hotel1.wav","null","audio-keyboard-response","274","2.1.0","601430","F=YES, J=NO","akeahdk3q8","1","66","83","50","","","","","","","","","","","","","","","",""
"335","
          <p id=""word"" style=""font-size: 40px;"">spread</p>
          <p style=""font-size: 16px;"">F = YES &nbsp;&nbsp;&nbsp; J = NO</p>
        ","f","html-keyboard-response","275","2.1.0","601765","F=YES, J=NO","akeahdk3q8","1","66","83","50","","","","","","","","","spread","hotel1","unrelated","experimental","f","true","",""
"null","<p style=""font-size: 50px;"">+</p>","null","html-keyboard-response","276","2.1.0","602074","F=YES, J=NO","akeahdk3q8","1","66","83","50","","","","","","","","","","","","","","","",""
"null","audio/beep-329314.mp3","null","audio-keyboard-response","277","2.1.0","603600","F=YES, J=NO","akeahdk3q8","1","66","83","50","","","","","","","","","","","","","","","",""
"null","audio/table1.wav","null","audio-keyboard-response","278","2.1.0","604070","F=YES, J=NO","akeahdk3q8","1","66","83","50","","","","","","","","","","","","","","","",""
"159","
          <p id=""word"" style=""font-size: 40px;"">clear</p>
          <p style=""font-size: 16px;"">F = YES &nbsp;&nbsp;&nbsp; J = NO</p>
        ","f","html-keyboard-response","279","2.1.0","604229","F=YES, J=NO","akeahdk3q8","1","66","83","50","","","","","","","","","clear","table1","literal","experimental","f","true","",""
"null","<p style=""font-size: 50px;"">+</p>","null","html-keyboard-response","280","2.1.0","604532","F=YES, J=NO","akeahdk3q8","1","66","83","50","","","","","","","","","","","","","","","",""
"null","audio/beep-329314.mp3","null","audio-keyboard-response","281","2.1.0","606060","F=YES, J=NO","akeahdk3q8","1","66","83","50","","","","","","","","","","","","","","","",""
"null","audio/client1.wav","null","audio-keyboard-response","282","2.1.0","606750","F=YES, J=NO","akeahdk3q8","1","66","83","50","","","","","","","","","","","","","","","",""
"214","
          <p id=""word"" style=""font-size: 40px;"">droothe</p>
          <p style=""font-size: 16px;"">F = YES &nbsp;&nbsp;&nbsp; J = NO</p>
        ","f","html-keyboard-response","283","2.1.0","606966","F=YES, J=NO","akeahdk3q8","1","66","83","50","","","","","","","","","droothe","client1","pseudoword","pseudoword","j","false","",""
"null","<p style=""font-size: 50px;"">+</p>","null","html-keyboard-response","284","2.1.0","607273","F=YES, J=NO","akeahdk3q8","1","66","83","50","","","","","","","","","","","","","","","",""
"null","audio/beep-329314.mp3","null","audio-keyboard-response","285","2.1.0","608800","F=YES, J=NO","akeahdk3q8","1","66","83","50","","","","","","","","","","","","","","","",""
"null","audio/terrain.wav","null","audio-keyboard-response","286","2.1.0","609390","F=YES, J=NO","akeahdk3q8","1","66","83","50","","","","","","","","","","","","","","","",""
"175","
          <p id=""word"" style=""font-size: 40px;"">twist</p>
          <p style=""font-size: 16px;"">F = YES &nbsp;&nbsp;&nbsp; J = NO</p>
        ","j","html-keyboard-response","287","2.1.0","609566","F=YES, J=NO","akeahdk3q8","1","66","83","50","","","","","","","","","twist","terrain","filler","filler","f","false","",""
"null","<p style=""font-size: 50px;"">+</p>","null","html-keyboard-response","288","2.1.0","609871","F=YES, J=NO","akeahdk3q8","1","66","83","50","","","","","","","","","","","","","","","",""
"null","audio/beep-329314.mp3","null","audio-keyboard-response","289","2.1.0","611400","F=YES, J=NO","akeahdk3q8","1","66","83","50","","","","","","","","","","","","","","","",""
"null","audio/age1.wav","null","audio-keyboard-response","290","2.1.0","611930","F=YES, J=NO","akeahdk3q8","1","66","83","50","","","","","","","","","","","","","","","",""
"275","
          <p id=""word"" style=""font-size: 40px;"">seize</p>
          <p style=""font-size: 16px;"">F = YES &nbsp;&nbsp;&nbsp; J = NO</p>
        ","f","html-keyboard-response","291","2.1.0","612206","F=YES, J=NO","akeahdk3q8","1","66","83","50","","","","","","","","","seize","age1","unrelated","experimental","f","true","",""
"null","<p style=""font-size: 50px;"">+</p>","null","html-keyboard-response","292","2.1.0","612513","F=YES, J=NO","akeahdk3q8","1","66","83","50","","","","","","","","","","","","","","","",""
"null","audio/beep-329314.mp3","null","audio-keyboard-response","293","2.1.0","614040","F=YES, J=NO","akeahdk3q8","1","66","83","50","","","","","","","","","","","","","","","",""
"null","audio/cloud1.wav","null","audio-keyboard-response","294","2.1.0","614749","F=YES, J=NO","akeahdk3q8","1","66","83","50","","","","","","","","","","","","","","","",""
"192","
          <p id=""word"" style=""font-size: 40px;"">brotant</p>
          <p style=""font-size: 16px;"">F = YES &nbsp;&nbsp;&nbsp; J = NO</p>
        ","f","html-keyboard-response","295","2.1.0","614942","F=YES, J=NO","akeahdk3q8","1","66","83","50","","","","","","","","","brotant","cloud1","pseudoword","pseudoword","j","false","",""
"1166","<p>Excellent! You have finished block 2 of 8.</p>
                     <p>Feel free to take a 30 second break.</p>
                     <p>Press any key when you're ready to continue.</p>"," ","html-keyboard-response","296","2.1.0","616109","F=YES, J=NO","akeahdk3q8","1","66","83","50","","","","","","","","","","","","","","","",""
"1952","<p>Starting main block 3 of 8. Press any key to continue.</p>","f","html-keyboard-response","297","2.1.0","618061","F=YES, J=NO","akeahdk3q8","1","66","83","50","","","","","","","","","","","","","","","",""
"null","<p style=""font-size: 50px;"">+</p>","null","html-keyboard-response","298","2.1.0","618376","F=YES, J=NO","akeahdk3q8","1","66","83","50","","","","","","","","","","","","","","","",""
"null","audio/beep-329314.mp3","null","audio-keyboard-response","299","2.1.0","619900","F=YES, J=NO","akeahdk3q8","1","66","83","50","","","","","","","","","","","","","","","",""
"null","audio/gift1.wav","null","audio-keyboard-response","300","2.1.0","620369","F=YES, J=NO","akeahdk3q8","1","66","83","50","","","","","","","","","","","","","","","",""
"null","
          <p id=""word"" style=""font-size: 40px;"">protsh</p>
          <p style=""font-size: 16px;"">F = YES &nbsp;&nbsp;&nbsp; J = NO</p>
        ","null","html-keyboard-response","301","2.1.0","621882","F=YES, J=NO","akeahdk3q8","1","66","83","50","","","","","","","","","protsh","gift1","pseudoword","pseudoword","j","false","",""
"null","<p style=""font-size: 50px;"">+</p>","null","html-keyboard-response","302","2.1.0","622184","F=YES, J=NO","akeahdk3q8","1","66","83","50","","","","","","","","","","","","","","","",""
"null","audio/beep-329314.mp3","null","audio-keyboard-response","303","2.1.0","623720","F=YES, J=NO","akeahdk3q8","1","66","83","50","","","","","","","","","","","","","","","",""
"null","audio/key1.wav","null","audio-keyboard-response","304","2.1.0","624089","F=YES, J=NO","akeahdk3q8","1","66","83","50","","","","","","","","","","","","","","","",""
"11","
          <p id=""word"" style=""font-size: 40px;"">lose</p>
          <p style=""font-size: 16px;"">F = YES &nbsp;&nbsp;&nbsp; J = NO</p>
        ","f","html-keyboard-response","305","2.1.0","624101","F=YES, J=NO","akeahdk3q8","1","66","83","50","","","","","","","","","lose","key1","literal","experimental","f","true","",""
"null","<p style=""font-size: 50px;"">+</p>","null","html-keyboard-response","306","2.1.0","624412","F=YES, J=NO","akeahdk3q8","1","66","83","50","","","","","","","","","","","","","","","",""
"null","audio/beep-329314.mp3","null","audio-keyboard-response","307","2.1.0","625940","F=YES, J=NO","akeahdk3q8","1","66","83","50","","","","","","","","","","","","","","","",""
"null","audio/smirk1.wav","null","audio-keyboard-response","308","2.1.0","626690","F=YES, J=NO","akeahdk3q8","1","66","83","50","","","","","","","","","","","","","","","",""
"1098","
          <p id=""word"" style=""font-size: 40px;"">snopt</p>
          <p style=""font-size: 16px;"">F = YES &nbsp;&nbsp;&nbsp; J = NO</p>
        ","f","html-keyboard-response","309","2.1.0","627789","F=YES, J=NO","akeahdk3q8","1","66","83","50","","","","","","","","","snopt","smirk1","pseudoword","pseudoword","j","false","",""
"null","<p style=""font-size: 50px;"">+</p>","null","html-keyboard-response","310","2.1.0","628097","F=YES, J=NO","akeahdk3q8","1","66","83","50","","","","","","","","","","","","","","","",""
"null","audio/beep-329314.mp3","null","audio-keyboard-response","311","2.1.0","629620","F=YES, J=NO","akeahdk3q8","1","66","83","50","","","","","","","","","","","","","","","",""
"null","audio/street.wav","null","audio-keyboard-response","312","2.1.0","630310","F=YES, J=NO","akeahdk3q8","1","66","83","50","","","","","","","","","","","","","","","",""
"null","
          <p id=""word"" style=""font-size: 40px;"">hold</p>
          <p style=""font-size: 16px;"">F = YES &nbsp;&nbsp;&nbsp; J = NO</p>
        ","null","html-keyboard-response","313","2.1.0","631813","F=YES, J=NO","akeahdk3q8","1","66","83","50","","","","","","","","","hold","street","unrelated","experimental","f","false","",""
"null","<p style=""font-size: 50px;"">+</p>","null","html-keyboard-response","314","2.1.0","632115","F=YES, J=NO","akeahdk3q8","1","66","83","50","","","","","","","","","","","","","","","",""
"null","audio/beep-329314.mp3","null","audio-keyboard-response","315","2.1.0","633640","F=YES, J=NO","akeahdk3q8","1","66","83","50","","","","","","","","","","","","","","","",""
"null","audio/burden.wav","null","audio-keyboard-response","316","2.1.0","634150","F=YES, J=NO","akeahdk3q8","1","66","83","50","","","","","","","","","","","","","","","",""
"127","
          <p id=""word"" style=""font-size: 40px;"">whotth</p>
          <p style=""font-size: 16px;"">F = YES &nbsp;&nbsp;&nbsp; J = NO</p>
        ","j","html-keyboard-response","317","2.1.0","634278","F=YES, J=NO","akeahdk3q8","1","66","83","50","","","","","","","","","whotth","burden","pseudoword","pseudoword","j","true","",""
"null","<p style=""font-size: 50px;"">+</p>","null","html-keyboard-response","318","2.1.0","634589","F=YES, J=NO","akeahdk3q8","1","66","83","50","","","","","","","","","","","","","","","",""
"null","audio/beep-329314.mp3","null","audio-keyboard-response","319","2.1.0","636120","F=YES, J=NO","akeahdk3q8","1","66","83","50","","","","","","","","","","","","","","","",""
"null","audio/voice.wav","null","audio-keyboard-response","320","2.1.0","636730","F=YES, J=NO","akeahdk3q8","1","66","83","50","","","","","","","","","","","","","","","",""
"571","
          <p id=""word"" style=""font-size: 40px;"">grintle</p>
          <p style=""font-size: 16px;"">F = YES &nbsp;&nbsp;&nbsp; J = NO</p>
        ","f","html-keyboard-response","321","2.1.0","637302","F=YES, J=NO","akeahdk3q8","1","66","83","50","","","","","","","","","grintle","voice","pseudoword","pseudoword","j","false","",""
"null","<p style=""font-size: 50px;"">+</p>","null","html-keyboard-response","322","2.1.0","637604","F=YES, J=NO","akeahdk3q8","1","66","83","50","","","","","","","","","","","","","","","",""
"null","audio/beep-329314.mp3","null","audio-keyboard-response","323","2.1.0","639140","F=YES, J=NO","akeahdk3q8","1","66","83","50","","","","","","","","","","","","","","","",""
"null","audio/alarm1.wav","null","audio-keyboard-response","324","2.1.0","639710","F=YES, J=NO","akeahdk3q8","1","66","83","50","","","","","","","","","","","","","","","",""
"831","
          <p id=""word"" style=""font-size: 40px;"">save</p>
          <p style=""font-size: 16px;"">F = YES &nbsp;&nbsp;&nbsp; J = NO</p>
        ","f","html-keyboard-response","325","2.1.0","640542","F=YES, J=NO","akeahdk3q8","1","66","83","50","","","","","","","","","save","alarm1","unrelated","experimental","f","true","",""
"null","<p style=""font-size: 50px;"">+</p>","null","html-keyboard-response","326","2.1.0","640846","F=YES, J=NO","akeahdk3q8","1","66","83","50","","","","","","","","","","","","","","","",""
"null","audio/beep-329314.mp3","null","audio-keyboard-response","327","2.1.0","642380","F=YES, J=NO","akeahdk3q8","1","66","83","50","","","","","","","","","","","","","","","",""
"null","audio/flaw.wav","null","audio-keyboard-response","328","2.1.0","642990","F=YES, J=NO","akeahdk3q8","1","66","83","50","","","","","","","","","","","","","","","",""
"null","
          <p id=""word"" style=""font-size: 40px;"">hide</p>
          <p style=""font-size: 16px;"">F = YES &nbsp;&nbsp;&nbsp; J = NO</p>
        ","null","html-keyboard-response","329","2.1.0","644503","F=YES, J=NO","akeahdk3q8","1","66","83","50","","","","","","","","","hide","flaw","metaphor","experimental","f","false","",""
"null","<p style=""font-size: 50px;"">+</p>","null","html-keyboard-response","330","2.1.0","644807","F=YES, J=NO","akeahdk3q8","1","66","83","50","","","","","","","","","","","","","","","",""
"null","audio/beep-329314.mp3","null","audio-keyboard-response","331","2.1.0","646340","F=YES, J=NO","akeahdk3q8","1","66","83","50","","","","","","","","","","","","","","","",""
"null","audio/story.wav","null","audio-keyboard-response","332","2.1.0","647009","F=YES, J=NO","akeahdk3q8","1","66","83","50","","","","","","","","","","","","","","","",""
"91","
          <p id=""word"" style=""font-size: 40px;"">cover</p>
          <p style=""font-size: 16px;"">F = YES &nbsp;&nbsp;&nbsp; J = NO</p>
        ","j","html-keyboard-response","333","2.1.0","647102","F=YES, J=NO","akeahdk3q8","1","66","83","50","","","","","","","","","cover","story","metaphor","experimental","f","false","",""
"null","<p style=""font-size: 50px;"">+</p>","null","html-keyboard-response","334","2.1.0","647408","F=YES, J=NO","akeahdk3q8","1","66","83","50","","","","","","","","","","","","","","","",""
"null","audio/beep-329314.mp3","null","audio-keyboard-response","335","2.1.0","648939","F=YES, J=NO","akeahdk3q8","1","66","83","50","","","","","","","","","","","","","","","",""
"null","audio/vehicle1.wav","null","audio-keyboard-response","336","2.1.0","649609","F=YES, J=NO","akeahdk3q8","1","66","83","50","","","","","","","","","","","","","","","",""
"35","
          <p id=""word"" style=""font-size: 40px;"">approach</p>
          <p style=""font-size: 16px;"">F = YES &nbsp;&nbsp;&nbsp; J = NO</p>
        ","f","html-keyboard-response","337","2.1.0","649644","F=YES, J=NO","akeahdk3q8","1","66","83","50","","","","","","","","","approach","vehicle1","literal","experimental","f","true","",""
"null","<p style=""font-size: 50px;"">+</p>","null","html-keyboard-response","338","2.1.0","649949","F=YES, J=NO","akeahdk3q8","1","66","83","50","","","","","","","","","","","","","","","",""
"null","audio/beep-329314.mp3","null","audio-keyboard-response","339","2.1.0","651479","F=YES, J=NO","akeahdk3q8","1","66","83","50","","","","","","","","","","","","","","","",""
"null","audio/key1.wav","null","audio-keyboard-response","340","2.1.0","651830","F=YES, J=NO","akeahdk3q8","1","66","83","50","","","","","","","","","","","","","","","",""
"726","
          <p id=""word"" style=""font-size: 40px;"">sminsh</p>
          <p style=""font-size: 16px;"">F = YES &nbsp;&nbsp;&nbsp; J = NO</p>
        ","j","html-keyboard-response","341","2.1.0","652557","F=YES, J=NO","akeahdk3q8","1","66","83","50","","","","","","","","","sminsh","key1","pseudoword","pseudoword","j","true","",""
"null","<p style=""font-size: 50px;"">+</p>","null","html-keyboard-response","342","2.1.0","652871","F=YES, J=NO","akeahdk3q8","1","66","83","50","","","","","","","","","","","","","","","",""
"null","audio/beep-329314.mp3","null","audio-keyboard-response","343","2.1.0","654400","F=YES, J=NO","akeahdk3q8","1","66","83","50","","","","","","","","","","","","","","","",""
"null","audio/novel.wav","null","audio-keyboard-response","344","2.1.0","654910","F=YES, J=NO","akeahdk3q8","1","66","83","50","","","","","","","","","","","","","","","",""
"216","
          <p id=""word"" style=""font-size: 40px;"">devour</p>
          <p style=""font-size: 16px;"">F = YES &nbsp;&nbsp;&nbsp; J = NO</p>
        ","j","html-keyboard-response","345","2.1.0","655126","F=YES, J=NO","akeahdk3q8","1","66","83","50","","","","","","","","","devour","novel","metaphor","experimental","f","false","",""
"null","<p style=""font-size: 50px;"">+</p>","null","html-keyboard-response","346","2.1.0","655433","F=YES, J=NO","akeahdk3q8","1","66","83","50","","","","","","","","","","","","","","","",""
"null","audio/beep-329314.mp3","null","audio-keyboard-response","347","2.1.0","656960","F=YES, J=NO","akeahdk3q8","1","66","83","50","","","","","","","","","","","","","","","",""
"null","audio/uncle1.wav","null","audio-keyboard-response","348","2.1.0","657469","F=YES, J=NO","akeahdk3q8","1","66","83","50","","","","","","","","","","","","","","","",""
"375","
          <p id=""word"" style=""font-size: 40px;"">break</p>
          <p style=""font-size: 16px;"">F = YES &nbsp;&nbsp;&nbsp; J = NO</p>
        ","f","html-keyboard-response","349","2.1.0","657845","F=YES, J=NO","akeahdk3q8","1","66","83","50","","","","","","","","","break","uncle1","unrelated","experimental","f","true","",""
"null","<p style=""font-size: 50px;"">+</p>","null","html-keyboard-response","350","2.1.0","658154","F=YES, J=NO","akeahdk3q8","1","66","83","50","","","","","","","","","","","","","","","",""
"null","audio/beep-329314.mp3","null","audio-keyboard-response","351","2.1.0","659680","F=YES, J=NO","akeahdk3q8","1","66","83","50","","","","","","","","","","","","","","","",""
"null","audio/haste1.wav","null","audio-keyboard-response","352","2.1.0","660249","F=YES, J=NO","akeahdk3q8","1","66","83","50","","","","","","","","","","","","","","","",""
"844","
          <p id=""word"" style=""font-size: 40px;"">coraconate</p>
          <p style=""font-size: 16px;"">F = YES &nbsp;&nbsp;&nbsp; J = NO</p>
        ","f","html-keyboard-response","353","2.1.0","661093","F=YES, J=NO","akeahdk3q8","1","66","83","50","","","","","","","","","coraconate","haste1","pseudoword","pseudoword","j","false","",""
"null","<p style=""font-size: 50px;"">+</p>","null","html-keyboard-response","354","2.1.0","661398","F=YES, J=NO","akeahdk3q8","1","66","83","50","","","","","","","","","","","","","","","",""
"null","audio/beep-329314.mp3","null","audio-keyboard-response","355","2.1.0","662919","F=YES, J=NO","akeahdk3q8","1","66","83","50","","","","","","","","","","","","","","","",""
"null","audio/grass.wav","null","audio-keyboard-response","356","2.1.0","663730","F=YES, J=NO","akeahdk3q8","1","66","83","50","","","","","","","","","","","","","","","",""
"290","
          <p id=""word"" style=""font-size: 40px;"">milames</p>
          <p style=""font-size: 16px;"">F = YES &nbsp;&nbsp;&nbsp; J = NO</p>
        ","f","html-keyboard-response","357","2.1.0","664021","F=YES, J=NO","akeahdk3q8","1","66","83","50","","","","","","","","","milames","grass","pseudoword","pseudoword","j","false","",""
"null","<p style=""font-size: 50px;"">+</p>","null","html-keyboard-response","358","2.1.0","664330","F=YES, J=NO","akeahdk3q8","1","66","83","50","","","","","","","","","","","","","","","",""
"null","audio/beep-329314.mp3","null","audio-keyboard-response","359","2.1.0","665860","F=YES, J=NO","akeahdk3q8","1","66","83","50","","","","","","","","","","","","","","","",""
"null","audio/pattern.wav","null","audio-keyboard-response","360","2.1.0","666409","F=YES, J=NO","akeahdk3q8","1","66","83","50","","","","","","","","","","","","","","","",""
"null","
          <p id=""word"" style=""font-size: 40px;"">tug</p>
          <p style=""font-size: 16px;"">F = YES &nbsp;&nbsp;&nbsp; J = NO</p>
        ","null","html-keyboard-response","361","2.1.0","667913","F=YES, J=NO","akeahdk3q8","1","66","83","50","","","","","","","","","tug","pattern","filler","filler","f","false","",""
"283","<p>Excellent! You have finished block 3 of 8.</p>
                     <p>Feel free to take a 30 second break.</p>
                     <p>Press any key when you're ready to continue.</p>","f","html-keyboard-response","362","2.1.0","668197","F=YES, J=NO","akeahdk3q8","1","66","83","50","","","","","","","","","","","","","","","",""
"167","<p>Starting main block 4 of 8. Press any key to continue.</p>","j","html-keyboard-response","363","2.1.0","668364","F=YES, J=NO","akeahdk3q8","1","66","83","50","","","","","","","","","","","","","","","",""
"null","<p style=""font-size: 50px;"">+</p>","null","html-keyboard-response","364","2.1.0","668676","F=YES, J=NO","akeahdk3q8","1","66","83","50","","","","","","","","","","","","","","","",""
"null","audio/beep-329314.mp3","null","audio-keyboard-response","365","2.1.0","670199","F=YES, J=NO","akeahdk3q8","1","66","83","50","","","","","","","","","","","","","","","",""
"null","audio/alarm1.wav","null","audio-keyboard-response","366","2.1.0","670769","F=YES, J=NO","akeahdk3q8","1","66","83","50","","","","","","","","","","","","","","","",""
"1171","
          <p id=""word"" style=""font-size: 40px;"">swetp</p>
          <p style=""font-size: 16px;"">F = YES &nbsp;&nbsp;&nbsp; J = NO</p>
        ","f","html-keyboard-response","367","2.1.0","671941","F=YES, J=NO","akeahdk3q8","1","66","83","50","","","","","","","","","swetp","alarm1","pseudoword","pseudoword","j","false","",""
"null","<p style=""font-size: 50px;"">+</p>","null","html-keyboard-response","368","2.1.0","672250","F=YES, J=NO","akeahdk3q8","1","66","83","50","","","","","","","","","","","","","","","",""
"null","audio/beep-329314.mp3","null","audio-keyboard-response","369","2.1.0","673780","F=YES, J=NO","akeahdk3q8","1","66","83","50","","","","","","","","","","","","","","","",""
"null","audio/cash1.wav","null","audio-keyboard-response","370","2.1.0","674369","F=YES, J=NO","akeahdk3q8","1","66","83","50","","","","","","","","","","","","","","","",""
"507","
          <p id=""word"" style=""font-size: 40px;"">invest</p>
          <p style=""font-size: 16px;"">F = YES &nbsp;&nbsp;&nbsp; J = NO</p>
        ","j","html-keyboard-response","371","2.1.0","674877","F=YES, J=NO","akeahdk3q8","1","66","83","50","","","","","","","","","invest","cash1","literal","experimental","f","false","",""
"null","<p style=""font-size: 50px;"">+</p>","null","html-keyboard-response","372","2.1.0","675181","F=YES, J=NO","akeahdk3q8","1","66","83","50","","","","","","","","","","","","","","","",""
"null","audio/beep-329314.mp3","null","audio-keyboard-response","373","2.1.0","676719","F=YES, J=NO","akeahdk3q8","1","66","83","50","","","","","","","","","","","","","","","",""
"null","audio/tunnel.wav","null","audio-keyboard-response","374","2.1.0","677150","F=YES, J=NO","akeahdk3q8","1","66","83","50","","","","","","","","","","","","","","","",""
"158","
          <p id=""word"" style=""font-size: 40px;"">gred</p>
          <p style=""font-size: 16px;"">F = YES &nbsp;&nbsp;&nbsp; J = NO</p>
        ","j","html-keyboard-response","375","2.1.0","677308","F=YES, J=NO","akeahdk3q8","1","66","83","50","","","","","","","","","gred","tunnel","pseudoword","pseudoword","j","true","",""
"null","<p style=""font-size: 50px;"">+</p>","null","html-keyboard-response","376","2.1.0","677622","F=YES, J=NO","akeahdk3q8","1","66","83","50","","","","","","","","","","","","","","","",""
"null","audio/beep-329314.mp3","null","audio-keyboard-response","377","2.1.0","679160","F=YES, J=NO","akeahdk3q8","1","66","83","50","","","","","","","","","","","","","","","",""
"null","audio/budget1.wav","null","audio-keyboard-response","378","2.1.0","679929","F=YES, J=NO","akeahdk3q8","1","66","83","50","","","","","","","","","","","","","","","",""
"524","
          <p id=""word"" style=""font-size: 40px;"">sulist</p>
          <p style=""font-size: 16px;"">F = YES &nbsp;&nbsp;&nbsp; J = NO</p>
        ","f","html-keyboard-response","379","2.1.0","680454","F=YES, J=NO","akeahdk3q8","1","66","83","50","","","","","","","","","sulist","budget1","pseudoword","pseudoword","j","false","",""
"null","<p style=""font-size: 50px;"">+</p>","null","html-keyboard-response","380","2.1.0","680765","F=YES, J=NO","akeahdk3q8","1","66","83","50","","","","","","","","","","","","","","","",""
"null","audio/beep-329314.mp3","null","audio-keyboard-response","381","2.1.0","682299","F=YES, J=NO","akeahdk3q8","1","66","83","50","","","","","","","","","","","","","","","",""
"null","audio/stain.wav","null","audio-keyboard-response","382","2.1.0","682950","F=YES, J=NO","akeahdk3q8","1","66","83","50","","","","","","","","","","","","","","","",""
"743","
          <p id=""word"" style=""font-size: 40px;"">rumpsied</p>
          <p style=""font-size: 16px;"">F = YES &nbsp;&nbsp;&nbsp; J = NO</p>
        ","f","html-keyboard-response","383","2.1.0","683693","F=YES, J=NO","akeahdk3q8","1","66","83","50","","","","","","","","","rumpsied","stain","pseudoword","pseudoword","j","false","",""
"null","<p style=""font-size: 50px;"">+</p>","null","html-keyboard-response","384","2.1.0","684004","F=YES, J=NO","akeahdk3q8","1","66","83","50","","","","","","","","","","","","","","","",""
"null","audio/beep-329314.mp3","null","audio-keyboard-response","385","2.1.0","685540","F=YES, J=NO","akeahdk3q8","1","66","83","50","","","","","","","","","","","","","","","",""
"null","audio/belief.wav","null","audio-keyboard-response","386","2.1.0","686329","F=YES, J=NO","akeahdk3q8","1","66","83","50","","","","","","","","","","","","","","","",""
"468","
          <p id=""word"" style=""font-size: 40px;"">read</p>
          <p style=""font-size: 16px;"">F = YES &nbsp;&nbsp;&nbsp; J = NO</p>
        ","f","html-keyboard-response","387","2.1.0","686798","F=YES, J=NO","akeahdk3q8","1","66","83","50","","","","","","","","","read","belief","filler","filler","f","true","",""
"null","<p style=""font-size: 50px;"">+</p>","null","html-keyboard-response","388","2.1.0","687106","F=YES, J=NO","akeahdk3q8","1","66","83","50","","","","","","","","","","","","","","","",""
"null","audio/beep-329314.mp3","null","audio-keyboard-response","389","2.1.0","688640","F=YES, J=NO","akeahdk3q8","1","66","83","50","","","","","","","","","","","","","","","",""
"null","audio/trout1.wav","null","audio-keyboard-response","390","2.1.0","689230","F=YES, J=NO","akeahdk3q8","1","66","83","50","","","","","","","","","","","","","","","",""
"null","
          <p id=""word"" style=""font-size: 40px;"">spimt</p>
          <p style=""font-size: 16px;"">F = YES &nbsp;&nbsp;&nbsp; J = NO</p>
