"rt","stimulus","response","trial_type","trial_index","plugin_version","time_elapsed","response_mapping","subject_id","list_index","lextale_score","lextale_word_score","lextale_nonword_score","success","timeout","failed_images","failed_audio","failed_video","task","isWord","isDummy","target","prime","prime_type","stimulus_type","correct_response","correct","section","question_order"
"2724","
    <div style=""max-width: 800px; margin: auto; text-align: left;"">
      <h2>STANFORD UNIVERSITY</h2>
      <h3>Research Information Sheet</h3>
      <p><strong>Protocol Director:</strong> Robert Hawkins<br>
      <strong>Protocol Title:</strong> Communication and social cognition in natural audiovisual contexts<br>
      <strong>IRB#:</strong> 77226</p>

      <p><strong>DESCRIPTION:</strong> You are invited to participate in a research study about language and communication. The purpose of the research is to understand how you interact and communicate with other people in naturalistic settings as a fluent English speaker. This research will be conducted through the Prolific platform, including participants from the US, UK, and Canada. If you decide to participate in this research, you will play a communication game in a group with one or more partners.</p>

      <p><strong>TIME INVOLVEMENT:</strong> The task will last the amount of time advertised on Prolific. You are free to withdraw from the study at any time.</p>

      <p><strong>RISKS AND BENEFITS:</strong> You may become frustrated if your partner gets distracted, or experience discomfort if other participants in your group send text that is inappropriate for the task. We ask you to please be respectful of other participants you might be interacting with to mitigate these risks. You may also experience discomfort when being asked to discuss or challenge emotionally salient political beliefs. Study data will be stored securely, in compliance with Stanford University standards, minimizing the risk of confidentiality breach. This study advances our scientific understanding of how people communicate and collaborate in naturalistic settings. This study may lead to further insights about what can go wrong in teamwork, suggest potential interventions to overcome these barriers, and help to develop assistive technologies that collaborate with human partners. We cannot and do not guarantee or promise that you will receive any benefits from this study.</p>

      <p><strong>PAYMENTS:</strong> You will receive payment in the amount advertised on Prolific. If you do not complete this study, you will receive prorated payment based on the time that you have spent. Additionally, you may be eligible for bonus payments as described in the instructions.</p>

      <p><strong>PARTICIPANT’S RIGHTS:</strong> If you have read this form and have decided to participate in this project, please understand your participation is voluntary and you have the right to withdraw your consent or discontinue participation at any time without penalty or loss of benefits to which you are otherwise entitled. The alternative is not to participate. You have the right to refuse to answer particular questions. The results of this research study may be presented at scientific or professional meetings or published in scientific journals. Your individual privacy will be maintained in all published and written data resulting from the study. In accordance with scientific norms, the data from this study may be used or shared with other researchers for future research (after removing personally identifying information) without additional consent from you.</p>

      <p><strong>CONTACT INFORMATION:</strong><br>
      Questions: If you have any questions, concerns or complaints about this research, its procedures, risks and benefits, contact the Protocol Director, Robert Hawkins (<a href=""mailto:rdhawkins@stanford.edu"">rdhawkins@stanford.edu</a>, 217-549-6923).<br>
      Independent Contact: If you are not satisfied with how this study is being conducted, or if you have any concerns, complaints, or general questions about the research or your rights as a participant, please contact the Stanford Institutional Review Board (IRB) to speak to someone independent of the research team at 650-723-2480 or toll free at 1-866-680-2906, or email at <a href=""mailto:irbnon-med@stanford.edu"">irbnon-med@stanford.edu</a>. You can also write to the Stanford IRB, Stanford University, 1705 El Camino Real, Palo Alto, CA 94306.</p>

      <p><strong>Please save or print a copy of this page for your records.</strong></p>
      <p>If you agree to participate in this research, click ""Continue"" below.</p>
    </div>
  ","0","html-button-response","0","2.1.0","2737","F=YES, J=NO","azmgo5o9m1","2","73","75","70","","","","","","","","","","","","","","","",""
"7734","
    <div style=""max-width: 800px; margin: auto; text-align: left;"">
      <h2>Welcome!</h2>
      <p>Thank you for participating in this study. The experiment consists of three parts:</p>
      <ol>
        <li>An English vocabulary test</li>
        <li>A main task in which you will hear and see words, and decide whether the written word is a real English word</li>
        <li>A brief survey about your background</li>
      </ol>
      <p>Each part will be introduced before it begins.</p>
      <p>Please make sure you are in a quiet environment and can hear audio clearly for the final task.</p>
      <p style=""margin-top: 2em;"">Press any key to begin.</p>
    </div>
  "," ","html-keyboard-response","1","2.1.0","10476","F=YES, J=NO","azmgo5o9m1","2","73","75","70","","","","","","","","","","","","","","","",""
"","","","preload","2","2.1.0","13134","F=YES, J=NO","azmgo5o9m1","2","73","75","70","true","false","[]","[]","[]","","","","","","","","","","",""
"3808","
    <div style=""max-width: 800px; margin: auto; text-align: left;"">
      <h2>Part 1: Vocabulary Test</h2>
      <p>You will now complete the first part of the study: a short English vocabulary test.</p>
      <p>This test is called <strong>LexTALE</strong> and helps us get a general sense of your English proficiency.</p>
      <p style=""margin-top: 2em;"">Press any key to continue.</p>
    </div>
  "," ","html-keyboard-response","3","2.1.0","16944","F=YES, J=NO","azmgo5o9m1","2","73","75","70","","","","","","","","","","","","","","","",""
"10648","
    <div style=""max-width: 800px; margin: auto; text-align: left;"">
      <h2>LexTALE Vocabulary Test</h2>
      <p>In this test, you will see a series of letter strings—one at a time.</p>
      <p>Your task is to decide whether each string is a real English word.</p>
      <p><strong>Key responses:</strong></p>
      <ul>
        <li><strong>F</strong> = YES (real English word)</li>
        <li><strong>J</strong> = NO (not a real English word)</li>
      </ul>
      <p>There is no time limit, but please try to be accurate.</p>
      <p style=""margin-top: 2em;"">Press any key to begin.</p>
    </div>
  "," ","html-keyboard-response","4","2.1.0","27592","F=YES, J=NO","azmgo5o9m1","2","73","75","70","","","","","","","","","","","","","","","",""
"1958","
  <p style=""font-size: 40px;"">platery</p>
  <p style=""font-size: 16px;"">F = YES &nbsp;&nbsp;&nbsp; J = NO</p>
","f","html-keyboard-response","5","2.1.0","29552","F=YES, J=NO","azmgo5o9m1","2","73","75","70","","","","","","lextale","false","true","","","","","","","",""
"1217","
  <p style=""font-size: 40px;"">denial</p>
  <p style=""font-size: 16px;"">F = YES &nbsp;&nbsp;&nbsp; J = NO</p>
","f","html-keyboard-response","6","2.1.0","30770","F=YES, J=NO","azmgo5o9m1","2","73","75","70","","","","","","lextale","true","true","","","","","","","",""
"1341","
  <p style=""font-size: 40px;"">marrit</p>
  <p style=""font-size: 16px;"">F = YES &nbsp;&nbsp;&nbsp; J = NO</p>
","j","html-keyboard-response","7","2.1.0","32113","F=YES, J=NO","azmgo5o9m1","2","73","75","70","","","","","","lextale","false","true","","","","","","","",""
"786","
  <p style=""font-size: 40px;"">bottle</p>
  <p style=""font-size: 16px;"">F = YES &nbsp;&nbsp;&nbsp; J = NO</p>
","f","html-keyboard-response","8","2.1.0","32900","F=YES, J=NO","azmgo5o9m1","2","73","75","70","","","","","","lextale","true","false","","","","","","","",""
"1359","
  <p style=""font-size: 40px;"">birst</p>
  <p style=""font-size: 16px;"">F = YES &nbsp;&nbsp;&nbsp; J = NO</p>
","j","html-keyboard-response","9","2.1.0","34259","F=YES, J=NO","azmgo5o9m1","2","73","75","70","","","","","","lextale","false","false","","","","","","","",""
"762","
  <p style=""font-size: 40px;"">envy</p>
  <p style=""font-size: 16px;"">F = YES &nbsp;&nbsp;&nbsp; J = NO</p>
","f","html-keyboard-response","10","2.1.0","35023","F=YES, J=NO","azmgo5o9m1","2","73","75","70","","","","","","lextale","true","false","","","","","","","",""
"1689","
  <p style=""font-size: 40px;"">brang</p>
  <p style=""font-size: 16px;"">F = YES &nbsp;&nbsp;&nbsp; J = NO</p>
","j","html-keyboard-response","11","2.1.0","36713","F=YES, J=NO","azmgo5o9m1","2","73","75","70","","","","","","lextale","false","false","","","","","","","",""
"731","
  <p style=""font-size: 40px;"">huge</p>
  <p style=""font-size: 16px;"">F = YES &nbsp;&nbsp;&nbsp; J = NO</p>
","f","html-keyboard-response","12","2.1.0","37444","F=YES, J=NO","azmgo5o9m1","2","73","75","70","","","","","","lextale","true","false","","","","","","","",""
"1021","
  <p style=""font-size: 40px;"">plove</p>
  <p style=""font-size: 16px;"">F = YES &nbsp;&nbsp;&nbsp; J = NO</p>
","j","html-keyboard-response","13","2.1.0","38467","F=YES, J=NO","azmgo5o9m1","2","73","75","70","","","","","","lextale","false","false","","","","","","","",""
"736","
  <p style=""font-size: 40px;"">border</p>
  <p style=""font-size: 16px;"">F = YES &nbsp;&nbsp;&nbsp; J = NO</p>
","f","html-keyboard-response","14","2.1.0","39204","F=YES, J=NO","azmgo5o9m1","2","73","75","70","","","","","","lextale","true","false","","","","","","","",""
"974","
  <p style=""font-size: 40px;"">flimsy</p>
  <p style=""font-size: 16px;"">F = YES &nbsp;&nbsp;&nbsp; J = NO</p>
","f","html-keyboard-response","15","2.1.0","40179","F=YES, J=NO","azmgo5o9m1","2","73","75","70","","","","","","lextale","true","false","","","","","","","",""
"762","
  <p style=""font-size: 40px;"">drain</p>
  <p style=""font-size: 16px;"">F = YES &nbsp;&nbsp;&nbsp; J = NO</p>
","f","html-keyboard-response","16","2.1.0","40942","F=YES, J=NO","azmgo5o9m1","2","73","75","70","","","","","","lextale","true","false","","","","","","","",""
"1085","
  <p style=""font-size: 40px;"">twindle</p>
  <p style=""font-size: 16px;"">F = YES &nbsp;&nbsp;&nbsp; J = NO</p>
","f","html-keyboard-response","17","2.1.0","42028","F=YES, J=NO","azmgo5o9m1","2","73","75","70","","","","","","lextale","false","false","","","","","","","",""
"723","
  <p style=""font-size: 40px;"">propose</p>
  <p style=""font-size: 16px;"">F = YES &nbsp;&nbsp;&nbsp; J = NO</p>
","f","html-keyboard-response","18","2.1.0","42751","F=YES, J=NO","azmgo5o9m1","2","73","75","70","","","","","","lextale","true","false","","","","","","","",""
"1004","
  <p style=""font-size: 40px;"">forlay</p>
  <p style=""font-size: 16px;"">F = YES &nbsp;&nbsp;&nbsp; J = NO</p>
","j","html-keyboard-response","19","2.1.0","43756","F=YES, J=NO","azmgo5o9m1","2","73","75","70","","","","","","lextale","false","false","","","","","","","",""
"1013","
  <p style=""font-size: 40px;"">tenant</p>
  <p style=""font-size: 16px;"">F = YES &nbsp;&nbsp;&nbsp; J = NO</p>
","f","html-keyboard-response","20","2.1.0","44770","F=YES, J=NO","azmgo5o9m1","2","73","75","70","","","","","","lextale","true","false","","","","","","","",""
"764","
  <p style=""font-size: 40px;"">strain</p>
  <p style=""font-size: 16px;"">F = YES &nbsp;&nbsp;&nbsp; J = NO</p>
","f","html-keyboard-response","21","2.1.0","45534","F=YES, J=NO","azmgo5o9m1","2","73","75","70","","","","","","lextale","true","false","","","","","","","",""
"986","
  <p style=""font-size: 40px;"">holster</p>
  <p style=""font-size: 16px;"">F = YES &nbsp;&nbsp;&nbsp; J = NO</p>
","j","html-keyboard-response","22","2.1.0","46520","F=YES, J=NO","azmgo5o9m1","2","73","75","70","","","","","","lextale","true","false","","","","","","","",""
"1147","
  <p style=""font-size: 40px;"">hinder</p>
  <p style=""font-size: 16px;"">F = YES &nbsp;&nbsp;&nbsp; J = NO</p>
","f","html-keyboard-response","23","2.1.0","47668","F=YES, J=NO","azmgo5o9m1","2","73","75","70","","","","","","lextale","true","false","","","","","","","",""
"911","
  <p style=""font-size: 40px;"">swindle</p>
  <p style=""font-size: 16px;"">F = YES &nbsp;&nbsp;&nbsp; J = NO</p>
","f","html-keyboard-response","24","2.1.0","48580","F=YES, J=NO","azmgo5o9m1","2","73","75","70","","","","","","lextale","true","false","","","","","","","",""
"1308","
  <p style=""font-size: 40px;"">nuder</p>
  <p style=""font-size: 16px;"">F = YES &nbsp;&nbsp;&nbsp; J = NO</p>
","j","html-keyboard-response","25","2.1.0","49889","F=YES, J=NO","azmgo5o9m1","2","73","75","70","","","","","","lextale","false","false","","","","","","","",""
"669","
  <p style=""font-size: 40px;"">pillow</p>
  <p style=""font-size: 16px;"">F = YES &nbsp;&nbsp;&nbsp; J = NO</p>
","f","html-keyboard-response","26","2.1.0","50559","F=YES, J=NO","azmgo5o9m1","2","73","75","70","","","","","","lextale","true","false","","","","","","","",""
"876","
  <p style=""font-size: 40px;"">shumble</p>
  <p style=""font-size: 16px;"">F = YES &nbsp;&nbsp;&nbsp; J = NO</p>
","f","html-keyboard-response","27","2.1.0","51436","F=YES, J=NO","azmgo5o9m1","2","73","75","70","","","","","","lextale","false","false","","","","","","","",""
"658","
  <p style=""font-size: 40px;"">thirst</p>
  <p style=""font-size: 16px;"">F = YES &nbsp;&nbsp;&nbsp; J = NO</p>
","f","html-keyboard-response","28","2.1.0","52095","F=YES, J=NO","azmgo5o9m1","2","73","75","70","","","","","","lextale","true","false","","","","","","","",""
"1688","
  <p style=""font-size: 40px;"">unsail</p>
  <p style=""font-size: 16px;"">F = YES &nbsp;&nbsp;&nbsp; J = NO</p>
","j","html-keyboard-response","29","2.1.0","53783","F=YES, J=NO","azmgo5o9m1","2","73","75","70","","","","","","lextale","false","false","","","","","","","",""
"1369","
  <p style=""font-size: 40px;"">rifle</p>
  <p style=""font-size: 16px;"">F = YES &nbsp;&nbsp;&nbsp; J = NO</p>
","f","html-keyboard-response","30","2.1.0","55153","F=YES, J=NO","azmgo5o9m1","2","73","75","70","","","","","","lextale","true","false","","","","","","","",""
"839","
  <p style=""font-size: 40px;"">mush</p>
  <p style=""font-size: 16px;"">F = YES &nbsp;&nbsp;&nbsp; J = NO</p>
","f","html-keyboard-response","31","2.1.0","55992","F=YES, J=NO","azmgo5o9m1","2","73","75","70","","","","","","lextale","false","false","","","","","","","",""
"936","
  <p style=""font-size: 40px;"">drench</p>
  <p style=""font-size: 16px;"">F = YES &nbsp;&nbsp;&nbsp; J = NO</p>
","f","html-keyboard-response","32","2.1.0","56929","F=YES, J=NO","azmgo5o9m1","2","73","75","70","","","","","","lextale","true","false","","","","","","","",""
"1195","
  <p style=""font-size: 40px;"">snirt</p>
  <p style=""font-size: 16px;"">F = YES &nbsp;&nbsp;&nbsp; J = NO</p>
","j","html-keyboard-response","33","2.1.0","58125","F=YES, J=NO","azmgo5o9m1","2","73","75","70","","","","","","lextale","false","false","","","","","","","",""
"654","
  <p style=""font-size: 40px;"">bitter</p>
  <p style=""font-size: 16px;"">F = YES &nbsp;&nbsp;&nbsp; J = NO</p>
","f","html-keyboard-response","34","2.1.0","58780","F=YES, J=NO","azmgo5o9m1","2","73","75","70","","","","","","lextale","true","false","","","","","","","",""
"1367","
  <p style=""font-size: 40px;"">pliff</p>
  <p style=""font-size: 16px;"">F = YES &nbsp;&nbsp;&nbsp; J = NO</p>
","j","html-keyboard-response","35","2.1.0","60148","F=YES, J=NO","azmgo5o9m1","2","73","75","70","","","","","","lextale","false","false","","","","","","","",""
"669","
  <p style=""font-size: 40px;"">tablet</p>
  <p style=""font-size: 16px;"">F = YES &nbsp;&nbsp;&nbsp; J = NO</p>
","f","html-keyboard-response","36","2.1.0","60817","F=YES, J=NO","azmgo5o9m1","2","73","75","70","","","","","","lextale","true","false","","","","","","","",""
"812","
  <p style=""font-size: 40px;"">glimmer</p>
  <p style=""font-size: 16px;"">F = YES &nbsp;&nbsp;&nbsp; J = NO</p>
","f","html-keyboard-response","37","2.1.0","61630","F=YES, J=NO","azmgo5o9m1","2","73","75","70","","","","","","lextale","true","false","","","","","","","",""
"1222","
  <p style=""font-size: 40px;"">slink</p>
  <p style=""font-size: 16px;"">F = YES &nbsp;&nbsp;&nbsp; J = NO</p>
","f","html-keyboard-response","38","2.1.0","62852","F=YES, J=NO","azmgo5o9m1","2","73","75","70","","","","","","lextale","true","false","","","","","","","",""
"848","
  <p style=""font-size: 40px;"">clever</p>
  <p style=""font-size: 16px;"">F = YES &nbsp;&nbsp;&nbsp; J = NO</p>
","f","html-keyboard-response","39","2.1.0","63701","F=YES, J=NO","azmgo5o9m1","2","73","75","70","","","","","","lextale","true","false","","","","","","","",""
"1596","
  <p style=""font-size: 40px;"">grum</p>
  <p style=""font-size: 16px;"">F = YES &nbsp;&nbsp;&nbsp; J = NO</p>
","j","html-keyboard-response","40","2.1.0","65298","F=YES, J=NO","azmgo5o9m1","2","73","75","70","","","","","","lextale","false","false","","","","","","","",""
"1047","
  <p style=""font-size: 40px;"">string</p>
  <p style=""font-size: 16px;"">F = YES &nbsp;&nbsp;&nbsp; J = NO</p>
","f","html-keyboard-response","41","2.1.0","66346","F=YES, J=NO","azmgo5o9m1","2","73","75","70","","","","","","lextale","true","false","","","","","","","",""
"1775","
  <p style=""font-size: 40px;"">plim</p>
  <p style=""font-size: 16px;"">F = YES &nbsp;&nbsp;&nbsp; J = NO</p>
","j","html-keyboard-response","42","2.1.0","68122","F=YES, J=NO","azmgo5o9m1","2","73","75","70","","","","","","lextale","false","false","","","","","","","",""
"664","
  <p style=""font-size: 40px;"">cable</p>
  <p style=""font-size: 16px;"">F = YES &nbsp;&nbsp;&nbsp; J = NO</p>
","f","html-keyboard-response","43","2.1.0","68787","F=YES, J=NO","azmgo5o9m1","2","73","75","70","","","","","","lextale","true","false","","","","","","","",""
"1189","
  <p style=""font-size: 40px;"">shrivel</p>
  <p style=""font-size: 16px;"">F = YES &nbsp;&nbsp;&nbsp; J = NO</p>
","j","html-keyboard-response","44","2.1.0","69977","F=YES, J=NO","azmgo5o9m1","2","73","75","70","","","","","","lextale","true","false","","","","","","","",""
"1118","
  <p style=""font-size: 40px;"">tarnish</p>
  <p style=""font-size: 16px;"">F = YES &nbsp;&nbsp;&nbsp; J = NO</p>
","f","html-keyboard-response","45","2.1.0","71095","F=YES, J=NO","azmgo5o9m1","2","73","75","70","","","","","","lextale","true","false","","","","","","","",""
"923","
  <p style=""font-size: 40px;"">blim</p>
  <p style=""font-size: 16px;"">F = YES &nbsp;&nbsp;&nbsp; J = NO</p>
","j","html-keyboard-response","46","2.1.0","72019","F=YES, J=NO","azmgo5o9m1","2","73","75","70","","","","","","lextale","false","false","","","","","","","",""
"2229","
  <p style=""font-size: 40px;"">stifle</p>
  <p style=""font-size: 16px;"">F = YES &nbsp;&nbsp;&nbsp; J = NO</p>
","j","html-keyboard-response","47","2.1.0","74249","F=YES, J=NO","azmgo5o9m1","2","73","75","70","","","","","","lextale","true","false","","","","","","","",""
"1064","
  <p style=""font-size: 40px;"">bint</p>
  <p style=""font-size: 16px;"">F = YES &nbsp;&nbsp;&nbsp; J = NO</p>
","j","html-keyboard-response","48","2.1.0","75314","F=YES, J=NO","azmgo5o9m1","2","73","75","70","","","","","","lextale","false","false","","","","","","","",""
"696","
  <p style=""font-size: 40px;"">purple</p>
  <p style=""font-size: 16px;"">F = YES &nbsp;&nbsp;&nbsp; J = NO</p>
","f","html-keyboard-response","49","2.1.0","76011","F=YES, J=NO","azmgo5o9m1","2","73","75","70","","","","","","lextale","true","false","","","","","","","",""
"2560","
  <p style=""font-size: 40px;"">wriggle</p>
  <p style=""font-size: 16px;"">F = YES &nbsp;&nbsp;&nbsp; J = NO</p>
","j","html-keyboard-response","50","2.1.0","78572","F=YES, J=NO","azmgo5o9m1","2","73","75","70","","","","","","lextale","true","false","","","","","","","",""
"925","
  <p style=""font-size: 40px;"">mangle</p>
  <p style=""font-size: 16px;"">F = YES &nbsp;&nbsp;&nbsp; J = NO</p>
","f","html-keyboard-response","51","2.1.0","79498","F=YES, J=NO","azmgo5o9m1","2","73","75","70","","","","","","lextale","true","false","","","","","","","",""
"1675","
  <p style=""font-size: 40px;"">shramp</p>
  <p style=""font-size: 16px;"">F = YES &nbsp;&nbsp;&nbsp; J = NO</p>
","f","html-keyboard-response","52","2.1.0","81174","F=YES, J=NO","azmgo5o9m1","2","73","75","70","","","","","","lextale","false","false","","","","","","","",""
"655","
  <p style=""font-size: 40px;"">flirt</p>
  <p style=""font-size: 16px;"">F = YES &nbsp;&nbsp;&nbsp; J = NO</p>
","f","html-keyboard-response","53","2.1.0","81830","F=YES, J=NO","azmgo5o9m1","2","73","75","70","","","","","","lextale","true","false","","","","","","","",""
"904","
  <p style=""font-size: 40px;"">frip</p>
  <p style=""font-size: 16px;"">F = YES &nbsp;&nbsp;&nbsp; J = NO</p>
","j","html-keyboard-response","54","2.1.0","82736","F=YES, J=NO","azmgo5o9m1","2","73","75","70","","","","","","lextale","false","false","","","","","","","",""
"838","
  <p style=""font-size: 40px;"">tangle</p>
  <p style=""font-size: 16px;"">F = YES &nbsp;&nbsp;&nbsp; J = NO</p>
","f","html-keyboard-response","55","2.1.0","83575","F=YES, J=NO","azmgo5o9m1","2","73","75","70","","","","","","lextale","true","false","","","","","","","",""
"944","
  <p style=""font-size: 40px;"">crumble</p>
  <p style=""font-size: 16px;"">F = YES &nbsp;&nbsp;&nbsp; J = NO</p>
","f","html-keyboard-response","56","2.1.0","84521","F=YES, J=NO","azmgo5o9m1","2","73","75","70","","","","","","lextale","true","false","","","","","","","",""
"1183","
  <p style=""font-size: 40px;"">wrinkle</p>
  <p style=""font-size: 16px;"">F = YES &nbsp;&nbsp;&nbsp; J = NO</p>
","f","html-keyboard-response","57","2.1.0","85705","F=YES, J=NO","azmgo5o9m1","2","73","75","70","","","","","","lextale","true","false","","","","","","","",""
"1310","
  <p style=""font-size: 40px;"">slumb</p>
  <p style=""font-size: 16px;"">F = YES &nbsp;&nbsp;&nbsp; J = NO</p>
","f","html-keyboard-response","58","2.1.0","87016","F=YES, J=NO","azmgo5o9m1","2","73","75","70","","","","","","lextale","false","false","","","","","","","",""
"826","
  <p style=""font-size: 40px;"">jungle</p>
  <p style=""font-size: 16px;"">F = YES &nbsp;&nbsp;&nbsp; J = NO</p>
","f","html-keyboard-response","59","2.1.0","87843","F=YES, J=NO","azmgo5o9m1","2","73","75","70","","","","","","lextale","true","false","","","","","","","",""
"964","
  <p style=""font-size: 40px;"">frolick</p>
  <p style=""font-size: 16px;"">F = YES &nbsp;&nbsp;&nbsp; J = NO</p>
","j","html-keyboard-response","60","2.1.0","88808","F=YES, J=NO","azmgo5o9m1","2","73","75","70","","","","","","lextale","false","false","","","","","","","",""
"2672","
      <h2>LexTALE Test Completed</h2>
      <p>Your LexTALE vocabulary score is: <strong>73%</strong></p>
      <p>Press any key to continue.</p>
    "," ","html-keyboard-response","61","2.1.0","91483","F=YES, J=NO","azmgo5o9m1","2","73","75","70","","","","","","","","","","","","","","","",""
"13297","
    <div style=""max-width: 800px; margin: auto; text-align: left;"">
      <h2>Break Time</h2>
      <p>You have completed the first part of the study.</p>
      <p>You may take a short <strong>30-second break</strong> before continuing.</p>
      <p>When you’re ready, press any key to continue to the final task.</p>
    </div>
  "," ","html-keyboard-response","62","2.1.0","104781","F=YES, J=NO","azmgo5o9m1","2","73","75","70","","","","","","","","","","","","","","","",""
"10463","
    <div style=""max-width: 800px; margin: auto; text-align: left;"">
      <h2>Part 2: Lexical Decision Task</h2>
      <p>You will now begin the second part of the study.</p>
      <p>Each trial will follow this sequence:</p>
      <ul>
        <li>A fixation cross (+) appears at the center of the screen.</li>
        <li>You will hear a short beep followed by a spoken word.</li>
        <li>A written word will appear briefly on the screen.</li>
      </ul>
      <p>Your task is to judge whether the <strong>written word</strong> is a real English word.</p>
      <p style=""margin-top: 1em;""><strong>Key responses:</strong></p>
      <ul>
        <li><strong>F</strong> = YES (real English word)</li>
        <li><strong>J</strong> = NO (not a real English word)</li>
      </ul>
      <p>Please respond as quickly and accurately as you can.</p>
      <p style=""margin-top: 2em;"">Press any key to continue.</p>
    </div>
  ","AudioVolumeUp","html-keyboard-response","63","2.1.0","115245","F=YES, J=NO","azmgo5o9m1","2","73","75","70","","","","","","","","","","","","","","","",""
"961","
    <div style=""max-width: 800px; margin: auto; text-align: left;"">
      <h2>Before You Begin</h2>
      <p>Make sure your sound is turned on.</p>
      <p>You will hear audio during each trial, but your decision should be based only on the <strong>written word</strong> you see on the screen.</p>
      <p><strong>Reminder:</strong></p>
      <ul>
        <li><strong>F</strong> = YES (real English word)</li>
        <li><strong>J</strong> = NO (not a real English word)</li>
      </ul>
      <p style=""margin-top: 2em;"">Press any key when you are ready to begin.</p>
    </div>
  ","AudioVolumeUp","html-keyboard-response","64","2.1.0","116207","F=YES, J=NO","azmgo5o9m1","2","73","75","70","","","","","","","","","","","","","","","",""
"5764","
    <div style=""max-width: 800px; margin: auto; text-align: left;"">
      <h2>Part 2: Practice Trials</h2>
      <p>You will now complete a few <strong>practice trials</strong> to get familiar with the task.</p>
      <p>These trials are <strong>not scored</strong> and are only to help you get used to the format.</p>
      <p style=""margin-top: 2em;"">Press any key to begin.</p>
    </div>
  ","f","html-keyboard-response","65","2.1.0","121972","F=YES, J=NO","azmgo5o9m1","2","73","75","70","","","","","","","","","","","","","","","",""
"2279","<p>Starting practice block 1 of 2. Press any key to continue.</p>"," ","html-keyboard-response","66","2.1.0","124252","F=YES, J=NO","azmgo5o9m1","2","73","75","70","","","","","","","","","","","","","","","",""
"null","<p style=""font-size: 50px;"">+</p>","null","html-keyboard-response","67","2.1.0","124564","F=YES, J=NO","azmgo5o9m1","2","73","75","70","","","","","","","","","","","","","","","",""
"null","audio/beep-329314.mp3","null","audio-keyboard-response","68","2.1.0","126573","F=YES, J=NO","azmgo5o9m1","2","73","75","70","","","","","","","","","","","","","","","",""
"null","audio/arm.wav","null","audio-keyboard-response","69","2.1.0","127291","F=YES, J=NO","azmgo5o9m1","2","73","75","70","","","","","","","","","","","","","","","",""
"800","
          <p id=""word"" style=""font-size: 40px;"">pigne</p>
          <p style=""font-size: 16px;"">F = YES &nbsp;&nbsp;&nbsp; J = NO</p>
        ","j","html-keyboard-response","70","2.1.0","128092","F=YES, J=NO","azmgo5o9m1","2","73","75","70","","","","","","","","","pigne","arm","pseudoword","pseudoword","j","true","",""
"null","<p style=""font-size: 50px;"">+</p>","null","html-keyboard-response","71","2.1.0","128406","F=YES, J=NO","azmgo5o9m1","2","73","75","70","","","","","","","","","","","","","","","",""
"null","audio/beep-329314.mp3","null","audio-keyboard-response","72","2.1.0","129930","F=YES, J=NO","azmgo5o9m1","2","73","75","70","","","","","","","","","","","","","","","",""
"null","audio/bishop1.wav","null","audio-keyboard-response","73","2.1.0","130530","F=YES, J=NO","azmgo5o9m1","2","73","75","70","","","","","","","","","","","","","","","",""
"500","
          <p id=""word"" style=""font-size: 40px;"">play</p>
          <p style=""font-size: 16px;"">F = YES &nbsp;&nbsp;&nbsp; J = NO</p>
        ","j","html-keyboard-response","74","2.1.0","131031","F=YES, J=NO","azmgo5o9m1","2","73","75","70","","","","","","","","","play","bishop1","filler","filler","f","false","",""
"null","<p style=""font-size: 50px;"">+</p>","null","html-keyboard-response","75","2.1.0","131339","F=YES, J=NO","azmgo5o9m1","2","73","75","70","","","","","","","","","","","","","","","",""
"null","audio/beep-329314.mp3","null","audio-keyboard-response","76","2.1.0","132870","F=YES, J=NO","azmgo5o9m1","2","73","75","70","","","","","","","","","","","","","","","",""
"null","audio/winter.wav","null","audio-keyboard-response","77","2.1.0","133570","F=YES, J=NO","azmgo5o9m1","2","73","75","70","","","","","","","","","","","","","","","",""
"740","
          <p id=""word"" style=""font-size: 40px;"">straven</p>
          <p style=""font-size: 16px;"">F = YES &nbsp;&nbsp;&nbsp; J = NO</p>
        ","j","html-keyboard-response","78","2.1.0","134313","F=YES, J=NO","azmgo5o9m1","2","73","75","70","","","","","","","","","straven","winter","pseudoword","pseudoword","j","true","",""
"null","<p style=""font-size: 50px;"">+</p>","null","html-keyboard-response","79","2.1.0","134622","F=YES, J=NO","azmgo5o9m1","2","73","75","70","","","","","","","","","","","","","","","",""
"null","audio/beep-329314.mp3","null","audio-keyboard-response","80","2.1.0","136150","F=YES, J=NO","azmgo5o9m1","2","73","75","70","","","","","","","","","","","","","","","",""
"null","audio/age1.wav","null","audio-keyboard-response","81","2.1.0","136711","F=YES, J=NO","azmgo5o9m1","2","73","75","70","","","","","","","","","","","","","","","",""
"644","
          <p id=""word"" style=""font-size: 40px;"">bake</p>
          <p style=""font-size: 16px;"">F = YES &nbsp;&nbsp;&nbsp; J = NO</p>
        ","f","html-keyboard-response","82","2.1.0","137357","F=YES, J=NO","azmgo5o9m1","2","73","75","70","","","","","","","","","bake","age1","filler","filler","f","true","",""
"null","<p style=""font-size: 50px;"">+</p>","null","html-keyboard-response","83","2.1.0","137663","F=YES, J=NO","azmgo5o9m1","2","73","75","70","","","","","","","","","","","","","","","",""
"null","audio/beep-329314.mp3","null","audio-keyboard-response","84","2.1.0","139191","F=YES, J=NO","azmgo5o9m1","2","73","75","70","","","","","","","","","","","","","","","",""
"null","audio/butter1.wav","null","audio-keyboard-response","85","2.1.0","139790","F=YES, J=NO","azmgo5o9m1","2","73","75","70","","","","","","","","","","","","","","","",""
"767","
          <p id=""word"" style=""font-size: 40px;"">chew</p>
          <p style=""font-size: 16px;"">F = YES &nbsp;&nbsp;&nbsp; J = NO</p>
        ","f","html-keyboard-response","86","2.1.0","140559","F=YES, J=NO","azmgo5o9m1","2","73","75","70","","","","","","","","","chew","butter1","filler","filler","f","true","",""
"null","<p style=""font-size: 50px;"">+</p>","null","html-keyboard-response","87","2.1.0","140861","F=YES, J=NO","azmgo5o9m1","2","73","75","70","","","","","","","","","","","","","","","",""
"null","audio/beep-329314.mp3","null","audio-keyboard-response","88","2.1.0","142390","F=YES, J=NO","azmgo5o9m1","2","73","75","70","","","","","","","","","","","","","","","",""
"null","audio/baby.wav","null","audio-keyboard-response","89","2.1.0","142970","F=YES, J=NO","azmgo5o9m1","2","73","75","70","","","","","","","","","","","","","","","",""
"711","
          <p id=""word"" style=""font-size: 40px;"">lift</p>
          <p style=""font-size: 16px;"">F = YES &nbsp;&nbsp;&nbsp; J = NO</p>
        ","f","html-keyboard-response","90","2.1.0","143682","F=YES, J=NO","azmgo5o9m1","2","73","75","70","","","","","","","","","lift","baby","filler","filler","f","true","",""
"null","<p style=""font-size: 50px;"">+</p>","null","html-keyboard-response","91","2.1.0","143987","F=YES, J=NO","azmgo5o9m1","2","73","75","70","","","","","","","","","","","","","","","",""
"null","audio/beep-329314.mp3","null","audio-keyboard-response","92","2.1.0","145530","F=YES, J=NO","azmgo5o9m1","2","73","75","70","","","","","","","","","","","","","","","",""
"null","audio/battle1.wav","null","audio-keyboard-response","93","2.1.0","146110","F=YES, J=NO","azmgo5o9m1","2","73","75","70","","","","","","","","","","","","","","","",""
"580","
          <p id=""word"" style=""font-size: 40px;"">boil</p>
          <p style=""font-size: 16px;"">F = YES &nbsp;&nbsp;&nbsp; J = NO</p>
        ","f","html-keyboard-response","94","2.1.0","146692","F=YES, J=NO","azmgo5o9m1","2","73","75","70","","","","","","","","","boil","battle1","filler","filler","f","true","",""
"null","<p style=""font-size: 50px;"">+</p>","null","html-keyboard-response","95","2.1.0","147008","F=YES, J=NO","azmgo5o9m1","2","73","75","70","","","","","","","","","","","","","","","",""
"null","audio/beep-329314.mp3","null","audio-keyboard-response","96","2.1.0","148551","F=YES, J=NO","azmgo5o9m1","2","73","75","70","","","","","","","","","","","","","","","",""
"null","audio/breath.wav","null","audio-keyboard-response","97","2.1.0","149130","F=YES, J=NO","azmgo5o9m1","2","73","75","70","","","","","","","","","","","","","","","",""
"743","
          <p id=""word"" style=""font-size: 40px;"">pack</p>
          <p style=""font-size: 16px;"">F = YES &nbsp;&nbsp;&nbsp; J = NO</p>
        ","f","html-keyboard-response","98","2.1.0","149874","F=YES, J=NO","azmgo5o9m1","2","73","75","70","","","","","","","","","pack","breath","filler","filler","f","true","",""
"null","<p style=""font-size: 50px;"">+</p>","null","html-keyboard-response","99","2.1.0","150184","F=YES, J=NO","azmgo5o9m1","2","73","75","70","","","","","","","","","","","","","","","",""
"null","audio/beep-329314.mp3","null","audio-keyboard-response","100","2.1.0","151710","F=YES, J=NO","azmgo5o9m1","2","73","75","70","","","","","","","","","","","","","","","",""
"null","audio/bomb1.wav","null","audio-keyboard-response","101","2.1.0","152210","F=YES, J=NO","azmgo5o9m1","2","73","75","70","","","","","","","","","","","","","","","",""
"636","
          <p id=""word"" style=""font-size: 40px;"">clean</p>
          <p style=""font-size: 16px;"">F = YES &nbsp;&nbsp;&nbsp; J = NO</p>
        ","f","html-keyboard-response","102","2.1.0","152849","F=YES, J=NO","azmgo5o9m1","2","73","75","70","","","","","","","","","clean","bomb1","filler","filler","f","true","",""
"null","<p style=""font-size: 50px;"">+</p>","null","html-keyboard-response","103","2.1.0","153163","F=YES, J=NO","azmgo5o9m1","2","73","75","70","","","","","","","","","","","","","","","",""
"null","audio/beep-329314.mp3","null","audio-keyboard-response","104","2.1.0","154689","F=YES, J=NO","azmgo5o9m1","2","73","75","70","","","","","","","","","","","","","","","",""
"null","audio/window1.wav","null","audio-keyboard-response","105","2.1.0","155311","F=YES, J=NO","azmgo5o9m1","2","73","75","70","","","","","","","","","","","","","","","",""
"873","
          <p id=""word"" style=""font-size: 40px;"">toss</p>
          <p style=""font-size: 16px;"">F = YES &nbsp;&nbsp;&nbsp; J = NO</p>
        ","f","html-keyboard-response","106","2.1.0","156185","F=YES, J=NO","azmgo5o9m1","2","73","75","70","","","","","","","","","toss","window1","filler","filler","f","true","",""
"null","<p style=""font-size: 50px;"">+</p>","null","html-keyboard-response","107","2.1.0","156488","F=YES, J=NO","azmgo5o9m1","2","73","75","70","","","","","","","","","","","","","","","",""
"null","audio/beep-329314.mp3","null","audio-keyboard-response","108","2.1.0","158031","F=YES, J=NO","azmgo5o9m1","2","73","75","70","","","","","","","","","","","","","","","",""
"null","audio/theory1.wav","null","audio-keyboard-response","109","2.1.0","158831","F=YES, J=NO","azmgo5o9m1","2","73","75","70","","","","","","","","","","","","","","","",""
"838","
          <p id=""word"" style=""font-size: 40px;"">scolve</p>
          <p style=""font-size: 16px;"">F = YES &nbsp;&nbsp;&nbsp; J = NO</p>
        ","f","html-keyboard-response","110","2.1.0","159671","F=YES, J=NO","azmgo5o9m1","2","73","75","70","","","","","","","","","scolve","theory1","pseudoword","pseudoword","j","false","",""
"null","<p style=""font-size: 50px;"">+</p>","null","html-keyboard-response","111","2.1.0","159977","F=YES, J=NO","azmgo5o9m1","2","73","75","70","","","","","","","","","","","","","","","",""
"null","audio/beep-329314.mp3","null","audio-keyboard-response","112","2.1.0","161510","F=YES, J=NO","azmgo5o9m1","2","73","75","70","","","","","","","","","","","","","","","",""
"null","audio/smirk1.wav","null","audio-keyboard-response","113","2.1.0","162351","F=YES, J=NO","azmgo5o9m1","2","73","75","70","","","","","","","","","","","","","","","",""
"859","
          <p id=""word"" style=""font-size: 40px;"">snopt</p>
          <p style=""font-size: 16px;"">F = YES &nbsp;&nbsp;&nbsp; J = NO</p>
        ","j","html-keyboard-response","114","2.1.0","163211","F=YES, J=NO","azmgo5o9m1","2","73","75","70","","","","","","","","","snopt","smirk1","pseudoword","pseudoword","j","true","",""
"1285","<p>Starting practice block 2 of 2. Press any key to continue.</p>"," ","html-keyboard-response","115","2.1.0","164497","F=YES, J=NO","azmgo5o9m1","2","73","75","70","","","","","","","","","","","","","","","",""
"null","<p style=""font-size: 50px;"">+</p>","null","html-keyboard-response","116","2.1.0","164801","F=YES, J=NO","azmgo5o9m1","2","73","75","70","","","","","","","","","","","","","","","",""
"null","audio/beep-329314.mp3","null","audio-keyboard-response","117","2.1.0","166331","F=YES, J=NO","azmgo5o9m1","2","73","75","70","","","","","","","","","","","","","","","",""
"null","audio/show.wav","null","audio-keyboard-response","118","2.1.0","166911","F=YES, J=NO","azmgo5o9m1","2","73","75","70","","","","","","","","","","","","","","","",""
"847","
          <p id=""word"" style=""font-size: 40px;"">smark</p>
          <p style=""font-size: 16px;"">F = YES &nbsp;&nbsp;&nbsp; J = NO</p>
        ","j","html-keyboard-response","119","2.1.0","167759","F=YES, J=NO","azmgo5o9m1","2","73","75","70","","","","","","","","","smark","show","pseudoword","pseudoword","j","true","",""
"null","<p style=""font-size: 50px;"">+</p>","null","html-keyboard-response","120","2.1.0","168066","F=YES, J=NO","azmgo5o9m1","2","73","75","70","","","","","","","","","","","","","","","",""
"null","audio/beep-329314.mp3","null","audio-keyboard-response","121","2.1.0","169611","F=YES, J=NO","azmgo5o9m1","2","73","75","70","","","","","","","","","","","","","","","",""
"null","audio/floor.wav","null","audio-keyboard-response","122","2.1.0","170250","F=YES, J=NO","azmgo5o9m1","2","73","75","70","","","","","","","","","","","","","","","",""
"721","
          <p id=""word"" style=""font-size: 40px;"">mop</p>
          <p style=""font-size: 16px;"">F = YES &nbsp;&nbsp;&nbsp; J = NO</p>
        ","f","html-keyboard-response","123","2.1.0","170973","F=YES, J=NO","azmgo5o9m1","2","73","75","70","","","","","","","","","mop","floor","filler","filler","f","true","",""
"null","<p style=""font-size: 50px;"">+</p>","null","html-keyboard-response","124","2.1.0","171276","F=YES, J=NO","azmgo5o9m1","2","73","75","70","","","","","","","","","","","","","","","",""
"null","audio/beep-329314.mp3","null","audio-keyboard-response","125","2.1.0","172810","F=YES, J=NO","azmgo5o9m1","2","73","75","70","","","","","","","","","","","","","","","",""
"null","audio/foe1.wav","null","audio-keyboard-response","126","2.1.0","173431","F=YES, J=NO","azmgo5o9m1","2","73","75","70","","","","","","","","","","","","","","","",""
"658","
          <p id=""word"" style=""font-size: 40px;"">creth</p>
          <p style=""font-size: 16px;"">F = YES &nbsp;&nbsp;&nbsp; J = NO</p>
        ","j","html-keyboard-response","127","2.1.0","174090","F=YES, J=NO","azmgo5o9m1","2","73","75","70","","","","","","","","","creth","foe1","pseudoword","pseudoword","j","true","",""
"null","<p style=""font-size: 50px;"">+</p>","null","html-keyboard-response","128","2.1.0","174398","F=YES, J=NO","azmgo5o9m1","2","73","75","70","","","","","","","","","","","","","","","",""
"null","audio/beep-329314.mp3","null","audio-keyboard-response","129","2.1.0","175930","F=YES, J=NO","azmgo5o9m1","2","73","75","70","","","","","","","","","","","","","","","",""
"null","audio/brain.wav","null","audio-keyboard-response","130","2.1.0","176630","F=YES, J=NO","azmgo5o9m1","2","73","75","70","","","","","","","","","","","","","","","",""
"736","
          <p id=""word"" style=""font-size: 40px;"">throw</p>
          <p style=""font-size: 16px;"">F = YES &nbsp;&nbsp;&nbsp; J = NO</p>
        ","f","html-keyboard-response","131","2.1.0","177367","F=YES, J=NO","azmgo5o9m1","2","73","75","70","","","","","","","","","throw","brain","filler","filler","f","true","",""
"null","<p style=""font-size: 50px;"">+</p>","null","html-keyboard-response","132","2.1.0","177684","F=YES, J=NO","azmgo5o9m1","2","73","75","70","","","","","","","","","","","","","","","",""
"null","audio/beep-329314.mp3","null","audio-keyboard-response","133","2.1.0","179210","F=YES, J=NO","azmgo5o9m1","2","73","75","70","","","","","","","","","","","","","","","",""
"null","audio/mind.wav","null","audio-keyboard-response","134","2.1.0","179911","F=YES, J=NO","azmgo5o9m1","2","73","75","70","","","","","","","","","","","","","","","",""
"878","
          <p id=""word"" style=""font-size: 40px;"">crainate</p>
          <p style=""font-size: 16px;"">F = YES &nbsp;&nbsp;&nbsp; J = NO</p>
        ","j","html-keyboard-response","135","2.1.0","180790","F=YES, J=NO","azmgo5o9m1","2","73","75","70","","","","","","","","","crainate","mind","pseudoword","pseudoword","j","true","",""
"null","<p style=""font-size: 50px;"">+</p>","null","html-keyboard-response","136","2.1.0","181096","F=YES, J=NO","azmgo5o9m1","2","73","75","70","","","","","","","","","","","","","","","",""
"null","audio/beep-329314.mp3","null","audio-keyboard-response","137","2.1.0","182630","F=YES, J=NO","azmgo5o9m1","2","73","75","70","","","","","","","","","","","","","","","",""
"null","audio/heart1.wav","null","audio-keyboard-response","138","2.1.0","183270","F=YES, J=NO","azmgo5o9m1","2","73","75","70","","","","","","","","","","","","","","","",""
"622","
          <p id=""word"" style=""font-size: 40px;"">dralm</p>
          <p style=""font-size: 16px;"">F = YES &nbsp;&nbsp;&nbsp; J = NO</p>
        ","j","html-keyboard-response","139","2.1.0","183893","F=YES, J=NO","azmgo5o9m1","2","73","75","70","","","","","","","","","dralm","heart1","pseudoword","pseudoword","j","true","",""
"null","<p style=""font-size: 50px;"">+</p>","null","html-keyboard-response","140","2.1.0","184197","F=YES, J=NO","azmgo5o9m1","2","73","75","70","","","","","","","","","","","","","","","",""
"null","audio/beep-329314.mp3","null","audio-keyboard-response","141","2.1.0","185729","F=YES, J=NO","azmgo5o9m1","2","73","75","70","","","","","","","","","","","","","","","",""
"null","audio/empire.wav","null","audio-keyboard-response","142","2.1.0","186510","F=YES, J=NO","azmgo5o9m1","2","73","75","70","","","","","","","","","","","","","","","",""
"600","
          <p id=""word"" style=""font-size: 40px;"">slorby</p>
          <p style=""font-size: 16px;"">F = YES &nbsp;&nbsp;&nbsp; J = NO</p>
        ","j","html-keyboard-response","143","2.1.0","187111","F=YES, J=NO","azmgo5o9m1","2","73","75","70","","","","","","","","","slorby","empire","pseudoword","pseudoword","j","true","",""
"null","<p style=""font-size: 50px;"">+</p>","null","html-keyboard-response","144","2.1.0","187418","F=YES, J=NO","azmgo5o9m1","2","73","75","70","","","","","","","","","","","","","","","",""
"null","audio/beep-329314.mp3","null","audio-keyboard-response","145","2.1.0","188950","F=YES, J=NO","azmgo5o9m1","2","73","75","70","","","","","","","","","","","","","","","",""
"null","audio/cancer1.wav","null","audio-keyboard-response","146","2.1.0","189510","F=YES, J=NO","azmgo5o9m1","2","73","75","70","","","","","","","","","","","","","","","",""
"669","
          <p id=""word"" style=""font-size: 40px;"">draw</p>
          <p style=""font-size: 16px;"">F = YES &nbsp;&nbsp;&nbsp; J = NO</p>
        ","f","html-keyboard-response","147","2.1.0","190181","F=YES, J=NO","azmgo5o9m1","2","73","75","70","","","","","","","","","draw","cancer1","filler","filler","f","true","",""
"null","<p style=""font-size: 50px;"">+</p>","null","html-keyboard-response","148","2.1.0","190490","F=YES, J=NO","azmgo5o9m1","2","73","75","70","","","","","","","","","","","","","","","",""
"null","audio/beep-329314.mp3","null","audio-keyboard-response","149","2.1.0","192030","F=YES, J=NO","azmgo5o9m1","2","73","75","70","","","","","","","","","","","","","","","",""
"null","audio/trust.wav","null","audio-keyboard-response","150","2.1.0","192790","F=YES, J=NO","azmgo5o9m1","2","73","75","70","","","","","","","","","","","","","","","",""
"651","
          <p id=""word"" style=""font-size: 40px;"">swint</p>
          <p style=""font-size: 16px;"">F = YES &nbsp;&nbsp;&nbsp; J = NO</p>
        ","j","html-keyboard-response","151","2.1.0","193443","F=YES, J=NO","azmgo5o9m1","2","73","75","70","","","","","","","","","swint","trust","pseudoword","pseudoword","j","true","",""
"null","<p style=""font-size: 50px;"">+</p>","null","html-keyboard-response","152","2.1.0","193747","F=YES, J=NO","azmgo5o9m1","2","73","75","70","","","","","","","","","","","","","","","",""
"null","audio/beep-329314.mp3","null","audio-keyboard-response","153","2.1.0","195291","F=YES, J=NO","azmgo5o9m1","2","73","75","70","","","","","","","","","","","","","","","",""
"null","audio/test1.wav","null","audio-keyboard-response","154","2.1.0","195890","F=YES, J=NO","azmgo5o9m1","2","73","75","70","","","","","","","","","","","","","","","",""
"592","
          <p id=""word"" style=""font-size: 40px;"">twopch</p>
          <p style=""font-size: 16px;"">F = YES &nbsp;&nbsp;&nbsp; J = NO</p>
        ","j","html-keyboard-response","155","2.1.0","196483","F=YES, J=NO","azmgo5o9m1","2","73","75","70","","","","","","","","","twopch","test1","pseudoword","pseudoword","j","true","",""
"null","<p style=""font-size: 50px;"">+</p>","null","html-keyboard-response","156","2.1.0","196790","F=YES, J=NO","azmgo5o9m1","2","73","75","70","","","","","","","","","","","","","","","",""
"null","audio/beep-329314.mp3","null","audio-keyboard-response","157","2.1.0","198329","F=YES, J=NO","azmgo5o9m1","2","73","75","70","","","","","","","","","","","","","","","",""
"null","audio/belief.wav","null","audio-keyboard-response","158","2.1.0","199090","F=YES, J=NO","azmgo5o9m1","2","73","75","70","","","","","","","","","","","","","","","",""
"430","
          <p id=""word"" style=""font-size: 40px;"">read</p>
          <p style=""font-size: 16px;"">F = YES &nbsp;&nbsp;&nbsp; J = NO</p>
        ","f","html-keyboard-response","159","2.1.0","199522","F=YES, J=NO","azmgo5o9m1","2","73","75","70","","","","","","","","","read","belief","filler","filler","f","true","",""
"null","<p style=""font-size: 50px;"">+</p>","null","html-keyboard-response","160","2.1.0","199829","F=YES, J=NO","azmgo5o9m1","2","73","75","70","","","","","","","","","","","","","","","",""
"null","audio/beep-329314.mp3","null","audio-keyboard-response","161","2.1.0","201370","F=YES, J=NO","azmgo5o9m1","2","73","75","70","","","","","","","","","","","","","","","",""
"null","audio/life1.wav","null","audio-keyboard-response","162","2.1.0","202070","F=YES, J=NO","azmgo5o9m1","2","73","75","70","","","","","","","","","","","","","","","",""
"658","
          <p id=""word"" style=""font-size: 40px;"">flimch</p>
          <p style=""font-size: 16px;"">F = YES &nbsp;&nbsp;&nbsp; J = NO</p>
        ","j","html-keyboard-response","163","2.1.0","202730","F=YES, J=NO","azmgo5o9m1","2","73","75","70","","","","","","","","","flimch","life1","pseudoword","pseudoword","j","true","",""
"5827","
    <div style=""max-width: 800px; margin: auto; text-align: left;"">
      <h2>Part 2: Main Trials</h2>
      <p>Great job on the practice trials!</p>
      <p>You will now begin the <strong>main set of trials</strong>.</p>
      <p>Remember your key assignments:</p>
      <ul>
        <li><strong>F</strong> = YES (real English word)</li>
        <li><strong>J</strong> = NO (not a real English word)</li>
      </ul>
      <p>Try to respond as <strong>quickly and accurately</strong> as possible.</p>
      <p style=""margin-top: 2em;"">Press any key to begin the main trials.</p>
    </div>
  "," ","html-keyboard-response","164","2.1.0","208559","F=YES, J=NO","azmgo5o9m1","2","73","75","70","","","","","","","","","","","","","","","",""
"2293","<p>Starting main block 1 of 8. Press any key to continue.</p>"," ","html-keyboard-response","165","2.1.0","210853","F=YES, J=NO","azmgo5o9m1","2","73","75","70","","","","","","","","","","","","","","","",""
"null","<p style=""font-size: 50px;"">+</p>","null","html-keyboard-response","166","2.1.0","211170","F=YES, J=NO","azmgo5o9m1","2","73","75","70","","","","","","","","","","","","","","","",""
"null","audio/beep-329314.mp3","null","audio-keyboard-response","167","2.1.0","212710","F=YES, J=NO","azmgo5o9m1","2","73","75","70","","","","","","","","","","","","","","","",""
"null","audio/road.wav","null","audio-keyboard-response","168","2.1.0","213130","F=YES, J=NO","azmgo5o9m1","2","73","75","70","","","","","","","","","","","","","","","",""
"579","
          <p id=""word"" style=""font-size: 40px;"">wappings</p>
          <p style=""font-size: 16px;"">F = YES &nbsp;&nbsp;&nbsp; J = NO</p>
        ","j","html-keyboard-response","169","2.1.0","213710","F=YES, J=NO","azmgo5o9m1","2","73","75","70","","","","","","","","","wappings","road","pseudoword","pseudoword","j","true","",""
"null","<p style=""font-size: 50px;"">+</p>","null","html-keyboard-response","170","2.1.0","214012","F=YES, J=NO","azmgo5o9m1","2","73","75","70","","","","","","","","","","","","","","","",""
"null","audio/beep-329314.mp3","null","audio-keyboard-response","171","2.1.0","215550","F=YES, J=NO","azmgo5o9m1","2","73","75","70","","","","","","","","","","","","","","","",""
"null","audio/alarm1.wav","null","audio-keyboard-response","172","2.1.0","216169","F=YES, J=NO","azmgo5o9m1","2","73","75","70","","","","","","","","","","","","","","","",""
"604","
          <p id=""word"" style=""font-size: 40px;"">swetp</p>
          <p style=""font-size: 16px;"">F = YES &nbsp;&nbsp;&nbsp; J = NO</p>
        ","j","html-keyboard-response","173","2.1.0","216775","F=YES, J=NO","azmgo5o9m1","2","73","75","70","","","","","","","","","swetp","alarm1","pseudoword","pseudoword","j","true","",""
"null","<p style=""font-size: 50px;"">+</p>","null","html-keyboard-response","174","2.1.0","217092","F=YES, J=NO","azmgo5o9m1","2","73","75","70","","","","","","","","","","","","","","","",""
"null","audio/beep-329314.mp3","null","audio-keyboard-response","175","2.1.0","218630","F=YES, J=NO","azmgo5o9m1","2","73","75","70","","","","","","","","","","","","","","","",""
"null","audio/neck.wav","null","audio-keyboard-response","176","2.1.0","219191","F=YES, J=NO","azmgo5o9m1","2","73","75","70","","","","","","","","","","","","","","","",""
"459","
          <p id=""word"" style=""font-size: 40px;"">share</p>
          <p style=""font-size: 16px;"">F = YES &nbsp;&nbsp;&nbsp; J = NO</p>
        ","f","html-keyboard-response","177","2.1.0","219651","F=YES, J=NO","azmgo5o9m1","2","73","75","70","","","","","","","","","share","neck","unrelated","experimental","f","true","",""
"null","<p style=""font-size: 50px;"">+</p>","null","html-keyboard-response","178","2.1.0","219965","F=YES, J=NO","azmgo5o9m1","2","73","75","70","","","","","","","","","","","","","","","",""
"null","audio/beep-329314.mp3","null","audio-keyboard-response","179","2.1.0","221510","F=YES, J=NO","azmgo5o9m1","2","73","75","70","","","","","","","","","","","","","","","",""
"null","audio/haste1.wav","null","audio-keyboard-response","180","2.1.0","222310","F=YES, J=NO","azmgo5o9m1","2","73","75","70","","","","","","","","","","","","","","","",""
"938","
          <p id=""word"" style=""font-size: 40px;"">coraconate</p>
          <p style=""font-size: 16px;"">F = YES &nbsp;&nbsp;&nbsp; J = NO</p>
        ","j","html-keyboard-response","181","2.1.0","223250","F=YES, J=NO","azmgo5o9m1","2","73","75","70","","","","","","","","","coraconate","haste1","pseudoword","pseudoword","j","true","",""
"null","<p style=""font-size: 50px;"">+</p>","null","html-keyboard-response","182","2.1.0","223557","F=YES, J=NO","azmgo5o9m1","2","73","75","70","","","","","","","","","","","","","","","",""
"null","audio/beep-329314.mp3","null","audio-keyboard-response","183","2.1.0","225090","F=YES, J=NO","azmgo5o9m1","2","73","75","70","","","","","","","","","","","","","","","",""
"null","audio/birth1.wav","null","audio-keyboard-response","184","2.1.0","225650","F=YES, J=NO","azmgo5o9m1","2","73","75","70","","","","","","","","","","","","","","","",""
"716","
          <p id=""word"" style=""font-size: 40px;"">drop</p>
          <p style=""font-size: 16px;"">F = YES &nbsp;&nbsp;&nbsp; J = NO</p>
        ","f","html-keyboard-response","185","2.1.0","226367","F=YES, J=NO","azmgo5o9m1","2","73","75","70","","","","","","","","","drop","birth1","unrelated","experimental","f","true","",""
"null","<p style=""font-size: 50px;"">+</p>","null","html-keyboard-response","186","2.1.0","226673","F=YES, J=NO","azmgo5o9m1","2","73","75","70","","","","","","","","","","","","","","","",""
"null","audio/beep-329314.mp3","null","audio-keyboard-response","187","2.1.0","228210","F=YES, J=NO","azmgo5o9m1","2","73","75","70","","","","","","","","","","","","","","","",""
"null","audio/plot1.wav","null","audio-keyboard-response","188","2.1.0","228770","F=YES, J=NO","azmgo5o9m1","2","73","75","70","","","","","","","","","","","","","","","",""
"688","
          <p id=""word"" style=""font-size: 40px;"">glenter</p>
          <p style=""font-size: 16px;"">F = YES &nbsp;&nbsp;&nbsp; J = NO</p>
        ","j","html-keyboard-response","189","2.1.0","229460","F=YES, J=NO","azmgo5o9m1","2","73","75","70","","","","","","","","","glenter","plot1","pseudoword","pseudoword","j","true","",""
"null","<p style=""font-size: 50px;"">+</p>","null","html-keyboard-response","190","2.1.0","229766","F=YES, J=NO","azmgo5o9m1","2","73","75","70","","","","","","","","","","","","","","","",""
"null","audio/beep-329314.mp3","null","audio-keyboard-response","191","2.1.0","231309","F=YES, J=NO","azmgo5o9m1","2","73","75","70","","","","","","","","","","","","","","","",""
"null","audio/weapon.wav","null","audio-keyboard-response","192","2.1.0","231889","F=YES, J=NO","azmgo5o9m1","2","73","75","70","","","","","","","","","","","","","","","",""
"526","
          <p id=""word"" style=""font-size: 40px;"">carry</p>
          <p style=""font-size: 16px;"">F = YES &nbsp;&nbsp;&nbsp; J = NO</p>
        ","f","html-keyboard-response","193","2.1.0","232417","F=YES, J=NO","azmgo5o9m1","2","73","75","70","","","","","","","","","carry","weapon","literal","experimental","f","true","",""
"null","<p style=""font-size: 50px;"">+</p>","null","html-keyboard-response","194","2.1.0","232732","F=YES, J=NO","azmgo5o9m1","2","73","75","70","","","","","","","","","","","","","","","",""
"null","audio/beep-329314.mp3","null","audio-keyboard-response","195","2.1.0","234270","F=YES, J=NO","azmgo5o9m1","2","73","75","70","","","","","","","","","","","","","","","",""
"null","audio/client1.wav","null","audio-keyboard-response","196","2.1.0","234990","F=YES, J=NO","azmgo5o9m1","2","73","75","70","","","","","","","","","","","","","","","",""
"586","
          <p id=""word"" style=""font-size: 40px;"">droothe</p>
          <p style=""font-size: 16px;"">F = YES &nbsp;&nbsp;&nbsp; J = NO</p>
        ","j","html-keyboard-response","197","2.1.0","235577","F=YES, J=NO","azmgo5o9m1","2","73","75","70","","","","","","","","","droothe","client1","pseudoword","pseudoword","j","true","",""
"null","<p style=""font-size: 50px;"">+</p>","null","html-keyboard-response","198","2.1.0","235887","F=YES, J=NO","azmgo5o9m1","2","73","75","70","","","","","","","","","","","","","","","",""
"null","audio/beep-329314.mp3","null","audio-keyboard-response","199","2.1.0","237430","F=YES, J=NO","azmgo5o9m1","2","73","75","70","","","","","","","","","","","","","","","",""
"null","audio/chance.wav","null","audio-keyboard-response","200","2.1.0","238109","F=YES, J=NO","azmgo5o9m1","2","73","75","70","","","","","","","","","","","","","","","",""
"743","
          <p id=""word"" style=""font-size: 40px;"">seize</p>
          <p style=""font-size: 16px;"">F = YES &nbsp;&nbsp;&nbsp; J = NO</p>
        ","j","html-keyboard-response","201","2.1.0","238854","F=YES, J=NO","azmgo5o9m1","2","73","75","70","","","","","","","","","seize","chance","metaphor","experimental","f","false","",""
"null","<p style=""font-size: 50px;"">+</p>","null","html-keyboard-response","202","2.1.0","239158","F=YES, J=NO","azmgo5o9m1","2","73","75","70","","","","","","","","","","","","","","","",""
"null","audio/beep-329314.mp3","null","audio-keyboard-response","203","2.1.0","240690","F=YES, J=NO","azmgo5o9m1","2","73","75","70","","","","","","","","","","","","","","","",""
"null","audio/pain1.wav","null","audio-keyboard-response","204","2.1.0","241150","F=YES, J=NO","azmgo5o9m1","2","73","75","70","","","","","","","","","","","","","","","",""
"712","
          <p id=""word"" style=""font-size: 40px;"">tritted</p>
          <p style=""font-size: 16px;"">F = YES &nbsp;&nbsp;&nbsp; J = NO</p>
        ","j","html-keyboard-response","205","2.1.0","241863","F=YES, J=NO","azmgo5o9m1","2","73","75","70","","","","","","","","","tritted","pain1","pseudoword","pseudoword","j","true","",""
"null","<p style=""font-size: 50px;"">+</p>","null","html-keyboard-response","206","2.1.0","242170","F=YES, J=NO","azmgo5o9m1","2","73","75","70","","","","","","","","","","","","","","","",""
"null","audio/beep-329314.mp3","null","audio-keyboard-response","207","2.1.0","243711","F=YES, J=NO","azmgo5o9m1","2","73","75","70","","","","","","","","","","","","","","","",""
"null","audio/hotel1.wav","null","audio-keyboard-response","208","2.1.0","244550","F=YES, J=NO","azmgo5o9m1","2","73","75","70","","","","","","","","","","","","","","","",""
"705","
          <p id=""word"" style=""font-size: 40px;"">flanter</p>
          <p style=""font-size: 16px;"">F = YES &nbsp;&nbsp;&nbsp; J = NO</p>
        ","f","html-keyboard-response","209","2.1.0","245256","F=YES, J=NO","azmgo5o9m1","2","73","75","70","","","","","","","","","flanter","hotel1","pseudoword","pseudoword","j","false","",""
"null","<p style=""font-size: 50px;"">+</p>","null","html-keyboard-response","210","2.1.0","245573","F=YES, J=NO","azmgo5o9m1","2","73","75","70","","","","","","","","","","","","","","","",""
"null","audio/beep-329314.mp3","null","audio-keyboard-response","211","2.1.0","247110","F=YES, J=NO","azmgo5o9m1","2","73","75","70","","","","","","","","","","","","","","","",""
"null","audio/dome.wav","null","audio-keyboard-response","212","2.1.0","247549","F=YES, J=NO","azmgo5o9m1","2","73","75","70","","","","","","","","","","","","","","","",""
"524","
          <p id=""word"" style=""font-size: 40px;"">feed</p>
          <p style=""font-size: 16px;"">F = YES &nbsp;&nbsp;&nbsp; J = NO</p>
        ","f","html-keyboard-response","213","2.1.0","248075","F=YES, J=NO","azmgo5o9m1","2","73","75","70","","","","","","","","","feed","dome","unrelated","experimental","f","true","",""
"null","<p style=""font-size: 50px;"">+</p>","null","html-keyboard-response","214","2.1.0","248390","F=YES, J=NO","azmgo5o9m1","2","73","75","70","","","","","","","","","","","","","","","",""
"null","audio/beep-329314.mp3","null","audio-keyboard-response","215","2.1.0","249931","F=YES, J=NO","azmgo5o9m1","2","73","75","70","","","","","","","","","","","","","","","",""
"null","audio/vehicle1.wav","null","audio-keyboard-response","216","2.1.0","250609","F=YES, J=NO","azmgo5o9m1","2","73","75","70","","","","","","","","","","","","","","","",""
"882","
          <p id=""word"" style=""font-size: 40px;"">dropt</p>
          <p style=""font-size: 16px;"">F = YES &nbsp;&nbsp;&nbsp; J = NO</p>
        ","f","html-keyboard-response","217","2.1.0","251493","F=YES, J=NO","azmgo5o9m1","2","73","75","70","","","","","","","","","dropt","vehicle1","pseudoword","pseudoword","j","false","",""
"null","<p style=""font-size: 50px;"">+</p>","null","html-keyboard-response","218","2.1.0","251806","F=YES, J=NO","azmgo5o9m1","2","73","75","70","","","","","","","","","","","","","","","",""
"null","audio/beep-329314.mp3","null","audio-keyboard-response","219","2.1.0","253350","F=YES, J=NO","azmgo5o9m1","2","73","75","70","","","","","","","","","","","","","","","",""
"null","audio/table1.wav","null","audio-keyboard-response","220","2.1.0","253849","F=YES, J=NO","azmgo5o9m1","2","73","75","70","","","","","","","","","","","","","","","",""
"750","
          <p id=""word"" style=""font-size: 40px;"">stimb</p>
          <p style=""font-size: 16px;"">F = YES &nbsp;&nbsp;&nbsp; J = NO</p>
        ","j","html-keyboard-response","221","2.1.0","254601","F=YES, J=NO","azmgo5o9m1","2","73","75","70","","","","","","","","","stimb","table1","pseudoword","pseudoword","j","true","",""
"null","<p style=""font-size: 50px;"">+</p>","null","html-keyboard-response","222","2.1.0","254908","F=YES, J=NO","azmgo5o9m1","2","73","75","70","","","","","","","","","","","","","","","",""
"null","audio/beep-329314.mp3","null","audio-keyboard-response","223","2.1.0","256449","F=YES, J=NO","azmgo5o9m1","2","73","75","70","","","","","","","","","","","","","","","",""
"null","audio/topic.wav","null","audio-keyboard-response","224","2.1.0","257029","F=YES, J=NO","azmgo5o9m1","2","73","75","70","","","","","","","","","","","","","","","",""
"1149","
          <p id=""word"" style=""font-size: 40px;"">infortuitist</p>
          <p style=""font-size: 16px;"">F = YES &nbsp;&nbsp;&nbsp; J = NO</p>
        ","f","html-keyboard-response","225","2.1.0","258180","F=YES, J=NO","azmgo5o9m1","2","73","75","70","","","","","","","","","infortuitist","topic","pseudoword","pseudoword","j","false","",""
"null","<p style=""font-size: 50px;"">+</p>","null","html-keyboard-response","226","2.1.0","258488","F=YES, J=NO","azmgo5o9m1","2","73","75","70","","","","","","","","","","","","","","","",""
"null","audio/beep-329314.mp3","null","audio-keyboard-response","227","2.1.0","260029","F=YES, J=NO","azmgo5o9m1","2","73","75","70","","","","","","","","","","","","","","","",""
"null","audio/radio1.wav","null","audio-keyboard-response","228","2.1.0","260629","F=YES, J=NO","azmgo5o9m1","2","73","75","70","","","","","","","","","","","","","","","",""
"869","
          <p id=""word"" style=""font-size: 40px;"">blanter</p>
          <p style=""font-size: 16px;"">F = YES &nbsp;&nbsp;&nbsp; J = NO</p>
        ","f","html-keyboard-response","229","2.1.0","261500","F=YES, J=NO","azmgo5o9m1","2","73","75","70","","","","","","","","","blanter","radio1","pseudoword","pseudoword","j","false","",""
"2181","<p>Excellent! You have finished block 1 of 8.</p>
                     <p>Feel free to take a 30 second break.</p>
                     <p>Press any key when you're ready to continue.</p>"," ","html-keyboard-response","230","2.1.0","263682","F=YES, J=NO","azmgo5o9m1","2","73","75","70","","","","","","","","","","","","","","","",""
"1629","<p>Starting main block 2 of 8. Press any key to continue.</p>"," ","html-keyboard-response","231","2.1.0","265312","F=YES, J=NO","azmgo5o9m1","2","73","75","70","","","","","","","","","","","","","","","",""
"null","<p style=""font-size: 50px;"">+</p>","null","html-keyboard-response","232","2.1.0","265617","F=YES, J=NO","azmgo5o9m1","2","73","75","70","","","","","","","","","","","","","","","",""
"null","audio/beep-329314.mp3","null","audio-keyboard-response","233","2.1.0","267150","F=YES, J=NO","azmgo5o9m1","2","73","75","70","","","","","","","","","","","","","","","",""
"null","audio/kettle1.wav","null","audio-keyboard-response","234","2.1.0","267649","F=YES, J=NO","azmgo5o9m1","2","73","75","70","","","","","","","","","","","","","","","",""
"678","
          <p id=""word"" style=""font-size: 40px;"">navigate</p>
          <p style=""font-size: 16px;"">F = YES &nbsp;&nbsp;&nbsp; J = NO</p>
        ","f","html-keyboard-response","235","2.1.0","268329","F=YES, J=NO","azmgo5o9m1","2","73","75","70","","","","","","","","","navigate","kettle1","unrelated","experimental","f","true","",""
"null","<p style=""font-size: 50px;"">+</p>","null","html-keyboard-response","236","2.1.0","268634","F=YES, J=NO","azmgo5o9m1","2","73","75","70","","","","","","","","","","","","","","","",""
"null","audio/beep-329314.mp3","null","audio-keyboard-response","237","2.1.0","270170","F=YES, J=NO","azmgo5o9m1","2","73","75","70","","","","","","","","","","","","","","","",""
"null","audio/desire.wav","null","audio-keyboard-response","238","2.1.0","270810","F=YES, J=NO","azmgo5o9m1","2","73","75","70","","","","","","","","","","","","","","","",""
"454","
          <p id=""word"" style=""font-size: 40px;"">open</p>
          <p style=""font-size: 16px;"">F = YES &nbsp;&nbsp;&nbsp; J = NO</p>
        ","f","html-keyboard-response","239","2.1.0","271266","F=YES, J=NO","azmgo5o9m1","2","73","75","70","","","","","","","","","open","desire","unrelated","experimental","f","true","",""
"null","<p style=""font-size: 50px;"">+</p>","null","html-keyboard-response","240","2.1.0","271568","F=YES, J=NO","azmgo5o9m1","2","73","75","70","","","","","","","","","","","","","","","",""
"null","audio/beep-329314.mp3","null","audio-keyboard-response","241","2.1.0","273110","F=YES, J=NO","azmgo5o9m1","2","73","75","70","","","","","","","","","","","","","","","",""
"null","audio/camera1.wav","null","audio-keyboard-response","242","2.1.0","273630","F=YES, J=NO","azmgo5o9m1","2","73","75","70","","","","","","","","","","","","","","","",""
"608","
          <p id=""word"" style=""font-size: 40px;"">stir</p>
          <p style=""font-size: 16px;"">F = YES &nbsp;&nbsp;&nbsp; J = NO</p>
        ","f","html-keyboard-response","243","2.1.0","274239","F=YES, J=NO","azmgo5o9m1","2","73","75","70","","","","","","","","","stir","camera1","filler","filler","f","true","",""
"null","<p style=""font-size: 50px;"">+</p>","null","html-keyboard-response","244","2.1.0","274553","F=YES, J=NO","azmgo5o9m1","2","73","75","70","","","","","","","","","","","","","","","",""
"null","audio/beep-329314.mp3","null","audio-keyboard-response","245","2.1.0","276090","F=YES, J=NO","azmgo5o9m1","2","73","75","70","","","","","","","","","","","","","","","",""
"null","audio/bottle.wav","null","audio-keyboard-response","246","2.1.0","276569","F=YES, J=NO","azmgo5o9m1","2","73","75","70","","","","","","","","","","","","","","","",""
"468","
          <p id=""word"" style=""font-size: 40px;"">watch</p>
          <p style=""font-size: 16px;"">F = YES &nbsp;&nbsp;&nbsp; J = NO</p>
        ","f","html-keyboard-response","247","2.1.0","277039","F=YES, J=NO","azmgo5o9m1","2","73","75","70","","","","","","","","","watch","bottle","filler","filler","f","true","",""
"null","<p style=""font-size: 50px;"">+</p>","null","html-keyboard-response","248","2.1.0","277353","F=YES, J=NO","azmgo5o9m1","2","73","75","70","","","","","","","","","","","","","","","",""
"null","audio/beep-329314.mp3","null","audio-keyboard-response","249","2.1.0","278890","F=YES, J=NO","azmgo5o9m1","2","73","75","70","","","","","","","","","","","","","","","",""
"null","audio/noise1.wav","null","audio-keyboard-response","250","2.1.0","279510","F=YES, J=NO","azmgo5o9m1","2","73","75","70","","","","","","","","","","","","","","","",""
"704","
          <p id=""word"" style=""font-size: 40px;"">slintered</p>
          <p style=""font-size: 16px;"">F = YES &nbsp;&nbsp;&nbsp; J = NO</p>
        ","j","html-keyboard-response","251","2.1.0","280215","F=YES, J=NO","azmgo5o9m1","2","73","75","70","","","","","","","","","slintered","noise1","pseudoword","pseudoword","j","true","",""
"null","<p style=""font-size: 50px;"">+</p>","null","html-keyboard-response","252","2.1.0","280517","F=YES, J=NO","azmgo5o9m1","2","73","75","70","","","","","","","","","","","","","","","",""
"null","audio/beep-329314.mp3","null","audio-keyboard-response","253","2.1.0","282049","F=YES, J=NO","azmgo5o9m1","2","73","75","70","","","","","","","","","","","","","","","",""
"null","audio/voice.wav","null","audio-keyboard-response","254","2.1.0","282930","F=YES, J=NO","azmgo5o9m1","2","73","75","70","","","","","","","","","","","","","","","",""
"1342","
          <p id=""word"" style=""font-size: 40px;"">grintle</p>
          <p style=""font-size: 16px;"">F = YES &nbsp;&nbsp;&nbsp; J = NO</p>
        ","j","html-keyboard-response","255","2.1.0","284273","F=YES, J=NO","azmgo5o9m1","2","73","75","70","","","","","","","","","grintle","voice","pseudoword","pseudoword","j","true","",""
"null","<p style=""font-size: 50px;"">+</p>","null","html-keyboard-response","256","2.1.0","284585","F=YES, J=NO","azmgo5o9m1","2","73","75","70","","","","","","","","","","","","","","","",""
"null","audio/beep-329314.mp3","null","audio-keyboard-response","257","2.1.0","286110","F=YES, J=NO","azmgo5o9m1","2","73","75","70","","","","","","","","","","","","","","","",""
"null","audio/terrain.wav","null","audio-keyboard-response","258","2.1.0","286950","F=YES, J=NO","azmgo5o9m1","2","73","75","70","","","","","","","","","","","","","","","",""
"415","
          <p id=""word"" style=""font-size: 40px;"">twist</p>
          <p style=""font-size: 16px;"">F = YES &nbsp;&nbsp;&nbsp; J = NO</p>
        ","f","html-keyboard-response","259","2.1.0","287367","F=YES, J=NO","azmgo5o9m1","2","73","75","70","","","","","","","","","twist","terrain","filler","filler","f","true","",""
"null","<p style=""font-size: 50px;"">+</p>","null","html-keyboard-response","260","2.1.0","287682","F=YES, J=NO","azmgo5o9m1","2","73","75","70","","","","","","","","","","","","","","","",""
"null","audio/beep-329314.mp3","null","audio-keyboard-response","261","2.1.0","289210","F=YES, J=NO","azmgo5o9m1","2","73","75","70","","","","","","","","","","","","","","","",""
"null","audio/pattern.wav","null","audio-keyboard-response","262","2.1.0","289729","F=YES, J=NO","azmgo5o9m1","2","73","75","70","","","","","","","","","","","","","","","",""
"620","
          <p id=""word"" style=""font-size: 40px;"">tug</p>
          <p style=""font-size: 16px;"">F = YES &nbsp;&nbsp;&nbsp; J = NO</p>
        ","f","html-keyboard-response","263","2.1.0","290350","F=YES, J=NO","azmgo5o9m1","2","73","75","70","","","","","","","","","tug","pattern","filler","filler","f","true","",""
"null","<p style=""font-size: 50px;"">+</p>","null","html-keyboard-response","264","2.1.0","290656","F=YES, J=NO","azmgo5o9m1","2","73","75","70","","","","","","","","","","","","","","","",""
"null","audio/beep-329314.mp3","null","audio-keyboard-response","265","2.1.0","292190","F=YES, J=NO","azmgo5o9m1","2","73","75","70","","","","","","","","","","","","","","","",""
"null","audio/neck.wav","null","audio-keyboard-response","266","2.1.0","292730","F=YES, J=NO","azmgo5o9m1","2","73","75","70","","","","","","","","","","","","","","","",""
"670","
          <p id=""word"" style=""font-size: 40px;"">werling</p>
          <p style=""font-size: 16px;"">F = YES &nbsp;&nbsp;&nbsp; J = NO</p>
        ","j","html-keyboard-response","267","2.1.0","293402","F=YES, J=NO","azmgo5o9m1","2","73","75","70","","","","","","","","","werling","neck","pseudoword","pseudoword","j","true","",""
"null","<p style=""font-size: 50px;"">+</p>","null","html-keyboard-response","268","2.1.0","293704","F=YES, J=NO","azmgo5o9m1","2","73","75","70","","","","","","","","","","","","","","","",""
"null","audio/beep-329314.mp3","null","audio-keyboard-response","269","2.1.0","295230","F=YES, J=NO","azmgo5o9m1","2","73","75","70","","","","","","","","","","","","","","","",""
"null","audio/ankle1.wav","null","audio-keyboard-response","270","2.1.0","295769","F=YES, J=NO","azmgo5o9m1","2","73","75","70","","","","","","","","","","","","","","","",""
"449","
          <p id=""word"" style=""font-size: 40px;"">kick</p>
          <p style=""font-size: 16px;"">F = YES &nbsp;&nbsp;&nbsp; J = NO</p>
        ","f","html-keyboard-response","271","2.1.0","296219","F=YES, J=NO","azmgo5o9m1","2","73","75","70","","","","","","","","","kick","ankle1","filler","filler","f","true","",""
"null","<p style=""font-size: 50px;"">+</p>","null","html-keyboard-response","272","2.1.0","296529","F=YES, J=NO","azmgo5o9m1","2","73","75","70","","","","","","","","","","","","","","","",""
"null","audio/beep-329314.mp3","null","audio-keyboard-response","273","2.1.0","298069","F=YES, J=NO","azmgo5o9m1","2","73","75","70","","","","","","","","","","","","","","","",""
"null","audio/tomato.wav","null","audio-keyboard-response","274","2.1.0","298949","F=YES, J=NO","azmgo5o9m1","2","73","75","70","","","","","","","","","","","","","","","",""
"496","
          <p id=""word"" style=""font-size: 40px;"">grow</p>
          <p style=""font-size: 16px;"">F = YES &nbsp;&nbsp;&nbsp; J = NO</p>
        ","f","html-keyboard-response","275","2.1.0","299447","F=YES, J=NO","azmgo5o9m1","2","73","75","70","","","","","","","","","grow","tomato","literal","experimental","f","true","",""
"null","<p style=""font-size: 50px;"">+</p>","null","html-keyboard-response","276","2.1.0","299753","F=YES, J=NO","azmgo5o9m1","2","73","75","70","","","","","","","","","","","","","","","",""
"null","audio/beep-329314.mp3","null","audio-keyboard-response","277","2.1.0","301290","F=YES, J=NO","azmgo5o9m1","2","73","75","70","","","","","","","","","","","","","","","",""
"null","audio/bush1.wav","null","audio-keyboard-response","278","2.1.0","301789","F=YES, J=NO","azmgo5o9m1","2","73","75","70","","","","","","","","","","","","","","","",""
"565","
          <p id=""word"" style=""font-size: 40px;"">platined</p>
          <p style=""font-size: 16px;"">F = YES &nbsp;&nbsp;&nbsp; J = NO</p>
        ","f","html-keyboard-response","279","2.1.0","302356","F=YES, J=NO","azmgo5o9m1","2","73","75","70","","","","","","","","","platined","bush1","pseudoword","pseudoword","j","false","",""
"null","<p style=""font-size: 50px;"">+</p>","null","html-keyboard-response","280","2.1.0","302671","F=YES, J=NO","azmgo5o9m1","2","73","75","70","","","","","","","","","","","","","","","",""
"null","audio/beep-329314.mp3","null","audio-keyboard-response","281","2.1.0","304210","F=YES, J=NO","azmgo5o9m1","2","73","75","70","","","","","","","","","","","","","","","",""
"null","audio/bridge.wav","null","audio-keyboard-response","282","2.1.0","304769","F=YES, J=NO","azmgo5o9m1","2","73","75","70","","","","","","","","","","","","","","","",""
"521","
          <p id=""word"" style=""font-size: 40px;"">crack</p>
          <p style=""font-size: 16px;"">F = YES &nbsp;&nbsp;&nbsp; J = NO</p>
        ","f","html-keyboard-response","283","2.1.0","305292","F=YES, J=NO","azmgo5o9m1","2","73","75","70","","","","","","","","","crack","bridge","filler","filler","f","true","",""
"null","<p style=""font-size: 50px;"">+</p>","null","html-keyboard-response","284","2.1.0","305602","F=YES, J=NO","azmgo5o9m1","2","73","75","70","","","","","","","","","","","","","","","",""
"null","audio/beep-329314.mp3","null","audio-keyboard-response","285","2.1.0","307130","F=YES, J=NO","azmgo5o9m1","2","73","75","70","","","","","","","","","","","","","","","",""
"null","audio/van1.wav","null","audio-keyboard-response","286","2.1.0","307629","F=YES, J=NO","azmgo5o9m1","2","73","75","70","","","","","","","","","","","","","","","",""
"549","
          <p id=""word"" style=""font-size: 40px;"">support</p>
          <p style=""font-size: 16px;"">F = YES &nbsp;&nbsp;&nbsp; J = NO</p>
        ","f","html-keyboard-response","287","2.1.0","308180","F=YES, J=NO","azmgo5o9m1","2","73","75","70","","","","","","","","","support","van1","unrelated","experimental","f","true","",""
"null","<p style=""font-size: 50px;"">+</p>","null","html-keyboard-response","288","2.1.0","308483","F=YES, J=NO","azmgo5o9m1","2","73","75","70","","","","","","","","","","","","","","","",""
"null","audio/beep-329314.mp3","null","audio-keyboard-response","289","2.1.0","310010","F=YES, J=NO","azmgo5o9m1","2","73","75","70","","","","","","","","","","","","","","","",""
"null","audio/client1.wav","null","audio-keyboard-response","290","2.1.0","310690","F=YES, J=NO","azmgo5o9m1","2","73","75","70","","","","","","","","","","","","","","","",""
"478","
          <p id=""word"" style=""font-size: 40px;"">land</p>
          <p style=""font-size: 16px;"">F = YES &nbsp;&nbsp;&nbsp; J = NO</p>
        ","f","html-keyboard-response","291","2.1.0","311169","F=YES, J=NO","azmgo5o9m1","2","73","75","70","","","","","","","","","land","client1","metaphor","experimental","f","true","",""
"null","<p style=""font-size: 50px;"">+</p>","null","html-keyboard-response","292","2.1.0","311481","F=YES, J=NO","azmgo5o9m1","2","73","75","70","","","","","","","","","","","","","","","",""
"null","audio/beep-329314.mp3","null","audio-keyboard-response","293","2.1.0","313010","F=YES, J=NO","azmgo5o9m1","2","73","75","70","","","","","","","","","","","","","","","",""
"null","audio/beach1.wav","null","audio-keyboard-response","294","2.1.0","313628","F=YES, J=NO","azmgo5o9m1","2","73","75","70","","","","","","","","","","","","","","","",""
"525","
          <p id=""word"" style=""font-size: 40px;"">drive</p>
          <p style=""font-size: 16px;"">F = YES &nbsp;&nbsp;&nbsp; J = NO</p>
        ","f","html-keyboard-response","295","2.1.0","314154","F=YES, J=NO","azmgo5o9m1","2","73","75","70","","","","","","","","","drive","beach1","filler","filler","f","true","",""
"1374","<p>Excellent! You have finished block 2 of 8.</p>
                     <p>Feel free to take a 30 second break.</p>
                     <p>Press any key when you're ready to continue.</p>"," ","html-keyboard-response","296","2.1.0","315529","F=YES, J=NO","azmgo5o9m1","2","73","75","70","","","","","","","","","","","","","","","",""
"7506","<p>Starting main block 3 of 8. Press any key to continue.</p>"," ","html-keyboard-response","297","2.1.0","323036","F=YES, J=NO","azmgo5o9m1","2","73","75","70","","","","","","","","","","","","","","","",""
"null","<p style=""font-size: 50px;"">+</p>","null","html-keyboard-response","298","2.1.0","323343","F=YES, J=NO","azmgo5o9m1","2","73","75","70","","","","","","","","","","","","","","","",""
"null","audio/beep-329314.mp3","null","audio-keyboard-response","299","2.1.0","324859","F=YES, J=NO","azmgo5o9m1","2","73","75","70","","","","","","","","","","","","","","","",""
"null","audio/sugar1.wav","null","audio-keyboard-response","300","2.1.0","325338","F=YES, J=NO","azmgo5o9m1","2","73","75","70","","","","","","","","","","","","","","","",""
"553","
          <p id=""word"" style=""font-size: 40px;"">approach</p>
          <p style=""font-size: 16px;"">F = YES &nbsp;&nbsp;&nbsp; J = NO</p>
        ","f","html-keyboard-response","301","2.1.0","325892","F=YES, J=NO","azmgo5o9m1","2","73","75","70","","","","","","","","","approach","sugar1","unrelated","experimental","f","true","",""
"null","<p style=""font-size: 50px;"">+</p>","null","html-keyboard-response","302","2.1.0","326201","F=YES, J=NO","azmgo5o9m1","2","73","75","70","","","","","","","","","","","","","","","",""
"null","audio/beep-329314.mp3","null","audio-keyboard-response","303","2.1.0","327739","F=YES, J=NO","azmgo5o9m1","2","73","75","70","","","","","","","","","","","","","","","",""
"null","audio/corpse1.wav","null","audio-keyboard-response","304","2.1.0","328380","F=YES, J=NO","azmgo5o9m1","2","73","75","70","","","","","","","","","","","","","","","",""
"685","
          <p id=""word"" style=""font-size: 40px;"">glonet</p>
          <p style=""font-size: 16px;"">F = YES &nbsp;&nbsp;&nbsp; J = NO</p>
        ","j","html-keyboard-response","305","2.1.0","329066","F=YES, J=NO","azmgo5o9m1","2","73","75","70","","","","","","","","","glonet","corpse1","pseudoword","pseudoword","j","true","",""
"null","<p style=""font-size: 50px;"">+</p>","null","html-keyboard-response","306","2.1.0","329376","F=YES, J=NO","azmgo5o9m1","2","73","75","70","","","","","","","","","","","","","","","",""
"null","audio/beep-329314.mp3","null","audio-keyboard-response","307","2.1.0","330920","F=YES, J=NO","azmgo5o9m1","2","73","75","70","","","","","","","","","","","","","","","",""
"null","audio/table1.wav","null","audio-keyboard-response","308","2.1.0","331399","F=YES, J=NO","azmgo5o9m1","2","73","75","70","","","","","","","","","","","","","","","",""
"453","
          <p id=""word"" style=""font-size: 40px;"">clear</p>
          <p style=""font-size: 16px;"">F = YES &nbsp;&nbsp;&nbsp; J = NO</p>
        ","f","html-keyboard-response","309","2.1.0","331853","F=YES, J=NO","azmgo5o9m1","2","73","75","70","","","","","","","","","clear","table1","literal","experimental","f","true","",""
"null","<p style=""font-size: 50px;"">+</p>","null","html-keyboard-response","310","2.1.0","332162","F=YES, J=NO","azmgo5o9m1","2","73","75","70","","","","","","","","","","","","","","","",""
"null","audio/beep-329314.mp3","null","audio-keyboard-response","311","2.1.0","333699","F=YES, J=NO","azmgo5o9m1","2","73","75","70","","","","","","","","","","","","","","","",""
"null","audio/gossip1.wav","null","audio-keyboard-response","312","2.1.0","334339","F=YES, J=NO","azmgo5o9m1","2","73","75","70","","","","","","","","","","","","","","","",""
"544","
          <p id=""word"" style=""font-size: 40px;"">wrestle</p>
          <p style=""font-size: 16px;"">F = YES &nbsp;&nbsp;&nbsp; J = NO</p>
        ","f","html-keyboard-response","313","2.1.0","334884","F=YES, J=NO","azmgo5o9m1","2","73","75","70","","","","","","","","","wrestle","gossip1","unrelated","experimental","f","true","",""
"null","<p style=""font-size: 50px;"">+</p>","null","html-keyboard-response","314","2.1.0","335186","F=YES, J=NO","azmgo5o9m1","2","73","75","70","","","","","","","","","","","","","","","",""
"null","audio/beep-329314.mp3","null","audio-keyboard-response","315","2.1.0","336720","F=YES, J=NO","azmgo5o9m1","2","73","75","70","","","","","","","","","","","","","","","",""
"null","audio/alarm1.wav","null","audio-keyboard-response","316","2.1.0","337299","F=YES, J=NO","azmgo5o9m1","2","73","75","70","","","","","","","","","","","","","","","",""
"450","
          <p id=""word"" style=""font-size: 40px;"">lock</p>
          <p style=""font-size: 16px;"">F = YES &nbsp;&nbsp;&nbsp; J = NO</p>
        ","f","html-keyboard-response","317","2.1.0","337750","F=YES, J=NO","azmgo5o9m1","2","73","75","70","","","","","","","","","lock","alarm1","filler","filler","f","true","",""
"null","<p style=""font-size: 50px;"">+</p>","null","html-keyboard-response","318","2.1.0","338064","F=YES, J=NO","azmgo5o9m1","2","73","75","70","","","","","","","","","","","","","","","",""
"null","audio/beep-329314.mp3","null","audio-keyboard-response","319","2.1.0","339600","F=YES, J=NO","azmgo5o9m1","2","73","75","70","","","","","","","","","","","","","","","",""
"null","audio/scar.wav","null","audio-keyboard-response","320","2.1.0","340400","F=YES, J=NO","azmgo5o9m1","2","73","75","70","","","","","","","","","","","","","","","",""
"852","
          <p id=""word"" style=""font-size: 40px;"">adelineate</p>
          <p style=""font-size: 16px;"">F = YES &nbsp;&nbsp;&nbsp; J = NO</p>
        ","f","html-keyboard-response","321","2.1.0","341253","F=YES, J=NO","azmgo5o9m1","2","73","75","70","","","","","","","","","adelineate","scar","pseudoword","pseudoword","j","false","",""
"null","<p style=""font-size: 50px;"">+</p>","null","html-keyboard-response","322","2.1.0","341564","F=YES, J=NO","azmgo5o9m1","2","73","75","70","","","","","","","","","","","","","","","",""
"null","audio/beep-329314.mp3","null","audio-keyboard-response","323","2.1.0","343100","F=YES, J=NO","azmgo5o9m1","2","73","75","70","","","","","","","","","","","","","","","",""
"null","audio/fence.wav","null","audio-keyboard-response","324","2.1.0","343959","F=YES, J=NO","azmgo5o9m1","2","73","75","70","","","","","","","","","","","","","","","",""
"441","
          <p id=""word"" style=""font-size: 40px;"">trim</p>
          <p style=""font-size: 16px;"">F = YES &nbsp;&nbsp;&nbsp; J = NO</p>
        ","f","html-keyboard-response","325","2.1.0","344401","F=YES, J=NO","azmgo5o9m1","2","73","75","70","","","","","","","","","trim","fence","filler","filler","f","true","",""
"null","<p style=""font-size: 50px;"">+</p>","null","html-keyboard-response","326","2.1.0","344709","F=YES, J=NO","azmgo5o9m1","2","73","75","70","","","","","","","","","","","","","","","",""
"null","audio/beep-329314.mp3","null","audio-keyboard-response","327","2.1.0","346239","F=YES, J=NO","azmgo5o9m1","2","73","75","70","","","","","","","","","","","","","","","",""
"null","audio/mile1.wav","null","audio-keyboard-response","328","2.1.0","346759","F=YES, J=NO","azmgo5o9m1","2","73","75","70","","","","","","","","","","","","","","","",""
"1007","
          <p id=""word"" style=""font-size: 40px;"">writch</p>
          <p style=""font-size: 16px;"">F = YES &nbsp;&nbsp;&nbsp; J = NO</p>
        ","j","html-keyboard-response","329","2.1.0","347768","F=YES, J=NO","azmgo5o9m1","2","73","75","70","","","","","","","","","writch","mile1","pseudoword","pseudoword","j","true","",""
"null","<p style=""font-size: 50px;"">+</p>","null","html-keyboard-response","330","2.1.0","348080","F=YES, J=NO","azmgo5o9m1","2","73","75","70","","","","","","","","","","","","","","","",""
"null","audio/beep-329314.mp3","null","audio-keyboard-response","331","2.1.0","349619","F=YES, J=NO","azmgo5o9m1","2","73","75","70","","","","","","","","","","","","","","","",""
"null","audio/show.wav","null","audio-keyboard-response","332","2.1.0","350159","F=YES, J=NO","azmgo5o9m1","2","73","75","70","","","","","","","","","","","","","","","",""
"443","
          <p id=""word"" style=""font-size: 40px;"">hold</p>
          <p style=""font-size: 16px;"">F = YES &nbsp;&nbsp;&nbsp; J = NO</p>
        ","f","html-keyboard-response","333","2.1.0","350603","F=YES, J=NO","azmgo5o9m1","2","73","75","70","","","","","","","","","hold","show","metaphor","experimental","f","true","",""
"null","<p style=""font-size: 50px;"">+</p>","null","html-keyboard-response","334","2.1.0","350904","F=YES, J=NO","azmgo5o9m1","2","73","75","70","","","","","","","","","","","","","","","",""
"null","audio/beep-329314.mp3","null","audio-keyboard-response","335","2.1.0","352441","F=YES, J=NO","azmgo5o9m1","2","73","75","70","","","","","","","","","","","","","","","",""
"null","audio/key1.wav","null","audio-keyboard-response","336","2.1.0","352819","F=YES, J=NO","azmgo5o9m1","2","73","75","70","","","","","","","","","","","","","","","",""
"697","
          <p id=""word"" style=""font-size: 40px;"">sminsh</p>
          <p style=""font-size: 16px;"">F = YES &nbsp;&nbsp;&nbsp; J = NO</p>
        ","j","html-keyboard-response","337","2.1.0","353517","F=YES, J=NO","azmgo5o9m1","2","73","75","70","","","","","","","","","sminsh","key1","pseudoword","pseudoword","j","true","",""
"null","<p style=""font-size: 50px;"">+</p>","null","html-keyboard-response","338","2.1.0","353826","F=YES, J=NO","azmgo5o9m1","2","73","75","70","","","","","","","","","","","","","","","",""
"null","audio/beep-329314.mp3","null","audio-keyboard-response","339","2.1.0","355359","F=YES, J=NO","azmgo5o9m1","2","73","75","70","","","","","","","","","","","","","","","",""
"null","audio/grass.wav","null","audio-keyboard-response","340","2.1.0","356099","F=YES, J=NO","azmgo5o9m1","2","73","75","70","","","","","","","","","","","","","","","",""
"690","
          <p id=""word"" style=""font-size: 40px;"">milames</p>
          <p style=""font-size: 16px;"">F = YES &nbsp;&nbsp;&nbsp; J = NO</p>
        ","j","html-keyboard-response","341","2.1.0","356790","F=YES, J=NO","azmgo5o9m1","2","73","75","70","","","","","","","","","milames","grass","pseudoword","pseudoword","j","true","",""
"null","<p style=""font-size: 50px;"">+</p>","null","html-keyboard-response","342","2.1.0","357101","F=YES, J=NO","azmgo5o9m1","2","73","75","70","","","","","","","","","","","","","","","",""
"null","audio/beep-329314.mp3","null","audio-keyboard-response","343","2.1.0","358639","F=YES, J=NO","azmgo5o9m1","2","73","75","70","","","","","","","","","","","","","","","",""
"null","audio/gift1.wav","null","audio-keyboard-response","344","2.1.0","359379","F=YES, J=NO","azmgo5o9m1","2","73","75","70","","","","","","","","","","","","","","","",""
"642","
          <p id=""word"" style=""font-size: 40px;"">protsh</p>
          <p style=""font-size: 16px;"">F = YES &nbsp;&nbsp;&nbsp; J = NO</p>
        ","j","html-keyboard-response","345","2.1.0","360023","F=YES, J=NO","azmgo5o9m1","2","73","75","70","","","","","","","","","protsh","gift1","pseudoword","pseudoword","j","true","",""
"null","<p style=""font-size: 50px;"">+</p>","null","html-keyboard-response","346","2.1.0","360325","F=YES, J=NO","azmgo5o9m1","2","73","75","70","","","","","","","","","","","","","","","",""
"null","audio/beep-329314.mp3","null","audio-keyboard-response","347","2.1.0","361859","F=YES, J=NO","azmgo5o9m1","2","73","75","70","","","","","","","","","","","","","","","",""
"null","audio/tunnel.wav","null","audio-keyboard-response","348","2.1.0","362318","F=YES, J=NO","azmgo5o9m1","2","73","75","70","","","","","","","","","","","","","","","",""
"673","
          <p id=""word"" style=""font-size: 40px;"">gred</p>
          <p style=""font-size: 16px;"">F = YES &nbsp;&nbsp;&nbsp; J = NO</p>
        ","j","html-keyboard-response","349","2.1.0","362993","F=YES, J=NO","azmgo5o9m1","2","73","75","70","","","","","","","","","gred","tunnel","pseudoword","pseudoword","j","true","",""
"null","<p style=""font-size: 50px;"">+</p>","null","html-keyboard-response","350","2.1.0","363310","F=YES, J=NO","azmgo5o9m1","2","73","75","70","","","","","","","","","","","","","","","",""
"null","audio/beep-329314.mp3","null","audio-keyboard-response","351","2.1.0","364839","F=YES, J=NO","azmgo5o9m1","2","73","75","70","","","","","","","","","","","","","","","",""
"null","audio/hotel1.wav","null","audio-keyboard-response","352","2.1.0","365459","F=YES, J=NO","azmgo5o9m1","2","73","75","70","","","","","","","","","","","","","","","",""
"563","
          <p id=""word"" style=""font-size: 40px;"">spread</p>
          <p style=""font-size: 16px;"">F = YES &nbsp;&nbsp;&nbsp; J = NO</p>
        ","f","html-keyboard-response","353","2.1.0","366024","F=YES, J=NO","azmgo5o9m1","2","73","75","70","","","","","","","","","spread","hotel1","unrelated","experimental","f","true","",""
"null","<p style=""font-size: 50px;"">+</p>","null","html-keyboard-response","354","2.1.0","366326","F=YES, J=NO","azmgo5o9m1","2","73","75","70","","","","","","","","","","","","","","","",""
"null","audio/beep-329314.mp3","null","audio-keyboard-response","355","2.1.0","367859","F=YES, J=NO","azmgo5o9m1","2","73","75","70","","","","","","","","","","","","","","","",""
"null","audio/tax1.wav","null","audio-keyboard-response","356","2.1.0","368498","F=YES, J=NO","azmgo5o9m1","2","73","75","70","","","","","","","","","","","","","","","",""
"515","
          <p id=""word"" style=""font-size: 40px;"">scrap</p>
          <p style=""font-size: 16px;"">F = YES &nbsp;&nbsp;&nbsp; J = NO</p>
        ","f","html-keyboard-response","357","2.1.0","369014","F=YES, J=NO","azmgo5o9m1","2","73","75","70","","","","","","","","","scrap","tax1","metaphor","experimental","f","true","",""
"null","<p style=""font-size: 50px;"">+</p>","null","html-keyboard-response","358","2.1.0","369330","F=YES, J=NO","azmgo5o9m1","2","73","75","70","","","","","","","","","","","","","","","",""
"null","audio/beep-329314.mp3","null","audio-keyboard-response","359","2.1.0","370859","F=YES, J=NO","azmgo5o9m1","2","73","75","70","","","","","","","","","","","","","","","",""
"null","audio/pattern.wav","null","audio-keyboard-response","360","2.1.0","371359","F=YES, J=NO","azmgo5o9m1","2","73","75","70","","","","","","","","","","","","","","","",""
"559","
          <p id=""word"" style=""font-size: 40px;"">defeat</p>
          <p style=""font-size: 16px;"">F = YES &nbsp;&nbsp;&nbsp; J = NO</p>
        ","f","html-keyboard-response","361","2.1.0","371920","F=YES, J=NO","azmgo5o9m1","2","73","75","70","","","","","","","","","defeat","pattern","unrelated","experimental","f","true","",""
"858","<p>Excellent! You have finished block 3 of 8.</p>
                     <p>Feel free to take a 30 second break.</p>
                     <p>Press any key when you're ready to continue.</p>"," ","html-keyboard-response","362","2.1.0","372778","F=YES, J=NO","azmgo5o9m1","2","73","75","70","","","","","","","","","","","","","","","",""
"4599","<p>Starting main block 4 of 8. Press any key to continue.</p>"," ","html-keyboard-response","363","2.1.0","377379","F=YES, J=NO","azmgo5o9m1","2","73","75","70","","","","","","","","","","","","","","","",""
"null","<p style=""font-size: 50px;"">+</p>","null","html-keyboard-response","364","2.1.0","377692","F=YES, J=NO","azmgo5o9m1","2","73","75","70","","","","","","","","","","","","","","","",""
"null","audio/beep-329314.mp3","null","audio-keyboard-response","365","2.1.0","379219","F=YES, J=NO","azmgo5o9m1","2","73","75","70","","","","","","","","","","","","","","","",""
"null","audio/menu.wav","null","audio-keyboard-response","366","2.1.0","380019","F=YES, J=NO","azmgo5o9m1","2","73","75","70","","","","","","","","","","","","","","","",""
"597","
          <p id=""word"" style=""font-size: 40px;"">slice</p>
          <p style=""font-size: 16px;"">F = YES &nbsp;&nbsp;&nbsp; J = NO</p>
        ","f","html-keyboard-response","367","2.1.0","380616","F=YES, J=NO","azmgo5o9m1","2","73","75","70","","","","","","","","","slice","menu","filler","filler","f","true","",""
"null","<p style=""font-size: 50px;"">+</p>","null","html-keyboard-response","368","2.1.0","380931","F=YES, J=NO","azmgo5o9m1","2","73","75","70","","","","","","","","","","","","","","","",""
"null","audio/beep-329314.mp3","null","audio-keyboard-response","369","2.1.0","382459","F=YES, J=NO","azmgo5o9m1","2","73","75","70","","","","","","","","","","","","","","","",""
"null","audio/golf1.wav","null","audio-keyboard-response","370","2.1.0","383039","F=YES, J=NO","azmgo5o9m1","2","73","75","70","","","","","","","","","","","","","","","",""
"695","
          <p id=""word"" style=""font-size: 40px;"">drabble</p>
          <p style=""font-size: 16px;"">F = YES &nbsp;&nbsp;&nbsp; J = NO</p>
        ","j","html-keyboard-response","371","2.1.0","383736","F=YES, J=NO","azmgo5o9m1","2","73","75","70","","","","","","","","","drabble","golf1","pseudoword","pseudoword","j","true","",""
"null","<p style=""font-size: 50px;"">+</p>","null","html-keyboard-response","372","2.1.0","384051","F=YES, J=NO","azmgo5o9m1","2","73","75","70","","","","","","","","","","","","","","","",""
"null","audio/beep-329314.mp3","null","audio-keyboard-response","373","2.1.0","385579","F=YES, J=NO","azmgo5o9m1","2","73","75","70","","","","","","","","","","","","","","","",""
"null","audio/cash1.wav","null","audio-keyboard-response","374","2.1.0","386419","F=YES, J=NO","azmgo5o9m1","2","73","75","70","","","","","","","","","","","","","","","",""
"693","
          <p id=""word"" style=""font-size: 40px;"">splear</p>
          <p style=""font-size: 16px;"">F = YES &nbsp;&nbsp;&nbsp; J = NO</p>
        ","j","html-keyboard-response","375","2.1.0","387113","F=YES, J=NO","azmgo5o9m1","2","73","75","70","","","","","","","","","splear","cash1","pseudoword","pseudoword","j","true","",""
"null","<p style=""font-size: 50px;"">+</p>","null","html-keyboard-response","376","2.1.0","387423","F=YES, J=NO","azmgo5o9m1","2","73","75","70","","","","","","","","","","","","","","","",""
"null","audio/beep-329314.mp3","null","audio-keyboard-response","377","2.1.0","388959","F=YES, J=NO","azmgo5o9m1","2","73","75","70","","","","","","","","","","","","","","","",""
"null","audio/uncle1.wav","null","audio-keyboard-response","378","2.1.0","389679","F=YES, J=NO","azmgo5o9m1","2","73","75","70","","","","","","","","","","","","","","","",""
"711","
          <p id=""word"" style=""font-size: 40px;"">dramble</p>
          <p style=""font-size: 16px;"">F = YES &nbsp;&nbsp;&nbsp; J = NO</p>
        ","j","html-keyboard-response","379","2.1.0","390391","F=YES, J=NO","azmgo5o9m1","2","73","75","70","","","","","","","","","dramble","uncle1","pseudoword","pseudoword","j","true","",""
"null","<p style=""font-size: 50px;"">+</p>","null","html-keyboard-response","380","2.1.0","390701","F=YES, J=NO","azmgo5o9m1","2","73","75","70","","","","","","","","","","","","","","","",""
"null","audio/beep-329314.mp3","null","audio-keyboard-response","381","2.1.0","392239","F=YES, J=NO","azmgo5o9m1","2","73","75","70","","","","","","","","","","","","","","","",""
"null","audio/pine.wav","null","audio-keyboard-response","382","2.1.0","392839","F=YES, J=NO","azmgo5o9m1","2","73","75","70","","","","","","","","","","","","","","","",""
"873","
          <p id=""word"" style=""font-size: 40px;"">crebble</p>
          <p style=""font-size: 16px;"">F = YES &nbsp;&nbsp;&nbsp; J = NO</p>
        ","j","html-keyboard-response","383","2.1.0","393714","F=YES, J=NO","azmgo5o9m1","2","73","75","70","","","","","","","","","crebble","pine","pseudoword","pseudoword","j","true","",""
"null","<p style=""font-size: 50px;"">+</p>","null","html-keyboard-response","384","2.1.0","394022","F=YES, J=NO","azmgo5o9m1","2","73","75","70","","","","","","","","","","","","","","","",""
"null","audio/beep-329314.mp3","null","audio-keyboard-response","385","2.1.0","395559","F=YES, J=NO","azmgo5o9m1","2","73","75","70","","","","","","","","","","","","","","","",""
"null","audio/dollar.wav","null","audio-keyboard-response","386","2.1.0","395959","F=YES, J=NO","azmgo5o9m1","2","73","75","70","","","","","","","","","","","","","","","",""
"734","
          <p id=""word"" style=""font-size: 40px;"">gliptism</p>
          <p style=""font-size: 16px;"">F = YES &nbsp;&nbsp;&nbsp; J = NO</p>
        ","j","html-keyboard-response","387","2.1.0","396694","F=YES, J=NO","azmgo5o9m1","2","73","75","70","","","","","","","","","gliptism","dollar","pseudoword","pseudoword","j","true","",""
"null","<p style=""font-size: 50px;"">+</p>","null","html-keyboard-response","388","2.1.0","397004","F=YES, J=NO","azmgo5o9m1","2","73","75","70","","","","","","","","","","","","","","","",""
"null","audio/beep-329314.mp3","null","audio-keyboard-response","389","2.1.0","398539","F=YES, J=NO","azmgo5o9m1","2","73","75","70","","","","","","","","","","","","","","","",""
"null","audio/skin1.wav","null","audio-keyboard-response","390","2.1.0","399139","F=YES, J=NO","azmgo5o9m1","2","73","75","70","","","","","","","","","","","","","","","",""
"571","
          <p id=""word"" style=""font-size: 40px;"">expose</p>
          <p style=""font-size: 16px;"">F = YES &nbsp;&nbsp;&nbsp; J = NO</p>
        ","f","html-keyboard-response","391","2.1.0","399710","F=YES, J=NO","azmgo5o9m1","2","73","75","70","","","","","","","","","expose","skin1","literal","experimental","f","true","",""
