"rt","stimulus","response","trial_type","trial_index","plugin_version","time_elapsed","response_mapping","subject_id","list_index","lextale_score","lextale_word_score","lextale_nonword_score","success","timeout","failed_images","failed_audio","failed_video","task","isWord","isDummy","target","prime","prime_type","stimulus_type","correct_response","correct","section","question_order"
"5189","
    <div style=""max-width: 800px; margin: auto; text-align: left;"">
      <h2>STANFORD UNIVERSITY</h2>
      <h3>Research Information Sheet</h3>
      <p><strong>Protocol Director:</strong> Robert Hawkins<br>
      <strong>Protocol Title:</strong> Communication and social cognition in natural audiovisual contexts<br>
      <strong>IRB#:</strong> 77226</p>

      <p><strong>DESCRIPTION:</strong> You are invited to participate in a research study about language and communication. The purpose of the research is to understand how you interact and communicate with other people in naturalistic settings as a fluent English speaker. This research will be conducted through the Prolific platform, including participants from the US, UK, and Canada. If you decide to participate in this research, you will play a communication game in a group with one or more partners.</p>

      <p><strong>TIME INVOLVEMENT:</strong> The task will last the amount of time advertised on Prolific. You are free to withdraw from the study at any time.</p>

      <p><strong>RISKS AND BENEFITS:</strong> You may become frustrated if your partner gets distracted, or experience discomfort if other participants in your group send text that is inappropriate for the task. We ask you to please be respectful of other participants you might be interacting with to mitigate these risks. You may also experience discomfort when being asked to discuss or challenge emotionally salient political beliefs. Study data will be stored securely, in compliance with Stanford University standards, minimizing the risk of confidentiality breach. This study advances our scientific understanding of how people communicate and collaborate in naturalistic settings. This study may lead to further insights about what can go wrong in teamwork, suggest potential interventions to overcome these barriers, and help to develop assistive technologies that collaborate with human partners. We cannot and do not guarantee or promise that you will receive any benefits from this study.</p>

      <p><strong>PAYMENTS:</strong> You will receive payment in the amount advertised on Prolific. If you do not complete this study, you will receive prorated payment based on the time that you have spent. Additionally, you may be eligible for bonus payments as described in the instructions.</p>

      <p><strong>PARTICIPANT’S RIGHTS:</strong> If you have read this form and have decided to participate in this project, please understand your participation is voluntary and you have the right to withdraw your consent or discontinue participation at any time without penalty or loss of benefits to which you are otherwise entitled. The alternative is not to participate. You have the right to refuse to answer particular questions. The results of this research study may be presented at scientific or professional meetings or published in scientific journals. Your individual privacy will be maintained in all published and written data resulting from the study. In accordance with scientific norms, the data from this study may be used or shared with other researchers for future research (after removing personally identifying information) without additional consent from you.</p>

      <p><strong>CONTACT INFORMATION:</strong><br>
      Questions: If you have any questions, concerns or complaints about this research, its procedures, risks and benefits, contact the Protocol Director, Robert Hawkins (<a href=""mailto:rdhawkins@stanford.edu"">rdhawkins@stanford.edu</a>, 217-549-6923).<br>
      Independent Contact: If you are not satisfied with how this study is being conducted, or if you have any concerns, complaints, or general questions about the research or your rights as a participant, please contact the Stanford Institutional Review Board (IRB) to speak to someone independent of the research team at 650-723-2480 or toll free at 1-866-680-2906, or email at <a href=""mailto:irbnon-med@stanford.edu"">irbnon-med@stanford.edu</a>. You can also write to the Stanford IRB, Stanford University, 1705 El Camino Real, Palo Alto, CA 94306.</p>

      <p><strong>Please save or print a copy of this page for your records.</strong></p>
      <p>If you agree to participate in this research, click ""Continue"" below.</p>
    </div>
  ","0","html-button-response","0","2.1.0","5223","J=YES, F=NO","bpvjy55b5b","1","74","83","65","","","","","","","","","","","","","","","",""
"7062","
    <div style=""max-width: 800px; margin: auto; text-align: left;"">
      <h2>Welcome!</h2>
      <p>Thank you for participating in this study. The experiment consists of three parts:</p>
      <ol>
        <li>An English vocabulary test</li>
        <li>A main task in which you will hear and see words, and decide whether the written word is a real English word</li>
        <li>A brief survey about your background</li>
      </ol>
      <p>Each part will be introduced before it begins.</p>
      <p>Please make sure you are in a quiet environment and can hear audio clearly for the final task.</p>
      <p style=""margin-top: 2em;"">Press any key to begin.</p>
    </div>
  "," ","html-keyboard-response","1","2.1.0","12287","J=YES, F=NO","bpvjy55b5b","1","74","83","65","","","","","","","","","","","","","","","",""
"","","","preload","2","2.1.0","14404","J=YES, F=NO","bpvjy55b5b","1","74","83","65","true","false","[]","[]","[]","","","","","","","","","","",""
"10845","
    <div style=""max-width: 800px; margin: auto; text-align: left;"">
      <h2>Part 1: Vocabulary Test</h2>
      <p>You will now complete the first part of the study: a short English vocabulary test.</p>
      <p>This test is called <strong>LexTALE</strong> and helps us get a general sense of your English proficiency.</p>
      <p style=""margin-top: 2em;"">Press any key to continue.</p>
    </div>
  "," ","html-keyboard-response","3","2.1.0","25249","J=YES, F=NO","bpvjy55b5b","1","74","83","65","","","","","","","","","","","","","","","",""
"19402","
    <div style=""max-width: 800px; margin: auto; text-align: left;"">
      <h2>LexTALE Vocabulary Test</h2>
      <p>In this test, you will see a series of letter strings—one at a time.</p>
      <p>Your task is to decide whether each string is a real English word.</p>
      <p><strong>Key responses:</strong></p>
      <ul>
        <li><strong>J</strong> = YES (real English word)</li>
        <li><strong>F</strong> = NO (not a real English word)</li>
      </ul>
      <p>There is no time limit, but please try to be accurate.</p>
      <p style=""margin-top: 2em;"">Press any key to begin.</p>
    </div>
  "," ","html-keyboard-response","4","2.1.0","44652","J=YES, F=NO","bpvjy55b5b","1","74","83","65","","","","","","","","","","","","","","","",""
"3241","
  <p style=""font-size: 40px;"">platery</p>
  <p style=""font-size: 16px;"">J = YES &nbsp;&nbsp;&nbsp; F = NO</p>
","j","html-keyboard-response","5","2.1.0","47895","J=YES, F=NO","bpvjy55b5b","1","74","83","65","","","","","","lextale","false","true","","","","","","","",""
"1200","
  <p style=""font-size: 40px;"">denial</p>
  <p style=""font-size: 16px;"">J = YES &nbsp;&nbsp;&nbsp; F = NO</p>
","j","html-keyboard-response","6","2.1.0","49095","J=YES, F=NO","bpvjy55b5b","1","74","83","65","","","","","","lextale","true","true","","","","","","","",""
"3298","
  <p style=""font-size: 40px;"">marrit</p>
  <p style=""font-size: 16px;"">J = YES &nbsp;&nbsp;&nbsp; F = NO</p>
","f","html-keyboard-response","7","2.1.0","52394","J=YES, F=NO","bpvjy55b5b","1","74","83","65","","","","","","lextale","false","true","","","","","","","",""
"2556","
  <p style=""font-size: 40px;"">bottle</p>
  <p style=""font-size: 16px;"">J = YES &nbsp;&nbsp;&nbsp; F = NO</p>
","j","html-keyboard-response","8","2.1.0","54952","J=YES, F=NO","bpvjy55b5b","1","74","83","65","","","","","","lextale","true","false","","","","","","","",""
"1522","
  <p style=""font-size: 40px;"">birst</p>
  <p style=""font-size: 16px;"">J = YES &nbsp;&nbsp;&nbsp; F = NO</p>
","f","html-keyboard-response","9","2.1.0","56475","J=YES, F=NO","bpvjy55b5b","1","74","83","65","","","","","","lextale","false","false","","","","","","","",""
"1996","
  <p style=""font-size: 40px;"">envy</p>
  <p style=""font-size: 16px;"">J = YES &nbsp;&nbsp;&nbsp; F = NO</p>
","j","html-keyboard-response","10","2.1.0","58471","J=YES, F=NO","bpvjy55b5b","1","74","83","65","","","","","","lextale","true","false","","","","","","","",""
"5056","
  <p style=""font-size: 40px;"">brang</p>
  <p style=""font-size: 16px;"">J = YES &nbsp;&nbsp;&nbsp; F = NO</p>
","f","html-keyboard-response","11","2.1.0","63528","J=YES, F=NO","bpvjy55b5b","1","74","83","65","","","","","","lextale","false","false","","","","","","","",""
"1099","
  <p style=""font-size: 40px;"">huge</p>
  <p style=""font-size: 16px;"">J = YES &nbsp;&nbsp;&nbsp; F = NO</p>
","j","html-keyboard-response","12","2.1.0","64627","J=YES, F=NO","bpvjy55b5b","1","74","83","65","","","","","","lextale","true","false","","","","","","","",""
"2605","
  <p style=""font-size: 40px;"">plove</p>
  <p style=""font-size: 16px;"">J = YES &nbsp;&nbsp;&nbsp; F = NO</p>
","j","html-keyboard-response","13","2.1.0","67233","J=YES, F=NO","bpvjy55b5b","1","74","83","65","","","","","","lextale","false","false","","","","","","","",""
"1170","
  <p style=""font-size: 40px;"">border</p>
  <p style=""font-size: 16px;"">J = YES &nbsp;&nbsp;&nbsp; F = NO</p>
","j","html-keyboard-response","14","2.1.0","68403","J=YES, F=NO","bpvjy55b5b","1","74","83","65","","","","","","lextale","true","false","","","","","","","",""
"1353","
  <p style=""font-size: 40px;"">flimsy</p>
  <p style=""font-size: 16px;"">J = YES &nbsp;&nbsp;&nbsp; F = NO</p>
","j","html-keyboard-response","15","2.1.0","69757","J=YES, F=NO","bpvjy55b5b","1","74","83","65","","","","","","lextale","true","false","","","","","","","",""
"972","
  <p style=""font-size: 40px;"">drain</p>
  <p style=""font-size: 16px;"">J = YES &nbsp;&nbsp;&nbsp; F = NO</p>
","j","html-keyboard-response","16","2.1.0","70729","J=YES, F=NO","bpvjy55b5b","1","74","83","65","","","","","","lextale","true","false","","","","","","","",""
"2460","
  <p style=""font-size: 40px;"">twindle</p>
  <p style=""font-size: 16px;"">J = YES &nbsp;&nbsp;&nbsp; F = NO</p>
","f","html-keyboard-response","17","2.1.0","73190","J=YES, F=NO","bpvjy55b5b","1","74","83","65","","","","","","lextale","false","false","","","","","","","",""
"1139","
  <p style=""font-size: 40px;"">propose</p>
  <p style=""font-size: 16px;"">J = YES &nbsp;&nbsp;&nbsp; F = NO</p>
","j","html-keyboard-response","18","2.1.0","74330","J=YES, F=NO","bpvjy55b5b","1","74","83","65","","","","","","lextale","true","false","","","","","","","",""
"1469","
  <p style=""font-size: 40px;"">forlay</p>
  <p style=""font-size: 16px;"">J = YES &nbsp;&nbsp;&nbsp; F = NO</p>
","j","html-keyboard-response","19","2.1.0","75799","J=YES, F=NO","bpvjy55b5b","1","74","83","65","","","","","","lextale","false","false","","","","","","","",""
"1927","
  <p style=""font-size: 40px;"">tenant</p>
  <p style=""font-size: 16px;"">J = YES &nbsp;&nbsp;&nbsp; F = NO</p>
","j","html-keyboard-response","20","2.1.0","77726","J=YES, F=NO","bpvjy55b5b","1","74","83","65","","","","","","lextale","true","false","","","","","","","",""
"1696","
  <p style=""font-size: 40px;"">strain</p>
  <p style=""font-size: 16px;"">J = YES &nbsp;&nbsp;&nbsp; F = NO</p>
","j","html-keyboard-response","21","2.1.0","79423","J=YES, F=NO","bpvjy55b5b","1","74","83","65","","","","","","lextale","true","false","","","","","","","",""
"4204","
  <p style=""font-size: 40px;"">holster</p>
  <p style=""font-size: 16px;"">J = YES &nbsp;&nbsp;&nbsp; F = NO</p>
","f","html-keyboard-response","22","2.1.0","83628","J=YES, F=NO","bpvjy55b5b","1","74","83","65","","","","","","lextale","true","false","","","","","","","",""
"1233","
  <p style=""font-size: 40px;"">hinder</p>
  <p style=""font-size: 16px;"">J = YES &nbsp;&nbsp;&nbsp; F = NO</p>
","j","html-keyboard-response","23","2.1.0","84862","J=YES, F=NO","bpvjy55b5b","1","74","83","65","","","","","","lextale","true","false","","","","","","","",""
"1552","
  <p style=""font-size: 40px;"">swindle</p>
  <p style=""font-size: 16px;"">J = YES &nbsp;&nbsp;&nbsp; F = NO</p>
","j","html-keyboard-response","24","2.1.0","86414","J=YES, F=NO","bpvjy55b5b","1","74","83","65","","","","","","lextale","true","false","","","","","","","",""
"1187","
  <p style=""font-size: 40px;"">nuder</p>
  <p style=""font-size: 16px;"">J = YES &nbsp;&nbsp;&nbsp; F = NO</p>
","f","html-keyboard-response","25","2.1.0","87601","J=YES, F=NO","bpvjy55b5b","1","74","83","65","","","","","","lextale","false","false","","","","","","","",""
"886","
  <p style=""font-size: 40px;"">pillow</p>
  <p style=""font-size: 16px;"">J = YES &nbsp;&nbsp;&nbsp; F = NO</p>
","j","html-keyboard-response","26","2.1.0","88488","J=YES, F=NO","bpvjy55b5b","1","74","83","65","","","","","","lextale","true","false","","","","","","","",""
"2187","
  <p style=""font-size: 40px;"">shumble</p>
  <p style=""font-size: 16px;"">J = YES &nbsp;&nbsp;&nbsp; F = NO</p>
","j","html-keyboard-response","27","2.1.0","90676","J=YES, F=NO","bpvjy55b5b","1","74","83","65","","","","","","lextale","false","false","","","","","","","",""
"760","
  <p style=""font-size: 40px;"">thirst</p>
  <p style=""font-size: 16px;"">J = YES &nbsp;&nbsp;&nbsp; F = NO</p>
","j","html-keyboard-response","28","2.1.0","91437","J=YES, F=NO","bpvjy55b5b","1","74","83","65","","","","","","lextale","true","false","","","","","","","",""
"938","
  <p style=""font-size: 40px;"">unsail</p>
  <p style=""font-size: 16px;"">J = YES &nbsp;&nbsp;&nbsp; F = NO</p>
","f","html-keyboard-response","29","2.1.0","92376","J=YES, F=NO","bpvjy55b5b","1","74","83","65","","","","","","lextale","false","false","","","","","","","",""
"4141","
  <p style=""font-size: 40px;"">rifle</p>
  <p style=""font-size: 16px;"">J = YES &nbsp;&nbsp;&nbsp; F = NO</p>
","j","html-keyboard-response","30","2.1.0","96517","J=YES, F=NO","bpvjy55b5b","1","74","83","65","","","","","","lextale","true","false","","","","","","","",""
"1332","
  <p style=""font-size: 40px;"">mush</p>
  <p style=""font-size: 16px;"">J = YES &nbsp;&nbsp;&nbsp; F = NO</p>
","j","html-keyboard-response","31","2.1.0","97850","J=YES, F=NO","bpvjy55b5b","1","74","83","65","","","","","","lextale","false","false","","","","","","","",""
"866","
  <p style=""font-size: 40px;"">drench</p>
  <p style=""font-size: 16px;"">J = YES &nbsp;&nbsp;&nbsp; F = NO</p>
","j","html-keyboard-response","32","2.1.0","98716","J=YES, F=NO","bpvjy55b5b","1","74","83","65","","","","","","lextale","true","false","","","","","","","",""
"980","
  <p style=""font-size: 40px;"">snirt</p>
  <p style=""font-size: 16px;"">J = YES &nbsp;&nbsp;&nbsp; F = NO</p>
","f","html-keyboard-response","33","2.1.0","99697","J=YES, F=NO","bpvjy55b5b","1","74","83","65","","","","","","lextale","false","false","","","","","","","",""
"931","
  <p style=""font-size: 40px;"">bitter</p>
  <p style=""font-size: 16px;"">J = YES &nbsp;&nbsp;&nbsp; F = NO</p>
","j","html-keyboard-response","34","2.1.0","100628","J=YES, F=NO","bpvjy55b5b","1","74","83","65","","","","","","lextale","true","false","","","","","","","",""
"858","
  <p style=""font-size: 40px;"">pliff</p>
  <p style=""font-size: 16px;"">J = YES &nbsp;&nbsp;&nbsp; F = NO</p>
","f","html-keyboard-response","35","2.1.0","101487","J=YES, F=NO","bpvjy55b5b","1","74","83","65","","","","","","lextale","false","false","","","","","","","",""
"834","
  <p style=""font-size: 40px;"">tablet</p>
  <p style=""font-size: 16px;"">J = YES &nbsp;&nbsp;&nbsp; F = NO</p>
","j","html-keyboard-response","36","2.1.0","102322","J=YES, F=NO","bpvjy55b5b","1","74","83","65","","","","","","lextale","true","false","","","","","","","",""
"815","
  <p style=""font-size: 40px;"">glimmer</p>
  <p style=""font-size: 16px;"">J = YES &nbsp;&nbsp;&nbsp; F = NO</p>
","j","html-keyboard-response","37","2.1.0","103138","J=YES, F=NO","bpvjy55b5b","1","74","83","65","","","","","","lextale","true","false","","","","","","","",""
"1716","
  <p style=""font-size: 40px;"">slink</p>
  <p style=""font-size: 16px;"">J = YES &nbsp;&nbsp;&nbsp; F = NO</p>
","j","html-keyboard-response","38","2.1.0","104854","J=YES, F=NO","bpvjy55b5b","1","74","83","65","","","","","","lextale","true","false","","","","","","","",""
"1795","
  <p style=""font-size: 40px;"">clever</p>
  <p style=""font-size: 16px;"">J = YES &nbsp;&nbsp;&nbsp; F = NO</p>
","j","html-keyboard-response","39","2.1.0","106650","J=YES, F=NO","bpvjy55b5b","1","74","83","65","","","","","","lextale","true","false","","","","","","","",""
"1019","
  <p style=""font-size: 40px;"">grum</p>
  <p style=""font-size: 16px;"">J = YES &nbsp;&nbsp;&nbsp; F = NO</p>
","f","html-keyboard-response","40","2.1.0","107670","J=YES, F=NO","bpvjy55b5b","1","74","83","65","","","","","","lextale","false","false","","","","","","","",""
"1403","
  <p style=""font-size: 40px;"">string</p>
  <p style=""font-size: 16px;"">J = YES &nbsp;&nbsp;&nbsp; F = NO</p>
","j","html-keyboard-response","41","2.1.0","109073","J=YES, F=NO","bpvjy55b5b","1","74","83","65","","","","","","lextale","true","false","","","","","","","",""
"955","
  <p style=""font-size: 40px;"">plim</p>
  <p style=""font-size: 16px;"">J = YES &nbsp;&nbsp;&nbsp; F = NO</p>
","f","html-keyboard-response","42","2.1.0","110029","J=YES, F=NO","bpvjy55b5b","1","74","83","65","","","","","","lextale","false","false","","","","","","","",""
"916","
  <p style=""font-size: 40px;"">cable</p>
  <p style=""font-size: 16px;"">J = YES &nbsp;&nbsp;&nbsp; F = NO</p>
","j","html-keyboard-response","43","2.1.0","110945","J=YES, F=NO","bpvjy55b5b","1","74","83","65","","","","","","lextale","true","false","","","","","","","",""
"3666","
  <p style=""font-size: 40px;"">shrivel</p>
  <p style=""font-size: 16px;"">J = YES &nbsp;&nbsp;&nbsp; F = NO</p>
","j","html-keyboard-response","44","2.1.0","114612","J=YES, F=NO","bpvjy55b5b","1","74","83","65","","","","","","lextale","true","false","","","","","","","",""
"805","
  <p style=""font-size: 40px;"">tarnish</p>
  <p style=""font-size: 16px;"">J = YES &nbsp;&nbsp;&nbsp; F = NO</p>
","j","html-keyboard-response","45","2.1.0","115418","J=YES, F=NO","bpvjy55b5b","1","74","83","65","","","","","","lextale","true","false","","","","","","","",""
"838","
  <p style=""font-size: 40px;"">blim</p>
  <p style=""font-size: 16px;"">J = YES &nbsp;&nbsp;&nbsp; F = NO</p>
","f","html-keyboard-response","46","2.1.0","116257","J=YES, F=NO","bpvjy55b5b","1","74","83","65","","","","","","lextale","false","false","","","","","","","",""
"2123","
  <p style=""font-size: 40px;"">stifle</p>
  <p style=""font-size: 16px;"">J = YES &nbsp;&nbsp;&nbsp; F = NO</p>
","j","html-keyboard-response","47","2.1.0","118380","J=YES, F=NO","bpvjy55b5b","1","74","83","65","","","","","","lextale","true","false","","","","","","","",""
"1766","
  <p style=""font-size: 40px;"">bint</p>
  <p style=""font-size: 16px;"">J = YES &nbsp;&nbsp;&nbsp; F = NO</p>
","f","html-keyboard-response","48","2.1.0","120147","J=YES, F=NO","bpvjy55b5b","1","74","83","65","","","","","","lextale","false","false","","","","","","","",""
"3058","
  <p style=""font-size: 40px;"">purple</p>
  <p style=""font-size: 16px;"">J = YES &nbsp;&nbsp;&nbsp; F = NO</p>
","j","html-keyboard-response","49","2.1.0","123206","J=YES, F=NO","bpvjy55b5b","1","74","83","65","","","","","","lextale","true","false","","","","","","","",""
"1719","
  <p style=""font-size: 40px;"">wriggle</p>
  <p style=""font-size: 16px;"">J = YES &nbsp;&nbsp;&nbsp; F = NO</p>
","j","html-keyboard-response","50","2.1.0","124925","J=YES, F=NO","bpvjy55b5b","1","74","83","65","","","","","","lextale","true","false","","","","","","","",""
"4206","
  <p style=""font-size: 40px;"">mangle</p>
  <p style=""font-size: 16px;"">J = YES &nbsp;&nbsp;&nbsp; F = NO</p>
","j","html-keyboard-response","51","2.1.0","129132","J=YES, F=NO","bpvjy55b5b","1","74","83","65","","","","","","lextale","true","false","","","","","","","",""
"1370","
  <p style=""font-size: 40px;"">shramp</p>
  <p style=""font-size: 16px;"">J = YES &nbsp;&nbsp;&nbsp; F = NO</p>
","f","html-keyboard-response","52","2.1.0","130503","J=YES, F=NO","bpvjy55b5b","1","74","83","65","","","","","","lextale","false","false","","","","","","","",""
"830","
  <p style=""font-size: 40px;"">flirt</p>
  <p style=""font-size: 16px;"">J = YES &nbsp;&nbsp;&nbsp; F = NO</p>
","j","html-keyboard-response","53","2.1.0","131334","J=YES, F=NO","bpvjy55b5b","1","74","83","65","","","","","","lextale","true","false","","","","","","","",""
"990","
  <p style=""font-size: 40px;"">frip</p>
  <p style=""font-size: 16px;"">J = YES &nbsp;&nbsp;&nbsp; F = NO</p>
","f","html-keyboard-response","54","2.1.0","132325","J=YES, F=NO","bpvjy55b5b","1","74","83","65","","","","","","lextale","false","false","","","","","","","",""
"826","
  <p style=""font-size: 40px;"">tangle</p>
  <p style=""font-size: 16px;"">J = YES &nbsp;&nbsp;&nbsp; F = NO</p>
","j","html-keyboard-response","55","2.1.0","133152","J=YES, F=NO","bpvjy55b5b","1","74","83","65","","","","","","lextale","true","false","","","","","","","",""
"719","
  <p style=""font-size: 40px;"">crumble</p>
  <p style=""font-size: 16px;"">J = YES &nbsp;&nbsp;&nbsp; F = NO</p>
","j","html-keyboard-response","56","2.1.0","133871","J=YES, F=NO","bpvjy55b5b","1","74","83","65","","","","","","lextale","true","false","","","","","","","",""
"858","
  <p style=""font-size: 40px;"">wrinkle</p>
  <p style=""font-size: 16px;"">J = YES &nbsp;&nbsp;&nbsp; F = NO</p>
","j","html-keyboard-response","57","2.1.0","134730","J=YES, F=NO","bpvjy55b5b","1","74","83","65","","","","","","lextale","true","false","","","","","","","",""
"1841","
  <p style=""font-size: 40px;"">slumb</p>
  <p style=""font-size: 16px;"">J = YES &nbsp;&nbsp;&nbsp; F = NO</p>
","j","html-keyboard-response","58","2.1.0","136571","J=YES, F=NO","bpvjy55b5b","1","74","83","65","","","","","","lextale","false","false","","","","","","","",""
"1746","
  <p style=""font-size: 40px;"">jungle</p>
  <p style=""font-size: 16px;"">J = YES &nbsp;&nbsp;&nbsp; F = NO</p>
","j","html-keyboard-response","59","2.1.0","138318","J=YES, F=NO","bpvjy55b5b","1","74","83","65","","","","","","lextale","true","false","","","","","","","",""
"1247","
  <p style=""font-size: 40px;"">frolick</p>
  <p style=""font-size: 16px;"">J = YES &nbsp;&nbsp;&nbsp; F = NO</p>
","j","html-keyboard-response","60","2.1.0","139565","J=YES, F=NO","bpvjy55b5b","1","74","83","65","","","","","","lextale","false","false","","","","","","","",""
"3218","
      <h2>LexTALE Test Completed</h2>
      <p>Your LexTALE vocabulary score is: <strong>74%</strong></p>
      <p>Press any key to continue.</p>
    "," ","html-keyboard-response","61","2.1.0","142784","J=YES, F=NO","bpvjy55b5b","1","74","83","65","","","","","","","","","","","","","","","",""
"6080","
    <div style=""max-width: 800px; margin: auto; text-align: left;"">
      <h2>Break Time</h2>
      <p>You have completed the first part of the study.</p>
      <p>You may take a short <strong>30-second break</strong> before continuing.</p>
      <p>When you’re ready, press any key to continue to the final task.</p>
    </div>
  "," ","html-keyboard-response","62","2.1.0","148865","J=YES, F=NO","bpvjy55b5b","1","74","83","65","","","","","","","","","","","","","","","",""
"12180","
    <div style=""max-width: 800px; margin: auto; text-align: left;"">
      <h2>Part 2: Lexical Decision Task</h2>
      <p>You will now begin the second part of the study.</p>
      <p>Each trial will follow this sequence:</p>
      <ul>
        <li>A fixation cross (+) appears at the center of the screen.</li>
        <li>You will hear a short beep followed by a spoken word.</li>
        <li>A written word will appear briefly on the screen.</li>
      </ul>
      <p>Your task is to judge whether the <strong>written word</strong> is a real English word.</p>
      <p style=""margin-top: 1em;""><strong>Key responses:</strong></p>
      <ul>
        <li><strong>J</strong> = YES (real English word)</li>
        <li><strong>F</strong> = NO (not a real English word)</li>
      </ul>
      <p>Please respond as quickly and accurately as you can.</p>
      <p style=""margin-top: 2em;"">Press any key to continue.</p>
    </div>
  ","AudioVolumeUp","html-keyboard-response","63","2.1.0","161045","J=YES, F=NO","bpvjy55b5b","1","74","83","65","","","","","","","","","","","","","","","",""
"12574","
    <div style=""max-width: 800px; margin: auto; text-align: left;"">
      <h2>Before You Begin</h2>
      <p>Make sure your sound is turned on.</p>
      <p>You will hear audio during each trial, but your decision should be based only on the <strong>written word</strong> you see on the screen.</p>
      <p><strong>Reminder:</strong></p>
      <ul>
        <li><strong>J</strong> = YES (real English word)</li>
        <li><strong>F</strong> = NO (not a real English word)</li>
      </ul>
      <p style=""margin-top: 2em;"">Press any key when you are ready to begin.</p>
    </div>
  ","AudioVolumeUp","html-keyboard-response","64","2.1.0","173620","J=YES, F=NO","bpvjy55b5b","1","74","83","65","","","","","","","","","","","","","","","",""
"231","
    <div style=""max-width: 800px; margin: auto; text-align: left;"">
      <h2>Part 2: Practice Trials</h2>
      <p>You will now complete a few <strong>practice trials</strong> to get familiar with the task.</p>
      <p>These trials are <strong>not scored</strong> and are only to help you get used to the format.</p>
      <p style=""margin-top: 2em;"">Press any key to begin.</p>
    </div>
  ","AudioVolumeUp","html-keyboard-response","65","2.1.0","173852","J=YES, F=NO","bpvjy55b5b","1","74","83","65","","","","","","","","","","","","","","","",""
"5313","<p>Starting practice block 1 of 2. Press any key to continue.</p>"," ","html-keyboard-response","66","2.1.0","179166","J=YES, F=NO","bpvjy55b5b","1","74","83","65","","","","","","","","","","","","","","","",""
"null","<p style=""font-size: 50px;"">+</p>","null","html-keyboard-response","67","2.1.0","179474","J=YES, F=NO","bpvjy55b5b","1","74","83","65","","","","","","","","","","","","","","","",""
"null","audio/beep-329314.mp3","null","audio-keyboard-response","68","2.1.0","181018","J=YES, F=NO","bpvjy55b5b","1","74","83","65","","","","","","","","","","","","","","","",""
"null","audio/flaw.wav","null","audio-keyboard-response","69","2.1.0","181908","J=YES, F=NO","bpvjy55b5b","1","74","83","65","","","","","","","","","","","","","","","",""
"null","
          <p id=""word"" style=""font-size: 40px;"">thwool</p>
          <p style=""font-size: 16px;"">J = YES &nbsp;&nbsp;&nbsp; F = NO</p>
        ","null","html-keyboard-response","70","2.1.0","183416","J=YES, F=NO","bpvjy55b5b","1","74","83","65","","","","","","","","","thwool","flaw","pseudoword","pseudoword","f","false","",""
"null","<p style=""font-size: 50px;"">+</p>","null","html-keyboard-response","71","2.1.0","183727","J=YES, F=NO","bpvjy55b5b","1","74","83","65","","","","","","","","","","","","","","","",""
"null","audio/beep-329314.mp3","null","audio-keyboard-response","72","2.1.0","185257","J=YES, F=NO","bpvjy55b5b","1","74","83","65","","","","","","","","","","","","","","","",""
"null","audio/purpose.wav","null","audio-keyboard-response","73","2.1.0","186048","J=YES, F=NO","bpvjy55b5b","1","74","83","65","","","","","","","","","","","","","","","",""
"1376","
          <p id=""word"" style=""font-size: 40px;"">whigm</p>
          <p style=""font-size: 16px;"">J = YES &nbsp;&nbsp;&nbsp; F = NO</p>
        ","j","html-keyboard-response","74","2.1.0","187425","J=YES, F=NO","bpvjy55b5b","1","74","83","65","","","","","","","","","whigm","purpose","pseudoword","pseudoword","f","false","",""
"null","<p style=""font-size: 50px;"">+</p>","null","html-keyboard-response","75","2.1.0","187726","J=YES, F=NO","bpvjy55b5b","1","74","83","65","","","","","","","","","","","","","","","",""
"null","audio/beep-329314.mp3","null","audio-keyboard-response","76","2.1.0","189257","J=YES, F=NO","bpvjy55b5b","1","74","83","65","","","","","","","","","","","","","","","",""
"null","audio/arm.wav","null","audio-keyboard-response","77","2.1.0","189808","J=YES, F=NO","bpvjy55b5b","1","74","83","65","","","","","","","","","","","","","","","",""
"1405","
          <p id=""word"" style=""font-size: 40px;"">fold</p>
          <p style=""font-size: 16px;"">J = YES &nbsp;&nbsp;&nbsp; F = NO</p>
        ","j","html-keyboard-response","78","2.1.0","191213","J=YES, F=NO","bpvjy55b5b","1","74","83","65","","","","","","","","","fold","arm","filler","filler","j","true","",""
"null","<p style=""font-size: 50px;"">+</p>","null","html-keyboard-response","79","2.1.0","191526","J=YES, F=NO","bpvjy55b5b","1","74","83","65","","","","","","","","","","","","","","","",""
"null","audio/beep-329314.mp3","null","audio-keyboard-response","80","2.1.0","193058","J=YES, F=NO","bpvjy55b5b","1","74","83","65","","","","","","","","","","","","","","","",""
"null","audio/burden.wav","null","audio-keyboard-response","81","2.1.0","193567","J=YES, F=NO","bpvjy55b5b","1","74","83","65","","","","","","","","","","","","","","","",""
"1500","
          <p id=""word"" style=""font-size: 40px;"">whotth</p>
          <p style=""font-size: 16px;"">J = YES &nbsp;&nbsp;&nbsp; F = NO</p>
        ","f","html-keyboard-response","82","2.1.0","195068","J=YES, F=NO","bpvjy55b5b","1","74","83","65","","","","","","","","","whotth","burden","pseudoword","pseudoword","f","true","",""
"null","<p style=""font-size: 50px;"">+</p>","null","html-keyboard-response","83","2.1.0","195376","J=YES, F=NO","bpvjy55b5b","1","74","83","65","","","","","","","","","","","","","","","",""
"null","audio/beep-329314.mp3","null","audio-keyboard-response","84","2.1.0","196917","J=YES, F=NO","bpvjy55b5b","1","74","83","65","","","","","","","","","","","","","","","",""
"null","audio/foe1.wav","null","audio-keyboard-response","85","2.1.0","197508","J=YES, F=NO","bpvjy55b5b","1","74","83","65","","","","","","","","","","","","","","","",""
"1229","
          <p id=""word"" style=""font-size: 40px;"">creth</p>
          <p style=""font-size: 16px;"">J = YES &nbsp;&nbsp;&nbsp; F = NO</p>
        ","f","html-keyboard-response","86","2.1.0","198737","J=YES, F=NO","bpvjy55b5b","1","74","83","65","","","","","","","","","creth","foe1","pseudoword","pseudoword","f","true","",""
"null","<p style=""font-size: 50px;"">+</p>","null","html-keyboard-response","87","2.1.0","199052","J=YES, F=NO","bpvjy55b5b","1","74","83","65","","","","","","","","","","","","","","","",""
"null","audio/beep-329314.mp3","null","audio-keyboard-response","88","2.1.0","200578","J=YES, F=NO","bpvjy55b5b","1","74","83","65","","","","","","","","","","","","","","","",""
"null","audio/belief.wav","null","audio-keyboard-response","89","2.1.0","201307","J=YES, F=NO","bpvjy55b5b","1","74","83","65","","","","","","","","","","","","","","","",""
"1206","
          <p id=""word"" style=""font-size: 40px;"">read</p>
          <p style=""font-size: 16px;"">J = YES &nbsp;&nbsp;&nbsp; F = NO</p>
        ","j","html-keyboard-response","90","2.1.0","202514","J=YES, F=NO","bpvjy55b5b","1","74","83","65","","","","","","","","","read","belief","filler","filler","j","true","",""
"null","<p style=""font-size: 50px;"">+</p>","null","html-keyboard-response","91","2.1.0","202826","J=YES, F=NO","bpvjy55b5b","1","74","83","65","","","","","","","","","","","","","","","",""
"null","audio/beep-329314.mp3","null","audio-keyboard-response","92","2.1.0","204357","J=YES, F=NO","bpvjy55b5b","1","74","83","65","","","","","","","","","","","","","","","",""
"null","audio/holiday1.wav","null","audio-keyboard-response","93","2.1.0","205087","J=YES, F=NO","bpvjy55b5b","1","74","83","65","","","","","","","","","","","","","","","",""
"1252","
          <p id=""word"" style=""font-size: 40px;"">drivets</p>
          <p style=""font-size: 16px;"">J = YES &nbsp;&nbsp;&nbsp; F = NO</p>
        ","j","html-keyboard-response","94","2.1.0","206339","J=YES, F=NO","bpvjy55b5b","1","74","83","65","","","","","","","","","drivets","holiday1","pseudoword","pseudoword","f","false","",""
"null","<p style=""font-size: 50px;"">+</p>","null","html-keyboard-response","95","2.1.0","206656","J=YES, F=NO","bpvjy55b5b","1","74","83","65","","","","","","","","","","","","","","","",""
"null","audio/beep-329314.mp3","null","audio-keyboard-response","96","2.1.0","208178","J=YES, F=NO","bpvjy55b5b","1","74","83","65","","","","","","","","","","","","","","","",""
"null","audio/trust.wav","null","audio-keyboard-response","97","2.1.0","208808","J=YES, F=NO","bpvjy55b5b","1","74","83","65","","","","","","","","","","","","","","","",""
"1467","
          <p id=""word"" style=""font-size: 40px;"">swint</p>
          <p style=""font-size: 16px;"">J = YES &nbsp;&nbsp;&nbsp; F = NO</p>
        ","f","html-keyboard-response","98","2.1.0","210276","J=YES, F=NO","bpvjy55b5b","1","74","83","65","","","","","","","","","swint","trust","pseudoword","pseudoword","f","true","",""
"null","<p style=""font-size: 50px;"">+</p>","null","html-keyboard-response","99","2.1.0","210586","J=YES, F=NO","bpvjy55b5b","1","74","83","65","","","","","","","","","","","","","","","",""
"null","audio/beep-329314.mp3","null","audio-keyboard-response","100","2.1.0","212117","J=YES, F=NO","bpvjy55b5b","1","74","83","65","","","","","","","","","","","","","","","",""
"null","audio/heart1.wav","null","audio-keyboard-response","101","2.1.0","212847","J=YES, F=NO","bpvjy55b5b","1","74","83","65","","","","","","","","","","","","","","","",""
"1190","
          <p id=""word"" style=""font-size: 40px;"">dralm</p>
          <p style=""font-size: 16px;"">J = YES &nbsp;&nbsp;&nbsp; F = NO</p>
        ","f","html-keyboard-response","102","2.1.0","214038","J=YES, F=NO","bpvjy55b5b","1","74","83","65","","","","","","","","","dralm","heart1","pseudoword","pseudoword","f","true","",""
"null","<p style=""font-size: 50px;"">+</p>","null","html-keyboard-response","103","2.1.0","214346","J=YES, F=NO","bpvjy55b5b","1","74","83","65","","","","","","","","","","","","","","","",""
"null","audio/beep-329314.mp3","null","audio-keyboard-response","104","2.1.0","215877","J=YES, F=NO","bpvjy55b5b","1","74","83","65","","","","","","","","","","","","","","","",""
"null","audio/topic.wav","null","audio-keyboard-response","105","2.1.0","216547","J=YES, F=NO","bpvjy55b5b","1","74","83","65","","","","","","","","","","","","","","","",""
"null","
          <p id=""word"" style=""font-size: 40px;"">infortuitist</p>
          <p style=""font-size: 16px;"">J = YES &nbsp;&nbsp;&nbsp; F = NO</p>
        ","null","html-keyboard-response","106","2.1.0","218066","J=YES, F=NO","bpvjy55b5b","1","74","83","65","","","","","","","","","infortuitist","topic","pseudoword","pseudoword","f","false","",""
"null","<p style=""font-size: 50px;"">+</p>","null","html-keyboard-response","107","2.1.0","218385","J=YES, F=NO","bpvjy55b5b","1","74","83","65","","","","","","","","","","","","","","","",""
"null","audio/beep-329314.mp3","null","audio-keyboard-response","108","2.1.0","219918","J=YES, F=NO","bpvjy55b5b","1","74","83","65","","","","","","","","","","","","","","","",""
"null","audio/cave1.wav","null","audio-keyboard-response","109","2.1.0","220467","J=YES, F=NO","bpvjy55b5b","1","74","83","65","","","","","","","","","","","","","","","",""
"1222","
          <p id=""word"" style=""font-size: 40px;"">blacket</p>
          <p style=""font-size: 16px;"">J = YES &nbsp;&nbsp;&nbsp; F = NO</p>
        ","j","html-keyboard-response","110","2.1.0","221690","J=YES, F=NO","bpvjy55b5b","1","74","83","65","","","","","","","","","blacket","cave1","pseudoword","pseudoword","f","false","",""
"null","<p style=""font-size: 50px;"">+</p>","null","html-keyboard-response","111","2.1.0","221993","J=YES, F=NO","bpvjy55b5b","1","74","83","65","","","","","","","","","","","","","","","",""
"null","audio/beep-329314.mp3","null","audio-keyboard-response","112","2.1.0","223518","J=YES, F=NO","bpvjy55b5b","1","74","83","65","","","","","","","","","","","","","","","",""
"null","audio/brain.wav","null","audio-keyboard-response","113","2.1.0","224087","J=YES, F=NO","bpvjy55b5b","1","74","83","65","","","","","","","","","","","","","","","",""
"1297","
          <p id=""word"" style=""font-size: 40px;"">throw</p>
          <p style=""font-size: 16px;"">J = YES &nbsp;&nbsp;&nbsp; F = NO</p>
        ","j","html-keyboard-response","114","2.1.0","225385","J=YES, F=NO","bpvjy55b5b","1","74","83","65","","","","","","","","","throw","brain","filler","filler","j","true","",""
"66958","<p>Starting practice block 2 of 2. Press any key to continue.</p>","f","html-keyboard-response","115","2.1.0","292344","J=YES, F=NO","bpvjy55b5b","1","74","83","65","","","","","","","","","","","","","","","",""
"null","<p style=""font-size: 50px;"">+</p>","null","html-keyboard-response","116","2.1.0","292649","J=YES, F=NO","bpvjy55b5b","1","74","83","65","","","","","","","","","","","","","","","",""
"null","audio/beep-329314.mp3","null","audio-keyboard-response","117","2.1.0","294172","J=YES, F=NO","bpvjy55b5b","1","74","83","65","","","","","","","","","","","","","","","",""
"null","audio/camera1.wav","null","audio-keyboard-response","118","2.1.0","294731","J=YES, F=NO","bpvjy55b5b","1","74","83","65","","","","","","","","","","","","","","","",""
"1507","
          <p id=""word"" style=""font-size: 40px;"">stir</p>
          <p style=""font-size: 16px;"">J = YES &nbsp;&nbsp;&nbsp; F = NO</p>
        ","j","html-keyboard-response","119","2.1.0","296238","J=YES, F=NO","bpvjy55b5b","1","74","83","65","","","","","","","","","stir","camera1","filler","filler","j","true","",""
"null","<p style=""font-size: 50px;"">+</p>","null","html-keyboard-response","120","2.1.0","296549","J=YES, F=NO","bpvjy55b5b","1","74","83","65","","","","","","","","","","","","","","","",""
"null","audio/beep-329314.mp3","null","audio-keyboard-response","121","2.1.0","298071","J=YES, F=NO","bpvjy55b5b","1","74","83","65","","","","","","","","","","","","","","","",""
"null","audio/birth1.wav","null","audio-keyboard-response","122","2.1.0","298731","J=YES, F=NO","bpvjy55b5b","1","74","83","65","","","","","","","","","","","","","","","",""
"942","
          <p id=""word"" style=""font-size: 40px;"">peel</p>
          <p style=""font-size: 16px;"">J = YES &nbsp;&nbsp;&nbsp; F = NO</p>
        ","j","html-keyboard-response","123","2.1.0","299673","J=YES, F=NO","bpvjy55b5b","1","74","83","65","","","","","","","","","peel","birth1","filler","filler","j","true","",""
"null","<p style=""font-size: 50px;"">+</p>","null","html-keyboard-response","124","2.1.0","299979","J=YES, F=NO","bpvjy55b5b","1","74","83","65","","","","","","","","","","","","","","","",""
"null","audio/beep-329314.mp3","null","audio-keyboard-response","125","2.1.0","301511","J=YES, F=NO","bpvjy55b5b","1","74","83","65","","","","","","","","","","","","","","","",""
"null","audio/butter1.wav","null","audio-keyboard-response","126","2.1.0","301951","J=YES, F=NO","bpvjy55b5b","1","74","83","65","","","","","","","","","","","","","","","",""
"818","
          <p id=""word"" style=""font-size: 40px;"">chew</p>
          <p style=""font-size: 16px;"">J = YES &nbsp;&nbsp;&nbsp; F = NO</p>
        ","j","html-keyboard-response","127","2.1.0","302770","J=YES, F=NO","bpvjy55b5b","1","74","83","65","","","","","","","","","chew","butter1","filler","filler","j","true","",""
"null","<p style=""font-size: 50px;"">+</p>","null","html-keyboard-response","128","2.1.0","303079","J=YES, F=NO","bpvjy55b5b","1","74","83","65","","","","","","","","","","","","","","","",""
"null","audio/beep-329314.mp3","null","audio-keyboard-response","129","2.1.0","304611","J=YES, F=NO","bpvjy55b5b","1","74","83","65","","","","","","","","","","","","","","","",""
"null","audio/baby.wav","null","audio-keyboard-response","130","2.1.0","305071","J=YES, F=NO","bpvjy55b5b","1","74","83","65","","","","","","","","","","","","","","","",""
"962","
          <p id=""word"" style=""font-size: 40px;"">lift</p>
          <p style=""font-size: 16px;"">J = YES &nbsp;&nbsp;&nbsp; F = NO</p>
        ","j","html-keyboard-response","131","2.1.0","306033","J=YES, F=NO","bpvjy55b5b","1","74","83","65","","","","","","","","","lift","baby","filler","filler","j","true","",""
"null","<p style=""font-size: 50px;"">+</p>","null","html-keyboard-response","132","2.1.0","306339","J=YES, F=NO","bpvjy55b5b","1","74","83","65","","","","","","","","","","","","","","","",""
"null","audio/beep-329314.mp3","null","audio-keyboard-response","133","2.1.0","307870","J=YES, F=NO","bpvjy55b5b","1","74","83","65","","","","","","","","","","","","","","","",""
"null","audio/menu.wav","null","audio-keyboard-response","134","2.1.0","308511","J=YES, F=NO","bpvjy55b5b","1","74","83","65","","","","","","","","","","","","","","","",""
"null","
          <p id=""word"" style=""font-size: 40px;"">slice</p>
          <p style=""font-size: 16px;"">J = YES &nbsp;&nbsp;&nbsp; F = NO</p>
        ","null","html-keyboard-response","135","2.1.0","310029","J=YES, F=NO","bpvjy55b5b","1","74","83","65","","","","","","","","","slice","menu","filler","filler","j","false","",""
"null","<p style=""font-size: 50px;"">+</p>","null","html-keyboard-response","136","2.1.0","310344","J=YES, F=NO","bpvjy55b5b","1","74","83","65","","","","","","","","","","","","","","","",""
"null","audio/beep-329314.mp3","null","audio-keyboard-response","137","2.1.0","311871","J=YES, F=NO","bpvjy55b5b","1","74","83","65","","","","","","","","","","","","","","","",""
"null","audio/beach1.wav","null","audio-keyboard-response","138","2.1.0","312451","J=YES, F=NO","bpvjy55b5b","1","74","83","65","","","","","","","","","","","","","","","",""
"1480","
          <p id=""word"" style=""font-size: 40px;"">drive</p>
          <p style=""font-size: 16px;"">J = YES &nbsp;&nbsp;&nbsp; F = NO</p>
        ","j","html-keyboard-response","139","2.1.0","313931","J=YES, F=NO","bpvjy55b5b","1","74","83","65","","","","","","","","","drive","beach1","filler","filler","j","true","",""
"null","<p style=""font-size: 50px;"">+</p>","null","html-keyboard-response","140","2.1.0","314239","J=YES, F=NO","bpvjy55b5b","1","74","83","65","","","","","","","","","","","","","","","",""
"null","audio/beep-329314.mp3","null","audio-keyboard-response","141","2.1.0","315771","J=YES, F=NO","bpvjy55b5b","1","74","83","65","","","","","","","","","","","","","","","",""
"null","audio/terrain.wav","null","audio-keyboard-response","142","2.1.0","316351","J=YES, F=NO","bpvjy55b5b","1","74","83","65","","","","","","","","","","","","","","","",""
"null","
          <p id=""word"" style=""font-size: 40px;"">twist</p>
          <p style=""font-size: 16px;"">J = YES &nbsp;&nbsp;&nbsp; F = NO</p>
        ","null","html-keyboard-response","143","2.1.0","317859","J=YES, F=NO","bpvjy55b5b","1","74","83","65","","","","","","","","","twist","terrain","filler","filler","j","false","",""
"null","<p style=""font-size: 50px;"">+</p>","null","html-keyboard-response","144","2.1.0","318169","J=YES, F=NO","bpvjy55b5b","1","74","83","65","","","","","","","","","","","","","","","",""
"null","audio/beep-329314.mp3","null","audio-keyboard-response","145","2.1.0","319691","J=YES, F=NO","bpvjy55b5b","1","74","83","65","","","","","","","","","","","","","","","",""
"null","audio/haste1.wav","null","audio-keyboard-response","146","2.1.0","320370","J=YES, F=NO","bpvjy55b5b","1","74","83","65","","","","","","","","","","","","","","","",""
"823","
          <p id=""word"" style=""font-size: 40px;"">coraconate</p>
          <p style=""font-size: 16px;"">J = YES &nbsp;&nbsp;&nbsp; F = NO</p>
        ","f","html-keyboard-response","147","2.1.0","321194","J=YES, F=NO","bpvjy55b5b","1","74","83","65","","","","","","","","","coraconate","haste1","pseudoword","pseudoword","f","true","",""
"null","<p style=""font-size: 50px;"">+</p>","null","html-keyboard-response","148","2.1.0","321495","J=YES, F=NO","bpvjy55b5b","1","74","83","65","","","","","","","","","","","","","","","",""
"null","audio/beep-329314.mp3","null","audio-keyboard-response","149","2.1.0","323031","J=YES, F=NO","bpvjy55b5b","1","74","83","65","","","","","","","","","","","","","","","",""
"null","audio/breath.wav","null","audio-keyboard-response","150","2.1.0","323591","J=YES, F=NO","bpvjy55b5b","1","74","83","65","","","","","","","","","","","","","","","",""
"1010","
          <p id=""word"" style=""font-size: 40px;"">pack</p>
          <p style=""font-size: 16px;"">J = YES &nbsp;&nbsp;&nbsp; F = NO</p>
        ","j","html-keyboard-response","151","2.1.0","324603","J=YES, F=NO","bpvjy55b5b","1","74","83","65","","","","","","","","","pack","breath","filler","filler","j","true","",""
"null","<p style=""font-size: 50px;"">+</p>","null","html-keyboard-response","152","2.1.0","324919","J=YES, F=NO","bpvjy55b5b","1","74","83","65","","","","","","","","","","","","","","","",""
"null","audio/beep-329314.mp3","null","audio-keyboard-response","153","2.1.0","326451","J=YES, F=NO","bpvjy55b5b","1","74","83","65","","","","","","","","","","","","","","","",""
"null","audio/radio1.wav","null","audio-keyboard-response","154","2.1.0","327030","J=YES, F=NO","bpvjy55b5b","1","74","83","65","","","","","","","","","","","","","","","",""
"815","
          <p id=""word"" style=""font-size: 40px;"">blanter</p>
          <p style=""font-size: 16px;"">J = YES &nbsp;&nbsp;&nbsp; F = NO</p>
        ","f","html-keyboard-response","155","2.1.0","327846","J=YES, F=NO","bpvjy55b5b","1","74","83","65","","","","","","","","","blanter","radio1","pseudoword","pseudoword","f","true","",""
"null","<p style=""font-size: 50px;"">+</p>","null","html-keyboard-response","156","2.1.0","328149","J=YES, F=NO","bpvjy55b5b","1","74","83","65","","","","","","","","","","","","","","","",""
"null","audio/beep-329314.mp3","null","audio-keyboard-response","157","2.1.0","329671","J=YES, F=NO","bpvjy55b5b","1","74","83","65","","","","","","","","","","","","","","","",""
"null","audio/uncle1.wav","null","audio-keyboard-response","158","2.1.0","330230","J=YES, F=NO","bpvjy55b5b","1","74","83","65","","","","","","","","","","","","","","","",""
"1220","
          <p id=""word"" style=""font-size: 40px;"">dramble</p>
          <p style=""font-size: 16px;"">J = YES &nbsp;&nbsp;&nbsp; F = NO</p>
        ","f","html-keyboard-response","159","2.1.0","331451","J=YES, F=NO","bpvjy55b5b","1","74","83","65","","","","","","","","","dramble","uncle1","pseudoword","pseudoword","f","true","",""
"null","<p style=""font-size: 50px;"">+</p>","null","html-keyboard-response","160","2.1.0","331769","J=YES, F=NO","bpvjy55b5b","1","74","83","65","","","","","","","","","","","","","","","",""
"null","audio/beep-329314.mp3","null","audio-keyboard-response","161","2.1.0","333291","J=YES, F=NO","bpvjy55b5b","1","74","83","65","","","","","","","","","","","","","","","",""
"null","audio/floor.wav","null","audio-keyboard-response","162","2.1.0","333931","J=YES, F=NO","bpvjy55b5b","1","74","83","65","","","","","","","","","","","","","","","",""
"1473","
          <p id=""word"" style=""font-size: 40px;"">mop</p>
          <p style=""font-size: 16px;"">J = YES &nbsp;&nbsp;&nbsp; F = NO</p>
        ","j","html-keyboard-response","163","2.1.0","335405","J=YES, F=NO","bpvjy55b5b","1","74","83","65","","","","","","","","","mop","floor","filler","filler","j","true","",""
"16034","
    <div style=""max-width: 800px; margin: auto; text-align: left;"">
      <h2>Part 2: Main Trials</h2>
      <p>Great job on the practice trials!</p>
      <p>You will now begin the <strong>main set of trials</strong>.</p>
      <p>Remember your key assignments:</p>
      <ul>
        <li><strong>J</strong> = YES (real English word)</li>
        <li><strong>F</strong> = NO (not a real English word)</li>
      </ul>
      <p>Try to respond as <strong>quickly and accurately</strong> as possible.</p>
      <p style=""margin-top: 2em;"">Press any key to begin the main trials.</p>
    </div>
  ","j","html-keyboard-response","164","2.1.0","351439","J=YES, F=NO","bpvjy55b5b","1","74","83","65","","","","","","","","","","","","","","","",""
"11841","<p>Starting main block 1 of 8. Press any key to continue.</p>"," ","html-keyboard-response","165","2.1.0","363281","J=YES, F=NO","bpvjy55b5b","1","74","83","65","","","","","","","","","","","","","","","",""
"null","<p style=""font-size: 50px;"">+</p>","null","html-keyboard-response","166","2.1.0","363582","J=YES, F=NO","bpvjy55b5b","1","74","83","65","","","","","","","","","","","","","","","",""
"null","audio/beep-329314.mp3","null","audio-keyboard-response","167","2.1.0","365101","J=YES, F=NO","bpvjy55b5b","1","74","83","65","","","","","","","","","","","","","","","",""
"null","audio/price.wav","null","audio-keyboard-response","168","2.1.0","365711","J=YES, F=NO","bpvjy55b5b","1","74","83","65","","","","","","","","","","","","","","","",""
"1124","
          <p id=""word"" style=""font-size: 40px;"">drop</p>
          <p style=""font-size: 16px;"">J = YES &nbsp;&nbsp;&nbsp; F = NO</p>
        ","j","html-keyboard-response","169","2.1.0","366836","J=YES, F=NO","bpvjy55b5b","1","74","83","65","","","","","","","","","drop","price","metaphor","experimental","j","true","",""
"null","<p style=""font-size: 50px;"">+</p>","null","html-keyboard-response","170","2.1.0","367149","J=YES, F=NO","bpvjy55b5b","1","74","83","65","","","","","","","","","","","","","","","",""
"null","audio/beep-329314.mp3","null","audio-keyboard-response","171","2.1.0","368681","J=YES, F=NO","bpvjy55b5b","1","74","83","65","","","","","","","","","","","","","","","",""
"null","audio/gift1.wav","null","audio-keyboard-response","172","2.1.0","369151","J=YES, F=NO","bpvjy55b5b","1","74","83","65","","","","","","","","","","","","","","","",""
"840","
          <p id=""word"" style=""font-size: 40px;"">protsh</p>
          <p style=""font-size: 16px;"">J = YES &nbsp;&nbsp;&nbsp; F = NO</p>
        ","f","html-keyboard-response","173","2.1.0","369991","J=YES, F=NO","bpvjy55b5b","1","74","83","65","","","","","","","","","protsh","gift1","pseudoword","pseudoword","f","true","",""
"null","<p style=""font-size: 50px;"">+</p>","null","html-keyboard-response","174","2.1.0","370302","J=YES, F=NO","bpvjy55b5b","1","74","83","65","","","","","","","","","","","","","","","",""
"null","audio/beep-329314.mp3","null","audio-keyboard-response","175","2.1.0","371840","J=YES, F=NO","bpvjy55b5b","1","74","83","65","","","","","","","","","","","","","","","",""
"null","audio/trust.wav","null","audio-keyboard-response","176","2.1.0","372451","J=YES, F=NO","bpvjy55b5b","1","74","83","65","","","","","","","","","","","","","","","",""
"650","
          <p id=""word"" style=""font-size: 40px;"">build</p>
          <p style=""font-size: 16px;"">J = YES &nbsp;&nbsp;&nbsp; F = NO</p>
        ","j","html-keyboard-response","177","2.1.0","373102","J=YES, F=NO","bpvjy55b5b","1","74","83","65","","","","","","","","","build","trust","metaphor","experimental","j","true","",""
"null","<p style=""font-size: 50px;"">+</p>","null","html-keyboard-response","178","2.1.0","373410","J=YES, F=NO","bpvjy55b5b","1","74","83","65","","","","","","","","","","","","","","","",""
"null","audio/beep-329314.mp3","null","audio-keyboard-response","179","2.1.0","374941","J=YES, F=NO","bpvjy55b5b","1","74","83","65","","","","","","","","","","","","","","","",""
"null","audio/test1.wav","null","audio-keyboard-response","180","2.1.0","375511","J=YES, F=NO","bpvjy55b5b","1","74","83","65","","","","","","","","","","","","","","","",""
"674","
          <p id=""word"" style=""font-size: 40px;"">twopch</p>
          <p style=""font-size: 16px;"">J = YES &nbsp;&nbsp;&nbsp; F = NO</p>
        ","f","html-keyboard-response","181","2.1.0","376186","J=YES, F=NO","bpvjy55b5b","1","74","83","65","","","","","","","","","twopch","test1","pseudoword","pseudoword","f","true","",""
"null","<p style=""font-size: 50px;"">+</p>","null","html-keyboard-response","182","2.1.0","376499","J=YES, F=NO","bpvjy55b5b","1","74","83","65","","","","","","","","","","","","","","","",""
"null","audio/beep-329314.mp3","null","audio-keyboard-response","183","2.1.0","378021","J=YES, F=NO","bpvjy55b5b","1","74","83","65","","","","","","","","","","","","","","","",""
"null","audio/window1.wav","null","audio-keyboard-response","184","2.1.0","378631","J=YES, F=NO","bpvjy55b5b","1","74","83","65","","","","","","","","","","","","","","","",""
"938","
          <p id=""word"" style=""font-size: 40px;"">toss</p>
          <p style=""font-size: 16px;"">J = YES &nbsp;&nbsp;&nbsp; F = NO</p>
        ","j","html-keyboard-response","185","2.1.0","379569","J=YES, F=NO","bpvjy55b5b","1","74","83","65","","","","","","","","","toss","window1","filler","filler","j","true","",""
"null","<p style=""font-size: 50px;"">+</p>","null","html-keyboard-response","186","2.1.0","379879","J=YES, F=NO","bpvjy55b5b","1","74","83","65","","","","","","","","","","","","","","","",""
"null","audio/beep-329314.mp3","null","audio-keyboard-response","187","2.1.0","381401","J=YES, F=NO","bpvjy55b5b","1","74","83","65","","","","","","","","","","","","","","","",""
"null","audio/size1.wav","null","audio-keyboard-response","188","2.1.0","382151","J=YES, F=NO","bpvjy55b5b","1","74","83","65","","","","","","","","","","","","","","","",""
"757","
          <p id=""word"" style=""font-size: 40px;"">clear</p>
          <p style=""font-size: 16px;"">J = YES &nbsp;&nbsp;&nbsp; F = NO</p>
        ","j","html-keyboard-response","189","2.1.0","382908","J=YES, F=NO","bpvjy55b5b","1","74","83","65","","","","","","","","","clear","size1","unrelated","experimental","j","true","",""
"null","<p style=""font-size: 50px;"">+</p>","null","html-keyboard-response","190","2.1.0","383209","J=YES, F=NO","bpvjy55b5b","1","74","83","65","","","","","","","","","","","","","","","",""
"null","audio/beep-329314.mp3","null","audio-keyboard-response","191","2.1.0","384741","J=YES, F=NO","bpvjy55b5b","1","74","83","65","","","","","","","","","","","","","","","",""
"null","audio/burden.wav","null","audio-keyboard-response","192","2.1.0","385231","J=YES, F=NO","bpvjy55b5b","1","74","83","65","","","","","","","","","","","","","","","",""
"679","
          <p id=""word"" style=""font-size: 40px;"">carry</p>
          <p style=""font-size: 16px;"">J = YES &nbsp;&nbsp;&nbsp; F = NO</p>
        ","j","html-keyboard-response","193","2.1.0","385911","J=YES, F=NO","bpvjy55b5b","1","74","83","65","","","","","","","","","carry","burden","metaphor","experimental","j","true","",""
"null","<p style=""font-size: 50px;"">+</p>","null","html-keyboard-response","194","2.1.0","386219","J=YES, F=NO","bpvjy55b5b","1","74","83","65","","","","","","","","","","","","","","","",""
"null","audio/beep-329314.mp3","null","audio-keyboard-response","195","2.1.0","387741","J=YES, F=NO","bpvjy55b5b","1","74","83","65","","","","","","","","","","","","","","","",""
"null","audio/pine.wav","null","audio-keyboard-response","196","2.1.0","388231","J=YES, F=NO","bpvjy55b5b","1","74","83","65","","","","","","","","","","","","","","","",""
"667","
          <p id=""word"" style=""font-size: 40px;"">weave</p>
          <p style=""font-size: 16px;"">J = YES &nbsp;&nbsp;&nbsp; F = NO</p>
        ","j","html-keyboard-response","197","2.1.0","388899","J=YES, F=NO","bpvjy55b5b","1","74","83","65","","","","","","","","","weave","pine","unrelated","experimental","j","true","",""
"null","<p style=""font-size: 50px;"">+</p>","null","html-keyboard-response","198","2.1.0","389209","J=YES, F=NO","bpvjy55b5b","1","74","83","65","","","","","","","","","","","","","","","",""
"null","audio/beep-329314.mp3","null","audio-keyboard-response","199","2.1.0","390741","J=YES, F=NO","bpvjy55b5b","1","74","83","65","","","","","","","","","","","","","","","",""
"null","audio/golf1.wav","null","audio-keyboard-response","200","2.1.0","391310","J=YES, F=NO","bpvjy55b5b","1","74","83","65","","","","","","","","","","","","","","","",""
"1208","
          <p id=""word"" style=""font-size: 40px;"">bury</p>
          <p style=""font-size: 16px;"">J = YES &nbsp;&nbsp;&nbsp; F = NO</p>
        ","j","html-keyboard-response","201","2.1.0","392519","J=YES, F=NO","bpvjy55b5b","1","74","83","65","","","","","","","","","bury","golf1","unrelated","experimental","j","true","",""
"null","<p style=""font-size: 50px;"">+</p>","null","html-keyboard-response","202","2.1.0","392820","J=YES, F=NO","bpvjy55b5b","1","74","83","65","","","","","","","","","","","","","","","",""
"null","audio/beep-329314.mp3","null","audio-keyboard-response","203","2.1.0","394361","J=YES, F=NO","bpvjy55b5b","1","74","83","65","","","","","","","","","","","","","","","",""
"null","audio/goal.wav","null","audio-keyboard-response","204","2.1.0","394771","J=YES, F=NO","bpvjy55b5b","1","74","83","65","","","","","","","","","","","","","","","",""
"720","
          <p id=""word"" style=""font-size: 40px;"">support</p>
          <p style=""font-size: 16px;"">J = YES &nbsp;&nbsp;&nbsp; F = NO</p>
        ","j","html-keyboard-response","205","2.1.0","395491","J=YES, F=NO","bpvjy55b5b","1","74","83","65","","","","","","","","","support","goal","metaphor","experimental","j","true","",""
"null","<p style=""font-size: 50px;"">+</p>","null","html-keyboard-response","206","2.1.0","395810","J=YES, F=NO","bpvjy55b5b","1","74","83","65","","","","","","","","","","","","","","","",""
"null","audio/beep-329314.mp3","null","audio-keyboard-response","207","2.1.0","397341","J=YES, F=NO","bpvjy55b5b","1","74","83","65","","","","","","","","","","","","","","","",""
"null","audio/farm1.wav","null","audio-keyboard-response","208","2.1.0","398071","J=YES, F=NO","bpvjy55b5b","1","74","83","65","","","","","","","","","","","","","","","",""
"617","
          <p id=""word"" style=""font-size: 40px;"">catch</p>
          <p style=""font-size: 16px;"">J = YES &nbsp;&nbsp;&nbsp; F = NO</p>
        ","j","html-keyboard-response","209","2.1.0","398689","J=YES, F=NO","bpvjy55b5b","1","74","83","65","","","","","","","","","catch","farm1","unrelated","experimental","j","true","",""
"null","<p style=""font-size: 50px;"">+</p>","null","html-keyboard-response","210","2.1.0","398999","J=YES, F=NO","bpvjy55b5b","1","74","83","65","","","","","","","","","","","","","","","",""
"null","audio/beep-329314.mp3","null","audio-keyboard-response","211","2.1.0","400521","J=YES, F=NO","bpvjy55b5b","1","74","83","65","","","","","","","","","","","","","","","",""
"null","audio/fence.wav","null","audio-keyboard-response","212","2.1.0","401171","J=YES, F=NO","bpvjy55b5b","1","74","83","65","","","","","","","","","","","","","","","",""
"758","
          <p id=""word"" style=""font-size: 40px;"">climb</p>
          <p style=""font-size: 16px;"">J = YES &nbsp;&nbsp;&nbsp; F = NO</p>
        ","j","html-keyboard-response","213","2.1.0","401930","J=YES, F=NO","bpvjy55b5b","1","74","83","65","","","","","","","","","climb","fence","literal","experimental","j","true","",""
"null","<p style=""font-size: 50px;"">+</p>","null","html-keyboard-response","214","2.1.0","402250","J=YES, F=NO","bpvjy55b5b","1","74","83","65","","","","","","","","","","","","","","","",""
"null","audio/beep-329314.mp3","null","audio-keyboard-response","215","2.1.0","403781","J=YES, F=NO","bpvjy55b5b","1","74","83","65","","","","","","","","","","","","","","","",""
"null","audio/ankle1.wav","null","audio-keyboard-response","216","2.1.0","404311","J=YES, F=NO","bpvjy55b5b","1","74","83","65","","","","","","","","","","","","","","","",""
"874","
          <p id=""word"" style=""font-size: 40px;"">kick</p>
          <p style=""font-size: 16px;"">J = YES &nbsp;&nbsp;&nbsp; F = NO</p>
        ","j","html-keyboard-response","217","2.1.0","405186","J=YES, F=NO","bpvjy55b5b","1","74","83","65","","","","","","","","","kick","ankle1","filler","filler","j","true","",""
"null","<p style=""font-size: 50px;"">+</p>","null","html-keyboard-response","218","2.1.0","405489","J=YES, F=NO","bpvjy55b5b","1","74","83","65","","","","","","","","","","","","","","","",""
"null","audio/beep-329314.mp3","null","audio-keyboard-response","219","2.1.0","407021","J=YES, F=NO","bpvjy55b5b","1","74","83","65","","","","","","","","","","","","","","","",""
"null","audio/effort.wav","null","audio-keyboard-response","220","2.1.0","407610","J=YES, F=NO","bpvjy55b5b","1","74","83","65","","","","","","","","","","","","","","","",""
"886","
          <p id=""word"" style=""font-size: 40px;"">whonk</p>
          <p style=""font-size: 16px;"">J = YES &nbsp;&nbsp;&nbsp; F = NO</p>
        ","j","html-keyboard-response","221","2.1.0","408497","J=YES, F=NO","bpvjy55b5b","1","74","83","65","","","","","","","","","whonk","effort","pseudoword","pseudoword","f","false","",""
"null","<p style=""font-size: 50px;"">+</p>","null","html-keyboard-response","222","2.1.0","408799","J=YES, F=NO","bpvjy55b5b","1","74","83","65","","","","","","","","","","","","","","","",""
"null","audio/beep-329314.mp3","null","audio-keyboard-response","223","2.1.0","410321","J=YES, F=NO","bpvjy55b5b","1","74","83","65","","","","","","","","","","","","","","","",""
"null","audio/kettle1.wav","null","audio-keyboard-response","224","2.1.0","410791","J=YES, F=NO","bpvjy55b5b","1","74","83","65","","","","","","","","","","","","","","","",""
"932","
          <p id=""word"" style=""font-size: 40px;"">wrap</p>
          <p style=""font-size: 16px;"">J = YES &nbsp;&nbsp;&nbsp; F = NO</p>
        ","j","html-keyboard-response","225","2.1.0","411723","J=YES, F=NO","bpvjy55b5b","1","74","83","65","","","","","","","","","wrap","kettle1","filler","filler","j","true","",""
"null","<p style=""font-size: 50px;"">+</p>","null","html-keyboard-response","226","2.1.0","412029","J=YES, F=NO","bpvjy55b5b","1","74","83","65","","","","","","","","","","","","","","","",""
"null","audio/beep-329314.mp3","null","audio-keyboard-response","227","2.1.0","413561","J=YES, F=NO","bpvjy55b5b","1","74","83","65","","","","","","","","","","","","","","","",""
"null","audio/trout1.wav","null","audio-keyboard-response","228","2.1.0","414151","J=YES, F=NO","bpvjy55b5b","1","74","83","65","","","","","","","","","","","","","","","",""
"716","
          <p id=""word"" style=""font-size: 40px;"">spimt</p>
          <p style=""font-size: 16px;"">J = YES &nbsp;&nbsp;&nbsp; F = NO</p>
        ","f","html-keyboard-response","229","2.1.0","414868","J=YES, F=NO","bpvjy55b5b","1","74","83","65","","","","","","","","","spimt","trout1","pseudoword","pseudoword","f","true","",""
"5142","<p>Excellent! You have finished block 1 of 8.</p>
                     <p>Feel free to take a 30 second break.</p>
                     <p>Press any key when you're ready to continue.</p>","AudioVolumeUp","html-keyboard-response","230","2.1.0","420010","J=YES, F=NO","bpvjy55b5b","1","74","83","65","","","","","","","","","","","","","","","",""
"376","<p>Starting main block 2 of 8. Press any key to continue.</p>","AudioVolumeUp","html-keyboard-response","231","2.1.0","420386","J=YES, F=NO","bpvjy55b5b","1","74","83","65","","","","","","","","","","","","","","","",""
"null","<p style=""font-size: 50px;"">+</p>","null","html-keyboard-response","232","2.1.0","420689","J=YES, F=NO","bpvjy55b5b","1","74","83","65","","","","","","","","","","","","","","","",""
"null","audio/beep-329314.mp3","null","audio-keyboard-response","233","2.1.0","422221","J=YES, F=NO","bpvjy55b5b","1","74","83","65","","","","","","","","","","","","","","","",""
"null","audio/scar.wav","null","audio-keyboard-response","234","2.1.0","422811","J=YES, F=NO","bpvjy55b5b","1","74","83","65","","","","","","","","","","","","","","","",""
"null","
          <p id=""word"" style=""font-size: 40px;"">adelineate</p>
          <p style=""font-size: 16px;"">J = YES &nbsp;&nbsp;&nbsp; F = NO</p>
        ","null","html-keyboard-response","235","2.1.0","424319","J=YES, F=NO","bpvjy55b5b","1","74","83","65","","","","","","","","","adelineate","scar","pseudoword","pseudoword","f","false","",""
"null","<p style=""font-size: 50px;"">+</p>","null","html-keyboard-response","236","2.1.0","424639","J=YES, F=NO","bpvjy55b5b","1","74","83","65","","","","","","","","","","","","","","","",""
"null","audio/beep-329314.mp3","null","audio-keyboard-response","237","2.1.0","426160","J=YES, F=NO","bpvjy55b5b","1","74","83","65","","","","","","","","","","","","","","","",""
"null","audio/road.wav","null","audio-keyboard-response","238","2.1.0","426591","J=YES, F=NO","bpvjy55b5b","1","74","83","65","","","","","","","","","","","","","","","",""
"null","
          <p id=""word"" style=""font-size: 40px;"">wappings</p>
          <p style=""font-size: 16px;"">J = YES &nbsp;&nbsp;&nbsp; F = NO</p>
        ","null","html-keyboard-response","239","2.1.0","428109","J=YES, F=NO","bpvjy55b5b","1","74","83","65","","","","","","","","","wappings","road","pseudoword","pseudoword","f","false","",""
"null","<p style=""font-size: 50px;"">+</p>","null","html-keyboard-response","240","2.1.0","428429","J=YES, F=NO","bpvjy55b5b","1","74","83","65","","","","","","","","","","","","","","","",""
"null","audio/beep-329314.mp3","null","audio-keyboard-response","241","2.1.0","429961","J=YES, F=NO","bpvjy55b5b","1","74","83","65","","","","","","","","","","","","","","","",""
"null","audio/cinema1.wav","null","audio-keyboard-response","242","2.1.0","430571","J=YES, F=NO","bpvjy55b5b","1","74","83","65","","","","","","","","","","","","","","","",""
"941","
          <p id=""word"" style=""font-size: 40px;"">murple</p>
          <p style=""font-size: 16px;"">J = YES &nbsp;&nbsp;&nbsp; F = NO</p>
        ","f","html-keyboard-response","243","2.1.0","431512","J=YES, F=NO","bpvjy55b5b","1","74","83","65","","","","","","","","","murple","cinema1","pseudoword","pseudoword","f","true","",""
"null","<p style=""font-size: 50px;"">+</p>","null","html-keyboard-response","244","2.1.0","431819","J=YES, F=NO","bpvjy55b5b","1","74","83","65","","","","","","","","","","","","","","","",""
"null","audio/beep-329314.mp3","null","audio-keyboard-response","245","2.1.0","433341","J=YES, F=NO","bpvjy55b5b","1","74","83","65","","","","","","","","","","","","","","","",""
"null","audio/grass.wav","null","audio-keyboard-response","246","2.1.0","434171","J=YES, F=NO","bpvjy55b5b","1","74","83","65","","","","","","","","","","","","","","","",""
"1035","
          <p id=""word"" style=""font-size: 40px;"">milames</p>
          <p style=""font-size: 16px;"">J = YES &nbsp;&nbsp;&nbsp; F = NO</p>
        ","f","html-keyboard-response","247","2.1.0","435207","J=YES, F=NO","bpvjy55b5b","1","74","83","65","","","","","","","","","milames","grass","pseudoword","pseudoword","f","true","",""
"null","<p style=""font-size: 50px;"">+</p>","null","html-keyboard-response","248","2.1.0","435520","J=YES, F=NO","bpvjy55b5b","1","74","83","65","","","","","","","","","","","","","","","",""
"null","audio/beep-329314.mp3","null","audio-keyboard-response","249","2.1.0","437061","J=YES, F=NO","bpvjy55b5b","1","74","83","65","","","","","","","","","","","","","","","",""
"null","audio/stain.wav","null","audio-keyboard-response","250","2.1.0","437711","J=YES, F=NO","bpvjy55b5b","1","74","83","65","","","","","","","","","","","","","","","",""
"704","
          <p id=""word"" style=""font-size: 40px;"">wipe</p>
          <p style=""font-size: 16px;"">J = YES &nbsp;&nbsp;&nbsp; F = NO</p>
        ","j","html-keyboard-response","251","2.1.0","438415","J=YES, F=NO","bpvjy55b5b","1","74","83","65","","","","","","","","","wipe","stain","literal","experimental","j","true","",""
"null","<p style=""font-size: 50px;"">+</p>","null","html-keyboard-response","252","2.1.0","438719","J=YES, F=NO","bpvjy55b5b","1","74","83","65","","","","","","","","","","","","","","","",""
"null","audio/beep-329314.mp3","null","audio-keyboard-response","253","2.1.0","440241","J=YES, F=NO","bpvjy55b5b","1","74","83","65","","","","","","","","","","","","","","","",""
"null","audio/cancer1.wav","null","audio-keyboard-response","254","2.1.0","440791","J=YES, F=NO","bpvjy55b5b","1","74","83","65","","","","","","","","","","","","","","","",""
"801","
          <p id=""word"" style=""font-size: 40px;"">draw</p>
          <p style=""font-size: 16px;"">J = YES &nbsp;&nbsp;&nbsp; F = NO</p>
        ","j","html-keyboard-response","255","2.1.0","441592","J=YES, F=NO","bpvjy55b5b","1","74","83","65","","","","","","","","","draw","cancer1","filler","filler","j","true","",""
"null","<p style=""font-size: 50px;"">+</p>","null","html-keyboard-response","256","2.1.0","441899","J=YES, F=NO","bpvjy55b5b","1","74","83","65","","","","","","","","","","","","","","","",""
"null","audio/beep-329314.mp3","null","audio-keyboard-response","257","2.1.0","443421","J=YES, F=NO","bpvjy55b5b","1","74","83","65","","","","","","","","","","","","","","","",""
"null","audio/handle.wav","null","audio-keyboard-response","258","2.1.0","444271","J=YES, F=NO","bpvjy55b5b","1","74","83","65","","","","","","","","","","","","","","","",""
"1203","
          <p id=""word"" style=""font-size: 40px;"">grasp</p>
          <p style=""font-size: 16px;"">J = YES &nbsp;&nbsp;&nbsp; F = NO</p>
        ","j","html-keyboard-response","259","2.1.0","445475","J=YES, F=NO","bpvjy55b5b","1","74","83","65","","","","","","","","","grasp","handle","literal","experimental","j","true","",""
"null","<p style=""font-size: 50px;"">+</p>","null","html-keyboard-response","260","2.1.0","445779","J=YES, F=NO","bpvjy55b5b","1","74","83","65","","","","","","","","","","","","","","","",""
"null","audio/beep-329314.mp3","null","audio-keyboard-response","261","2.1.0","447301","J=YES, F=NO","bpvjy55b5b","1","74","83","65","","","","","","","","","","","","","","","",""
"null","audio/chance.wav","null","audio-keyboard-response","262","2.1.0","447951","J=YES, F=NO","bpvjy55b5b","1","74","83","65","","","","","","","","","","","","","","","",""
"941","
          <p id=""word"" style=""font-size: 40px;"">seize</p>
          <p style=""font-size: 16px;"">J = YES &nbsp;&nbsp;&nbsp; F = NO</p>
        ","j","html-keyboard-response","263","2.1.0","448892","J=YES, F=NO","bpvjy55b5b","1","74","83","65","","","","","","","","","seize","chance","metaphor","experimental","j","true","",""
"null","<p style=""font-size: 50px;"">+</p>","null","html-keyboard-response","264","2.1.0","449200","J=YES, F=NO","bpvjy55b5b","1","74","83","65","","","","","","","","","","","","","","","",""
"null","audio/beep-329314.mp3","null","audio-keyboard-response","265","2.1.0","450741","J=YES, F=NO","bpvjy55b5b","1","74","83","65","","","","","","","","","","","","","","","",""
"null","audio/client1.wav","null","audio-keyboard-response","266","2.1.0","451431","J=YES, F=NO","bpvjy55b5b","1","74","83","65","","","","","","","","","","","","","","","",""
"922","
          <p id=""word"" style=""font-size: 40px;"">droothe</p>
          <p style=""font-size: 16px;"">J = YES &nbsp;&nbsp;&nbsp; F = NO</p>
        ","f","html-keyboard-response","267","2.1.0","452353","J=YES, F=NO","bpvjy55b5b","1","74","83","65","","","","","","","","","droothe","client1","pseudoword","pseudoword","f","true","",""
"null","<p style=""font-size: 50px;"">+</p>","null","html-keyboard-response","268","2.1.0","452660","J=YES, F=NO","bpvjy55b5b","1","74","83","65","","","","","","","","","","","","","","","",""
"null","audio/beep-329314.mp3","null","audio-keyboard-response","269","2.1.0","454181","J=YES, F=NO","bpvjy55b5b","1","74","83","65","","","","","","","","","","","","","","","",""
"null","audio/planet1.wav","null","audio-keyboard-response","270","2.1.0","454771","J=YES, F=NO","bpvjy55b5b","1","74","83","65","","","","","","","","","","","","","","","",""
"1113","
          <p id=""word"" style=""font-size: 40px;"">cratched</p>
          <p style=""font-size: 16px;"">J = YES &nbsp;&nbsp;&nbsp; F = NO</p>
        ","f","html-keyboard-response","271","2.1.0","455885","J=YES, F=NO","bpvjy55b5b","1","74","83","65","","","","","","","","","cratched","planet1","pseudoword","pseudoword","f","true","",""
"null","<p style=""font-size: 50px;"">+</p>","null","html-keyboard-response","272","2.1.0","456189","J=YES, F=NO","bpvjy55b5b","1","74","83","65","","","","","","","","","","","","","","","",""
"null","audio/beep-329314.mp3","null","audio-keyboard-response","273","2.1.0","457721","J=YES, F=NO","bpvjy55b5b","1","74","83","65","","","","","","","","","","","","","","","",""
"null","audio/novel.wav","null","audio-keyboard-response","274","2.1.0","458411","J=YES, F=NO","bpvjy55b5b","1","74","83","65","","","","","","","","","","","","","","","",""
"610","
          <p id=""word"" style=""font-size: 40px;"">type</p>
          <p style=""font-size: 16px;"">J = YES &nbsp;&nbsp;&nbsp; F = NO</p>
        ","j","html-keyboard-response","275","2.1.0","459021","J=YES, F=NO","bpvjy55b5b","1","74","83","65","","","","","","","","","type","novel","filler","filler","j","true","",""
"null","<p style=""font-size: 50px;"">+</p>","null","html-keyboard-response","276","2.1.0","459339","J=YES, F=NO","bpvjy55b5b","1","74","83","65","","","","","","","","","","","","","","","",""
"null","audio/beep-329314.mp3","null","audio-keyboard-response","277","2.1.0","460861","J=YES, F=NO","bpvjy55b5b","1","74","83","65","","","","","","","","","","","","","","","",""
"null","audio/bridge.wav","null","audio-keyboard-response","278","2.1.0","461412","J=YES, F=NO","bpvjy55b5b","1","74","83","65","","","","","","","","","","","","","","","",""
"748","
          <p id=""word"" style=""font-size: 40px;"">crack</p>
          <p style=""font-size: 16px;"">J = YES &nbsp;&nbsp;&nbsp; F = NO</p>
        ","j","html-keyboard-response","279","2.1.0","462160","J=YES, F=NO","bpvjy55b5b","1","74","83","65","","","","","","","","","crack","bridge","filler","filler","j","true","",""
"null","<p style=""font-size: 50px;"">+</p>","null","html-keyboard-response","280","2.1.0","462470","J=YES, F=NO","bpvjy55b5b","1","74","83","65","","","","","","","","","","","","","","","",""
"null","audio/beep-329314.mp3","null","audio-keyboard-response","281","2.1.0","464001","J=YES, F=NO","bpvjy55b5b","1","74","83","65","","","","","","","","","","","","","","","",""
"null","audio/gossip1.wav","null","audio-keyboard-response","282","2.1.0","464711","J=YES, F=NO","bpvjy55b5b","1","74","83","65","","","","","","","","","","","","","","","",""
"792","
          <p id=""word"" style=""font-size: 40px;"">camerish</p>
          <p style=""font-size: 16px;"">J = YES &nbsp;&nbsp;&nbsp; F = NO</p>
        ","f","html-keyboard-response","283","2.1.0","465504","J=YES, F=NO","bpvjy55b5b","1","74","83","65","","","","","","","","","camerish","gossip1","pseudoword","pseudoword","f","true","",""
"null","<p style=""font-size: 50px;"">+</p>","null","html-keyboard-response","284","2.1.0","465805","J=YES, F=NO","bpvjy55b5b","1","74","83","65","","","","","","","","","","","","","","","",""
"null","audio/beep-329314.mp3","null","audio-keyboard-response","285","2.1.0","467341","J=YES, F=NO","bpvjy55b5b","1","74","83","65","","","","","","","","","","","","","","","",""
"null","audio/empire.wav","null","audio-keyboard-response","286","2.1.0","467971","J=YES, F=NO","bpvjy55b5b","1","74","83","65","","","","","","","","","","","","","","","",""
"608","
          <p id=""word"" style=""font-size: 40px;"">bring</p>
          <p style=""font-size: 16px;"">J = YES &nbsp;&nbsp;&nbsp; F = NO</p>
        ","j","html-keyboard-response","287","2.1.0","468580","J=YES, F=NO","bpvjy55b5b","1","74","83","65","","","","","","","","","bring","empire","unrelated","experimental","j","true","",""
"null","<p style=""font-size: 50px;"">+</p>","null","html-keyboard-response","288","2.1.0","468900","J=YES, F=NO","bpvjy55b5b","1","74","83","65","","","","","","","","","","","","","","","",""
"null","audio/beep-329314.mp3","null","audio-keyboard-response","289","2.1.0","470441","J=YES, F=NO","bpvjy55b5b","1","74","83","65","","","","","","","","","","","","","","","",""
"null","audio/survey1.wav","null","audio-keyboard-response","290","2.1.0","471171","J=YES, F=NO","bpvjy55b5b","1","74","83","65","","","","","","","","","","","","","","","",""
"739","
          <p id=""word"" style=""font-size: 40px;"">release</p>
          <p style=""font-size: 16px;"">J = YES &nbsp;&nbsp;&nbsp; F = NO</p>
        ","j","html-keyboard-response","291","2.1.0","471911","J=YES, F=NO","bpvjy55b5b","1","74","83","65","","","","","","","","","release","survey1","metaphor","experimental","j","true","",""
"null","<p style=""font-size: 50px;"">+</p>","null","html-keyboard-response","292","2.1.0","472229","J=YES, F=NO","bpvjy55b5b","1","74","83","65","","","","","","","","","","","","","","","",""
"null","audio/beep-329314.mp3","null","audio-keyboard-response","293","2.1.0","473761","J=YES, F=NO","bpvjy55b5b","1","74","83","65","","","","","","","","","","","","","","","",""
"null","audio/gossip1.wav","null","audio-keyboard-response","294","2.1.0","474371","J=YES, F=NO","bpvjy55b5b","1","74","83","65","","","","","","","","","","","","","","","",""
"681","
          <p id=""word"" style=""font-size: 40px;"">wrestle</p>
          <p style=""font-size: 16px;"">J = YES &nbsp;&nbsp;&nbsp; F = NO</p>
        ","j","html-keyboard-response","295","2.1.0","475052","J=YES, F=NO","bpvjy55b5b","1","74","83","65","","","","","","","","","wrestle","gossip1","unrelated","experimental","j","true","",""
"1790","<p>Excellent! You have finished block 2 of 8.</p>
                     <p>Feel free to take a 30 second break.</p>
                     <p>Press any key when you're ready to continue.</p>","j","html-keyboard-response","296","2.1.0","476842","J=YES, F=NO","bpvjy55b5b","1","74","83","65","","","","","","","","","","","","","","","",""
"4264","<p>Starting main block 3 of 8. Press any key to continue.</p>","j","html-keyboard-response","297","2.1.0","481107","J=YES, F=NO","bpvjy55b5b","1","74","83","65","","","","","","","","","","","","","","","",""
"null","<p style=""font-size: 50px;"">+</p>","null","html-keyboard-response","298","2.1.0","481410","J=YES, F=NO","bpvjy55b5b","1","74","83","65","","","","","","","","","","","","","","","",""
"null","audio/beep-329314.mp3","null","audio-keyboard-response","299","2.1.0","482941","J=YES, F=NO","bpvjy55b5b","1","74","83","65","","","","","","","","","","","","","","","",""
"null","audio/bush1.wav","null","audio-keyboard-response","300","2.1.0","483471","J=YES, F=NO","bpvjy55b5b","1","74","83","65","","","","","","","","","","","","","","","",""
"1176","
          <p id=""word"" style=""font-size: 40px;"">platined</p>
          <p style=""font-size: 16px;"">J = YES &nbsp;&nbsp;&nbsp; F = NO</p>
        ","f","html-keyboard-response","301","2.1.0","484648","J=YES, F=NO","bpvjy55b5b","1","74","83","65","","","","","","","","","platined","bush1","pseudoword","pseudoword","f","true","",""
"null","<p style=""font-size: 50px;"">+</p>","null","html-keyboard-response","302","2.1.0","484969","J=YES, F=NO","bpvjy55b5b","1","74","83","65","","","","","","","","","","","","","","","",""
"null","audio/beep-329314.mp3","null","audio-keyboard-response","303","2.1.0","486501","J=YES, F=NO","bpvjy55b5b","1","74","83","65","","","","","","","","","","","","","","","",""
"null","audio/emotion.wav","null","audio-keyboard-response","304","2.1.0","487151","J=YES, F=NO","bpvjy55b5b","1","74","83","65","","","","","","","","","","","","","","","",""
"1009","
          <p id=""word"" style=""font-size: 40px;"">devering</p>
          <p style=""font-size: 16px;"">J = YES &nbsp;&nbsp;&nbsp; F = NO</p>
        ","f","html-keyboard-response","305","2.1.0","488161","J=YES, F=NO","bpvjy55b5b","1","74","83","65","","","","","","","","","devering","emotion","pseudoword","pseudoword","f","true","",""
"null","<p style=""font-size: 50px;"">+</p>","null","html-keyboard-response","306","2.1.0","488476","J=YES, F=NO","bpvjy55b5b","1","74","83","65","","","","","","","","","","","","","","","",""
"null","audio/beep-329314.mp3","null","audio-keyboard-response","307","2.1.0","490002","J=YES, F=NO","bpvjy55b5b","1","74","83","65","","","","","","","","","","","","","","","",""
"null","audio/bush1.wav","null","audio-keyboard-response","308","2.1.0","490451","J=YES, F=NO","bpvjy55b5b","1","74","83","65","","","","","","","","","","","","","","","",""
"489","
          <p id=""word"" style=""font-size: 40px;"">run</p>
          <p style=""font-size: 16px;"">J = YES &nbsp;&nbsp;&nbsp; F = NO</p>
        ","j","html-keyboard-response","309","2.1.0","490941","J=YES, F=NO","bpvjy55b5b","1","74","83","65","","","","","","","","","run","bush1","unrelated","experimental","j","true","",""
"null","<p style=""font-size: 50px;"">+</p>","null","html-keyboard-response","310","2.1.0","491249","J=YES, F=NO","bpvjy55b5b","1","74","83","65","","","","","","","","","","","","","","","",""
"null","audio/beep-329314.mp3","null","audio-keyboard-response","311","2.1.0","492781","J=YES, F=NO","bpvjy55b5b","1","74","83","65","","","","","","","","","","","","","","","",""
"null","audio/desire.wav","null","audio-keyboard-response","312","2.1.0","493591","J=YES, F=NO","bpvjy55b5b","1","74","83","65","","","","","","","","","","","","","","","",""
"705","
          <p id=""word"" style=""font-size: 40px;"">nophed</p>
          <p style=""font-size: 16px;"">J = YES &nbsp;&nbsp;&nbsp; F = NO</p>
        ","f","html-keyboard-response","313","2.1.0","494297","J=YES, F=NO","bpvjy55b5b","1","74","83","65","","","","","","","","","nophed","desire","pseudoword","pseudoword","f","true","",""
"null","<p style=""font-size: 50px;"">+</p>","null","html-keyboard-response","314","2.1.0","494609","J=YES, F=NO","bpvjy55b5b","1","74","83","65","","","","","","","","","","","","","","","",""
"null","audio/beep-329314.mp3","null","audio-keyboard-response","315","2.1.0","496141","J=YES, F=NO","bpvjy55b5b","1","74","83","65","","","","","","","","","","","","","","","",""
"null","audio/tax1.wav","null","audio-keyboard-response","316","2.1.0","496931","J=YES, F=NO","bpvjy55b5b","1","74","83","65","","","","","","","","","","","","","","","",""
"654","
          <p id=""word"" style=""font-size: 40px;"">scrap</p>
          <p style=""font-size: 16px;"">J = YES &nbsp;&nbsp;&nbsp; F = NO</p>
        ","j","html-keyboard-response","317","2.1.0","497586","J=YES, F=NO","bpvjy55b5b","1","74","83","65","","","","","","","","","scrap","tax1","metaphor","experimental","j","true","",""
"null","<p style=""font-size: 50px;"">+</p>","null","html-keyboard-response","318","2.1.0","497889","J=YES, F=NO","bpvjy55b5b","1","74","83","65","","","","","","","","","","","","","","","",""
"null","audio/beep-329314.mp3","null","audio-keyboard-response","319","2.1.0","499421","J=YES, F=NO","bpvjy55b5b","1","74","83","65","","","","","","","","","","","","","","","",""
"null","audio/inch1.wav","null","audio-keyboard-response","320","2.1.0","500111","J=YES, F=NO","bpvjy55b5b","1","74","83","65","","","","","","","","","","","","","","","",""
"622","
          <p id=""word"" style=""font-size: 40px;"">lose</p>
          <p style=""font-size: 16px;"">J = YES &nbsp;&nbsp;&nbsp; F = NO</p>
        ","j","html-keyboard-response","321","2.1.0","500733","J=YES, F=NO","bpvjy55b5b","1","74","83","65","","","","","","","","","lose","inch1","metaphor","experimental","j","true","",""
"null","<p style=""font-size: 50px;"">+</p>","null","html-keyboard-response","322","2.1.0","501050","J=YES, F=NO","bpvjy55b5b","1","74","83","65","","","","","","","","","","","","","","","",""
"null","audio/beep-329314.mp3","null","audio-keyboard-response","323","2.1.0","502581","J=YES, F=NO","bpvjy55b5b","1","74","83","65","","","","","","","","","","","","","","","",""
"null","audio/life1.wav","null","audio-keyboard-response","324","2.1.0","503151","J=YES, F=NO","bpvjy55b5b","1","74","83","65","","","","","","","","","","","","","","","",""
"1266","
          <p id=""word"" style=""font-size: 40px;"">flimch</p>
          <p style=""font-size: 16px;"">J = YES &nbsp;&nbsp;&nbsp; F = NO</p>
        ","j","html-keyboard-response","325","2.1.0","504417","J=YES, F=NO","bpvjy55b5b","1","74","83","65","","","","","","","","","flimch","life1","pseudoword","pseudoword","f","false","",""
"null","<p style=""font-size: 50px;"">+</p>","null","html-keyboard-response","326","2.1.0","504719","J=YES, F=NO","bpvjy55b5b","1","74","83","65","","","","","","","","","","","","","","","",""
"null","audio/beep-329314.mp3","null","audio-keyboard-response","327","2.1.0","506241","J=YES, F=NO","bpvjy55b5b","1","74","83","65","","","","","","","","","","","","","","","",""
"null","audio/table1.wav","null","audio-keyboard-response","328","2.1.0","506731","J=YES, F=NO","bpvjy55b5b","1","74","83","65","","","","","","","","","","","","","","","",""
"901","
          <p id=""word"" style=""font-size: 40px;"">stimb</p>
          <p style=""font-size: 16px;"">J = YES &nbsp;&nbsp;&nbsp; F = NO</p>
        ","f","html-keyboard-response","329","2.1.0","507632","J=YES, F=NO","bpvjy55b5b","1","74","83","65","","","","","","","","","stimb","table1","pseudoword","pseudoword","f","true","",""
"null","<p style=""font-size: 50px;"">+</p>","null","html-keyboard-response","330","2.1.0","507940","J=YES, F=NO","bpvjy55b5b","1","74","83","65","","","","","","","","","","","","","","","",""
"null","audio/beep-329314.mp3","null","audio-keyboard-response","331","2.1.0","509461","J=YES, F=NO","bpvjy55b5b","1","74","83","65","","","","","","","","","","","","","","","",""
"null","audio/bomb1.wav","null","audio-keyboard-response","332","2.1.0","509831","J=YES, F=NO","bpvjy55b5b","1","74","83","65","","","","","","","","","","","","","","","",""
"555","
          <p id=""word"" style=""font-size: 40px;"">clean</p>
          <p style=""font-size: 16px;"">J = YES &nbsp;&nbsp;&nbsp; F = NO</p>
        ","j","html-keyboard-response","333","2.1.0","510386","J=YES, F=NO","bpvjy55b5b","1","74","83","65","","","","","","","","","clean","bomb1","filler","filler","j","true","",""
"null","<p style=""font-size: 50px;"">+</p>","null","html-keyboard-response","334","2.1.0","510699","J=YES, F=NO","bpvjy55b5b","1","74","83","65","","","","","","","","","","","","","","","",""
"null","audio/beep-329314.mp3","null","audio-keyboard-response","335","2.1.0","512221","J=YES, F=NO","bpvjy55b5b","1","74","83","65","","","","","","","","","","","","","","","",""
"null","audio/winter.wav","null","audio-keyboard-response","336","2.1.0","512951","J=YES, F=NO","bpvjy55b5b","1","74","83","65","","","","","","","","","","","","","","","",""
"874","
          <p id=""word"" style=""font-size: 40px;"">straven</p>
          <p style=""font-size: 16px;"">J = YES &nbsp;&nbsp;&nbsp; F = NO</p>
        ","f","html-keyboard-response","337","2.1.0","513825","J=YES, F=NO","bpvjy55b5b","1","74","83","65","","","","","","","","","straven","winter","pseudoword","pseudoword","f","true","",""
"null","<p style=""font-size: 50px;"">+</p>","null","html-keyboard-response","338","2.1.0","514129","J=YES, F=NO","bpvjy55b5b","1","74","83","65","","","","","","","","","","","","","","","",""
"null","audio/beep-329314.mp3","null","audio-keyboard-response","339","2.1.0","515660","J=YES, F=NO","bpvjy55b5b","1","74","83","65","","","","","","","","","","","","","","","",""
"null","audio/card1.wav","null","audio-keyboard-response","340","2.1.0","516191","J=YES, F=NO","bpvjy55b5b","1","74","83","65","","","","","","","","","","","","","","","",""
"545","
          <p id=""word"" style=""font-size: 40px;"">land</p>
          <p style=""font-size: 16px;"">J = YES &nbsp;&nbsp;&nbsp; F = NO</p>
        ","j","html-keyboard-response","341","2.1.0","516737","J=YES, F=NO","bpvjy55b5b","1","74","83","65","","","","","","","","","land","card1","unrelated","experimental","j","true","",""
"null","<p style=""font-size: 50px;"">+</p>","null","html-keyboard-response","342","2.1.0","517049","J=YES, F=NO","bpvjy55b5b","1","74","83","65","","","","","","","","","","","","","","","",""
"null","audio/beep-329314.mp3","null","audio-keyboard-response","343","2.1.0","518581","J=YES, F=NO","bpvjy55b5b","1","74","83","65","","","","","","","","","","","","","","","",""
"null","audio/butter1.wav","null","audio-keyboard-response","344","2.1.0","519011","J=YES, F=NO","bpvjy55b5b","1","74","83","65","","","","","","","","","","","","","","","",""
"729","
          <p id=""word"" style=""font-size: 40px;"">spread</p>
          <p style=""font-size: 16px;"">J = YES &nbsp;&nbsp;&nbsp; F = NO</p>
        ","j","html-keyboard-response","345","2.1.0","519740","J=YES, F=NO","bpvjy55b5b","1","74","83","65","","","","","","","","","spread","butter1","literal","experimental","j","true","",""
"null","<p style=""font-size: 50px;"">+</p>","null","html-keyboard-response","346","2.1.0","520050","J=YES, F=NO","bpvjy55b5b","1","74","83","65","","","","","","","","","","","","","","","",""
"null","audio/beep-329314.mp3","null","audio-keyboard-response","347","2.1.0","521581","J=YES, F=NO","bpvjy55b5b","1","74","83","65","","","","","","","","","","","","","","","",""
"null","audio/van1.wav","null","audio-keyboard-response","348","2.1.0","522071","J=YES, F=NO","bpvjy55b5b","1","74","83","65","","","","","","","","","","","","","","","",""
"745","
          <p id=""word"" style=""font-size: 40px;"">push</p>
          <p style=""font-size: 16px;"">J = YES &nbsp;&nbsp;&nbsp; F = NO</p>
        ","j","html-keyboard-response","349","2.1.0","522817","J=YES, F=NO","bpvjy55b5b","1","74","83","65","","","","","","","","","push","van1","filler","filler","j","true","",""
"null","<p style=""font-size: 50px;"">+</p>","null","html-keyboard-response","350","2.1.0","523129","J=YES, F=NO","bpvjy55b5b","1","74","83","65","","","","","","","","","","","","","","","",""
"null","audio/beep-329314.mp3","null","audio-keyboard-response","351","2.1.0","524661","J=YES, F=NO","bpvjy55b5b","1","74","83","65","","","","","","","","","","","","","","","",""
"null","audio/cash1.wav","null","audio-keyboard-response","352","2.1.0","525391","J=YES, F=NO","bpvjy55b5b","1","74","83","65","","","","","","","","","","","","","","","",""
"705","
          <p id=""word"" style=""font-size: 40px;"">splear</p>
          <p style=""font-size: 16px;"">J = YES &nbsp;&nbsp;&nbsp; F = NO</p>
        ","f","html-keyboard-response","353","2.1.0","526096","J=YES, F=NO","bpvjy55b5b","1","74","83","65","","","","","","","","","splear","cash1","pseudoword","pseudoword","f","true","",""
"null","<p style=""font-size: 50px;"">+</p>","null","html-keyboard-response","354","2.1.0","526409","J=YES, F=NO","bpvjy55b5b","1","74","83","65","","","","","","","","","","","","","","","",""
"null","audio/beep-329314.mp3","null","audio-keyboard-response","355","2.1.0","527941","J=YES, F=NO","bpvjy55b5b","1","74","83","65","","","","","","","","","","","","","","","",""
"null","audio/roof1.wav","null","audio-keyboard-response","356","2.1.0","528471","J=YES, F=NO","bpvjy55b5b","1","74","83","65","","","","","","","","","","","","","","","",""
"752","
          <p id=""word"" style=""font-size: 40px;"">wronb</p>
          <p style=""font-size: 16px;"">J = YES &nbsp;&nbsp;&nbsp; F = NO</p>
        ","f","html-keyboard-response","357","2.1.0","529223","J=YES, F=NO","bpvjy55b5b","1","74","83","65","","","","","","","","","wronb","roof1","pseudoword","pseudoword","f","true","",""
"null","<p style=""font-size: 50px;"">+</p>","null","html-keyboard-response","358","2.1.0","529530","J=YES, F=NO","bpvjy55b5b","1","74","83","65","","","","","","","","","","","","","","","",""
"null","audio/beep-329314.mp3","null","audio-keyboard-response","359","2.1.0","531061","J=YES, F=NO","bpvjy55b5b","1","74","83","65","","","","","","","","","","","","","","","",""
"null","audio/budget1.wav","null","audio-keyboard-response","360","2.1.0","531671","J=YES, F=NO","bpvjy55b5b","1","74","83","65","","","","","","","","","","","","","","","",""
"777","
          <p id=""word"" style=""font-size: 40px;"">sulist</p>
          <p style=""font-size: 16px;"">J = YES &nbsp;&nbsp;&nbsp; F = NO</p>
        ","f","html-keyboard-response","361","2.1.0","532448","J=YES, F=NO","bpvjy55b5b","1","74","83","65","","","","","","","","","sulist","budget1","pseudoword","pseudoword","f","true","",""
"1621","<p>Excellent! You have finished block 3 of 8.</p>
                     <p>Feel free to take a 30 second break.</p>
                     <p>Press any key when you're ready to continue.</p>","f","html-keyboard-response","362","2.1.0","534070","J=YES, F=NO","bpvjy55b5b","1","74","83","65","","","","","","","","","","","","","","","",""
"2318","<p>Starting main block 4 of 8. Press any key to continue.</p>","j","html-keyboard-response","363","2.1.0","536388","J=YES, F=NO","bpvjy55b5b","1","74","83","65","","","","","","","","","","","","","","","",""
"null","<p style=""font-size: 50px;"">+</p>","null","html-keyboard-response","364","2.1.0","536690","J=YES, F=NO","bpvjy55b5b","1","74","83","65","","","","","","","","","","","","","","","",""
"null","audio/beep-329314.mp3","null","audio-keyboard-response","365","2.1.0","538221","J=YES, F=NO","bpvjy55b5b","1","74","83","65","","","","","","","","","","","","","","","",""
"null","audio/terrain.wav","null","audio-keyboard-response","366","2.1.0","538791","J=YES, F=NO","bpvjy55b5b","1","74","83","65","","","","","","","","","","","","","","","",""
"623","
          <p id=""word"" style=""font-size: 40px;"">navigate</p>
          <p style=""font-size: 16px;"">J = YES &nbsp;&nbsp;&nbsp; F = NO</p>
        ","j","html-keyboard-response","367","2.1.0","539415","J=YES, F=NO","bpvjy55b5b","1","74","83","65","","","","","","","","","navigate","terrain","literal","experimental","j","true","",""
"null","<p style=""font-size: 50px;"">+</p>","null","html-keyboard-response","368","2.1.0","539719","J=YES, F=NO","bpvjy55b5b","1","74","83","65","","","","","","","","","","","","","","","",""
"null","audio/beep-329314.mp3","null","audio-keyboard-response","369","2.1.0","541241","J=YES, F=NO","bpvjy55b5b","1","74","83","65","","","","","","","","","","","","","","","",""
"null","audio/show.wav","null","audio-keyboard-response","370","2.1.0","541791","J=YES, F=NO","bpvjy55b5b","1","74","83","65","","","","","","","","","","","","","","","",""
"1130","
          <p id=""word"" style=""font-size: 40px;"">smark</p>
          <p style=""font-size: 16px;"">J = YES &nbsp;&nbsp;&nbsp; F = NO</p>
        ","f","html-keyboard-response","371","2.1.0","542921","J=YES, F=NO","bpvjy55b5b","1","74","83","65","","","","","","","","","smark","show","pseudoword","pseudoword","f","true","",""
"null","<p style=""font-size: 50px;"">+</p>","null","html-keyboard-response","372","2.1.0","543239","J=YES, F=NO","bpvjy55b5b","1","74","83","65","","","","","","","","","","","","","","","",""
"null","audio/beep-329314.mp3","null","audio-keyboard-response","373","2.1.0","544761","J=YES, F=NO","bpvjy55b5b","1","74","83","65","","","","","","","","","","","","","","","",""
"null","audio/vehicle1.wav","null","audio-keyboard-response","374","2.1.0","545592","J=YES, F=NO","bpvjy55b5b","1","74","83","65","","","","","","","","","","","","","","","",""
"556","
          <p id=""word"" style=""font-size: 40px;"">approach</p>
          <p style=""font-size: 16px;"">J = YES &nbsp;&nbsp;&nbsp; F = NO</p>
        ","j","html-keyboard-response","375","2.1.0","546148","J=YES, F=NO","bpvjy55b5b","1","74","83","65","","","","","","","","","approach","vehicle1","literal","experimental","j","true","",""
"null","<p style=""font-size: 50px;"">+</p>","null","html-keyboard-response","376","2.1.0","546449","J=YES, F=NO","bpvjy55b5b","1","74","83","65","","","","","","","","","","","","","","","",""
"null","audio/beep-329314.mp3","null","audio-keyboard-response","377","2.1.0","547981","J=YES, F=NO","bpvjy55b5b","1","74","83","65","","","","","","","","","","","","","","","",""
"null","audio/theory1.wav","null","audio-keyboard-response","378","2.1.0","548631","J=YES, F=NO","bpvjy55b5b","1","74","83","65","","","","","","","","","","","","","","","",""
"1342","
          <p id=""word"" style=""font-size: 40px;"">scolve</p>
          <p style=""font-size: 16px;"">J = YES &nbsp;&nbsp;&nbsp; F = NO</p>
        ","f","html-keyboard-response","379","2.1.0","549974","J=YES, F=NO","bpvjy55b5b","1","74","83","65","","","","","","","","","scolve","theory1","pseudoword","pseudoword","f","true","",""
"null","<p style=""font-size: 50px;"">+</p>","null","html-keyboard-response","380","2.1.0","550289","J=YES, F=NO","bpvjy55b5b","1","74","83","65","","","","","","","","","","","","","","","",""
"null","audio/beep-329314.mp3","null","audio-keyboard-response","381","2.1.0","551821","J=YES, F=NO","bpvjy55b5b","1","74","83","65","","","","","","","","","","","","","","","",""
"null","audio/news.wav","null","audio-keyboard-response","382","2.1.0","552571","J=YES, F=NO","bpvjy55b5b","1","74","83","65","","","","","","","","","","","","","","","",""
"606","
          <p id=""word"" style=""font-size: 40px;"">digest</p>
          <p style=""font-size: 16px;"">J = YES &nbsp;&nbsp;&nbsp; F = NO</p>
        ","j","html-keyboard-response","383","2.1.0","553178","J=YES, F=NO","bpvjy55b5b","1","74","83","65","","","","","","","","","digest","news","metaphor","experimental","j","true","",""
"null","<p style=""font-size: 50px;"">+</p>","null","html-keyboard-response","384","2.1.0","553480","J=YES, F=NO","bpvjy55b5b","1","74","83","65","","","","","","","","","","","","","","","",""
"null","audio/beep-329314.mp3","null","audio-keyboard-response","385","2.1.0","555001","J=YES, F=NO","bpvjy55b5b","1","74","83","65","","","","","","","","","","","","","","","",""
"null","audio/account1.wav","null","audio-keyboard-response","386","2.1.0","555691","J=YES, F=NO","bpvjy55b5b","1","74","83","65","","","","","","","","","","","","","","","",""
"544","
          <p id=""word"" style=""font-size: 40px;"">paint</p>
          <p style=""font-size: 16px;"">J = YES &nbsp;&nbsp;&nbsp; F = NO</p>
        ","j","html-keyboard-response","387","2.1.0","556235","J=YES, F=NO","bpvjy55b5b","1","74","83","65","","","","","","","","","paint","account1","filler","filler","j","true","",""
"null","<p style=""font-size: 50px;"">+</p>","null","html-keyboard-response","388","2.1.0","556539","J=YES, F=NO","bpvjy55b5b","1","74","83","65","","","","","","","","","","","","","","","",""
"null","audio/beep-329314.mp3","null","audio-keyboard-response","389","2.1.0","558061","J=YES, F=NO","bpvjy55b5b","1","74","83","65","","","","","","","","","","","","","","","",""
"null","audio/golf1.wav","null","audio-keyboard-response","390","2.1.0","558611","J=YES, F=NO","bpvjy55b5b","1","74","83","65","","","","","","","","","","","","","","","",""
"746","
          <p id=""word"" style=""font-size: 40px;"">drabble</p>
          <p style=""font-size: 16px;"">J = YES &nbsp;&nbsp;&nbsp; F = NO</p>
