"rt","stimulus","response","trial_type","trial_index","plugin_version","time_elapsed","response_mapping","subject_id","list_index","lextale_score","lextale_word_score","lextale_nonword_score","success","timeout","failed_images","failed_audio","failed_video","task","isWord","isDummy","target","prime","prime_type","stimulus_type","correct_response","correct","section","question_order"
"65285","
    <div style=""max-width: 800px; margin: auto; text-align: left;"">
      <h2>STANFORD UNIVERSITY</h2>
      <h3>Research Information Sheet</h3>
      <p><strong>Protocol Director:</strong> Robert Hawkins<br>
      <strong>Protocol Title:</strong> Communication and social cognition in natural audiovisual contexts<br>
      <strong>IRB#:</strong> 77226</p>

      <p><strong>DESCRIPTION:</strong> You are invited to participate in a research study about language and communication. The purpose of the research is to understand how you interact and communicate with other people in naturalistic settings as a fluent English speaker. This research will be conducted through the Prolific platform, including participants from the US, UK, and Canada. If you decide to participate in this research, you will play a communication game in a group with one or more partners.</p>

      <p><strong>TIME INVOLVEMENT:</strong> The task will last the amount of time advertised on Prolific. You are free to withdraw from the study at any time.</p>

      <p><strong>RISKS AND BENEFITS:</strong> You may become frustrated if your partner gets distracted, or experience discomfort if other participants in your group send text that is inappropriate for the task. We ask you to please be respectful of other participants you might be interacting with to mitigate these risks. You may also experience discomfort when being asked to discuss or challenge emotionally salient political beliefs. Study data will be stored securely, in compliance with Stanford University standards, minimizing the risk of confidentiality breach. This study advances our scientific understanding of how people communicate and collaborate in naturalistic settings. This study may lead to further insights about what can go wrong in teamwork, suggest potential interventions to overcome these barriers, and help to develop assistive technologies that collaborate with human partners. We cannot and do not guarantee or promise that you will receive any benefits from this study.</p>

      <p><strong>PAYMENTS:</strong> You will receive payment in the amount advertised on Prolific. If you do not complete this study, you will receive prorated payment based on the time that you have spent. Additionally, you may be eligible for bonus payments as described in the instructions.</p>

      <p><strong>PARTICIPANT’S RIGHTS:</strong> If you have read this form and have decided to participate in this project, please understand your participation is voluntary and you have the right to withdraw your consent or discontinue participation at any time without penalty or loss of benefits to which you are otherwise entitled. The alternative is not to participate. You have the right to refuse to answer particular questions. The results of this research study may be presented at scientific or professional meetings or published in scientific journals. Your individual privacy will be maintained in all published and written data resulting from the study. In accordance with scientific norms, the data from this study may be used or shared with other researchers for future research (after removing personally identifying information) without additional consent from you.</p>

      <p><strong>CONTACT INFORMATION:</strong><br>
      Questions: If you have any questions, concerns or complaints about this research, its procedures, risks and benefits, contact the Protocol Director, Robert Hawkins (<a href=""mailto:rdhawkins@stanford.edu"">rdhawkins@stanford.edu</a>, 217-549-6923).<br>
      Independent Contact: If you are not satisfied with how this study is being conducted, or if you have any concerns, complaints, or general questions about the research or your rights as a participant, please contact the Stanford Institutional Review Board (IRB) to speak to someone independent of the research team at 650-723-2480 or toll free at 1-866-680-2906, or email at <a href=""mailto:irbnon-med@stanford.edu"">irbnon-med@stanford.edu</a>. You can also write to the Stanford IRB, Stanford University, 1705 El Camino Real, Palo Alto, CA 94306.</p>

      <p><strong>Please save or print a copy of this page for your records.</strong></p>
      <p>If you agree to participate in this research, click ""Continue"" below.</p>
    </div>
  ","0","html-button-response","0","2.1.0","59897","J=YES, F=NO","cgldp9heh6","1","76","57","95","","","","","","","","","","","","","","","",""
"16054","
    <div style=""max-width: 800px; margin: auto; text-align: left;"">
      <h2>Welcome!</h2>
      <p>Thank you for participating in this study. The experiment consists of three parts:</p>
      <ol>
        <li>An English vocabulary test</li>
        <li>A main task in which you will hear and see words, and decide whether the written word is a real English word</li>
        <li>A brief survey about your background</li>
      </ol>
      <p>Each part will be introduced before it begins.</p>
      <p>Please make sure you are in a quiet environment and can hear audio clearly for the final task.</p>
      <p style=""margin-top: 2em;"">Press any key to begin.</p>
    </div>
  "," ","html-keyboard-response","1","2.1.0","75953","J=YES, F=NO","cgldp9heh6","1","76","57","95","","","","","","","","","","","","","","","",""
"","","","preload","2","2.1.0","78077","J=YES, F=NO","cgldp9heh6","1","76","57","95","true","false","[]","[]","[]","","","","","","","","","","",""
"24665","
    <div style=""max-width: 800px; margin: auto; text-align: left;"">
      <h2>Part 1: Vocabulary Test</h2>
      <p>You will now complete the first part of the study: a short English vocabulary test.</p>
      <p>This test is called <strong>LexTALE</strong> and helps us get a general sense of your English proficiency.</p>
      <p style=""margin-top: 2em;"">Press any key to continue.</p>
    </div>
  ","g","html-keyboard-response","3","2.1.0","102743","J=YES, F=NO","cgldp9heh6","1","76","57","95","","","","","","","","","","","","","","","",""
"38265","
    <div style=""max-width: 800px; margin: auto; text-align: left;"">
      <h2>LexTALE Vocabulary Test</h2>
      <p>In this test, you will see a series of letter strings—one at a time.</p>
      <p>Your task is to decide whether each string is a real English word.</p>
      <p><strong>Key responses:</strong></p>
      <ul>
        <li><strong>J</strong> = YES (real English word)</li>
        <li><strong>F</strong> = NO (not a real English word)</li>
      </ul>
      <p>There is no time limit, but please try to be accurate.</p>
      <p style=""margin-top: 2em;"">Press any key to begin.</p>
    </div>
  ","j","html-keyboard-response","4","2.1.0","141009","J=YES, F=NO","cgldp9heh6","1","76","57","95","","","","","","","","","","","","","","","",""
"1321","
  <p style=""font-size: 40px;"">platery</p>
  <p style=""font-size: 16px;"">J = YES &nbsp;&nbsp;&nbsp; F = NO</p>
","f","html-keyboard-response","5","2.1.0","142330","J=YES, F=NO","cgldp9heh6","1","76","57","95","","","","","","lextale","false","true","","","","","","","",""
"1645","
  <p style=""font-size: 40px;"">denial</p>
  <p style=""font-size: 16px;"">J = YES &nbsp;&nbsp;&nbsp; F = NO</p>
","f","html-keyboard-response","6","2.1.0","143976","J=YES, F=NO","cgldp9heh6","1","76","57","95","","","","","","lextale","true","true","","","","","","","",""
"987","
  <p style=""font-size: 40px;"">marrit</p>
  <p style=""font-size: 16px;"">J = YES &nbsp;&nbsp;&nbsp; F = NO</p>
","f","html-keyboard-response","7","2.1.0","144964","J=YES, F=NO","cgldp9heh6","1","76","57","95","","","","","","lextale","false","true","","","","","","","",""
"2060","
  <p style=""font-size: 40px;"">bottle</p>
  <p style=""font-size: 16px;"">J = YES &nbsp;&nbsp;&nbsp; F = NO</p>
","j","html-keyboard-response","8","2.1.0","147024","J=YES, F=NO","cgldp9heh6","1","76","57","95","","","","","","lextale","true","false","","","","","","","",""
"1121","
  <p style=""font-size: 40px;"">birst</p>
  <p style=""font-size: 16px;"">J = YES &nbsp;&nbsp;&nbsp; F = NO</p>
","f","html-keyboard-response","9","2.1.0","148147","J=YES, F=NO","cgldp9heh6","1","76","57","95","","","","","","lextale","false","false","","","","","","","",""
"1015","
  <p style=""font-size: 40px;"">envy</p>
  <p style=""font-size: 16px;"">J = YES &nbsp;&nbsp;&nbsp; F = NO</p>
","j","html-keyboard-response","10","2.1.0","149162","J=YES, F=NO","cgldp9heh6","1","76","57","95","","","","","","lextale","true","false","","","","","","","",""
"882","
  <p style=""font-size: 40px;"">brang</p>
  <p style=""font-size: 16px;"">J = YES &nbsp;&nbsp;&nbsp; F = NO</p>
","f","html-keyboard-response","11","2.1.0","150045","J=YES, F=NO","cgldp9heh6","1","76","57","95","","","","","","lextale","false","false","","","","","","","",""
"692","
  <p style=""font-size: 40px;"">huge</p>
  <p style=""font-size: 16px;"">J = YES &nbsp;&nbsp;&nbsp; F = NO</p>
","j","html-keyboard-response","12","2.1.0","150738","J=YES, F=NO","cgldp9heh6","1","76","57","95","","","","","","lextale","true","false","","","","","","","",""
"1203","
  <p style=""font-size: 40px;"">plove</p>
  <p style=""font-size: 16px;"">J = YES &nbsp;&nbsp;&nbsp; F = NO</p>
","f","html-keyboard-response","13","2.1.0","151942","J=YES, F=NO","cgldp9heh6","1","76","57","95","","","","","","lextale","false","false","","","","","","","",""
"884","
  <p style=""font-size: 40px;"">border</p>
  <p style=""font-size: 16px;"">J = YES &nbsp;&nbsp;&nbsp; F = NO</p>
","j","html-keyboard-response","14","2.1.0","152826","J=YES, F=NO","cgldp9heh6","1","76","57","95","","","","","","lextale","true","false","","","","","","","",""
"1106","
  <p style=""font-size: 40px;"">flimsy</p>
  <p style=""font-size: 16px;"">J = YES &nbsp;&nbsp;&nbsp; F = NO</p>
","f","html-keyboard-response","15","2.1.0","153933","J=YES, F=NO","cgldp9heh6","1","76","57","95","","","","","","lextale","true","false","","","","","","","",""
"1706","
  <p style=""font-size: 40px;"">drain</p>
  <p style=""font-size: 16px;"">J = YES &nbsp;&nbsp;&nbsp; F = NO</p>
","j","html-keyboard-response","16","2.1.0","155640","J=YES, F=NO","cgldp9heh6","1","76","57","95","","","","","","lextale","true","false","","","","","","","",""
"1352","
  <p style=""font-size: 40px;"">twindle</p>
  <p style=""font-size: 16px;"">J = YES &nbsp;&nbsp;&nbsp; F = NO</p>
","f","html-keyboard-response","17","2.1.0","156992","J=YES, F=NO","cgldp9heh6","1","76","57","95","","","","","","lextale","false","false","","","","","","","",""
"657","
  <p style=""font-size: 40px;"">propose</p>
  <p style=""font-size: 16px;"">J = YES &nbsp;&nbsp;&nbsp; F = NO</p>
","j","html-keyboard-response","18","2.1.0","157650","J=YES, F=NO","cgldp9heh6","1","76","57","95","","","","","","lextale","true","false","","","","","","","",""
"1008","
  <p style=""font-size: 40px;"">forlay</p>
  <p style=""font-size: 16px;"">J = YES &nbsp;&nbsp;&nbsp; F = NO</p>
","f","html-keyboard-response","19","2.1.0","158659","J=YES, F=NO","cgldp9heh6","1","76","57","95","","","","","","lextale","false","false","","","","","","","",""
"1024","
  <p style=""font-size: 40px;"">tenant</p>
  <p style=""font-size: 16px;"">J = YES &nbsp;&nbsp;&nbsp; F = NO</p>
","j","html-keyboard-response","20","2.1.0","159683","J=YES, F=NO","cgldp9heh6","1","76","57","95","","","","","","lextale","true","false","","","","","","","",""
"986","
  <p style=""font-size: 40px;"">strain</p>
  <p style=""font-size: 16px;"">J = YES &nbsp;&nbsp;&nbsp; F = NO</p>
","j","html-keyboard-response","21","2.1.0","160669","J=YES, F=NO","cgldp9heh6","1","76","57","95","","","","","","lextale","true","false","","","","","","","",""
"808","
  <p style=""font-size: 40px;"">holster</p>
  <p style=""font-size: 16px;"">J = YES &nbsp;&nbsp;&nbsp; F = NO</p>
","f","html-keyboard-response","22","2.1.0","161478","J=YES, F=NO","cgldp9heh6","1","76","57","95","","","","","","lextale","true","false","","","","","","","",""
"1821","
  <p style=""font-size: 40px;"">hinder</p>
  <p style=""font-size: 16px;"">J = YES &nbsp;&nbsp;&nbsp; F = NO</p>
","f","html-keyboard-response","23","2.1.0","163299","J=YES, F=NO","cgldp9heh6","1","76","57","95","","","","","","lextale","true","false","","","","","","","",""
"976","
  <p style=""font-size: 40px;"">swindle</p>
  <p style=""font-size: 16px;"">J = YES &nbsp;&nbsp;&nbsp; F = NO</p>
","f","html-keyboard-response","24","2.1.0","164276","J=YES, F=NO","cgldp9heh6","1","76","57","95","","","","","","lextale","true","false","","","","","","","",""
"1110","
  <p style=""font-size: 40px;"">nuder</p>
  <p style=""font-size: 16px;"">J = YES &nbsp;&nbsp;&nbsp; F = NO</p>
","f","html-keyboard-response","25","2.1.0","165387","J=YES, F=NO","cgldp9heh6","1","76","57","95","","","","","","lextale","false","false","","","","","","","",""
"595","
  <p style=""font-size: 40px;"">pillow</p>
  <p style=""font-size: 16px;"">J = YES &nbsp;&nbsp;&nbsp; F = NO</p>
","j","html-keyboard-response","26","2.1.0","165983","J=YES, F=NO","cgldp9heh6","1","76","57","95","","","","","","lextale","true","false","","","","","","","",""
"868","
  <p style=""font-size: 40px;"">shumble</p>
  <p style=""font-size: 16px;"">J = YES &nbsp;&nbsp;&nbsp; F = NO</p>
","f","html-keyboard-response","27","2.1.0","166852","J=YES, F=NO","cgldp9heh6","1","76","57","95","","","","","","lextale","false","false","","","","","","","",""
"1059","
  <p style=""font-size: 40px;"">thirst</p>
  <p style=""font-size: 16px;"">J = YES &nbsp;&nbsp;&nbsp; F = NO</p>
","j","html-keyboard-response","28","2.1.0","167912","J=YES, F=NO","cgldp9heh6","1","76","57","95","","","","","","lextale","true","false","","","","","","","",""
"1453","
  <p style=""font-size: 40px;"">unsail</p>
  <p style=""font-size: 16px;"">J = YES &nbsp;&nbsp;&nbsp; F = NO</p>
","f","html-keyboard-response","29","2.1.0","169365","J=YES, F=NO","cgldp9heh6","1","76","57","95","","","","","","lextale","false","false","","","","","","","",""
"3471","
  <p style=""font-size: 40px;"">rifle</p>
  <p style=""font-size: 16px;"">J = YES &nbsp;&nbsp;&nbsp; F = NO</p>
","j","html-keyboard-response","30","2.1.0","172837","J=YES, F=NO","cgldp9heh6","1","76","57","95","","","","","","lextale","true","false","","","","","","","",""
"2245","
  <p style=""font-size: 40px;"">mush</p>
  <p style=""font-size: 16px;"">J = YES &nbsp;&nbsp;&nbsp; F = NO</p>
","f","html-keyboard-response","31","2.1.0","175083","J=YES, F=NO","cgldp9heh6","1","76","57","95","","","","","","lextale","false","false","","","","","","","",""
"823","
  <p style=""font-size: 40px;"">drench</p>
  <p style=""font-size: 16px;"">J = YES &nbsp;&nbsp;&nbsp; F = NO</p>
","f","html-keyboard-response","32","2.1.0","175907","J=YES, F=NO","cgldp9heh6","1","76","57","95","","","","","","lextale","true","false","","","","","","","",""
"1134","
  <p style=""font-size: 40px;"">snirt</p>
  <p style=""font-size: 16px;"">J = YES &nbsp;&nbsp;&nbsp; F = NO</p>
","f","html-keyboard-response","33","2.1.0","177041","J=YES, F=NO","cgldp9heh6","1","76","57","95","","","","","","lextale","false","false","","","","","","","",""
"835","
  <p style=""font-size: 40px;"">bitter</p>
  <p style=""font-size: 16px;"">J = YES &nbsp;&nbsp;&nbsp; F = NO</p>
","j","html-keyboard-response","34","2.1.0","177877","J=YES, F=NO","cgldp9heh6","1","76","57","95","","","","","","lextale","true","false","","","","","","","",""
"1301","
  <p style=""font-size: 40px;"">pliff</p>
  <p style=""font-size: 16px;"">J = YES &nbsp;&nbsp;&nbsp; F = NO</p>
","f","html-keyboard-response","35","2.1.0","179179","J=YES, F=NO","cgldp9heh6","1","76","57","95","","","","","","lextale","false","false","","","","","","","",""
"675","
  <p style=""font-size: 40px;"">tablet</p>
  <p style=""font-size: 16px;"">J = YES &nbsp;&nbsp;&nbsp; F = NO</p>
","j","html-keyboard-response","36","2.1.0","179855","J=YES, F=NO","cgldp9heh6","1","76","57","95","","","","","","lextale","true","false","","","","","","","",""
"1148","
  <p style=""font-size: 40px;"">glimmer</p>
  <p style=""font-size: 16px;"">J = YES &nbsp;&nbsp;&nbsp; F = NO</p>
","f","html-keyboard-response","37","2.1.0","181003","J=YES, F=NO","cgldp9heh6","1","76","57","95","","","","","","lextale","true","false","","","","","","","",""
"1083","
  <p style=""font-size: 40px;"">slink</p>
  <p style=""font-size: 16px;"">J = YES &nbsp;&nbsp;&nbsp; F = NO</p>
","f","html-keyboard-response","38","2.1.0","182087","J=YES, F=NO","cgldp9heh6","1","76","57","95","","","","","","lextale","true","false","","","","","","","",""
"2182","
  <p style=""font-size: 40px;"">clever</p>
  <p style=""font-size: 16px;"">J = YES &nbsp;&nbsp;&nbsp; F = NO</p>
","j","html-keyboard-response","39","2.1.0","184269","J=YES, F=NO","cgldp9heh6","1","76","57","95","","","","","","lextale","true","false","","","","","","","",""
"655","
  <p style=""font-size: 40px;"">grum</p>
  <p style=""font-size: 16px;"">J = YES &nbsp;&nbsp;&nbsp; F = NO</p>
","f","html-keyboard-response","40","2.1.0","184925","J=YES, F=NO","cgldp9heh6","1","76","57","95","","","","","","lextale","false","false","","","","","","","",""
"854","
  <p style=""font-size: 40px;"">string</p>
  <p style=""font-size: 16px;"">J = YES &nbsp;&nbsp;&nbsp; F = NO</p>
","j","html-keyboard-response","41","2.1.0","185779","J=YES, F=NO","cgldp9heh6","1","76","57","95","","","","","","lextale","true","false","","","","","","","",""
"919","
  <p style=""font-size: 40px;"">plim</p>
  <p style=""font-size: 16px;"">J = YES &nbsp;&nbsp;&nbsp; F = NO</p>
","f","html-keyboard-response","42","2.1.0","186699","J=YES, F=NO","cgldp9heh6","1","76","57","95","","","","","","lextale","false","false","","","","","","","",""
"826","
  <p style=""font-size: 40px;"">cable</p>
  <p style=""font-size: 16px;"">J = YES &nbsp;&nbsp;&nbsp; F = NO</p>
","j","html-keyboard-response","43","2.1.0","187526","J=YES, F=NO","cgldp9heh6","1","76","57","95","","","","","","lextale","true","false","","","","","","","",""
"975","
  <p style=""font-size: 40px;"">shrivel</p>
  <p style=""font-size: 16px;"">J = YES &nbsp;&nbsp;&nbsp; F = NO</p>
","f","html-keyboard-response","44","2.1.0","188501","J=YES, F=NO","cgldp9heh6","1","76","57","95","","","","","","lextale","true","false","","","","","","","",""
"1615","
  <p style=""font-size: 40px;"">tarnish</p>
  <p style=""font-size: 16px;"">J = YES &nbsp;&nbsp;&nbsp; F = NO</p>
","f","html-keyboard-response","45","2.1.0","190117","J=YES, F=NO","cgldp9heh6","1","76","57","95","","","","","","lextale","true","false","","","","","","","",""
"2380","
  <p style=""font-size: 40px;"">blim</p>
  <p style=""font-size: 16px;"">J = YES &nbsp;&nbsp;&nbsp; F = NO</p>
","f","html-keyboard-response","46","2.1.0","192498","J=YES, F=NO","cgldp9heh6","1","76","57","95","","","","","","lextale","false","false","","","","","","","",""
"935","
  <p style=""font-size: 40px;"">stifle</p>
  <p style=""font-size: 16px;"">J = YES &nbsp;&nbsp;&nbsp; F = NO</p>
","f","html-keyboard-response","47","2.1.0","193433","J=YES, F=NO","cgldp9heh6","1","76","57","95","","","","","","lextale","true","false","","","","","","","",""
"797","
  <p style=""font-size: 40px;"">bint</p>
  <p style=""font-size: 16px;"">J = YES &nbsp;&nbsp;&nbsp; F = NO</p>
","f","html-keyboard-response","48","2.1.0","194231","J=YES, F=NO","cgldp9heh6","1","76","57","95","","","","","","lextale","false","false","","","","","","","",""
"794","
  <p style=""font-size: 40px;"">purple</p>
  <p style=""font-size: 16px;"">J = YES &nbsp;&nbsp;&nbsp; F = NO</p>
","j","html-keyboard-response","49","2.1.0","195026","J=YES, F=NO","cgldp9heh6","1","76","57","95","","","","","","lextale","true","false","","","","","","","",""
"773","
  <p style=""font-size: 40px;"">wriggle</p>
  <p style=""font-size: 16px;"">J = YES &nbsp;&nbsp;&nbsp; F = NO</p>
","j","html-keyboard-response","50","2.1.0","195799","J=YES, F=NO","cgldp9heh6","1","76","57","95","","","","","","lextale","true","false","","","","","","","",""
"883","
  <p style=""font-size: 40px;"">mangle</p>
  <p style=""font-size: 16px;"">J = YES &nbsp;&nbsp;&nbsp; F = NO</p>
","f","html-keyboard-response","51","2.1.0","196683","J=YES, F=NO","cgldp9heh6","1","76","57","95","","","","","","lextale","true","false","","","","","","","",""
"1173","
  <p style=""font-size: 40px;"">shramp</p>
  <p style=""font-size: 16px;"">J = YES &nbsp;&nbsp;&nbsp; F = NO</p>
","f","html-keyboard-response","52","2.1.0","197857","J=YES, F=NO","cgldp9heh6","1","76","57","95","","","","","","lextale","false","false","","","","","","","",""
"732","
  <p style=""font-size: 40px;"">flirt</p>
  <p style=""font-size: 16px;"">J = YES &nbsp;&nbsp;&nbsp; F = NO</p>
","j","html-keyboard-response","53","2.1.0","198590","J=YES, F=NO","cgldp9heh6","1","76","57","95","","","","","","lextale","true","false","","","","","","","",""
"801","
  <p style=""font-size: 40px;"">frip</p>
  <p style=""font-size: 16px;"">J = YES &nbsp;&nbsp;&nbsp; F = NO</p>
","f","html-keyboard-response","54","2.1.0","199391","J=YES, F=NO","cgldp9heh6","1","76","57","95","","","","","","lextale","false","false","","","","","","","",""
"2195","
  <p style=""font-size: 40px;"">tangle</p>
  <p style=""font-size: 16px;"">J = YES &nbsp;&nbsp;&nbsp; F = NO</p>
","j","html-keyboard-response","55","2.1.0","201587","J=YES, F=NO","cgldp9heh6","1","76","57","95","","","","","","lextale","true","false","","","","","","","",""
"1569","
  <p style=""font-size: 40px;"">crumble</p>
  <p style=""font-size: 16px;"">J = YES &nbsp;&nbsp;&nbsp; F = NO</p>
","j","html-keyboard-response","56","2.1.0","203157","J=YES, F=NO","cgldp9heh6","1","76","57","95","","","","","","lextale","true","false","","","","","","","",""
"866","
  <p style=""font-size: 40px;"">wrinkle</p>
  <p style=""font-size: 16px;"">J = YES &nbsp;&nbsp;&nbsp; F = NO</p>
","j","html-keyboard-response","57","2.1.0","204024","J=YES, F=NO","cgldp9heh6","1","76","57","95","","","","","","lextale","true","false","","","","","","","",""
"827","
  <p style=""font-size: 40px;"">slumb</p>
  <p style=""font-size: 16px;"">J = YES &nbsp;&nbsp;&nbsp; F = NO</p>
","f","html-keyboard-response","58","2.1.0","204852","J=YES, F=NO","cgldp9heh6","1","76","57","95","","","","","","lextale","false","false","","","","","","","",""
"820","
  <p style=""font-size: 40px;"">jungle</p>
  <p style=""font-size: 16px;"">J = YES &nbsp;&nbsp;&nbsp; F = NO</p>
","j","html-keyboard-response","59","2.1.0","205672","J=YES, F=NO","cgldp9heh6","1","76","57","95","","","","","","lextale","true","false","","","","","","","",""
"705","
  <p style=""font-size: 40px;"">frolick</p>
  <p style=""font-size: 16px;"">J = YES &nbsp;&nbsp;&nbsp; F = NO</p>
","f","html-keyboard-response","60","2.1.0","206378","J=YES, F=NO","cgldp9heh6","1","76","57","95","","","","","","lextale","false","false","","","","","","","",""
"4621","
      <h2>LexTALE Test Completed</h2>
      <p>Your LexTALE vocabulary score is: <strong>76%</strong></p>
      <p>Press any key to continue.</p>
    "," ","html-keyboard-response","61","2.1.0","211000","J=YES, F=NO","cgldp9heh6","1","76","57","95","","","","","","","","","","","","","","","",""
"24727","
    <div style=""max-width: 800px; margin: auto; text-align: left;"">
      <h2>Break Time</h2>
      <p>You have completed the first part of the study.</p>
      <p>You may take a short <strong>30-second break</strong> before continuing.</p>
      <p>When you’re ready, press any key to continue to the final task.</p>
    </div>
  "," ","html-keyboard-response","62","2.1.0","235728","J=YES, F=NO","cgldp9heh6","1","76","57","95","","","","","","","","","","","","","","","",""
"36205","
    <div style=""max-width: 800px; margin: auto; text-align: left;"">
      <h2>Part 2: Lexical Decision Task</h2>
      <p>You will now begin the second part of the study.</p>
      <p>Each trial will follow this sequence:</p>
      <ul>
        <li>A fixation cross (+) appears at the center of the screen.</li>
        <li>You will hear a short beep followed by a spoken word.</li>
        <li>A written word will appear briefly on the screen.</li>
      </ul>
      <p>Your task is to judge whether the <strong>written word</strong> is a real English word.</p>
      <p style=""margin-top: 1em;""><strong>Key responses:</strong></p>
      <ul>
        <li><strong>J</strong> = YES (real English word)</li>
        <li><strong>F</strong> = NO (not a real English word)</li>
      </ul>
      <p>Please respond as quickly and accurately as you can.</p>
      <p style=""margin-top: 2em;"">Press any key to continue.</p>
    </div>
  "," ","html-keyboard-response","63","2.1.0","271933","J=YES, F=NO","cgldp9heh6","1","76","57","95","","","","","","","","","","","","","","","",""
"21333","
    <div style=""max-width: 800px; margin: auto; text-align: left;"">
      <h2>Before You Begin</h2>
      <p>Make sure your sound is turned on.</p>
      <p>You will hear audio during each trial, but your decision should be based only on the <strong>written word</strong> you see on the screen.</p>
      <p><strong>Reminder:</strong></p>
      <ul>
        <li><strong>J</strong> = YES (real English word)</li>
        <li><strong>F</strong> = NO (not a real English word)</li>
      </ul>
      <p style=""margin-top: 2em;"">Press any key when you are ready to begin.</p>
    </div>
  "," ","html-keyboard-response","64","2.1.0","293268","J=YES, F=NO","cgldp9heh6","1","76","57","95","","","","","","","","","","","","","","","",""
"6285","
    <div style=""max-width: 800px; margin: auto; text-align: left;"">
      <h2>Part 2: Practice Trials</h2>
      <p>You will now complete a few <strong>practice trials</strong> to get familiar with the task.</p>
      <p>These trials are <strong>not scored</strong> and are only to help you get used to the format.</p>
      <p style=""margin-top: 2em;"">Press any key to begin.</p>
    </div>
  "," ","html-keyboard-response","65","2.1.0","299553","J=YES, F=NO","cgldp9heh6","1","76","57","95","","","","","","","","","","","","","","","",""
"2069","<p>Starting practice block 1 of 2. Press any key to continue.</p>"," ","html-keyboard-response","66","2.1.0","301623","J=YES, F=NO","cgldp9heh6","1","76","57","95","","","","","","","","","","","","","","","",""
"null","<p style=""font-size: 50px;"">+</p>","null","html-keyboard-response","67","2.1.0","301929","J=YES, F=NO","cgldp9heh6","1","76","57","95","","","","","","","","","","","","","","","",""
"null","audio/beep-329314.mp3","null","audio-keyboard-response","68","2.1.0","303969","J=YES, F=NO","cgldp9heh6","1","76","57","95","","","","","","","","","","","","","","","",""
"null","audio/tunnel.wav","null","audio-keyboard-response","69","2.1.0","304748","J=YES, F=NO","cgldp9heh6","1","76","57","95","","","","","","","","","","","","","","","",""
"859","
          <p id=""word"" style=""font-size: 40px;"">gred</p>
          <p style=""font-size: 16px;"">J = YES &nbsp;&nbsp;&nbsp; F = NO</p>
        ","f","html-keyboard-response","70","2.1.0","305608","J=YES, F=NO","cgldp9heh6","1","76","57","95","","","","","","","","","gred","tunnel","pseudoword","pseudoword","f","true","",""
"null","<p style=""font-size: 50px;"">+</p>","null","html-keyboard-response","71","2.1.0","305922","J=YES, F=NO","cgldp9heh6","1","76","57","95","","","","","","","","","","","","","","","",""
"null","audio/beep-329314.mp3","null","audio-keyboard-response","72","2.1.0","307425","J=YES, F=NO","cgldp9heh6","1","76","57","95","","","","","","","","","","","","","","","",""
"null","audio/mile1.wav","null","audio-keyboard-response","73","2.1.0","307990","J=YES, F=NO","cgldp9heh6","1","76","57","95","","","","","","","","","","","","","","","",""
"925","
          <p id=""word"" style=""font-size: 40px;"">writch</p>
          <p style=""font-size: 16px;"">J = YES &nbsp;&nbsp;&nbsp; F = NO</p>
        ","j","html-keyboard-response","74","2.1.0","308916","J=YES, F=NO","cgldp9heh6","1","76","57","95","","","","","","","","","writch","mile1","pseudoword","pseudoword","f","false","",""
"null","<p style=""font-size: 50px;"">+</p>","null","html-keyboard-response","75","2.1.0","309226","J=YES, F=NO","cgldp9heh6","1","76","57","95","","","","","","","","","","","","","","","",""
"null","audio/beep-329314.mp3","null","audio-keyboard-response","76","2.1.0","310732","J=YES, F=NO","cgldp9heh6","1","76","57","95","","","","","","","","","","","","","","","",""
"null","audio/show.wav","null","audio-keyboard-response","77","2.1.0","311361","J=YES, F=NO","cgldp9heh6","1","76","57","95","","","","","","","","","","","","","","","",""
"488","
          <p id=""word"" style=""font-size: 40px;"">smark</p>
          <p style=""font-size: 16px;"">J = YES &nbsp;&nbsp;&nbsp; F = NO</p>
        ","j","html-keyboard-response","78","2.1.0","311850","J=YES, F=NO","cgldp9heh6","1","76","57","95","","","","","","","","","smark","show","pseudoword","pseudoword","f","false","",""
"null","<p style=""font-size: 50px;"">+</p>","null","html-keyboard-response","79","2.1.0","312152","J=YES, F=NO","cgldp9heh6","1","76","57","95","","","","","","","","","","","","","","","",""
"null","audio/beep-329314.mp3","null","audio-keyboard-response","80","2.1.0","313654","J=YES, F=NO","cgldp9heh6","1","76","57","95","","","","","","","","","","","","","","","",""
"null","audio/bottle.wav","null","audio-keyboard-response","81","2.1.0","314220","J=YES, F=NO","cgldp9heh6","1","76","57","95","","","","","","","","","","","","","","","",""
"379","
          <p id=""word"" style=""font-size: 40px;"">watch</p>
          <p style=""font-size: 16px;"">J = YES &nbsp;&nbsp;&nbsp; F = NO</p>
        ","j","html-keyboard-response","82","2.1.0","314600","J=YES, F=NO","cgldp9heh6","1","76","57","95","","","","","","","","","watch","bottle","filler","filler","j","true","",""
"null","<p style=""font-size: 50px;"">+</p>","null","html-keyboard-response","83","2.1.0","314908","J=YES, F=NO","cgldp9heh6","1","76","57","95","","","","","","","","","","","","","","","",""
"null","audio/beep-329314.mp3","null","audio-keyboard-response","84","2.1.0","316407","J=YES, F=NO","cgldp9heh6","1","76","57","95","","","","","","","","","","","","","","","",""
"null","audio/novel.wav","null","audio-keyboard-response","85","2.1.0","317185","J=YES, F=NO","cgldp9heh6","1","76","57","95","","","","","","","","","","","","","","","",""
"640","
          <p id=""word"" style=""font-size: 40px;"">type</p>
          <p style=""font-size: 16px;"">J = YES &nbsp;&nbsp;&nbsp; F = NO</p>
        ","j","html-keyboard-response","86","2.1.0","317826","J=YES, F=NO","cgldp9heh6","1","76","57","95","","","","","","","","","type","novel","filler","filler","j","true","",""
"null","<p style=""font-size: 50px;"">+</p>","null","html-keyboard-response","87","2.1.0","318137","J=YES, F=NO","cgldp9heh6","1","76","57","95","","","","","","","","","","","","","","","",""
"null","audio/beep-329314.mp3","null","audio-keyboard-response","88","2.1.0","319649","J=YES, F=NO","cgldp9heh6","1","76","57","95","","","","","","","","","","","","","","","",""
"null","audio/account1.wav","null","audio-keyboard-response","89","2.1.0","320556","J=YES, F=NO","cgldp9heh6","1","76","57","95","","","","","","","","","","","","","","","",""
"153","
          <p id=""word"" style=""font-size: 40px;"">paint</p>
          <p style=""font-size: 16px;"">J = YES &nbsp;&nbsp;&nbsp; F = NO</p>
        ","j","html-keyboard-response","90","2.1.0","320710","J=YES, F=NO","cgldp9heh6","1","76","57","95","","","","","","","","","paint","account1","filler","filler","j","true","",""
"null","<p style=""font-size: 50px;"">+</p>","null","html-keyboard-response","91","2.1.0","321018","J=YES, F=NO","cgldp9heh6","1","76","57","95","","","","","","","","","","","","","","","",""
"null","audio/beep-329314.mp3","null","audio-keyboard-response","92","2.1.0","322530","J=YES, F=NO","cgldp9heh6","1","76","57","95","","","","","","","","","","","","","","","",""
"null","audio/mouth1.wav","null","audio-keyboard-response","93","2.1.0","323329","J=YES, F=NO","cgldp9heh6","1","76","57","95","","","","","","","","","","","","","","","",""
"698","
          <p id=""word"" style=""font-size: 40px;"">spolial</p>
          <p style=""font-size: 16px;"">J = YES &nbsp;&nbsp;&nbsp; F = NO</p>
        ","f","html-keyboard-response","94","2.1.0","324028","J=YES, F=NO","cgldp9heh6","1","76","57","95","","","","","","","","","spolial","mouth1","pseudoword","pseudoword","f","true","",""
"null","<p style=""font-size: 50px;"">+</p>","null","html-keyboard-response","95","2.1.0","324334","J=YES, F=NO","cgldp9heh6","1","76","57","95","","","","","","","","","","","","","","","",""
"null","audio/beep-329314.mp3","null","audio-keyboard-response","96","2.1.0","325836","J=YES, F=NO","cgldp9heh6","1","76","57","95","","","","","","","","","","","","","","","",""
"null","audio/van1.wav","null","audio-keyboard-response","97","2.1.0","326337","J=YES, F=NO","cgldp9heh6","1","76","57","95","","","","","","","","","","","","","","","",""
"502","
          <p id=""word"" style=""font-size: 40px;"">push</p>
          <p style=""font-size: 16px;"">J = YES &nbsp;&nbsp;&nbsp; F = NO</p>
        ","j","html-keyboard-response","98","2.1.0","326840","J=YES, F=NO","cgldp9heh6","1","76","57","95","","","","","","","","","push","van1","filler","filler","j","true","",""
"null","<p style=""font-size: 50px;"">+</p>","null","html-keyboard-response","99","2.1.0","327142","J=YES, F=NO","cgldp9heh6","1","76","57","95","","","","","","","","","","","","","","","",""
"null","audio/beep-329314.mp3","null","audio-keyboard-response","100","2.1.0","328652","J=YES, F=NO","cgldp9heh6","1","76","57","95","","","","","","","","","","","","","","","",""
"null","audio/ankle1.wav","null","audio-keyboard-response","101","2.1.0","329495","J=YES, F=NO","cgldp9heh6","1","76","57","95","","","","","","","","","","","","","","","",""
"582","
          <p id=""word"" style=""font-size: 40px;"">switm</p>
          <p style=""font-size: 16px;"">J = YES &nbsp;&nbsp;&nbsp; F = NO</p>
        ","f","html-keyboard-response","102","2.1.0","330077","J=YES, F=NO","cgldp9heh6","1","76","57","95","","","","","","","","","switm","ankle1","pseudoword","pseudoword","f","true","",""
"null","<p style=""font-size: 50px;"">+</p>","null","html-keyboard-response","103","2.1.0","330393","J=YES, F=NO","cgldp9heh6","1","76","57","95","","","","","","","","","","","","","","","",""
"null","audio/beep-329314.mp3","null","audio-keyboard-response","104","2.1.0","331895","J=YES, F=NO","cgldp9heh6","1","76","57","95","","","","","","","","","","","","","","","",""
"null","audio/bishop1.wav","null","audio-keyboard-response","105","2.1.0","332503","J=YES, F=NO","cgldp9heh6","1","76","57","95","","","","","","","","","","","","","","","",""
"492","
          <p id=""word"" style=""font-size: 40px;"">play</p>
          <p style=""font-size: 16px;"">J = YES &nbsp;&nbsp;&nbsp; F = NO</p>
        ","j","html-keyboard-response","106","2.1.0","332996","J=YES, F=NO","cgldp9heh6","1","76","57","95","","","","","","","","","play","bishop1","filler","filler","j","true","",""
"null","<p style=""font-size: 50px;"">+</p>","null","html-keyboard-response","107","2.1.0","333300","J=YES, F=NO","cgldp9heh6","1","76","57","95","","","","","","","","","","","","","","","",""
"null","audio/beep-329314.mp3","null","audio-keyboard-response","108","2.1.0","334797","J=YES, F=NO","cgldp9heh6","1","76","57","95","","","","","","","","","","","","","","","",""
"null","audio/bridge.wav","null","audio-keyboard-response","109","2.1.0","335618","J=YES, F=NO","cgldp9heh6","1","76","57","95","","","","","","","","","","","","","","","",""
"546","
          <p id=""word"" style=""font-size: 40px;"">crack</p>
          <p style=""font-size: 16px;"">J = YES &nbsp;&nbsp;&nbsp; F = NO</p>
        ","j","html-keyboard-response","110","2.1.0","336165","J=YES, F=NO","cgldp9heh6","1","76","57","95","","","","","","","","","crack","bridge","filler","filler","j","true","",""
"null","<p style=""font-size: 50px;"">+</p>","null","html-keyboard-response","111","2.1.0","336471","J=YES, F=NO","cgldp9heh6","1","76","57","95","","","","","","","","","","","","","","","",""
"null","audio/beep-329314.mp3","null","audio-keyboard-response","112","2.1.0","337975","J=YES, F=NO","cgldp9heh6","1","76","57","95","","","","","","","","","","","","","","","",""
"null","audio/emotion.wav","null","audio-keyboard-response","113","2.1.0","338775","J=YES, F=NO","cgldp9heh6","1","76","57","95","","","","","","","","","","","","","","","",""
"900","
          <p id=""word"" style=""font-size: 40px;"">devering</p>
          <p style=""font-size: 16px;"">J = YES &nbsp;&nbsp;&nbsp; F = NO</p>
        ","j","html-keyboard-response","114","2.1.0","339677","J=YES, F=NO","cgldp9heh6","1","76","57","95","","","","","","","","","devering","emotion","pseudoword","pseudoword","f","false","",""
"1672","<p>Starting practice block 2 of 2. Press any key to continue.</p>"," ","html-keyboard-response","115","2.1.0","341349","J=YES, F=NO","cgldp9heh6","1","76","57","95","","","","","","","","","","","","","","","",""
"null","<p style=""font-size: 50px;"">+</p>","null","html-keyboard-response","116","2.1.0","341655","J=YES, F=NO","cgldp9heh6","1","76","57","95","","","","","","","","","","","","","","","",""
"null","audio/beep-329314.mp3","null","audio-keyboard-response","117","2.1.0","343160","J=YES, F=NO","cgldp9heh6","1","76","57","95","","","","","","","","","","","","","","","",""
"null","audio/key1.wav","null","audio-keyboard-response","118","2.1.0","343554","J=YES, F=NO","cgldp9heh6","1","76","57","95","","","","","","","","","","","","","","","",""
"299","
          <p id=""word"" style=""font-size: 40px;"">sminsh</p>
          <p style=""font-size: 16px;"">J = YES &nbsp;&nbsp;&nbsp; F = NO</p>
        ","j","html-keyboard-response","119","2.1.0","343854","J=YES, F=NO","cgldp9heh6","1","76","57","95","","","","","","","","","sminsh","key1","pseudoword","pseudoword","f","false","",""
"null","<p style=""font-size: 50px;"">+</p>","null","html-keyboard-response","120","2.1.0","344157","J=YES, F=NO","cgldp9heh6","1","76","57","95","","","","","","","","","","","","","","","",""
"null","audio/beep-329314.mp3","null","audio-keyboard-response","121","2.1.0","345816","J=YES, F=NO","cgldp9heh6","1","76","57","95","","","","","","","","","","","","","","","",""
"null","audio/kettle1.wav","null","audio-keyboard-response","122","2.1.0","346488","J=YES, F=NO","cgldp9heh6","1","76","57","95","","","","","","","","","","","","","","","",""
"404","
          <p id=""word"" style=""font-size: 40px;"">wrap</p>
          <p style=""font-size: 16px;"">J = YES &nbsp;&nbsp;&nbsp; F = NO</p>
        ","j","html-keyboard-response","123","2.1.0","346893","J=YES, F=NO","cgldp9heh6","1","76","57","95","","","","","","","","","wrap","kettle1","filler","filler","j","true","",""
"null","<p style=""font-size: 50px;"">+</p>","null","html-keyboard-response","124","2.1.0","347196","J=YES, F=NO","cgldp9heh6","1","76","57","95","","","","","","","","","","","","","","","",""
"null","audio/beep-329314.mp3","null","audio-keyboard-response","125","2.1.0","348696","J=YES, F=NO","cgldp9heh6","1","76","57","95","","","","","","","","","","","","","","","",""
"null","audio/dome.wav","null","audio-keyboard-response","126","2.1.0","349325","J=YES, F=NO","cgldp9heh6","1","76","57","95","","","","","","","","","","","","","","","",""
"561","
          <p id=""word"" style=""font-size: 40px;"">scrupliness</p>
          <p style=""font-size: 16px;"">J = YES &nbsp;&nbsp;&nbsp; F = NO</p>
        ","f","html-keyboard-response","127","2.1.0","349887","J=YES, F=NO","cgldp9heh6","1","76","57","95","","","","","","","","","scrupliness","dome","pseudoword","pseudoword","f","true","",""
"null","<p style=""font-size: 50px;"">+</p>","null","html-keyboard-response","128","2.1.0","350195","J=YES, F=NO","cgldp9heh6","1","76","57","95","","","","","","","","","","","","","","","",""
"null","audio/beep-329314.mp3","null","audio-keyboard-response","129","2.1.0","351704","J=YES, F=NO","cgldp9heh6","1","76","57","95","","","","","","","","","","","","","","","",""
"null","audio/butter1.wav","null","audio-keyboard-response","130","2.1.0","352312","J=YES, F=NO","cgldp9heh6","1","76","57","95","","","","","","","","","","","","","","","",""
"667","
          <p id=""word"" style=""font-size: 40px;"">chew</p>
          <p style=""font-size: 16px;"">J = YES &nbsp;&nbsp;&nbsp; F = NO</p>
        ","j","html-keyboard-response","131","2.1.0","352979","J=YES, F=NO","cgldp9heh6","1","76","57","95","","","","","","","","","chew","butter1","filler","filler","j","true","",""
"null","<p style=""font-size: 50px;"">+</p>","null","html-keyboard-response","132","2.1.0","353284","J=YES, F=NO","cgldp9heh6","1","76","57","95","","","","","","","","","","","","","","","",""
"null","audio/beep-329314.mp3","null","audio-keyboard-response","133","2.1.0","354797","J=YES, F=NO","cgldp9heh6","1","76","57","95","","","","","","","","","","","","","","","",""
"null","audio/birth1.wav","null","audio-keyboard-response","134","2.1.0","355619","J=YES, F=NO","cgldp9heh6","1","76","57","95","","","","","","","","","","","","","","","",""
"572","
          <p id=""word"" style=""font-size: 40px;"">peel</p>
          <p style=""font-size: 16px;"">J = YES &nbsp;&nbsp;&nbsp; F = NO</p>
        ","j","html-keyboard-response","135","2.1.0","356191","J=YES, F=NO","cgldp9heh6","1","76","57","95","","","","","","","","","peel","birth1","filler","filler","j","true","",""
"null","<p style=""font-size: 50px;"">+</p>","null","html-keyboard-response","136","2.1.0","356498","J=YES, F=NO","cgldp9heh6","1","76","57","95","","","","","","","","","","","","","","","",""
"null","audio/beep-329314.mp3","null","audio-keyboard-response","137","2.1.0","357997","J=YES, F=NO","cgldp9heh6","1","76","57","95","","","","","","","","","","","","","","","",""
"null","audio/fence.wav","null","audio-keyboard-response","138","2.1.0","358925","J=YES, F=NO","cgldp9heh6","1","76","57","95","","","","","","","","","","","","","","","",""
"257","
          <p id=""word"" style=""font-size: 40px;"">trim</p>
          <p style=""font-size: 16px;"">J = YES &nbsp;&nbsp;&nbsp; F = NO</p>
        ","j","html-keyboard-response","139","2.1.0","359183","J=YES, F=NO","cgldp9heh6","1","76","57","95","","","","","","","","","trim","fence","filler","filler","j","true","",""
"null","<p style=""font-size: 50px;"">+</p>","null","html-keyboard-response","140","2.1.0","359487","J=YES, F=NO","cgldp9heh6","1","76","57","95","","","","","","","","","","","","","","","",""
"null","audio/beep-329314.mp3","null","audio-keyboard-response","141","2.1.0","360984","J=YES, F=NO","cgldp9heh6","1","76","57","95","","","","","","","","","","","","","","","",""
"null","audio/plot1.wav","null","audio-keyboard-response","142","2.1.0","361656","J=YES, F=NO","cgldp9heh6","1","76","57","95","","","","","","","","","","","","","","","",""
"533","
          <p id=""word"" style=""font-size: 40px;"">glenter</p>
          <p style=""font-size: 16px;"">J = YES &nbsp;&nbsp;&nbsp; F = NO</p>
        ","f","html-keyboard-response","143","2.1.0","362189","J=YES, F=NO","cgldp9heh6","1","76","57","95","","","","","","","","","glenter","plot1","pseudoword","pseudoword","f","true","",""
"null","<p style=""font-size: 50px;"">+</p>","null","html-keyboard-response","144","2.1.0","362494","J=YES, F=NO","cgldp9heh6","1","76","57","95","","","","","","","","","","","","","","","",""
"null","audio/beep-329314.mp3","null","audio-keyboard-response","145","2.1.0","363992","J=YES, F=NO","cgldp9heh6","1","76","57","95","","","","","","","","","","","","","","","",""
"null","audio/ankle1.wav","null","audio-keyboard-response","146","2.1.0","364472","J=YES, F=NO","cgldp9heh6","1","76","57","95","","","","","","","","","","","","","","","",""
"541","
          <p id=""word"" style=""font-size: 40px;"">kick</p>
          <p style=""font-size: 16px;"">J = YES &nbsp;&nbsp;&nbsp; F = NO</p>
        ","j","html-keyboard-response","147","2.1.0","365014","J=YES, F=NO","cgldp9heh6","1","76","57","95","","","","","","","","","kick","ankle1","filler","filler","j","true","",""
"null","<p style=""font-size: 50px;"">+</p>","null","html-keyboard-response","148","2.1.0","365318","J=YES, F=NO","cgldp9heh6","1","76","57","95","","","","","","","","","","","","","","","",""
"null","audio/beep-329314.mp3","null","audio-keyboard-response","149","2.1.0","366830","J=YES, F=NO","cgldp9heh6","1","76","57","95","","","","","","","","","","","","","","","",""
"null","audio/client1.wav","null","audio-keyboard-response","150","2.1.0","367629","J=YES, F=NO","cgldp9heh6","1","76","57","95","","","","","","","","","","","","","","","",""
"511","
          <p id=""word"" style=""font-size: 40px;"">droothe</p>
          <p style=""font-size: 16px;"">J = YES &nbsp;&nbsp;&nbsp; F = NO</p>
        ","j","html-keyboard-response","151","2.1.0","368142","J=YES, F=NO","cgldp9heh6","1","76","57","95","","","","","","","","","droothe","client1","pseudoword","pseudoword","f","false","",""
"null","<p style=""font-size: 50px;"">+</p>","null","html-keyboard-response","152","2.1.0","368456","J=YES, F=NO","cgldp9heh6","1","76","57","95","","","","","","","","","","","","","","","",""
"null","audio/beep-329314.mp3","null","audio-keyboard-response","153","2.1.0","369965","J=YES, F=NO","cgldp9heh6","1","76","57","95","","","","","","","","","","","","","","","",""
"null","audio/menu.wav","null","audio-keyboard-response","154","2.1.0","370701","J=YES, F=NO","cgldp9heh6","1","76","57","95","","","","","","","","","","","","","","","",""
"249","
          <p id=""word"" style=""font-size: 40px;"">slice</p>
          <p style=""font-size: 16px;"">J = YES &nbsp;&nbsp;&nbsp; F = NO</p>
        ","j","html-keyboard-response","155","2.1.0","370952","J=YES, F=NO","cgldp9heh6","1","76","57","95","","","","","","","","","slice","menu","filler","filler","j","true","",""
"null","<p style=""font-size: 50px;"">+</p>","null","html-keyboard-response","156","2.1.0","371266","J=YES, F=NO","cgldp9heh6","1","76","57","95","","","","","","","","","","","","","","","",""
"null","audio/beep-329314.mp3","null","audio-keyboard-response","157","2.1.0","372782","J=YES, F=NO","cgldp9heh6","1","76","57","95","","","","","","","","","","","","","","","",""
"null","audio/radio1.wav","null","audio-keyboard-response","158","2.1.0","373646","J=YES, F=NO","cgldp9heh6","1","76","57","95","","","","","","","","","","","","","","","",""
"303","
          <p id=""word"" style=""font-size: 40px;"">blanter</p>
          <p style=""font-size: 16px;"">J = YES &nbsp;&nbsp;&nbsp; F = NO</p>
        ","j","html-keyboard-response","159","2.1.0","373950","J=YES, F=NO","cgldp9heh6","1","76","57","95","","","","","","","","","blanter","radio1","pseudoword","pseudoword","f","false","",""
"null","<p style=""font-size: 50px;"">+</p>","null","html-keyboard-response","160","2.1.0","374259","J=YES, F=NO","cgldp9heh6","1","76","57","95","","","","","","","","","","","","","","","",""
"null","audio/beep-329314.mp3","null","audio-keyboard-response","161","2.1.0","375769","J=YES, F=NO","cgldp9heh6","1","76","57","95","","","","","","","","","","","","","","","",""
"null","audio/life1.wav","null","audio-keyboard-response","162","2.1.0","376504","J=YES, F=NO","cgldp9heh6","1","76","57","95","","","","","","","","","","","","","","","",""
"803","
          <p id=""word"" style=""font-size: 40px;"">flimch</p>
          <p style=""font-size: 16px;"">J = YES &nbsp;&nbsp;&nbsp; F = NO</p>
        ","f","html-keyboard-response","163","2.1.0","377308","J=YES, F=NO","cgldp9heh6","1","76","57","95","","","","","","","","","flimch","life1","pseudoword","pseudoword","f","true","",""
"42240","
    <div style=""max-width: 800px; margin: auto; text-align: left;"">
      <h2>Part 2: Main Trials</h2>
      <p>Great job on the practice trials!</p>
      <p>You will now begin the <strong>main set of trials</strong>.</p>
      <p>Remember your key assignments:</p>
      <ul>
        <li><strong>J</strong> = YES (real English word)</li>
        <li><strong>F</strong> = NO (not a real English word)</li>
      </ul>
      <p>Try to respond as <strong>quickly and accurately</strong> as possible.</p>
      <p style=""margin-top: 2em;"">Press any key to begin the main trials.</p>
    </div>
  "," ","html-keyboard-response","164","2.1.0","419549","J=YES, F=NO","cgldp9heh6","1","76","57","95","","","","","","","","","","","","","","","",""
"2369","<p>Starting main block 1 of 8. Press any key to continue.</p>"," ","html-keyboard-response","165","2.1.0","421919","J=YES, F=NO","cgldp9heh6","1","76","57","95","","","","","","","","","","","","","","","",""
"null","<p style=""font-size: 50px;"">+</p>","null","html-keyboard-response","166","2.1.0","422222","J=YES, F=NO","cgldp9heh6","1","76","57","95","","","","","","","","","","","","","","","",""
"null","audio/beep-329314.mp3","null","audio-keyboard-response","167","2.1.0","423945","J=YES, F=NO","cgldp9heh6","1","76","57","95","","","","","","","","","","","","","","","",""
"null","audio/handle.wav","null","audio-keyboard-response","168","2.1.0","424799","J=YES, F=NO","cgldp9heh6","1","76","57","95","","","","","","","","","","","","","","","",""
"491","
          <p id=""word"" style=""font-size: 40px;"">grasp</p>
          <p style=""font-size: 16px;"">J = YES &nbsp;&nbsp;&nbsp; F = NO</p>
        ","j","html-keyboard-response","169","2.1.0","425291","J=YES, F=NO","cgldp9heh6","1","76","57","95","","","","","","","","","grasp","handle","literal","experimental","j","true","",""
"null","<p style=""font-size: 50px;"">+</p>","null","html-keyboard-response","170","2.1.0","425597","J=YES, F=NO","cgldp9heh6","1","76","57","95","","","","","","","","","","","","","","","",""
"null","audio/beep-329314.mp3","null","audio-keyboard-response","171","2.1.0","427125","J=YES, F=NO","cgldp9heh6","1","76","57","95","","","","","","","","","","","","","","","",""
"null","audio/haste1.wav","null","audio-keyboard-response","172","2.1.0","427871","J=YES, F=NO","cgldp9heh6","1","76","57","95","","","","","","","","","","","","","","","",""
"628","
          <p id=""word"" style=""font-size: 40px;"">coraconate</p>
          <p style=""font-size: 16px;"">J = YES &nbsp;&nbsp;&nbsp; F = NO</p>
        ","f","html-keyboard-response","173","2.1.0","428499","J=YES, F=NO","cgldp9heh6","1","76","57","95","","","","","","","","","coraconate","haste1","pseudoword","pseudoword","f","true","",""
"null","<p style=""font-size: 50px;"">+</p>","null","html-keyboard-response","174","2.1.0","428802","J=YES, F=NO","cgldp9heh6","1","76","57","95","","","","","","","","","","","","","","","",""
"null","audio/beep-329314.mp3","null","audio-keyboard-response","175","2.1.0","430324","J=YES, F=NO","cgldp9heh6","1","76","57","95","","","","","","","","","","","","","","","",""
"null","audio/mind.wav","null","audio-keyboard-response","176","2.1.0","431071","J=YES, F=NO","cgldp9heh6","1","76","57","95","","","","","","","","","","","","","","","",""
"467","
          <p id=""word"" style=""font-size: 40px;"">clear</p>
          <p style=""font-size: 16px;"">J = YES &nbsp;&nbsp;&nbsp; F = NO</p>
        ","j","html-keyboard-response","177","2.1.0","431539","J=YES, F=NO","cgldp9heh6","1","76","57","95","","","","","","","","","clear","mind","metaphor","experimental","j","true","",""
"null","<p style=""font-size: 50px;"">+</p>","null","html-keyboard-response","178","2.1.0","431855","J=YES, F=NO","cgldp9heh6","1","76","57","95","","","","","","","","","","","","","","","",""
"null","audio/beep-329314.mp3","null","audio-keyboard-response","179","2.1.0","433375","J=YES, F=NO","cgldp9heh6","1","76","57","95","","","","","","","","","","","","","","","",""
"null","audio/holiday1.wav","null","audio-keyboard-response","180","2.1.0","434207","J=YES, F=NO","cgldp9heh6","1","76","57","95","","","","","","","","","","","","","","","",""
"481","
          <p id=""word"" style=""font-size: 40px;"">drivets</p>
          <p style=""font-size: 16px;"">J = YES &nbsp;&nbsp;&nbsp; F = NO</p>
        ","f","html-keyboard-response","181","2.1.0","434689","J=YES, F=NO","cgldp9heh6","1","76","57","95","","","","","","","","","drivets","holiday1","pseudoword","pseudoword","f","true","",""
"null","<p style=""font-size: 50px;"">+</p>","null","html-keyboard-response","182","2.1.0","434991","J=YES, F=NO","cgldp9heh6","1","76","57","95","","","","","","","","","","","","","","","",""
"null","audio/beep-329314.mp3","null","audio-keyboard-response","183","2.1.0","436511","J=YES, F=NO","cgldp9heh6","1","76","57","95","","","","","","","","","","","","","","","",""
"null","audio/noise1.wav","null","audio-keyboard-response","184","2.1.0","437301","J=YES, F=NO","cgldp9heh6","1","76","57","95","","","","","","","","","","","","","","","",""
"585","
          <p id=""word"" style=""font-size: 40px;"">slintered</p>
          <p style=""font-size: 16px;"">J = YES &nbsp;&nbsp;&nbsp; F = NO</p>
        ","f","html-keyboard-response","185","2.1.0","437887","J=YES, F=NO","cgldp9heh6","1","76","57","95","","","","","","","","","slintered","noise1","pseudoword","pseudoword","f","true","",""
"null","<p style=""font-size: 50px;"">+</p>","null","html-keyboard-response","186","2.1.0","438189","J=YES, F=NO","cgldp9heh6","1","76","57","95","","","","","","","","","","","","","","","",""
"null","audio/beep-329314.mp3","null","audio-keyboard-response","187","2.1.0","439711","J=YES, F=NO","cgldp9heh6","1","76","57","95","","","","","","","","","","","","","","","",""
"null","audio/death1.wav","null","audio-keyboard-response","188","2.1.0","440180","J=YES, F=NO","cgldp9heh6","1","76","57","95","","","","","","","","","","","","","","","",""
"556","
          <p id=""word"" style=""font-size: 40px;"">conquer</p>
          <p style=""font-size: 16px;"">J = YES &nbsp;&nbsp;&nbsp; F = NO</p>
        ","j","html-keyboard-response","189","2.1.0","440737","J=YES, F=NO","cgldp9heh6","1","76","57","95","","","","","","","","","conquer","death1","metaphor","experimental","j","true","",""
"null","<p style=""font-size: 50px;"">+</p>","null","html-keyboard-response","190","2.1.0","441042","J=YES, F=NO","cgldp9heh6","1","76","57","95","","","","","","","","","","","","","","","",""
"null","audio/beep-329314.mp3","null","audio-keyboard-response","191","2.1.0","442569","J=YES, F=NO","cgldp9heh6","1","76","57","95","","","","","","","","","","","","","","","",""
"null","audio/road.wav","null","audio-keyboard-response","192","2.1.0","442996","J=YES, F=NO","cgldp9heh6","1","76","57","95","","","","","","","","","","","","","","","",""
"578","
          <p id=""word"" style=""font-size: 40px;"">wappings</p>
          <p style=""font-size: 16px;"">J = YES &nbsp;&nbsp;&nbsp; F = NO</p>
        ","f","html-keyboard-response","193","2.1.0","443576","J=YES, F=NO","cgldp9heh6","1","76","57","95","","","","","","","","","wappings","road","pseudoword","pseudoword","f","true","",""
"null","<p style=""font-size: 50px;"">+</p>","null","html-keyboard-response","194","2.1.0","443892","J=YES, F=NO","cgldp9heh6","1","76","57","95","","","","","","","","","","","","","","","",""
"null","audio/beep-329314.mp3","null","audio-keyboard-response","195","2.1.0","445429","J=YES, F=NO","cgldp9heh6","1","76","57","95","","","","","","","","","","","","","","","",""
"null","audio/strength.wav","null","audio-keyboard-response","196","2.1.0","446367","J=YES, F=NO","cgldp9heh6","1","76","57","95","","","","","","","","","","","","","","","",""
"437","
          <p id=""word"" style=""font-size: 40px;"">plabet</p>
          <p style=""font-size: 16px;"">J = YES &nbsp;&nbsp;&nbsp; F = NO</p>
        ","j","html-keyboard-response","197","2.1.0","446805","J=YES, F=NO","cgldp9heh6","1","76","57","95","","","","","","","","","plabet","strength","pseudoword","pseudoword","f","false","",""
"null","<p style=""font-size: 50px;"">+</p>","null","html-keyboard-response","198","2.1.0","447111","J=YES, F=NO","cgldp9heh6","1","76","57","95","","","","","","","","","","","","","","","",""
"null","audio/beep-329314.mp3","null","audio-keyboard-response","199","2.1.0","448629","J=YES, F=NO","cgldp9heh6","1","76","57","95","","","","","","","","","","","","","","","",""
"null","audio/cloud1.wav","null","audio-keyboard-response","200","2.1.0","449184","J=YES, F=NO","cgldp9heh6","1","76","57","95","","","","","","","","","","","","","","","",""
"991","
          <p id=""word"" style=""font-size: 40px;"">brotant</p>
          <p style=""font-size: 16px;"">J = YES &nbsp;&nbsp;&nbsp; F = NO</p>
        ","f","html-keyboard-response","201","2.1.0","450176","J=YES, F=NO","cgldp9heh6","1","76","57","95","","","","","","","","","brotant","cloud1","pseudoword","pseudoword","f","true","",""
"null","<p style=""font-size: 50px;"">+</p>","null","html-keyboard-response","202","2.1.0","450489","J=YES, F=NO","cgldp9heh6","1","76","57","95","","","","","","","","","","","","","","","",""
"null","audio/beep-329314.mp3","null","audio-keyboard-response","203","2.1.0","452021","J=YES, F=NO","cgldp9heh6","1","76","57","95","","","","","","","","","","","","","","","",""
"null","audio/alarm1.wav","null","audio-keyboard-response","204","2.1.0","452810","J=YES, F=NO","cgldp9heh6","1","76","57","95","","","","","","","","","","","","","","","",""
"517","
          <p id=""word"" style=""font-size: 40px;"">swetp</p>
          <p style=""font-size: 16px;"">J = YES &nbsp;&nbsp;&nbsp; F = NO</p>
        ","j","html-keyboard-response","205","2.1.0","453328","J=YES, F=NO","cgldp9heh6","1","76","57","95","","","","","","","","","swetp","alarm1","pseudoword","pseudoword","f","false","",""
"null","<p style=""font-size: 50px;"">+</p>","null","html-keyboard-response","206","2.1.0","453632","J=YES, F=NO","cgldp9heh6","1","76","57","95","","","","","","","","","","","","","","","",""
"null","audio/beep-329314.mp3","null","audio-keyboard-response","207","2.1.0","455157","J=YES, F=NO","cgldp9heh6","1","76","57","95","","","","","","","","","","","","","","","",""
"null","audio/burden.wav","null","audio-keyboard-response","208","2.1.0","455776","J=YES, F=NO","cgldp9heh6","1","76","57","95","","","","","","","","","","","","","","","",""
"574","
          <p id=""word"" style=""font-size: 40px;"">whotth</p>
          <p style=""font-size: 16px;"">J = YES &nbsp;&nbsp;&nbsp; F = NO</p>
        ","f","html-keyboard-response","209","2.1.0","456350","J=YES, F=NO","cgldp9heh6","1","76","57","95","","","","","","","","","whotth","burden","pseudoword","pseudoword","f","true","",""
"null","<p style=""font-size: 50px;"">+</p>","null","html-keyboard-response","210","2.1.0","456658","J=YES, F=NO","cgldp9heh6","1","76","57","95","","","","","","","","","","","","","","","",""
"null","audio/beep-329314.mp3","null","audio-keyboard-response","211","2.1.0","458186","J=YES, F=NO","cgldp9heh6","1","76","57","95","","","","","","","","","","","","","","","",""
"null","audio/flaw.wav","null","audio-keyboard-response","212","2.1.0","458912","J=YES, F=NO","cgldp9heh6","1","76","57","95","","","","","","","","","","","","","","","",""
"514","
          <p id=""word"" style=""font-size: 40px;"">thwool</p>
          <p style=""font-size: 16px;"">J = YES &nbsp;&nbsp;&nbsp; F = NO</p>
        ","f","html-keyboard-response","213","2.1.0","459426","J=YES, F=NO","cgldp9heh6","1","76","57","95","","","","","","","","","thwool","flaw","pseudoword","pseudoword","f","true","",""
"null","<p style=""font-size: 50px;"">+</p>","null","html-keyboard-response","214","2.1.0","459734","J=YES, F=NO","cgldp9heh6","1","76","57","95","","","","","","","","","","","","","","","",""
"null","audio/beep-329314.mp3","null","audio-keyboard-response","215","2.1.0","461258","J=YES, F=NO","cgldp9heh6","1","76","57","95","","","","","","","","","","","","","","","",""
"null","audio/brain.wav","null","audio-keyboard-response","216","2.1.0","461942","J=YES, F=NO","cgldp9heh6","1","76","57","95","","","","","","","","","","","","","","","",""
"558","
          <p id=""word"" style=""font-size: 40px;"">throw</p>
          <p style=""font-size: 16px;"">J = YES &nbsp;&nbsp;&nbsp; F = NO</p>
        ","j","html-keyboard-response","217","2.1.0","462500","J=YES, F=NO","cgldp9heh6","1","76","57","95","","","","","","","","","throw","brain","filler","filler","j","true","",""
"null","<p style=""font-size: 50px;"">+</p>","null","html-keyboard-response","218","2.1.0","462814","J=YES, F=NO","cgldp9heh6","1","76","57","95","","","","","","","","","","","","","","","",""
"null","audio/beep-329314.mp3","null","audio-keyboard-response","219","2.1.0","464330","J=YES, F=NO","cgldp9heh6","1","76","57","95","","","","","","","","","","","","","","","",""
"null","audio/trout1.wav","null","audio-keyboard-response","220","2.1.0","464906","J=YES, F=NO","cgldp9heh6","1","76","57","95","","","","","","","","","","","","","","","",""
"529","
          <p id=""word"" style=""font-size: 40px;"">spimt</p>
          <p style=""font-size: 16px;"">J = YES &nbsp;&nbsp;&nbsp; F = NO</p>
        ","f","html-keyboard-response","221","2.1.0","465436","J=YES, F=NO","cgldp9heh6","1","76","57","95","","","","","","","","","spimt","trout1","pseudoword","pseudoword","f","true","",""
"null","<p style=""font-size: 50px;"">+</p>","null","html-keyboard-response","222","2.1.0","465749","J=YES, F=NO","cgldp9heh6","1","76","57","95","","","","","","","","","","","","","","","",""
"null","audio/beep-329314.mp3","null","audio-keyboard-response","223","2.1.0","467275","J=YES, F=NO","cgldp9heh6","1","76","57","95","","","","","","","","","","","","","","","",""
"null","audio/terrain.wav","null","audio-keyboard-response","224","2.1.0","467957","J=YES, F=NO","cgldp9heh6","1","76","57","95","","","","","","","","","","","","","","","",""
"412","
          <p id=""word"" style=""font-size: 40px;"">twist</p>
          <p style=""font-size: 16px;"">J = YES &nbsp;&nbsp;&nbsp; F = NO</p>
        ","f","html-keyboard-response","225","2.1.0","468370","J=YES, F=NO","cgldp9heh6","1","76","57","95","","","","","","","","","twist","terrain","filler","filler","j","false","",""
"null","<p style=""font-size: 50px;"">+</p>","null","html-keyboard-response","226","2.1.0","468674","J=YES, F=NO","cgldp9heh6","1","76","57","95","","","","","","","","","","","","","","","",""
"null","audio/beep-329314.mp3","null","audio-keyboard-response","227","2.1.0","470197","J=YES, F=NO","cgldp9heh6","1","76","57","95","","","","","","","","","","","","","","","",""
"null","audio/voice.wav","null","audio-keyboard-response","228","2.1.0","470901","J=YES, F=NO","cgldp9heh6","1","76","57","95","","","","","","","","","","","","","","","",""
"574","
          <p id=""word"" style=""font-size: 40px;"">grintle</p>
          <p style=""font-size: 16px;"">J = YES &nbsp;&nbsp;&nbsp; F = NO</p>
        ","f","html-keyboard-response","229","2.1.0","471476","J=YES, F=NO","cgldp9heh6","1","76","57","95","","","","","","","","","grintle","voice","pseudoword","pseudoword","f","true","",""
"19351","<p>Excellent! You have finished block 1 of 8.</p>
                     <p>Feel free to take a 30 second break.</p>
                     <p>Press any key when you're ready to continue.</p>"," ","html-keyboard-response","230","2.1.0","490828","J=YES, F=NO","cgldp9heh6","1","76","57","95","","","","","","","","","","","","","","","",""
"1199","<p>Starting main block 2 of 8. Press any key to continue.</p>"," ","html-keyboard-response","231","2.1.0","492028","J=YES, F=NO","cgldp9heh6","1","76","57","95","","","","","","","","","","","","","","","",""
"null","<p style=""font-size: 50px;"">+</p>","null","html-keyboard-response","232","2.1.0","492335","J=YES, F=NO","cgldp9heh6","1","76","57","95","","","","","","","","","","","","","","","",""
"null","audio/beep-329314.mp3","null","audio-keyboard-response","233","2.1.0","493939","J=YES, F=NO","cgldp9heh6","1","76","57","95","","","","","","","","","","","","","","","",""
"null","audio/empire.wav","null","audio-keyboard-response","234","2.1.0","494687","J=YES, F=NO","cgldp9heh6","1","76","57","95","","","","","","","","","","","","","","","",""
"546","
          <p id=""word"" style=""font-size: 40px;"">slorby</p>
          <p style=""font-size: 16px;"">J = YES &nbsp;&nbsp;&nbsp; F = NO</p>
        ","f","html-keyboard-response","235","2.1.0","495233","J=YES, F=NO","cgldp9heh6","1","76","57","95","","","","","","","","","slorby","empire","pseudoword","pseudoword","f","true","",""
"null","<p style=""font-size: 50px;"">+</p>","null","html-keyboard-response","236","2.1.0","495539","J=YES, F=NO","cgldp9heh6","1","76","57","95","","","","","","","","","","","","","","","",""
"null","audio/beep-329314.mp3","null","audio-keyboard-response","237","2.1.0","497076","J=YES, F=NO","cgldp9heh6","1","76","57","95","","","","","","","","","","","","","","","",""
"null","audio/enemy1.wav","null","audio-keyboard-response","238","2.1.0","497545","J=YES, F=NO","cgldp9heh6","1","76","57","95","","","","","","","","","","","","","","","",""
"633","
          <p id=""word"" style=""font-size: 40px;"">defeat</p>
          <p style=""font-size: 16px;"">J = YES &nbsp;&nbsp;&nbsp; F = NO</p>
        ","j","html-keyboard-response","239","2.1.0","498179","J=YES, F=NO","cgldp9heh6","1","76","57","95","","","","","","","","","defeat","enemy1","literal","experimental","j","true","",""
"null","<p style=""font-size: 50px;"">+</p>","null","html-keyboard-response","240","2.1.0","498484","J=YES, F=NO","cgldp9heh6","1","76","57","95","","","","","","","","","","","","","","","",""
"null","audio/beep-329314.mp3","null","audio-keyboard-response","241","2.1.0","500020","J=YES, F=NO","cgldp9heh6","1","76","57","95","","","","","","","","","","","","","","","",""
"null","audio/budget1.wav","null","audio-keyboard-response","242","2.1.0","500681","J=YES, F=NO","cgldp9heh6","1","76","57","95","","","","","","","","","","","","","","","",""
"487","
          <p id=""word"" style=""font-size: 40px;"">sulist</p>
          <p style=""font-size: 16px;"">J = YES &nbsp;&nbsp;&nbsp; F = NO</p>
        ","f","html-keyboard-response","243","2.1.0","501169","J=YES, F=NO","cgldp9heh6","1","76","57","95","","","","","","","","","sulist","budget1","pseudoword","pseudoword","f","true","",""
"null","<p style=""font-size: 50px;"">+</p>","null","html-keyboard-response","244","2.1.0","501474","J=YES, F=NO","cgldp9heh6","1","76","57","95","","","","","","","","","","","","","","","",""
"null","audio/beep-329314.mp3","null","audio-keyboard-response","245","2.1.0","503007","J=YES, F=NO","cgldp9heh6","1","76","57","95","","","","","","","","","","","","","","","",""
"null","audio/terrain.wav","null","audio-keyboard-response","246","2.1.0","503583","J=YES, F=NO","cgldp9heh6","1","76","57","95","","","","","","","","","","","","","","","",""
"468","
          <p id=""word"" style=""font-size: 40px;"">navigate</p>
          <p style=""font-size: 16px;"">J = YES &nbsp;&nbsp;&nbsp; F = NO</p>
        ","j","html-keyboard-response","247","2.1.0","504052","J=YES, F=NO","cgldp9heh6","1","76","57","95","","","","","","","","","navigate","terrain","literal","experimental","j","true","",""
"null","<p style=""font-size: 50px;"">+</p>","null","html-keyboard-response","248","2.1.0","504353","J=YES, F=NO","cgldp9heh6","1","76","57","95","","","","","","","","","","","","","","","",""
"null","audio/beep-329314.mp3","null","audio-keyboard-response","249","2.1.0","505887","J=YES, F=NO","cgldp9heh6","1","76","57","95","","","","","","","","","","","","","","","",""
"null","audio/survey1.wav","null","audio-keyboard-response","250","2.1.0","506698","J=YES, F=NO","cgldp9heh6","1","76","57","95","","","","","","","","","","","","","","","",""
"491","
          <p id=""word"" style=""font-size: 40px;"">release</p>
          <p style=""font-size: 16px;"">J = YES &nbsp;&nbsp;&nbsp; F = NO</p>
        ","j","html-keyboard-response","251","2.1.0","507189","J=YES, F=NO","cgldp9heh6","1","76","57","95","","","","","","","","","release","survey1","metaphor","experimental","j","true","",""
"null","<p style=""font-size: 50px;"">+</p>","null","html-keyboard-response","252","2.1.0","507498","J=YES, F=NO","cgldp9heh6","1","76","57","95","","","","","","","","","","","","","","","",""
"null","audio/beep-329314.mp3","null","audio-keyboard-response","253","2.1.0","509023","J=YES, F=NO","cgldp9heh6","1","76","57","95","","","","","","","","","","","","","","","",""
"null","audio/purpose.wav","null","audio-keyboard-response","254","2.1.0","509791","J=YES, F=NO","cgldp9heh6","1","76","57","95","","","","","","","","","","","","","","","",""
"452","
          <p id=""word"" style=""font-size: 40px;"">whigm</p>
          <p style=""font-size: 16px;"">J = YES &nbsp;&nbsp;&nbsp; F = NO</p>
        ","f","html-keyboard-response","255","2.1.0","510243","J=YES, F=NO","cgldp9heh6","1","76","57","95","","","","","","","","","whigm","purpose","pseudoword","pseudoword","f","true","",""
"null","<p style=""font-size: 50px;"">+</p>","null","html-keyboard-response","256","2.1.0","510553","J=YES, F=NO","cgldp9heh6","1","76","57","95","","","","","","","","","","","","","","","",""
"null","audio/beep-329314.mp3","null","audio-keyboard-response","257","2.1.0","512074","J=YES, F=NO","cgldp9heh6","1","76","57","95","","","","","","","","","","","","","","","",""
"null","audio/battle1.wav","null","audio-keyboard-response","258","2.1.0","512522","J=YES, F=NO","cgldp9heh6","1","76","57","95","","","","","","","","","","","","","","","",""
"432","
          <p id=""word"" style=""font-size: 40px;"">boil</p>
          <p style=""font-size: 16px;"">J = YES &nbsp;&nbsp;&nbsp; F = NO</p>
        ","j","html-keyboard-response","259","2.1.0","512954","J=YES, F=NO","cgldp9heh6","1","76","57","95","","","","","","","","","boil","battle1","filler","filler","j","true","",""
"null","<p style=""font-size: 50px;"">+</p>","null","html-keyboard-response","260","2.1.0","513261","J=YES, F=NO","cgldp9heh6","1","76","57","95","","","","","","","","","","","","","","","",""
"null","audio/beep-329314.mp3","null","audio-keyboard-response","261","2.1.0","514783","J=YES, F=NO","cgldp9heh6","1","76","57","95","","","","","","","","","","","","","","","",""
"null","audio/test1.wav","null","audio-keyboard-response","262","2.1.0","515402","J=YES, F=NO","cgldp9heh6","1","76","57","95","","","","","","","","","","","","","","","",""
"437","
          <p id=""word"" style=""font-size: 40px;"">twopch</p>
          <p style=""font-size: 16px;"">J = YES &nbsp;&nbsp;&nbsp; F = NO</p>
        ","f","html-keyboard-response","263","2.1.0","515840","J=YES, F=NO","cgldp9heh6","1","76","57","95","","","","","","","","","twopch","test1","pseudoword","pseudoword","f","true","",""
"null","<p style=""font-size: 50px;"">+</p>","null","html-keyboard-response","264","2.1.0","516147","J=YES, F=NO","cgldp9heh6","1","76","57","95","","","","","","","","","","","","","","","",""
"null","audio/beep-329314.mp3","null","audio-keyboard-response","265","2.1.0","517663","J=YES, F=NO","cgldp9heh6","1","76","57","95","","","","","","","","","","","","","","","",""
"null","audio/pattern.wav","null","audio-keyboard-response","266","2.1.0","518175","J=YES, F=NO","cgldp9heh6","1","76","57","95","","","","","","","","","","","","","","","",""
"512","
          <p id=""word"" style=""font-size: 40px;"">tug</p>
          <p style=""font-size: 16px;"">J = YES &nbsp;&nbsp;&nbsp; F = NO</p>
        ","f","html-keyboard-response","267","2.1.0","518688","J=YES, F=NO","cgldp9heh6","1","76","57","95","","","","","","","","","tug","pattern","filler","filler","j","false","",""
"null","<p style=""font-size: 50px;"">+</p>","null","html-keyboard-response","268","2.1.0","518995","J=YES, F=NO","cgldp9heh6","1","76","57","95","","","","","","","","","","","","","","","",""
"null","audio/beep-329314.mp3","null","audio-keyboard-response","269","2.1.0","520522","J=YES, F=NO","cgldp9heh6","1","76","57","95","","","","","","","","","","","","","","","",""
"null","audio/alarm1.wav","null","audio-keyboard-response","270","2.1.0","521098","J=YES, F=NO","cgldp9heh6","1","76","57","95","","","","","","","","","","","","","","","",""
"521","
          <p id=""word"" style=""font-size: 40px;"">lock</p>
          <p style=""font-size: 16px;"">J = YES &nbsp;&nbsp;&nbsp; F = NO</p>
        ","j","html-keyboard-response","271","2.1.0","521620","J=YES, F=NO","cgldp9heh6","1","76","57","95","","","","","","","","","lock","alarm1","filler","filler","j","true","",""
"null","<p style=""font-size: 50px;"">+</p>","null","html-keyboard-response","272","2.1.0","521928","J=YES, F=NO","cgldp9heh6","1","76","57","95","","","","","","","","","","","","","","","",""
"null","audio/beep-329314.mp3","null","audio-keyboard-response","273","2.1.0","523445","J=YES, F=NO","cgldp9heh6","1","76","57","95","","","","","","","","","","","","","","","",""
"null","audio/mouth1.wav","null","audio-keyboard-response","274","2.1.0","524020","J=YES, F=NO","cgldp9heh6","1","76","57","95","","","","","","","","","","","","","","","",""
"407","
          <p id=""word"" style=""font-size: 40px;"">close</p>
          <p style=""font-size: 16px;"">J = YES &nbsp;&nbsp;&nbsp; F = NO</p>
        ","j","html-keyboard-response","275","2.1.0","524428","J=YES, F=NO","cgldp9heh6","1","76","57","95","","","","","","","","","close","mouth1","literal","experimental","j","true","",""
"null","<p style=""font-size: 50px;"">+</p>","null","html-keyboard-response","276","2.1.0","524742","J=YES, F=NO","cgldp9heh6","1","76","57","95","","","","","","","","","","","","","","","",""
"null","audio/beep-329314.mp3","null","audio-keyboard-response","277","2.1.0","526261","J=YES, F=NO","cgldp9heh6","1","76","57","95","","","","","","","","","","","","","","","",""
"null","audio/tomato.wav","null","audio-keyboard-response","278","2.1.0","527007","J=YES, F=NO","cgldp9heh6","1","76","57","95","","","","","","","","","","","","","","","",""
"512","
          <p id=""word"" style=""font-size: 40px;"">gladies</p>
          <p style=""font-size: 16px;"">J = YES &nbsp;&nbsp;&nbsp; F = NO</p>
        ","j","html-keyboard-response","279","2.1.0","527520","J=YES, F=NO","cgldp9heh6","1","76","57","95","","","","","","","","","gladies","tomato","pseudoword","pseudoword","f","false","",""
"null","<p style=""font-size: 50px;"">+</p>","null","html-keyboard-response","280","2.1.0","527837","J=YES, F=NO","cgldp9heh6","1","76","57","95","","","","","","","","","","","","","","","",""
"null","audio/beep-329314.mp3","null","audio-keyboard-response","281","2.1.0","529354","J=YES, F=NO","cgldp9heh6","1","76","57","95","","","","","","","","","","","","","","","",""
"null","audio/golf1.wav","null","audio-keyboard-response","282","2.1.0","529909","J=YES, F=NO","cgldp9heh6","1","76","57","95","","","","","","","","","","","","","","","",""
"697","
          <p id=""word"" style=""font-size: 40px;"">drabble</p>
          <p style=""font-size: 16px;"">J = YES &nbsp;&nbsp;&nbsp; F = NO</p>
        ","f","html-keyboard-response","283","2.1.0","530607","J=YES, F=NO","cgldp9heh6","1","76","57","95","","","","","","","","","drabble","golf1","pseudoword","pseudoword","f","true","",""
"null","<p style=""font-size: 50px;"">+</p>","null","html-keyboard-response","284","2.1.0","530911","J=YES, F=NO","cgldp9heh6","1","76","57","95","","","","","","","","","","","","","","","",""
"null","audio/beep-329314.mp3","null","audio-keyboard-response","285","2.1.0","532447","J=YES, F=NO","cgldp9heh6","1","76","57","95","","","","","","","","","","","","","","","",""
"null","audio/trust.wav","null","audio-keyboard-response","286","2.1.0","533152","J=YES, F=NO","cgldp9heh6","1","76","57","95","","","","","","","","","","","","","","","",""
"802","
          <p id=""word"" style=""font-size: 40px;"">swint</p>
          <p style=""font-size: 16px;"">J = YES &nbsp;&nbsp;&nbsp; F = NO</p>
        ","f","html-keyboard-response","287","2.1.0","533955","J=YES, F=NO","cgldp9heh6","1","76","57","95","","","","","","","","","swint","trust","pseudoword","pseudoword","f","true","",""
"null","<p style=""font-size: 50px;"">+</p>","null","html-keyboard-response","288","2.1.0","534269","J=YES, F=NO","cgldp9heh6","1","76","57","95","","","","","","","","","","","","","","","",""
"null","audio/beep-329314.mp3","null","audio-keyboard-response","289","2.1.0","535797","J=YES, F=NO","cgldp9heh6","1","76","57","95","","","","","","","","","","","","","","","",""
"null","audio/gift1.wav","null","audio-keyboard-response","290","2.1.0","536373","J=YES, F=NO","cgldp9heh6","1","76","57","95","","","","","","","","","","","","","","","",""
"571","
          <p id=""word"" style=""font-size: 40px;"">protsh</p>
          <p style=""font-size: 16px;"">J = YES &nbsp;&nbsp;&nbsp; F = NO</p>
        ","f","html-keyboard-response","291","2.1.0","536945","J=YES, F=NO","cgldp9heh6","1","76","57","95","","","","","","","","","protsh","gift1","pseudoword","pseudoword","f","true","",""
"null","<p style=""font-size: 50px;"">+</p>","null","html-keyboard-response","292","2.1.0","537261","J=YES, F=NO","cgldp9heh6","1","76","57","95","","","","","","","","","","","","","","","",""
"null","audio/beep-329314.mp3","null","audio-keyboard-response","293","2.1.0","538784","J=YES, F=NO","cgldp9heh6","1","76","57","95","","","","","","","","","","","","","","","",""
"null","audio/smirk1.wav","null","audio-keyboard-response","294","2.1.0","539509","J=YES, F=NO","cgldp9heh6","1","76","57","95","","","","","","","","","","","","","","","",""
"481","
          <p id=""word"" style=""font-size: 40px;"">snopt</p>
          <p style=""font-size: 16px;"">J = YES &nbsp;&nbsp;&nbsp; F = NO</p>
        ","f","html-keyboard-response","295","2.1.0","539991","J=YES, F=NO","cgldp9heh6","1","76","57","95","","","","","","","","","snopt","smirk1","pseudoword","pseudoword","f","true","",""
"3430","<p>Excellent! You have finished block 2 of 8.</p>
                     <p>Feel free to take a 30 second break.</p>
                     <p>Press any key when you're ready to continue.</p>"," ","html-keyboard-response","296","2.1.0","543422","J=YES, F=NO","cgldp9heh6","1","76","57","95","","","","","","","","","","","","","","","",""
"1304","<p>Starting main block 3 of 8. Press any key to continue.</p>"," ","html-keyboard-response","297","2.1.0","544727","J=YES, F=NO","cgldp9heh6","1","76","57","95","","","","","","","","","","","","","","","",""
"null","<p style=""font-size: 50px;"">+</p>","null","html-keyboard-response","298","2.1.0","545036","J=YES, F=NO","cgldp9heh6","1","76","57","95","","","","","","","","","","","","","","","",""
"null","audio/beep-329314.mp3","null","audio-keyboard-response","299","2.1.0","546570","J=YES, F=NO","cgldp9heh6","1","76","57","95","","","","","","","","","","","","","","","",""
"null","audio/sand.wav","null","audio-keyboard-response","300","2.1.0","547211","J=YES, F=NO","cgldp9heh6","1","76","57","95","","","","","","","","","","","","","","","",""
"724","
          <p id=""word"" style=""font-size: 40px;"">possess</p>
          <p style=""font-size: 16px;"">J = YES &nbsp;&nbsp;&nbsp; F = NO</p>
        ","j","html-keyboard-response","301","2.1.0","547935","J=YES, F=NO","cgldp9heh6","1","76","57","95","","","","","","","","","possess","sand","unrelated","experimental","j","true","",""
"null","<p style=""font-size: 50px;"">+</p>","null","html-keyboard-response","302","2.1.0","548249","J=YES, F=NO","cgldp9heh6","1","76","57","95","","","","","","","","","","","","","","","",""
"null","audio/beep-329314.mp3","null","audio-keyboard-response","303","2.1.0","549771","J=YES, F=NO","cgldp9heh6","1","76","57","95","","","","","","","","","","","","","","","",""
"null","audio/bomb1.wav","null","audio-keyboard-response","304","2.1.0","550155","J=YES, F=NO","cgldp9heh6","1","76","57","95","","","","","","","","","","","","","","","",""
"462","
          <p id=""word"" style=""font-size: 40px;"">clean</p>
          <p style=""font-size: 16px;"">J = YES &nbsp;&nbsp;&nbsp; F = NO</p>
        ","j","html-keyboard-response","305","2.1.0","550617","J=YES, F=NO","cgldp9heh6","1","76","57","95","","","","","","","","","clean","bomb1","filler","filler","j","true","",""
"null","<p style=""font-size: 50px;"">+</p>","null","html-keyboard-response","306","2.1.0","550920","J=YES, F=NO","cgldp9heh6","1","76","57","95","","","","","","","","","","","","","","","",""
"null","audio/beep-329314.mp3","null","audio-keyboard-response","307","2.1.0","552437","J=YES, F=NO","cgldp9heh6","1","76","57","95","","","","","","","","","","","","","","","",""
"null","audio/age1.wav","null","audio-keyboard-response","308","2.1.0","553099","J=YES, F=NO","cgldp9heh6","1","76","57","95","","","","","","","","","","","","","","","",""
"482","
          <p id=""word"" style=""font-size: 40px;"">lachry</p>
          <p style=""font-size: 16px;"">J = YES &nbsp;&nbsp;&nbsp; F = NO</p>
        ","f","html-keyboard-response","309","2.1.0","553581","J=YES, F=NO","cgldp9heh6","1","76","57","95","","","","","","","","","lachry","age1","pseudoword","pseudoword","f","true","",""
"null","<p style=""font-size: 50px;"">+</p>","null","html-keyboard-response","310","2.1.0","553885","J=YES, F=NO","cgldp9heh6","1","76","57","95","","","","","","","","","","","","","","","",""
"null","audio/beep-329314.mp3","null","audio-keyboard-response","311","2.1.0","555403","J=YES, F=NO","cgldp9heh6","1","76","57","95","","","","","","","","","","","","","","","",""
"null","audio/planet1.wav","null","audio-keyboard-response","312","2.1.0","556107","J=YES, F=NO","cgldp9heh6","1","76","57","95","","","","","","","","","","","","","","","",""
"589","
          <p id=""word"" style=""font-size: 40px;"">save</p>
          <p style=""font-size: 16px;"">J = YES &nbsp;&nbsp;&nbsp; F = NO</p>
        ","j","html-keyboard-response","313","2.1.0","556697","J=YES, F=NO","cgldp9heh6","1","76","57","95","","","","","","","","","save","planet1","metaphor","experimental","j","true","",""
"null","<p style=""font-size: 50px;"">+</p>","null","html-keyboard-response","314","2.1.0","557001","J=YES, F=NO","cgldp9heh6","1","76","57","95","","","","","","","","","","","","","","","",""
"null","audio/beep-329314.mp3","null","audio-keyboard-response","315","2.1.0","558517","J=YES, F=NO","cgldp9heh6","1","76","57","95","","","","","","","","","","","","","","","",""
"null","audio/handle.wav","null","audio-keyboard-response","316","2.1.0","559136","J=YES, F=NO","cgldp9heh6","1","76","57","95","","","","","","","","","","","","","","","",""
"566","
          <p id=""word"" style=""font-size: 40px;"">moutes</p>
          <p style=""font-size: 16px;"">J = YES &nbsp;&nbsp;&nbsp; F = NO</p>
        ","f","html-keyboard-response","317","2.1.0","559703","J=YES, F=NO","cgldp9heh6","1","76","57","95","","","","","","","","","moutes","handle","pseudoword","pseudoword","f","true","",""
"null","<p style=""font-size: 50px;"">+</p>","null","html-keyboard-response","318","2.1.0","560009","J=YES, F=NO","cgldp9heh6","1","76","57","95","","","","","","","","","","","","","","","",""
"null","audio/beep-329314.mp3","null","audio-keyboard-response","319","2.1.0","561526","J=YES, F=NO","cgldp9heh6","1","76","57","95","","","","","","","","","","","","","","","",""
"null","audio/seat.wav","null","audio-keyboard-response","320","2.1.0","562166","J=YES, F=NO","cgldp9heh6","1","76","57","95","","","","","","","","","","","","","","","",""
"512","
          <p id=""word"" style=""font-size: 40px;"">digest</p>
          <p style=""font-size: 16px;"">J = YES &nbsp;&nbsp;&nbsp; F = NO</p>
        ","j","html-keyboard-response","321","2.1.0","562679","J=YES, F=NO","cgldp9heh6","1","76","57","95","","","","","","","","","digest","seat","unrelated","experimental","j","true","",""
"null","<p style=""font-size: 50px;"">+</p>","null","html-keyboard-response","322","2.1.0","562985","J=YES, F=NO","cgldp9heh6","1","76","57","95","","","","","","","","","","","","","","","",""
"null","audio/beep-329314.mp3","null","audio-keyboard-response","323","2.1.0","564513","J=YES, F=NO","cgldp9heh6","1","76","57","95","","","","","","","","","","","","","","","",""
"null","audio/life1.wav","null","audio-keyboard-response","324","2.1.0","565068","J=YES, F=NO","cgldp9heh6","1","76","57","95","","","","","","","","","","","","","","","",""
"null","
          <p id=""word"" style=""font-size: 40px;"">give</p>
          <p style=""font-size: 16px;"">J = YES &nbsp;&nbsp;&nbsp; F = NO</p>
        ","null","html-keyboard-response","325","2.1.0","566582","J=YES, F=NO","cgldp9heh6","1","76","57","95","","","","","","","","","give","life1","metaphor","experimental","j","false","",""
"null","<p style=""font-size: 50px;"">+</p>","null","html-keyboard-response","326","2.1.0","566890","J=YES, F=NO","cgldp9heh6","1","76","57","95","","","","","","","","","","","","","","","",""
"null","audio/beep-329314.mp3","null","audio-keyboard-response","327","2.1.0","568417","J=YES, F=NO","cgldp9heh6","1","76","57","95","","","","","","","","","","","","","","","",""
"null","audio/street.wav","null","audio-keyboard-response","328","2.1.0","569292","J=YES, F=NO","cgldp9heh6","1","76","57","95","","","","","","","","","","","","","","","",""
"523","
          <p id=""word"" style=""font-size: 40px;"">hold</p>
          <p style=""font-size: 16px;"">J = YES &nbsp;&nbsp;&nbsp; F = NO</p>
        ","j","html-keyboard-response","329","2.1.0","569815","J=YES, F=NO","cgldp9heh6","1","76","57","95","","","","","","","","","hold","street","unrelated","experimental","j","true","",""
"null","<p style=""font-size: 50px;"">+</p>","null","html-keyboard-response","330","2.1.0","570129","J=YES, F=NO","cgldp9heh6","1","76","57","95","","","","","","","","","","","","","","","",""
"null","audio/beep-329314.mp3","null","audio-keyboard-response","331","2.1.0","571660","J=YES, F=NO","cgldp9heh6","1","76","57","95","","","","","","","","","","","","","","","",""
"null","audio/wool1.wav","null","audio-keyboard-response","332","2.1.0","572022","J=YES, F=NO","cgldp9heh6","1","76","57","95","","","","","","","","","","","","","","","",""
"526","
          <p id=""word"" style=""font-size: 40px;"">weave</p>
          <p style=""font-size: 16px;"">J = YES &nbsp;&nbsp;&nbsp; F = NO</p>
        ","j","html-keyboard-response","333","2.1.0","572550","J=YES, F=NO","cgldp9heh6","1","76","57","95","","","","","","","","","weave","wool1","literal","experimental","j","true","",""
"null","<p style=""font-size: 50px;"">+</p>","null","html-keyboard-response","334","2.1.0","572859","J=YES, F=NO","cgldp9heh6","1","76","57","95","","","","","","","","","","","","","","","",""
"null","audio/beep-329314.mp3","null","audio-keyboard-response","335","2.1.0","574391","J=YES, F=NO","cgldp9heh6","1","76","57","95","","","","","","","","","","","","","","","",""
"null","audio/sand.wav","null","audio-keyboard-response","336","2.1.0","575030","J=YES, F=NO","cgldp9heh6","1","76","57","95","","","","","","","","","","","","","","","",""
"585","
          <p id=""word"" style=""font-size: 40px;"">proted</p>
          <p style=""font-size: 16px;"">J = YES &nbsp;&nbsp;&nbsp; F = NO</p>
        ","f","html-keyboard-response","337","2.1.0","575616","J=YES, F=NO","cgldp9heh6","1","76","57","95","","","","","","","","","proted","sand","pseudoword","pseudoword","f","true","",""
"null","<p style=""font-size: 50px;"">+</p>","null","html-keyboard-response","338","2.1.0","575919","J=YES, F=NO","cgldp9heh6","1","76","57","95","","","","","","","","","","","","","","","",""
"null","audio/beep-329314.mp3","null","audio-keyboard-response","339","2.1.0","577441","J=YES, F=NO","cgldp9heh6","1","76","57","95","","","","","","","","","","","","","","","",""
"null","audio/cash1.wav","null","audio-keyboard-response","340","2.1.0","578102","J=YES, F=NO","cgldp9heh6","1","76","57","95","","","","","","","","","","","","","","","",""
"555","
          <p id=""word"" style=""font-size: 40px;"">splear</p>
          <p style=""font-size: 16px;"">J = YES &nbsp;&nbsp;&nbsp; F = NO</p>
        ","f","html-keyboard-response","341","2.1.0","578658","J=YES, F=NO","cgldp9heh6","1","76","57","95","","","","","","","","","splear","cash1","pseudoword","pseudoword","f","true","",""
"null","<p style=""font-size: 50px;"">+</p>","null","html-keyboard-response","342","2.1.0","578959","J=YES, F=NO","cgldp9heh6","1","76","57","95","","","","","","","","","","","","","","","",""
"null","audio/beep-329314.mp3","null","audio-keyboard-response","343","2.1.0","580492","J=YES, F=NO","cgldp9heh6","1","76","57","95","","","","","","","","","","","","","","","",""
"null","audio/cancer1.wav","null","audio-keyboard-response","344","2.1.0","581047","J=YES, F=NO","cgldp9heh6","1","76","57","95","","","","","","","","","","","","","","","",""
"490","
          <p id=""word"" style=""font-size: 40px;"">fight</p>
          <p style=""font-size: 16px;"">J = YES &nbsp;&nbsp;&nbsp; F = NO</p>
        ","j","html-keyboard-response","345","2.1.0","581538","J=YES, F=NO","cgldp9heh6","1","76","57","95","","","","","","","","","fight","cancer1","metaphor","experimental","j","true","",""
"null","<p style=""font-size: 50px;"">+</p>","null","html-keyboard-response","346","2.1.0","581846","J=YES, F=NO","cgldp9heh6","1","76","57","95","","","","","","","","","","","","","","","",""
"null","audio/beep-329314.mp3","null","audio-keyboard-response","347","2.1.0","583372","J=YES, F=NO","cgldp9heh6","1","76","57","95","","","","","","","","","","","","","","","",""
"null","audio/window1.wav","null","audio-keyboard-response","348","2.1.0","584225","J=YES, F=NO","cgldp9heh6","1","76","57","95","","","","","","","","","","","","","","","",""
"544","
          <p id=""word"" style=""font-size: 40px;"">toss</p>
          <p style=""font-size: 16px;"">J = YES &nbsp;&nbsp;&nbsp; F = NO</p>
        ","j","html-keyboard-response","349","2.1.0","584770","J=YES, F=NO","cgldp9heh6","1","76","57","95","","","","","","","","","toss","window1","filler","filler","j","true","",""
"null","<p style=""font-size: 50px;"">+</p>","null","html-keyboard-response","350","2.1.0","585071","J=YES, F=NO","cgldp9heh6","1","76","57","95","","","","","","","","","","","","","","","",""
"null","audio/beep-329314.mp3","null","audio-keyboard-response","351","2.1.0","586594","J=YES, F=NO","cgldp9heh6","1","76","57","95","","","","","","","","","","","","","","","",""
"null","audio/survey1.wav","null","audio-keyboard-response","352","2.1.0","587318","J=YES, F=NO","cgldp9heh6","1","76","57","95","","","","","","","","","","","","","","","",""
"571","
          <p id=""word"" style=""font-size: 40px;"">imploth</p>
          <p style=""font-size: 16px;"">J = YES &nbsp;&nbsp;&nbsp; F = NO</p>
        ","f","html-keyboard-response","353","2.1.0","587890","J=YES, F=NO","cgldp9heh6","1","76","57","95","","","","","","","","","imploth","survey1","pseudoword","pseudoword","f","true","",""
"null","<p style=""font-size: 50px;"">+</p>","null","html-keyboard-response","354","2.1.0","588195","J=YES, F=NO","cgldp9heh6","1","76","57","95","","","","","","","","","","","","","","","",""
"null","audio/beep-329314.mp3","null","audio-keyboard-response","355","2.1.0","589729","J=YES, F=NO","cgldp9heh6","1","76","57","95","","","","","","","","","","","","","","","",""
"null","audio/weight1.wav","null","audio-keyboard-response","356","2.1.0","590262","J=YES, F=NO","cgldp9heh6","1","76","57","95","","","","","","","","","","","","","","","",""
"475","
          <p id=""word"" style=""font-size: 40px;"">crimsh</p>
          <p style=""font-size: 16px;"">J = YES &nbsp;&nbsp;&nbsp; F = NO</p>
        ","f","html-keyboard-response","357","2.1.0","590738","J=YES, F=NO","cgldp9heh6","1","76","57","95","","","","","","","","","crimsh","weight1","pseudoword","pseudoword","f","true","",""
"null","<p style=""font-size: 50px;"">+</p>","null","html-keyboard-response","358","2.1.0","591042","J=YES, F=NO","cgldp9heh6","1","76","57","95","","","","","","","","","","","","","","","",""
"null","audio/beep-329314.mp3","null","audio-keyboard-response","359","2.1.0","592567","J=YES, F=NO","cgldp9heh6","1","76","57","95","","","","","","","","","","","","","","","",""
"null","audio/price.wav","null","audio-keyboard-response","360","2.1.0","593185","J=YES, F=NO","cgldp9heh6","1","76","57","95","","","","","","","","","","","","","","","",""
"444","
          <p id=""word"" style=""font-size: 40px;"">drop</p>
          <p style=""font-size: 16px;"">J = YES &nbsp;&nbsp;&nbsp; F = NO</p>
        ","j","html-keyboard-response","361","2.1.0","593630","J=YES, F=NO","cgldp9heh6","1","76","57","95","","","","","","","","","drop","price","metaphor","experimental","j","true","",""
"18796","<p>Excellent! You have finished block 3 of 8.</p>
                     <p>Feel free to take a 30 second break.</p>
                     <p>Press any key when you're ready to continue.</p>"," ","html-keyboard-response","362","2.1.0","612427","J=YES, F=NO","cgldp9heh6","1","76","57","95","","","","","","","","","","","","","","","",""
"3344","<p>Starting main block 4 of 8. Press any key to continue.</p>"," ","html-keyboard-response","363","2.1.0","615771","J=YES, F=NO","cgldp9heh6","1","76","57","95","","","","","","","","","","","","","","","",""
"null","<p style=""font-size: 50px;"">+</p>","null","html-keyboard-response","364","2.1.0","616078","J=YES, F=NO","cgldp9heh6","1","76","57","95","","","","","","","","","","","","","","","",""
"null","audio/beep-329314.mp3","null","audio-keyboard-response","365","2.1.0","617772","J=YES, F=NO","cgldp9heh6","1","76","57","95","","","","","","","","","","","","","","","",""
"null","audio/cancer1.wav","null","audio-keyboard-response","366","2.1.0","618359","J=YES, F=NO","cgldp9heh6","1","76","57","95","","","","","","","","","","","","","","","",""
"427","
          <p id=""word"" style=""font-size: 40px;"">draw</p>
          <p style=""font-size: 16px;"">J = YES &nbsp;&nbsp;&nbsp; F = NO</p>
        ","j","html-keyboard-response","367","2.1.0","618787","J=YES, F=NO","cgldp9heh6","1","76","57","95","","","","","","","","","draw","cancer1","filler","filler","j","true","",""
"null","<p style=""font-size: 50px;"">+</p>","null","html-keyboard-response","368","2.1.0","619093","J=YES, F=NO","cgldp9heh6","1","76","57","95","","","","","","","","","","","","","","","",""
"null","audio/beep-329314.mp3","null","audio-keyboard-response","369","2.1.0","620610","J=YES, F=NO","cgldp9heh6","1","76","57","95","","","","","","","","","","","","","","","",""
"null","audio/bush1.wav","null","audio-keyboard-response","370","2.1.0","621260","J=YES, F=NO","cgldp9heh6","1","76","57","95","","","","","","","","","","","","","","","",""
"349","
          <p id=""word"" style=""font-size: 40px;"">platined</p>
          <p style=""font-size: 16px;"">J = YES &nbsp;&nbsp;&nbsp; F = NO</p>
        ","f","html-keyboard-response","371","2.1.0","621609","J=YES, F=NO","cgldp9heh6","1","76","57","95","","","","","","","","","platined","bush1","pseudoword","pseudoword","f","true","",""
"null","<p style=""font-size: 50px;"">+</p>","null","html-keyboard-response","372","2.1.0","621919","J=YES, F=NO","cgldp9heh6","1","76","57","95","","","","","","","","","","","","","","","",""
"null","audio/beep-329314.mp3","null","audio-keyboard-response","373","2.1.0","623447","J=YES, F=NO","cgldp9heh6","1","76","57","95","","","","","","","","","","","","","","","",""
"null","audio/fortune1.wav","null","audio-keyboard-response","374","2.1.0","624226","J=YES, F=NO","cgldp9heh6","1","76","57","95","","","","","","","","","","","","","","","",""
"529","
          <p id=""word"" style=""font-size: 40px;"">spend</p>
          <p style=""font-size: 16px;"">J = YES &nbsp;&nbsp;&nbsp; F = NO</p>
        ","j","html-keyboard-response","375","2.1.0","624756","J=YES, F=NO","cgldp9heh6","1","76","57","95","","","","","","","","","spend","fortune1","literal","experimental","j","true","",""
"null","<p style=""font-size: 50px;"">+</p>","null","html-keyboard-response","376","2.1.0","625060","J=YES, F=NO","cgldp9heh6","1","76","57","95","","","","","","","","","","","","","","","",""
"null","audio/beep-329314.mp3","null","audio-keyboard-response","377","2.1.0","626583","J=YES, F=NO","cgldp9heh6","1","76","57","95","","","","","","","","","","","","","","","",""
"null","audio/pain1.wav","null","audio-keyboard-response","378","2.1.0","627042","J=YES, F=NO","cgldp9heh6","1","76","57","95","","","","","","","","","","","","","","","",""
"411","
          <p id=""word"" style=""font-size: 40px;"">sell</p>
          <p style=""font-size: 16px;"">J = YES &nbsp;&nbsp;&nbsp; F = NO</p>
        ","j","html-keyboard-response","379","2.1.0","627453","J=YES, F=NO","cgldp9heh6","1","76","57","95","","","","","","","","","sell","pain1","unrelated","experimental","j","true","",""
"null","<p style=""font-size: 50px;"">+</p>","null","html-keyboard-response","380","2.1.0","627761","J=YES, F=NO","cgldp9heh6","1","76","57","95","","","","","","","","","","","","","","","",""
"null","audio/beep-329314.mp3","null","audio-keyboard-response","381","2.1.0","629292","J=YES, F=NO","cgldp9heh6","1","76","57","95","","","","","","","","","","","","","","","",""
"null","audio/church1.wav","null","audio-keyboard-response","382","2.1.0","629964","J=YES, F=NO","cgldp9heh6","1","76","57","95","","","","","","","","","","","","","","","",""
"500","
          <p id=""word"" style=""font-size: 40px;"">cover</p>
          <p style=""font-size: 16px;"">J = YES &nbsp;&nbsp;&nbsp; F = NO</p>
        ","j","html-keyboard-response","383","2.1.0","630465","J=YES, F=NO","cgldp9heh6","1","76","57","95","","","","","","","","","cover","church1","unrelated","experimental","j","true","",""
"null","<p style=""font-size: 50px;"">+</p>","null","html-keyboard-response","384","2.1.0","630774","J=YES, F=NO","cgldp9heh6","1","76","57","95","","","","","","","","","","","","","","","",""
"null","audio/beep-329314.mp3","null","audio-keyboard-response","385","2.1.0","632301","J=YES, F=NO","cgldp9heh6","1","76","57","95","","","","","","","","","","","","","","","",""
"null","audio/tax1.wav","null","audio-keyboard-response","386","2.1.0","633207","J=YES, F=NO","cgldp9heh6","1","76","57","95","","","","","","","","","","","","","","","",""
"447","
          <p id=""word"" style=""font-size: 40px;"">scrap</p>
          <p style=""font-size: 16px;"">J = YES &nbsp;&nbsp;&nbsp; F = NO</p>
        ","j","html-keyboard-response","387","2.1.0","633655","J=YES, F=NO","cgldp9heh6","1","76","57","95","","","","","","","","","scrap","tax1","metaphor","experimental","j","true","",""
"null","<p style=""font-size: 50px;"">+</p>","null","html-keyboard-response","388","2.1.0","633960","J=YES, F=NO","cgldp9heh6","1","76","57","95","","","","","","","","","","","","","","","",""
"null","audio/beep-329314.mp3","null","audio-keyboard-response","389","2.1.0","635479","J=YES, F=NO","cgldp9heh6","1","76","57","95","","","","","","","","","","","","","","","",""
"null","audio/truth1.wav","null","audio-keyboard-response","390","2.1.0","636130","J=YES, F=NO","cgldp9heh6","1","76","57","95","","","","","","","","","","","","","","","",""
"515","
          <p id=""word"" style=""font-size: 40px;"">calitom</p>
          <p style=""font-size: 16px;"">J = YES &nbsp;&nbsp;&nbsp; F = NO</p>
