"rt","stimulus","response","trial_type","trial_index","plugin_version","time_elapsed","response_mapping","subject_id","list_index","lextale_score","lextale_word_score","lextale_nonword_score","success","timeout","failed_images","failed_audio","failed_video","task","isWord","isDummy","target","prime","prime_type","stimulus_type","correct_response","correct","section","question_order"
"2337","
    <div style=""max-width: 800px; margin: auto; text-align: left;"">
      <h2>STANFORD UNIVERSITY</h2>
      <h3>Research Information Sheet</h3>
      <p><strong>Protocol Director:</strong> Robert Hawkins<br>
      <strong>Protocol Title:</strong> Communication and social cognition in natural audiovisual contexts<br>
      <strong>IRB#:</strong> 77226</p>

      <p><strong>DESCRIPTION:</strong> You are invited to participate in a research study about language and communication. The purpose of the research is to understand how you interact and communicate with other people in naturalistic settings as a fluent English speaker. This research will be conducted through the Prolific platform, including participants from the US, UK, and Canada. If you decide to participate in this research, you will play a communication game in a group with one or more partners.</p>

      <p><strong>TIME INVOLVEMENT:</strong> The task will last the amount of time advertised on Prolific. You are free to withdraw from the study at any time.</p>

      <p><strong>RISKS AND BENEFITS:</strong> You may become frustrated if your partner gets distracted, or experience discomfort if other participants in your group send text that is inappropriate for the task. We ask you to please be respectful of other participants you might be interacting with to mitigate these risks. You may also experience discomfort when being asked to discuss or challenge emotionally salient political beliefs. Study data will be stored securely, in compliance with Stanford University standards, minimizing the risk of confidentiality breach. This study advances our scientific understanding of how people communicate and collaborate in naturalistic settings. This study may lead to further insights about what can go wrong in teamwork, suggest potential interventions to overcome these barriers, and help to develop assistive technologies that collaborate with human partners. We cannot and do not guarantee or promise that you will receive any benefits from this study.</p>

      <p><strong>PAYMENTS:</strong> You will receive payment in the amount advertised on Prolific. If you do not complete this study, you will receive prorated payment based on the time that you have spent. Additionally, you may be eligible for bonus payments as described in the instructions.</p>

      <p><strong>PARTICIPANT’S RIGHTS:</strong> If you have read this form and have decided to participate in this project, please understand your participation is voluntary and you have the right to withdraw your consent or discontinue participation at any time without penalty or loss of benefits to which you are otherwise entitled. The alternative is not to participate. You have the right to refuse to answer particular questions. The results of this research study may be presented at scientific or professional meetings or published in scientific journals. Your individual privacy will be maintained in all published and written data resulting from the study. In accordance with scientific norms, the data from this study may be used or shared with other researchers for future research (after removing personally identifying information) without additional consent from you.</p>

      <p><strong>CONTACT INFORMATION:</strong><br>
      Questions: If you have any questions, concerns or complaints about this research, its procedures, risks and benefits, contact the Protocol Director, Robert Hawkins (<a href=""mailto:rdhawkins@stanford.edu"">rdhawkins@stanford.edu</a>, 217-549-6923).<br>
      Independent Contact: If you are not satisfied with how this study is being conducted, or if you have any concerns, complaints, or general questions about the research or your rights as a participant, please contact the Stanford Institutional Review Board (IRB) to speak to someone independent of the research team at 650-723-2480 or toll free at 1-866-680-2906, or email at <a href=""mailto:irbnon-med@stanford.edu"">irbnon-med@stanford.edu</a>. You can also write to the Stanford IRB, Stanford University, 1705 El Camino Real, Palo Alto, CA 94306.</p>

      <p><strong>Please save or print a copy of this page for your records.</strong></p>
      <p>If you agree to participate in this research, click ""Continue"" below.</p>
    </div>
  ","0","html-button-response","0","2.1.0","2342","F=YES, J=NO","cv2fd139l0","1","66","73","60","","","","","","","","","","","","","","","",""
"2632","
    <div style=""max-width: 800px; margin: auto; text-align: left;"">
      <h2>Welcome!</h2>
      <p>Thank you for participating in this study. The experiment consists of three parts:</p>
      <ol>
        <li>An English vocabulary test</li>
        <li>A main task in which you will hear and see words, and decide whether the written word is a real English word</li>
        <li>A brief survey about your background</li>
      </ol>
      <p>Each part will be introduced before it begins.</p>
      <p>Please make sure you are in a quiet environment and can hear audio clearly for the final task.</p>
      <p style=""margin-top: 2em;"">Press any key to begin.</p>
    </div>
  "," ","html-keyboard-response","1","2.1.0","4976","F=YES, J=NO","cv2fd139l0","1","66","73","60","","","","","","","","","","","","","","","",""
"","","","preload","2","2.1.0","5430","F=YES, J=NO","cv2fd139l0","1","66","73","60","true","false","[]","[]","[]","","","","","","","","","","",""
"632","
    <div style=""max-width: 800px; margin: auto; text-align: left;"">
      <h2>Part 1: Vocabulary Test</h2>
      <p>You will now complete the first part of the study: a short English vocabulary test.</p>
      <p>This test is called <strong>LexTALE</strong> and helps us get a general sense of your English proficiency.</p>
      <p style=""margin-top: 2em;"">Press any key to continue.</p>
    </div>
  "," ","html-keyboard-response","3","2.1.0","6062","F=YES, J=NO","cv2fd139l0","1","66","73","60","","","","","","","","","","","","","","","",""
"2829","
    <div style=""max-width: 800px; margin: auto; text-align: left;"">
      <h2>LexTALE Vocabulary Test</h2>
      <p>In this test, you will see a series of letter strings—one at a time.</p>
      <p>Your task is to decide whether each string is a real English word.</p>
      <p><strong>Key responses:</strong></p>
      <ul>
        <li><strong>F</strong> = YES (real English word)</li>
        <li><strong>J</strong> = NO (not a real English word)</li>
      </ul>
      <p>There is no time limit, but please try to be accurate.</p>
      <p style=""margin-top: 2em;"">Press any key to begin.</p>
    </div>
  "," ","html-keyboard-response","4","2.1.0","8893","F=YES, J=NO","cv2fd139l0","1","66","73","60","","","","","","","","","","","","","","","",""
"4581","
  <p style=""font-size: 40px;"">platery</p>
  <p style=""font-size: 16px;"">F = YES &nbsp;&nbsp;&nbsp; J = NO</p>
","j","html-keyboard-response","5","2.1.0","13475","F=YES, J=NO","cv2fd139l0","1","66","73","60","","","","","","lextale","false","true","","","","","","","",""
"3510","
  <p style=""font-size: 40px;"">denial</p>
  <p style=""font-size: 16px;"">F = YES &nbsp;&nbsp;&nbsp; J = NO</p>
","f","html-keyboard-response","6","2.1.0","16986","F=YES, J=NO","cv2fd139l0","1","66","73","60","","","","","","lextale","true","true","","","","","","","",""
"948","
  <p style=""font-size: 40px;"">marrit</p>
  <p style=""font-size: 16px;"">F = YES &nbsp;&nbsp;&nbsp; J = NO</p>
","j","html-keyboard-response","7","2.1.0","17935","F=YES, J=NO","cv2fd139l0","1","66","73","60","","","","","","lextale","false","true","","","","","","","",""
"647","
  <p style=""font-size: 40px;"">bottle</p>
  <p style=""font-size: 16px;"">F = YES &nbsp;&nbsp;&nbsp; J = NO</p>
","f","html-keyboard-response","8","2.1.0","18584","F=YES, J=NO","cv2fd139l0","1","66","73","60","","","","","","lextale","true","false","","","","","","","",""
"950","
  <p style=""font-size: 40px;"">birst</p>
  <p style=""font-size: 16px;"">F = YES &nbsp;&nbsp;&nbsp; J = NO</p>
","j","html-keyboard-response","9","2.1.0","19534","F=YES, J=NO","cv2fd139l0","1","66","73","60","","","","","","lextale","false","false","","","","","","","",""
"674","
  <p style=""font-size: 40px;"">envy</p>
  <p style=""font-size: 16px;"">F = YES &nbsp;&nbsp;&nbsp; J = NO</p>
","f","html-keyboard-response","10","2.1.0","20210","F=YES, J=NO","cv2fd139l0","1","66","73","60","","","","","","lextale","true","false","","","","","","","",""
"686","
  <p style=""font-size: 40px;"">brang</p>
  <p style=""font-size: 16px;"">F = YES &nbsp;&nbsp;&nbsp; J = NO</p>
","j","html-keyboard-response","11","2.1.0","20898","F=YES, J=NO","cv2fd139l0","1","66","73","60","","","","","","lextale","false","false","","","","","","","",""
"469","
  <p style=""font-size: 40px;"">huge</p>
  <p style=""font-size: 16px;"">F = YES &nbsp;&nbsp;&nbsp; J = NO</p>
","f","html-keyboard-response","12","2.1.0","21368","F=YES, J=NO","cv2fd139l0","1","66","73","60","","","","","","lextale","true","false","","","","","","","",""
"745","
  <p style=""font-size: 40px;"">plove</p>
  <p style=""font-size: 16px;"">F = YES &nbsp;&nbsp;&nbsp; J = NO</p>
","j","html-keyboard-response","13","2.1.0","22113","F=YES, J=NO","cv2fd139l0","1","66","73","60","","","","","","lextale","false","false","","","","","","","",""
"702","
  <p style=""font-size: 40px;"">border</p>
  <p style=""font-size: 16px;"">F = YES &nbsp;&nbsp;&nbsp; J = NO</p>
","f","html-keyboard-response","14","2.1.0","22816","F=YES, J=NO","cv2fd139l0","1","66","73","60","","","","","","lextale","true","false","","","","","","","",""
"884","
  <p style=""font-size: 40px;"">flimsy</p>
  <p style=""font-size: 16px;"">F = YES &nbsp;&nbsp;&nbsp; J = NO</p>
","j","html-keyboard-response","15","2.1.0","23702","F=YES, J=NO","cv2fd139l0","1","66","73","60","","","","","","lextale","true","false","","","","","","","",""
"938","
  <p style=""font-size: 40px;"">drain</p>
  <p style=""font-size: 16px;"">F = YES &nbsp;&nbsp;&nbsp; J = NO</p>
","f","html-keyboard-response","16","2.1.0","24640","F=YES, J=NO","cv2fd139l0","1","66","73","60","","","","","","lextale","true","false","","","","","","","",""
"4228","
  <p style=""font-size: 40px;"">twindle</p>
  <p style=""font-size: 16px;"">F = YES &nbsp;&nbsp;&nbsp; J = NO</p>
","f","html-keyboard-response","17","2.1.0","28869","F=YES, J=NO","cv2fd139l0","1","66","73","60","","","","","","lextale","false","false","","","","","","","",""
"701","
  <p style=""font-size: 40px;"">propose</p>
  <p style=""font-size: 16px;"">F = YES &nbsp;&nbsp;&nbsp; J = NO</p>
","f","html-keyboard-response","18","2.1.0","29571","F=YES, J=NO","cv2fd139l0","1","66","73","60","","","","","","lextale","true","false","","","","","","","",""
"3074","
  <p style=""font-size: 40px;"">forlay</p>
  <p style=""font-size: 16px;"">F = YES &nbsp;&nbsp;&nbsp; J = NO</p>
","f","html-keyboard-response","19","2.1.0","32647","F=YES, J=NO","cv2fd139l0","1","66","73","60","","","","","","lextale","false","false","","","","","","","",""
"592","
  <p style=""font-size: 40px;"">tenant</p>
  <p style=""font-size: 16px;"">F = YES &nbsp;&nbsp;&nbsp; J = NO</p>
","f","html-keyboard-response","20","2.1.0","33240","F=YES, J=NO","cv2fd139l0","1","66","73","60","","","","","","lextale","true","false","","","","","","","",""
"691","
  <p style=""font-size: 40px;"">strain</p>
  <p style=""font-size: 16px;"">F = YES &nbsp;&nbsp;&nbsp; J = NO</p>
","f","html-keyboard-response","21","2.1.0","33932","F=YES, J=NO","cv2fd139l0","1","66","73","60","","","","","","lextale","true","false","","","","","","","",""
"1830","
  <p style=""font-size: 40px;"">holster</p>
  <p style=""font-size: 16px;"">F = YES &nbsp;&nbsp;&nbsp; J = NO</p>
","f","html-keyboard-response","22","2.1.0","35762","F=YES, J=NO","cv2fd139l0","1","66","73","60","","","","","","lextale","true","false","","","","","","","",""
"3938","
  <p style=""font-size: 40px;"">hinder</p>
  <p style=""font-size: 16px;"">F = YES &nbsp;&nbsp;&nbsp; J = NO</p>
","j","html-keyboard-response","23","2.1.0","39701","F=YES, J=NO","cv2fd139l0","1","66","73","60","","","","","","lextale","true","false","","","","","","","",""
"1235","
  <p style=""font-size: 40px;"">swindle</p>
  <p style=""font-size: 16px;"">F = YES &nbsp;&nbsp;&nbsp; J = NO</p>
","f","html-keyboard-response","24","2.1.0","40936","F=YES, J=NO","cv2fd139l0","1","66","73","60","","","","","","lextale","true","false","","","","","","","",""
"4138","
  <p style=""font-size: 40px;"">nuder</p>
  <p style=""font-size: 16px;"">F = YES &nbsp;&nbsp;&nbsp; J = NO</p>
","j","html-keyboard-response","25","2.1.0","45076","F=YES, J=NO","cv2fd139l0","1","66","73","60","","","","","","lextale","false","false","","","","","","","",""
"794","
  <p style=""font-size: 40px;"">pillow</p>
  <p style=""font-size: 16px;"">F = YES &nbsp;&nbsp;&nbsp; J = NO</p>
","f","html-keyboard-response","26","2.1.0","45870","F=YES, J=NO","cv2fd139l0","1","66","73","60","","","","","","lextale","true","false","","","","","","","",""
"885","
  <p style=""font-size: 40px;"">shumble</p>
  <p style=""font-size: 16px;"">F = YES &nbsp;&nbsp;&nbsp; J = NO</p>
","f","html-keyboard-response","27","2.1.0","46756","F=YES, J=NO","cv2fd139l0","1","66","73","60","","","","","","lextale","false","false","","","","","","","",""
"581","
  <p style=""font-size: 40px;"">thirst</p>
  <p style=""font-size: 16px;"">F = YES &nbsp;&nbsp;&nbsp; J = NO</p>
","f","html-keyboard-response","28","2.1.0","47338","F=YES, J=NO","cv2fd139l0","1","66","73","60","","","","","","lextale","true","false","","","","","","","",""
"607","
  <p style=""font-size: 40px;"">unsail</p>
  <p style=""font-size: 16px;"">F = YES &nbsp;&nbsp;&nbsp; J = NO</p>
","f","html-keyboard-response","29","2.1.0","47947","F=YES, J=NO","cv2fd139l0","1","66","73","60","","","","","","lextale","false","false","","","","","","","",""
"668","
  <p style=""font-size: 40px;"">rifle</p>
  <p style=""font-size: 16px;"">F = YES &nbsp;&nbsp;&nbsp; J = NO</p>
","f","html-keyboard-response","30","2.1.0","48615","F=YES, J=NO","cv2fd139l0","1","66","73","60","","","","","","lextale","true","false","","","","","","","",""
"786","
  <p style=""font-size: 40px;"">mush</p>
  <p style=""font-size: 16px;"">F = YES &nbsp;&nbsp;&nbsp; J = NO</p>
","f","html-keyboard-response","31","2.1.0","49402","F=YES, J=NO","cv2fd139l0","1","66","73","60","","","","","","lextale","false","false","","","","","","","",""
"1124","
  <p style=""font-size: 40px;"">drench</p>
  <p style=""font-size: 16px;"">F = YES &nbsp;&nbsp;&nbsp; J = NO</p>
","f","html-keyboard-response","32","2.1.0","50527","F=YES, J=NO","cv2fd139l0","1","66","73","60","","","","","","lextale","true","false","","","","","","","",""
"4212","
  <p style=""font-size: 40px;"">snirt</p>
  <p style=""font-size: 16px;"">F = YES &nbsp;&nbsp;&nbsp; J = NO</p>
","f","html-keyboard-response","33","2.1.0","54739","F=YES, J=NO","cv2fd139l0","1","66","73","60","","","","","","lextale","false","false","","","","","","","",""
"618","
  <p style=""font-size: 40px;"">bitter</p>
  <p style=""font-size: 16px;"">F = YES &nbsp;&nbsp;&nbsp; J = NO</p>
","f","html-keyboard-response","34","2.1.0","55358","F=YES, J=NO","cv2fd139l0","1","66","73","60","","","","","","lextale","true","false","","","","","","","",""
"2030","
  <p style=""font-size: 40px;"">pliff</p>
  <p style=""font-size: 16px;"">F = YES &nbsp;&nbsp;&nbsp; J = NO</p>
","f","html-keyboard-response","35","2.1.0","57389","F=YES, J=NO","cv2fd139l0","1","66","73","60","","","","","","lextale","false","false","","","","","","","",""
"1348","
  <p style=""font-size: 40px;"">tablet</p>
  <p style=""font-size: 16px;"">F = YES &nbsp;&nbsp;&nbsp; J = NO</p>
","f","html-keyboard-response","36","2.1.0","58738","F=YES, J=NO","cv2fd139l0","1","66","73","60","","","","","","lextale","true","false","","","","","","","",""
"1182","
  <p style=""font-size: 40px;"">glimmer</p>
  <p style=""font-size: 16px;"">F = YES &nbsp;&nbsp;&nbsp; J = NO</p>
","f","html-keyboard-response","37","2.1.0","59920","F=YES, J=NO","cv2fd139l0","1","66","73","60","","","","","","lextale","true","false","","","","","","","",""
"2305","
  <p style=""font-size: 40px;"">slink</p>
  <p style=""font-size: 16px;"">F = YES &nbsp;&nbsp;&nbsp; J = NO</p>
","f","html-keyboard-response","38","2.1.0","62227","F=YES, J=NO","cv2fd139l0","1","66","73","60","","","","","","lextale","true","false","","","","","","","",""
"719","
  <p style=""font-size: 40px;"">clever</p>
  <p style=""font-size: 16px;"">F = YES &nbsp;&nbsp;&nbsp; J = NO</p>
","f","html-keyboard-response","39","2.1.0","62947","F=YES, J=NO","cv2fd139l0","1","66","73","60","","","","","","lextale","true","false","","","","","","","",""
"1994","
  <p style=""font-size: 40px;"">grum</p>
  <p style=""font-size: 16px;"">F = YES &nbsp;&nbsp;&nbsp; J = NO</p>
","j","html-keyboard-response","40","2.1.0","64943","F=YES, J=NO","cv2fd139l0","1","66","73","60","","","","","","lextale","false","false","","","","","","","",""
"688","
  <p style=""font-size: 40px;"">string</p>
  <p style=""font-size: 16px;"">F = YES &nbsp;&nbsp;&nbsp; J = NO</p>
","f","html-keyboard-response","41","2.1.0","65632","F=YES, J=NO","cv2fd139l0","1","66","73","60","","","","","","lextale","true","false","","","","","","","",""
"968","
  <p style=""font-size: 40px;"">plim</p>
  <p style=""font-size: 16px;"">F = YES &nbsp;&nbsp;&nbsp; J = NO</p>
","j","html-keyboard-response","42","2.1.0","66601","F=YES, J=NO","cv2fd139l0","1","66","73","60","","","","","","lextale","false","false","","","","","","","",""
"557","
  <p style=""font-size: 40px;"">cable</p>
  <p style=""font-size: 16px;"">F = YES &nbsp;&nbsp;&nbsp; J = NO</p>
","f","html-keyboard-response","43","2.1.0","67159","F=YES, J=NO","cv2fd139l0","1","66","73","60","","","","","","lextale","true","false","","","","","","","",""
"1319","
  <p style=""font-size: 40px;"">shrivel</p>
  <p style=""font-size: 16px;"">F = YES &nbsp;&nbsp;&nbsp; J = NO</p>
","j","html-keyboard-response","44","2.1.0","68480","F=YES, J=NO","cv2fd139l0","1","66","73","60","","","","","","lextale","true","false","","","","","","","",""
"1438","
  <p style=""font-size: 40px;"">tarnish</p>
  <p style=""font-size: 16px;"">F = YES &nbsp;&nbsp;&nbsp; J = NO</p>
","f","html-keyboard-response","45","2.1.0","69918","F=YES, J=NO","cv2fd139l0","1","66","73","60","","","","","","lextale","true","false","","","","","","","",""
"965","
  <p style=""font-size: 40px;"">blim</p>
  <p style=""font-size: 16px;"">F = YES &nbsp;&nbsp;&nbsp; J = NO</p>
","j","html-keyboard-response","46","2.1.0","70884","F=YES, J=NO","cv2fd139l0","1","66","73","60","","","","","","lextale","false","false","","","","","","","",""
"1022","
  <p style=""font-size: 40px;"">stifle</p>
  <p style=""font-size: 16px;"">F = YES &nbsp;&nbsp;&nbsp; J = NO</p>
","j","html-keyboard-response","47","2.1.0","71908","F=YES, J=NO","cv2fd139l0","1","66","73","60","","","","","","lextale","true","false","","","","","","","",""
"1536","
  <p style=""font-size: 40px;"">bint</p>
  <p style=""font-size: 16px;"">F = YES &nbsp;&nbsp;&nbsp; J = NO</p>
","j","html-keyboard-response","48","2.1.0","73446","F=YES, J=NO","cv2fd139l0","1","66","73","60","","","","","","lextale","false","false","","","","","","","",""
"736","
  <p style=""font-size: 40px;"">purple</p>
  <p style=""font-size: 16px;"">F = YES &nbsp;&nbsp;&nbsp; J = NO</p>
","f","html-keyboard-response","49","2.1.0","74182","F=YES, J=NO","cv2fd139l0","1","66","73","60","","","","","","lextale","true","false","","","","","","","",""
"1837","
  <p style=""font-size: 40px;"">wriggle</p>
  <p style=""font-size: 16px;"">F = YES &nbsp;&nbsp;&nbsp; J = NO</p>
","f","html-keyboard-response","50","2.1.0","76019","F=YES, J=NO","cv2fd139l0","1","66","73","60","","","","","","lextale","true","false","","","","","","","",""
"5009","
  <p style=""font-size: 40px;"">mangle</p>
  <p style=""font-size: 16px;"">F = YES &nbsp;&nbsp;&nbsp; J = NO</p>
","j","html-keyboard-response","51","2.1.0","81030","F=YES, J=NO","cv2fd139l0","1","66","73","60","","","","","","lextale","true","false","","","","","","","",""
"2105","
  <p style=""font-size: 40px;"">shramp</p>
  <p style=""font-size: 16px;"">F = YES &nbsp;&nbsp;&nbsp; J = NO</p>
","j","html-keyboard-response","52","2.1.0","83136","F=YES, J=NO","cv2fd139l0","1","66","73","60","","","","","","lextale","false","false","","","","","","","",""
"593","
  <p style=""font-size: 40px;"">flirt</p>
  <p style=""font-size: 16px;"">F = YES &nbsp;&nbsp;&nbsp; J = NO</p>
","f","html-keyboard-response","53","2.1.0","83730","F=YES, J=NO","cv2fd139l0","1","66","73","60","","","","","","lextale","true","false","","","","","","","",""
"791","
  <p style=""font-size: 40px;"">frip</p>
  <p style=""font-size: 16px;"">F = YES &nbsp;&nbsp;&nbsp; J = NO</p>
","j","html-keyboard-response","54","2.1.0","84522","F=YES, J=NO","cv2fd139l0","1","66","73","60","","","","","","lextale","false","false","","","","","","","",""
"795","
  <p style=""font-size: 40px;"">tangle</p>
  <p style=""font-size: 16px;"">F = YES &nbsp;&nbsp;&nbsp; J = NO</p>
","f","html-keyboard-response","55","2.1.0","85318","F=YES, J=NO","cv2fd139l0","1","66","73","60","","","","","","lextale","true","false","","","","","","","",""
"662","
  <p style=""font-size: 40px;"">crumble</p>
  <p style=""font-size: 16px;"">F = YES &nbsp;&nbsp;&nbsp; J = NO</p>
","f","html-keyboard-response","56","2.1.0","85982","F=YES, J=NO","cv2fd139l0","1","66","73","60","","","","","","lextale","true","false","","","","","","","",""
"640","
  <p style=""font-size: 40px;"">wrinkle</p>
  <p style=""font-size: 16px;"">F = YES &nbsp;&nbsp;&nbsp; J = NO</p>
","f","html-keyboard-response","57","2.1.0","86622","F=YES, J=NO","cv2fd139l0","1","66","73","60","","","","","","lextale","true","false","","","","","","","",""
"1390","
  <p style=""font-size: 40px;"">slumb</p>
  <p style=""font-size: 16px;"">F = YES &nbsp;&nbsp;&nbsp; J = NO</p>
","j","html-keyboard-response","58","2.1.0","88013","F=YES, J=NO","cv2fd139l0","1","66","73","60","","","","","","lextale","false","false","","","","","","","",""
"592","
  <p style=""font-size: 40px;"">jungle</p>
  <p style=""font-size: 16px;"">F = YES &nbsp;&nbsp;&nbsp; J = NO</p>
","f","html-keyboard-response","59","2.1.0","88607","F=YES, J=NO","cv2fd139l0","1","66","73","60","","","","","","lextale","true","false","","","","","","","",""
"1319","
  <p style=""font-size: 40px;"">frolick</p>
  <p style=""font-size: 16px;"">F = YES &nbsp;&nbsp;&nbsp; J = NO</p>
","j","html-keyboard-response","60","2.1.0","89926","F=YES, J=NO","cv2fd139l0","1","66","73","60","","","","","","lextale","false","false","","","","","","","",""
"2441","
      <h2>LexTALE Test Completed</h2>
      <p>Your LexTALE vocabulary score is: <strong>66%</strong></p>
      <p>Press any key to continue.</p>
    "," ","html-keyboard-response","61","2.1.0","92369","F=YES, J=NO","cv2fd139l0","1","66","73","60","","","","","","","","","","","","","","","",""
"5746","
    <div style=""max-width: 800px; margin: auto; text-align: left;"">
      <h2>Break Time</h2>
      <p>You have completed the first part of the study.</p>
      <p>You may take a short <strong>30-second break</strong> before continuing.</p>
      <p>When you’re ready, press any key to continue to the final task.</p>
    </div>
  "," ","html-keyboard-response","62","2.1.0","98116","F=YES, J=NO","cv2fd139l0","1","66","73","60","","","","","","","","","","","","","","","",""
"16094","
    <div style=""max-width: 800px; margin: auto; text-align: left;"">
      <h2>Part 2: Lexical Decision Task</h2>
      <p>You will now begin the second part of the study.</p>
      <p>Each trial will follow this sequence:</p>
      <ul>
        <li>A fixation cross (+) appears at the center of the screen.</li>
        <li>You will hear a short beep followed by a spoken word.</li>
        <li>A written word will appear briefly on the screen.</li>
      </ul>
      <p>Your task is to judge whether the <strong>written word</strong> is a real English word.</p>
      <p style=""margin-top: 1em;""><strong>Key responses:</strong></p>
      <ul>
        <li><strong>F</strong> = YES (real English word)</li>
        <li><strong>J</strong> = NO (not a real English word)</li>
      </ul>
      <p>Please respond as quickly and accurately as you can.</p>
      <p style=""margin-top: 2em;"">Press any key to continue.</p>
    </div>
  "," ","html-keyboard-response","63","2.1.0","114212","F=YES, J=NO","cv2fd139l0","1","66","73","60","","","","","","","","","","","","","","","",""
"2300","
    <div style=""max-width: 800px; margin: auto; text-align: left;"">
      <h2>Before You Begin</h2>
      <p>Make sure your sound is turned on.</p>
      <p>You will hear audio during each trial, but your decision should be based only on the <strong>written word</strong> you see on the screen.</p>
      <p><strong>Reminder:</strong></p>
      <ul>
        <li><strong>F</strong> = YES (real English word)</li>
        <li><strong>J</strong> = NO (not a real English word)</li>
      </ul>
      <p style=""margin-top: 2em;"">Press any key when you are ready to begin.</p>
    </div>
  "," ","html-keyboard-response","64","2.1.0","116514","F=YES, J=NO","cv2fd139l0","1","66","73","60","","","","","","","","","","","","","","","",""
"2097","
    <div style=""max-width: 800px; margin: auto; text-align: left;"">
      <h2>Part 2: Practice Trials</h2>
      <p>You will now complete a few <strong>practice trials</strong> to get familiar with the task.</p>
      <p>These trials are <strong>not scored</strong> and are only to help you get used to the format.</p>
      <p style=""margin-top: 2em;"">Press any key to begin.</p>
    </div>
  "," ","html-keyboard-response","65","2.1.0","118611","F=YES, J=NO","cv2fd139l0","1","66","73","60","","","","","","","","","","","","","","","",""
"844","<p>Starting practice block 1 of 2. Press any key to continue.</p>"," ","html-keyboard-response","66","2.1.0","119456","F=YES, J=NO","cv2fd139l0","1","66","73","60","","","","","","","","","","","","","","","",""
"null","<p style=""font-size: 50px;"">+</p>","null","html-keyboard-response","67","2.1.0","119766","F=YES, J=NO","cv2fd139l0","1","66","73","60","","","","","","","","","","","","","","","",""
"null","audio/beep-329314.mp3","null","audio-keyboard-response","68","2.1.0","121335","F=YES, J=NO","cv2fd139l0","1","66","73","60","","","","","","","","","","","","","","","",""
"null","audio/table1.wav","null","audio-keyboard-response","69","2.1.0","121815","F=YES, J=NO","cv2fd139l0","1","66","73","60","","","","","","","","","","","","","","","",""
"1156","
          <p id=""word"" style=""font-size: 40px;"">stimb</p>
          <p style=""font-size: 16px;"">F = YES &nbsp;&nbsp;&nbsp; J = NO</p>
        ","j","html-keyboard-response","70","2.1.0","122971","F=YES, J=NO","cv2fd139l0","1","66","73","60","","","","","","","","","stimb","table1","pseudoword","pseudoword","j","true","",""
"null","<p style=""font-size: 50px;"">+</p>","null","html-keyboard-response","71","2.1.0","123286","F=YES, J=NO","cv2fd139l0","1","66","73","60","","","","","","","","","","","","","","","",""
"null","audio/beep-329314.mp3","null","audio-keyboard-response","72","2.1.0","124815","F=YES, J=NO","cv2fd139l0","1","66","73","60","","","","","","","","","","","","","","","",""
"null","audio/brain.wav","null","audio-keyboard-response","73","2.1.0","125295","F=YES, J=NO","cv2fd139l0","1","66","73","60","","","","","","","","","","","","","","","",""
"632","
          <p id=""word"" style=""font-size: 40px;"">throw</p>
          <p style=""font-size: 16px;"">F = YES &nbsp;&nbsp;&nbsp; J = NO</p>
        ","f","html-keyboard-response","74","2.1.0","125928","F=YES, J=NO","cv2fd139l0","1","66","73","60","","","","","","","","","throw","brain","filler","filler","f","true","",""
"null","<p style=""font-size: 50px;"">+</p>","null","html-keyboard-response","75","2.1.0","126230","F=YES, J=NO","cv2fd139l0","1","66","73","60","","","","","","","","","","","","","","","",""
"null","audio/beep-329314.mp3","null","audio-keyboard-response","76","2.1.0","127755","F=YES, J=NO","cv2fd139l0","1","66","73","60","","","","","","","","","","","","","","","",""
"null","audio/birth1.wav","null","audio-keyboard-response","77","2.1.0","128295","F=YES, J=NO","cv2fd139l0","1","66","73","60","","","","","","","","","","","","","","","",""
"1140","
          <p id=""word"" style=""font-size: 40px;"">peel</p>
          <p style=""font-size: 16px;"">F = YES &nbsp;&nbsp;&nbsp; J = NO</p>
        ","f","html-keyboard-response","78","2.1.0","129436","F=YES, J=NO","cv2fd139l0","1","66","73","60","","","","","","","","","peel","birth1","filler","filler","f","true","",""
"null","<p style=""font-size: 50px;"">+</p>","null","html-keyboard-response","79","2.1.0","129747","F=YES, J=NO","cv2fd139l0","1","66","73","60","","","","","","","","","","","","","","","",""
"null","audio/beep-329314.mp3","null","audio-keyboard-response","80","2.1.0","131295","F=YES, J=NO","cv2fd139l0","1","66","73","60","","","","","","","","","","","","","","","",""
"null","audio/dollar.wav","null","audio-keyboard-response","81","2.1.0","131695","F=YES, J=NO","cv2fd139l0","1","66","73","60","","","","","","","","","","","","","","","",""
"1179","
          <p id=""word"" style=""font-size: 40px;"">gliptism</p>
          <p style=""font-size: 16px;"">F = YES &nbsp;&nbsp;&nbsp; J = NO</p>
        ","j","html-keyboard-response","82","2.1.0","132874","F=YES, J=NO","cv2fd139l0","1","66","73","60","","","","","","","","","gliptism","dollar","pseudoword","pseudoword","j","true","",""
"null","<p style=""font-size: 50px;"">+</p>","null","html-keyboard-response","83","2.1.0","133184","F=YES, J=NO","cv2fd139l0","1","66","73","60","","","","","","","","","","","","","","","",""
"null","audio/beep-329314.mp3","null","audio-keyboard-response","84","2.1.0","134715","F=YES, J=NO","cv2fd139l0","1","66","73","60","","","","","","","","","","","","","","","",""
"null","audio/empire.wav","null","audio-keyboard-response","85","2.1.0","135355","F=YES, J=NO","cv2fd139l0","1","66","73","60","","","","","","","","","","","","","","","",""
"623","
          <p id=""word"" style=""font-size: 40px;"">slorby</p>
          <p style=""font-size: 16px;"">F = YES &nbsp;&nbsp;&nbsp; J = NO</p>
        ","j","html-keyboard-response","86","2.1.0","135978","F=YES, J=NO","cv2fd139l0","1","66","73","60","","","","","","","","","slorby","empire","pseudoword","pseudoword","j","true","",""
"null","<p style=""font-size: 50px;"">+</p>","null","html-keyboard-response","87","2.1.0","136288","F=YES, J=NO","cv2fd139l0","1","66","73","60","","","","","","","","","","","","","","","",""
"null","audio/beep-329314.mp3","null","audio-keyboard-response","88","2.1.0","137835","F=YES, J=NO","cv2fd139l0","1","66","73","60","","","","","","","","","","","","","","","",""
"null","audio/breath.wav","null","audio-keyboard-response","89","2.1.0","138395","F=YES, J=NO","cv2fd139l0","1","66","73","60","","","","","","","","","","","","","","","",""
"1286","
          <p id=""word"" style=""font-size: 40px;"">pack</p>
          <p style=""font-size: 16px;"">F = YES &nbsp;&nbsp;&nbsp; J = NO</p>
        ","f","html-keyboard-response","90","2.1.0","139681","F=YES, J=NO","cv2fd139l0","1","66","73","60","","","","","","","","","pack","breath","filler","filler","f","true","",""
"null","<p style=""font-size: 50px;"">+</p>","null","html-keyboard-response","91","2.1.0","139986","F=YES, J=NO","cv2fd139l0","1","66","73","60","","","","","","","","","","","","","","","",""
"null","audio/beep-329314.mp3","null","audio-keyboard-response","92","2.1.0","141515","F=YES, J=NO","cv2fd139l0","1","66","73","60","","","","","","","","","","","","","","","",""
"null","audio/emotion.wav","null","audio-keyboard-response","93","2.1.0","142195","F=YES, J=NO","cv2fd139l0","1","66","73","60","","","","","","","","","","","","","","","",""
"1157","
          <p id=""word"" style=""font-size: 40px;"">devering</p>
          <p style=""font-size: 16px;"">F = YES &nbsp;&nbsp;&nbsp; J = NO</p>
        ","j","html-keyboard-response","94","2.1.0","143353","F=YES, J=NO","cv2fd139l0","1","66","73","60","","","","","","","","","devering","emotion","pseudoword","pseudoword","j","true","",""
"null","<p style=""font-size: 50px;"">+</p>","null","html-keyboard-response","95","2.1.0","143666","F=YES, J=NO","cv2fd139l0","1","66","73","60","","","","","","","","","","","","","","","",""
"null","audio/beep-329314.mp3","null","audio-keyboard-response","96","2.1.0","145215","F=YES, J=NO","cv2fd139l0","1","66","73","60","","","","","","","","","","","","","","","",""
"null","audio/baby.wav","null","audio-keyboard-response","97","2.1.0","145694","F=YES, J=NO","cv2fd139l0","1","66","73","60","","","","","","","","","","","","","","","",""
"921","
          <p id=""word"" style=""font-size: 40px;"">lift</p>
          <p style=""font-size: 16px;"">F = YES &nbsp;&nbsp;&nbsp; J = NO</p>
        ","f","html-keyboard-response","98","2.1.0","146616","F=YES, J=NO","cv2fd139l0","1","66","73","60","","","","","","","","","lift","baby","filler","filler","f","true","",""
"null","<p style=""font-size: 50px;"">+</p>","null","html-keyboard-response","99","2.1.0","146931","F=YES, J=NO","cv2fd139l0","1","66","73","60","","","","","","","","","","","","","","","",""
"null","audio/beep-329314.mp3","null","audio-keyboard-response","100","2.1.0","148455","F=YES, J=NO","cv2fd139l0","1","66","73","60","","","","","","","","","","","","","","","",""
"null","audio/strength.wav","null","audio-keyboard-response","101","2.1.0","149214","F=YES, J=NO","cv2fd139l0","1","66","73","60","","","","","","","","","","","","","","","",""
"679","
          <p id=""word"" style=""font-size: 40px;"">plabet</p>
          <p style=""font-size: 16px;"">F = YES &nbsp;&nbsp;&nbsp; J = NO</p>
        ","j","html-keyboard-response","102","2.1.0","149894","F=YES, J=NO","cv2fd139l0","1","66","73","60","","","","","","","","","plabet","strength","pseudoword","pseudoword","j","true","",""
"null","<p style=""font-size: 50px;"">+</p>","null","html-keyboard-response","103","2.1.0","150209","F=YES, J=NO","cv2fd139l0","1","66","73","60","","","","","","","","","","","","","","","",""
"null","audio/beep-329314.mp3","null","audio-keyboard-response","104","2.1.0","151754","F=YES, J=NO","cv2fd139l0","1","66","73","60","","","","","","","","","","","","","","","",""
"null","audio/window1.wav","null","audio-keyboard-response","105","2.1.0","152375","F=YES, J=NO","cv2fd139l0","1","66","73","60","","","","","","","","","","","","","","","",""
"882","
          <p id=""word"" style=""font-size: 40px;"">toss</p>
          <p style=""font-size: 16px;"">F = YES &nbsp;&nbsp;&nbsp; J = NO</p>
        ","j","html-keyboard-response","106","2.1.0","153257","F=YES, J=NO","cv2fd139l0","1","66","73","60","","","","","","","","","toss","window1","filler","filler","f","false","",""
"null","<p style=""font-size: 50px;"">+</p>","null","html-keyboard-response","107","2.1.0","153567","F=YES, J=NO","cv2fd139l0","1","66","73","60","","","","","","","","","","","","","","","",""
"null","audio/beep-329314.mp3","null","audio-keyboard-response","108","2.1.0","155115","F=YES, J=NO","cv2fd139l0","1","66","73","60","","","","","","","","","","","","","","","",""
"null","audio/cloud1.wav","null","audio-keyboard-response","109","2.1.0","155675","F=YES, J=NO","cv2fd139l0","1","66","73","60","","","","","","","","","","","","","","","",""
"923","
          <p id=""word"" style=""font-size: 40px;"">brotant</p>
          <p style=""font-size: 16px;"">F = YES &nbsp;&nbsp;&nbsp; J = NO</p>
        ","j","html-keyboard-response","110","2.1.0","156599","F=YES, J=NO","cv2fd139l0","1","66","73","60","","","","","","","","","brotant","cloud1","pseudoword","pseudoword","j","true","",""
"null","<p style=""font-size: 50px;"">+</p>","null","html-keyboard-response","111","2.1.0","156913","F=YES, J=NO","cv2fd139l0","1","66","73","60","","","","","","","","","","","","","","","",""
"null","audio/beep-329314.mp3","null","audio-keyboard-response","112","2.1.0","158435","F=YES, J=NO","cv2fd139l0","1","66","73","60","","","","","","","","","","","","","","","",""
"null","audio/gossip1.wav","null","audio-keyboard-response","113","2.1.0","159075","F=YES, J=NO","cv2fd139l0","1","66","73","60","","","","","","","","","","","","","","","",""
"1279","
          <p id=""word"" style=""font-size: 40px;"">camerish</p>
          <p style=""font-size: 16px;"">F = YES &nbsp;&nbsp;&nbsp; J = NO</p>
        ","j","html-keyboard-response","114","2.1.0","160354","F=YES, J=NO","cv2fd139l0","1","66","73","60","","","","","","","","","camerish","gossip1","pseudoword","pseudoword","j","true","",""
"740","<p>Starting practice block 2 of 2. Press any key to continue.</p>"," ","html-keyboard-response","115","2.1.0","161095","F=YES, J=NO","cv2fd139l0","1","66","73","60","","","","","","","","","","","","","","","",""
"null","<p style=""font-size: 50px;"">+</p>","null","html-keyboard-response","116","2.1.0","161409","F=YES, J=NO","cv2fd139l0","1","66","73","60","","","","","","","","","","","","","","","",""
"null","audio/beep-329314.mp3","null","audio-keyboard-response","117","2.1.0","162935","F=YES, J=NO","cv2fd139l0","1","66","73","60","","","","","","","","","","","","","","","",""
"null","audio/butter1.wav","null","audio-keyboard-response","118","2.1.0","163414","F=YES, J=NO","cv2fd139l0","1","66","73","60","","","","","","","","","","","","","","","",""
"896","
          <p id=""word"" style=""font-size: 40px;"">chew</p>
          <p style=""font-size: 16px;"">F = YES &nbsp;&nbsp;&nbsp; J = NO</p>
        ","f","html-keyboard-response","119","2.1.0","164311","F=YES, J=NO","cv2fd139l0","1","66","73","60","","","","","","","","","chew","butter1","filler","filler","f","true","",""
"null","<p style=""font-size: 50px;"">+</p>","null","html-keyboard-response","120","2.1.0","164625","F=YES, J=NO","cv2fd139l0","1","66","73","60","","","","","","","","","","","","","","","",""
"null","audio/beep-329314.mp3","null","audio-keyboard-response","121","2.1.0","166154","F=YES, J=NO","cv2fd139l0","1","66","73","60","","","","","","","","","","","","","","","",""
"null","audio/account1.wav","null","audio-keyboard-response","122","2.1.0","166854","F=YES, J=NO","cv2fd139l0","1","66","73","60","","","","","","","","","","","","","","","",""
"637","
          <p id=""word"" style=""font-size: 40px;"">paint</p>
          <p style=""font-size: 16px;"">F = YES &nbsp;&nbsp;&nbsp; J = NO</p>
        ","f","html-keyboard-response","123","2.1.0","167491","F=YES, J=NO","cv2fd139l0","1","66","73","60","","","","","","","","","paint","account1","filler","filler","f","true","",""
"null","<p style=""font-size: 50px;"">+</p>","null","html-keyboard-response","124","2.1.0","167793","F=YES, J=NO","cv2fd139l0","1","66","73","60","","","","","","","","","","","","","","","",""
"null","audio/beep-329314.mp3","null","audio-keyboard-response","125","2.1.0","169334","F=YES, J=NO","cv2fd139l0","1","66","73","60","","","","","","","","","","","","","","","",""
"null","audio/cinema1.wav","null","audio-keyboard-response","126","2.1.0","169954","F=YES, J=NO","cv2fd139l0","1","66","73","60","","","","","","","","","","","","","","","",""
"905","
          <p id=""word"" style=""font-size: 40px;"">murple</p>
          <p style=""font-size: 16px;"">F = YES &nbsp;&nbsp;&nbsp; J = NO</p>
        ","j","html-keyboard-response","127","2.1.0","170861","F=YES, J=NO","cv2fd139l0","1","66","73","60","","","","","","","","","murple","cinema1","pseudoword","pseudoword","j","true","",""
"null","<p style=""font-size: 50px;"">+</p>","null","html-keyboard-response","128","2.1.0","171172","F=YES, J=NO","cv2fd139l0","1","66","73","60","","","","","","","","","","","","","","","",""
"null","audio/beep-329314.mp3","null","audio-keyboard-response","129","2.1.0","172696","F=YES, J=NO","cv2fd139l0","1","66","73","60","","","","","","","","","","","","","","","",""
"null","audio/age1.wav","null","audio-keyboard-response","130","2.1.0","173275","F=YES, J=NO","cv2fd139l0","1","66","73","60","","","","","","","","","","","","","","","",""
"806","
          <p id=""word"" style=""font-size: 40px;"">bake</p>
          <p style=""font-size: 16px;"">F = YES &nbsp;&nbsp;&nbsp; J = NO</p>
        ","f","html-keyboard-response","131","2.1.0","174082","F=YES, J=NO","cv2fd139l0","1","66","73","60","","","","","","","","","bake","age1","filler","filler","f","true","",""
"null","<p style=""font-size: 50px;"">+</p>","null","html-keyboard-response","132","2.1.0","174393","F=YES, J=NO","cv2fd139l0","1","66","73","60","","","","","","","","","","","","","","","",""
"null","audio/beep-329314.mp3","null","audio-keyboard-response","133","2.1.0","175935","F=YES, J=NO","cv2fd139l0","1","66","73","60","","","","","","","","","","","","","","","",""
"null","audio/mouth1.wav","null","audio-keyboard-response","134","2.1.0","176534","F=YES, J=NO","cv2fd139l0","1","66","73","60","","","","","","","","","","","","","","","",""
"699","
          <p id=""word"" style=""font-size: 40px;"">spolial</p>
          <p style=""font-size: 16px;"">F = YES &nbsp;&nbsp;&nbsp; J = NO</p>
        ","j","html-keyboard-response","135","2.1.0","177234","F=YES, J=NO","cv2fd139l0","1","66","73","60","","","","","","","","","spolial","mouth1","pseudoword","pseudoword","j","true","",""
"null","<p style=""font-size: 50px;"">+</p>","null","html-keyboard-response","136","2.1.0","177537","F=YES, J=NO","cv2fd139l0","1","66","73","60","","","","","","","","","","","","","","","",""
"null","audio/beep-329314.mp3","null","audio-keyboard-response","137","2.1.0","179074","F=YES, J=NO","cv2fd139l0","1","66","73","60","","","","","","","","","","","","","","","",""
"null","audio/fence.wav","null","audio-keyboard-response","138","2.1.0","179755","F=YES, J=NO","cv2fd139l0","1","66","73","60","","","","","","","","","","","","","","","",""
"1073","
          <p id=""word"" style=""font-size: 40px;"">trim</p>
          <p style=""font-size: 16px;"">F = YES &nbsp;&nbsp;&nbsp; J = NO</p>
        ","f","html-keyboard-response","139","2.1.0","180829","F=YES, J=NO","cv2fd139l0","1","66","73","60","","","","","","","","","trim","fence","filler","filler","f","true","",""
"null","<p style=""font-size: 50px;"">+</p>","null","html-keyboard-response","140","2.1.0","181133","F=YES, J=NO","cv2fd139l0","1","66","73","60","","","","","","","","","","","","","","","",""
"null","audio/beep-329314.mp3","null","audio-keyboard-response","141","2.1.0","182655","F=YES, J=NO","cv2fd139l0","1","66","73","60","","","","","","","","","","","","","","","",""
"null","audio/bottle.wav","null","audio-keyboard-response","142","2.1.0","183155","F=YES, J=NO","cv2fd139l0","1","66","73","60","","","","","","","","","","","","","","","",""
"960","
          <p id=""word"" style=""font-size: 40px;"">watch</p>
          <p style=""font-size: 16px;"">F = YES &nbsp;&nbsp;&nbsp; J = NO</p>
        ","f","html-keyboard-response","143","2.1.0","184116","F=YES, J=NO","cv2fd139l0","1","66","73","60","","","","","","","","","watch","bottle","filler","filler","f","true","",""
"null","<p style=""font-size: 50px;"">+</p>","null","html-keyboard-response","144","2.1.0","184420","F=YES, J=NO","cv2fd139l0","1","66","73","60","","","","","","","","","","","","","","","",""
"null","audio/beep-329314.mp3","null","audio-keyboard-response","145","2.1.0","185955","F=YES, J=NO","cv2fd139l0","1","66","73","60","","","","","","","","","","","","","","","",""
"null","audio/bishop1.wav","null","audio-keyboard-response","146","2.1.0","186555","F=YES, J=NO","cv2fd139l0","1","66","73","60","","","","","","","","","","","","","","","",""
"535","
          <p id=""word"" style=""font-size: 40px;"">play</p>
          <p style=""font-size: 16px;"">F = YES &nbsp;&nbsp;&nbsp; J = NO</p>
        ","f","html-keyboard-response","147","2.1.0","187090","F=YES, J=NO","cv2fd139l0","1","66","73","60","","","","","","","","","play","bishop1","filler","filler","f","true","",""
"null","<p style=""font-size: 50px;"">+</p>","null","html-keyboard-response","148","2.1.0","187394","F=YES, J=NO","cv2fd139l0","1","66","73","60","","","","","","","","","","","","","","","",""
"null","audio/beep-329314.mp3","null","audio-keyboard-response","149","2.1.0","188935","F=YES, J=NO","cv2fd139l0","1","66","73","60","","","","","","","","","","","","","","","",""
"null","audio/battle1.wav","null","audio-keyboard-response","150","2.1.0","189395","F=YES, J=NO","cv2fd139l0","1","66","73","60","","","","","","","","","","","","","","","",""
"963","
          <p id=""word"" style=""font-size: 40px;"">boil</p>
          <p style=""font-size: 16px;"">F = YES &nbsp;&nbsp;&nbsp; J = NO</p>
        ","f","html-keyboard-response","151","2.1.0","190359","F=YES, J=NO","cv2fd139l0","1","66","73","60","","","","","","","","","boil","battle1","filler","filler","f","true","",""
"null","<p style=""font-size: 50px;"">+</p>","null","html-keyboard-response","152","2.1.0","190672","F=YES, J=NO","cv2fd139l0","1","66","73","60","","","","","","","","","","","","","","","",""
"null","audio/beep-329314.mp3","null","audio-keyboard-response","153","2.1.0","192195","F=YES, J=NO","cv2fd139l0","1","66","73","60","","","","","","","","","","","","","","","",""
"null","audio/trust.wav","null","audio-keyboard-response","154","2.1.0","192835","F=YES, J=NO","cv2fd139l0","1","66","73","60","","","","","","","","","","","","","","","",""
"932","
          <p id=""word"" style=""font-size: 40px;"">swint</p>
          <p style=""font-size: 16px;"">F = YES &nbsp;&nbsp;&nbsp; J = NO</p>
        ","j","html-keyboard-response","155","2.1.0","193768","F=YES, J=NO","cv2fd139l0","1","66","73","60","","","","","","","","","swint","trust","pseudoword","pseudoword","j","true","",""
"null","<p style=""font-size: 50px;"">+</p>","null","html-keyboard-response","156","2.1.0","194077","F=YES, J=NO","cv2fd139l0","1","66","73","60","","","","","","","","","","","","","","","",""
"null","audio/beep-329314.mp3","null","audio-keyboard-response","157","2.1.0","195615","F=YES, J=NO","cv2fd139l0","1","66","73","60","","","","","","","","","","","","","","","",""
"null","audio/age1.wav","null","audio-keyboard-response","158","2.1.0","196175","F=YES, J=NO","cv2fd139l0","1","66","73","60","","","","","","","","","","","","","","","",""
"655","
          <p id=""word"" style=""font-size: 40px;"">lachry</p>
          <p style=""font-size: 16px;"">F = YES &nbsp;&nbsp;&nbsp; J = NO</p>
        ","j","html-keyboard-response","159","2.1.0","196830","F=YES, J=NO","cv2fd139l0","1","66","73","60","","","","","","","","","lachry","age1","pseudoword","pseudoword","j","true","",""
"null","<p style=""font-size: 50px;"">+</p>","null","html-keyboard-response","160","2.1.0","197140","F=YES, J=NO","cv2fd139l0","1","66","73","60","","","","","","","","","","","","","","","",""
"null","audio/beep-329314.mp3","null","audio-keyboard-response","161","2.1.0","198676","F=YES, J=NO","cv2fd139l0","1","66","73","60","","","","","","","","","","","","","","","",""
"null","audio/arm.wav","null","audio-keyboard-response","162","2.1.0","199235","F=YES, J=NO","cv2fd139l0","1","66","73","60","","","","","","","","","","","","","","","",""
"903","
          <p id=""word"" style=""font-size: 40px;"">pigne</p>
          <p style=""font-size: 16px;"">F = YES &nbsp;&nbsp;&nbsp; J = NO</p>
        ","j","html-keyboard-response","163","2.1.0","200140","F=YES, J=NO","cv2fd139l0","1","66","73","60","","","","","","","","","pigne","arm","pseudoword","pseudoword","j","true","",""
"8465","
    <div style=""max-width: 800px; margin: auto; text-align: left;"">
      <h2>Part 2: Main Trials</h2>
      <p>Great job on the practice trials!</p>
      <p>You will now begin the <strong>main set of trials</strong>.</p>
      <p>Remember your key assignments:</p>
      <ul>
        <li><strong>F</strong> = YES (real English word)</li>
        <li><strong>J</strong> = NO (not a real English word)</li>
      </ul>
      <p>Try to respond as <strong>quickly and accurately</strong> as possible.</p>
      <p style=""margin-top: 2em;"">Press any key to begin the main trials.</p>
    </div>
  "," ","html-keyboard-response","164","2.1.0","208606","F=YES, J=NO","cv2fd139l0","1","66","73","60","","","","","","","","","","","","","","","",""
"676","<p>Starting main block 1 of 8. Press any key to continue.</p>"," ","html-keyboard-response","165","2.1.0","209283","F=YES, J=NO","cv2fd139l0","1","66","73","60","","","","","","","","","","","","","","","",""
"null","<p style=""font-size: 50px;"">+</p>","null","html-keyboard-response","166","2.1.0","209589","F=YES, J=NO","cv2fd139l0","1","66","73","60","","","","","","","","","","","","","","","",""
"null","audio/beep-329314.mp3","null","audio-keyboard-response","167","2.1.0","211110","F=YES, J=NO","cv2fd139l0","1","66","73","60","","","","","","","","","","","","","","","",""
"null","audio/topic.wav","null","audio-keyboard-response","168","2.1.0","211670","F=YES, J=NO","cv2fd139l0","1","66","73","60","","","","","","","","","","","","","","","",""
"1018","
          <p id=""word"" style=""font-size: 40px;"">infortuitist</p>
          <p style=""font-size: 16px;"">F = YES &nbsp;&nbsp;&nbsp; J = NO</p>
        ","j","html-keyboard-response","169","2.1.0","212689","F=YES, J=NO","cv2fd139l0","1","66","73","60","","","","","","","","","infortuitist","topic","pseudoword","pseudoword","j","true","",""
"null","<p style=""font-size: 50px;"">+</p>","null","html-keyboard-response","170","2.1.0","212990","F=YES, J=NO","cv2fd139l0","1","66","73","60","","","","","","","","","","","","","","","",""
"null","audio/beep-329314.mp3","null","audio-keyboard-response","171","2.1.0","214550","F=YES, J=NO","cv2fd139l0","1","66","73","60","","","","","","","","","","","","","","","",""
"null","audio/bridge.wav","null","audio-keyboard-response","172","2.1.0","215090","F=YES, J=NO","cv2fd139l0","1","66","73","60","","","","","","","","","","","","","","","",""
"884","
          <p id=""word"" style=""font-size: 40px;"">crack</p>
          <p style=""font-size: 16px;"">F = YES &nbsp;&nbsp;&nbsp; J = NO</p>
        ","f","html-keyboard-response","173","2.1.0","215974","F=YES, J=NO","cv2fd139l0","1","66","73","60","","","","","","","","","crack","bridge","filler","filler","f","true","",""
"null","<p style=""font-size: 50px;"">+</p>","null","html-keyboard-response","174","2.1.0","216286","F=YES, J=NO","cv2fd139l0","1","66","73","60","","","","","","","","","","","","","","","",""
"null","audio/beep-329314.mp3","null","audio-keyboard-response","175","2.1.0","217830","F=YES, J=NO","cv2fd139l0","1","66","73","60","","","","","","","","","","","","","","","",""
"null","audio/belief.wav","null","audio-keyboard-response","176","2.1.0","218450","F=YES, J=NO","cv2fd139l0","1","66","73","60","","","","","","","","","","","","","","","",""
"587","
          <p id=""word"" style=""font-size: 40px;"">read</p>
          <p style=""font-size: 16px;"">F = YES &nbsp;&nbsp;&nbsp; J = NO</p>
        ","f","html-keyboard-response","177","2.1.0","219037","F=YES, J=NO","cv2fd139l0","1","66","73","60","","","","","","","","","read","belief","filler","filler","f","true","",""
"null","<p style=""font-size: 50px;"">+</p>","null","html-keyboard-response","178","2.1.0","219340","F=YES, J=NO","cv2fd139l0","1","66","73","60","","","","","","","","","","","","","","","",""
"null","audio/beep-329314.mp3","null","audio-keyboard-response","179","2.1.0","220890","F=YES, J=NO","cv2fd139l0","1","66","73","60","","","","","","","","","","","","","","","",""
"null","audio/planet1.wav","null","audio-keyboard-response","180","2.1.0","221510","F=YES, J=NO","cv2fd139l0","1","66","73","60","","","","","","","","","","","","","","","",""
"992","
          <p id=""word"" style=""font-size: 40px;"">cratched</p>
          <p style=""font-size: 16px;"">F = YES &nbsp;&nbsp;&nbsp; J = NO</p>
        ","j","html-keyboard-response","181","2.1.0","222502","F=YES, J=NO","cv2fd139l0","1","66","73","60","","","","","","","","","cratched","planet1","pseudoword","pseudoword","j","true","",""
"null","<p style=""font-size: 50px;"">+</p>","null","html-keyboard-response","182","2.1.0","222804","F=YES, J=NO","cv2fd139l0","1","66","73","60","","","","","","","","","","","","","","","",""
"null","audio/beep-329314.mp3","null","audio-keyboard-response","183","2.1.0","224360","F=YES, J=NO","cv2fd139l0","1","66","73","60","","","","","","","","","","","","","","","",""
"null","audio/voice.wav","null","audio-keyboard-response","184","2.1.0","224990","F=YES, J=NO","cv2fd139l0","1","66","73","60","","","","","","","","","","","","","","","",""
"579","
          <p id=""word"" style=""font-size: 40px;"">flood</p>
          <p style=""font-size: 16px;"">F = YES &nbsp;&nbsp;&nbsp; J = NO</p>
        ","f","html-keyboard-response","185","2.1.0","225569","F=YES, J=NO","cv2fd139l0","1","66","73","60","","","","","","","","","flood","voice","unrelated","experimental","f","true","",""
"null","<p style=""font-size: 50px;"">+</p>","null","html-keyboard-response","186","2.1.0","225879","F=YES, J=NO","cv2fd139l0","1","66","73","60","","","","","","","","","","","","","","","",""
"null","audio/beep-329314.mp3","null","audio-keyboard-response","187","2.1.0","227430","F=YES, J=NO","cv2fd139l0","1","66","73","60","","","","","","","","","","","","","","","",""
"null","audio/story.wav","null","audio-keyboard-response","188","2.1.0","228110","F=YES, J=NO","cv2fd139l0","1","66","73","60","","","","","","","","","","","","","","","",""
"624","
          <p id=""word"" style=""font-size: 40px;"">cover</p>
          <p style=""font-size: 16px;"">F = YES &nbsp;&nbsp;&nbsp; J = NO</p>
        ","f","html-keyboard-response","189","2.1.0","228734","F=YES, J=NO","cv2fd139l0","1","66","73","60","","","","","","","","","cover","story","metaphor","experimental","f","true","",""
"null","<p style=""font-size: 50px;"">+</p>","null","html-keyboard-response","190","2.1.0","229036","F=YES, J=NO","cv2fd139l0","1","66","73","60","","","","","","","","","","","","","","","",""
"null","audio/beep-329314.mp3","null","audio-keyboard-response","191","2.1.0","230570","F=YES, J=NO","cv2fd139l0","1","66","73","60","","","","","","","","","","","","","","","",""
"null","audio/flaw.wav","null","audio-keyboard-response","192","2.1.0","231200","F=YES, J=NO","cv2fd139l0","1","66","73","60","","","","","","","","","","","","","","","",""
"587","
          <p id=""word"" style=""font-size: 40px;"">hide</p>
          <p style=""font-size: 16px;"">F = YES &nbsp;&nbsp;&nbsp; J = NO</p>
        ","f","html-keyboard-response","193","2.1.0","231787","F=YES, J=NO","cv2fd139l0","1","66","73","60","","","","","","","","","hide","flaw","metaphor","experimental","f","true","",""
"null","<p style=""font-size: 50px;"">+</p>","null","html-keyboard-response","194","2.1.0","232102","F=YES, J=NO","cv2fd139l0","1","66","73","60","","","","","","","","","","","","","","","",""
"null","audio/beep-329314.mp3","null","audio-keyboard-response","195","2.1.0","233660","F=YES, J=NO","cv2fd139l0","1","66","73","60","","","","","","","","","","","","","","","",""
"null","audio/ankle1.wav","null","audio-keyboard-response","196","2.1.0","234200","F=YES, J=NO","cv2fd139l0","1","66","73","60","","","","","","","","","","","","","","","",""
"525","
          <p id=""word"" style=""font-size: 40px;"">kick</p>
          <p style=""font-size: 16px;"">F = YES &nbsp;&nbsp;&nbsp; J = NO</p>
        ","f","html-keyboard-response","197","2.1.0","234725","F=YES, J=NO","cv2fd139l0","1","66","73","60","","","","","","","","","kick","ankle1","filler","filler","f","true","",""
"null","<p style=""font-size: 50px;"">+</p>","null","html-keyboard-response","198","2.1.0","235039","F=YES, J=NO","cv2fd139l0","1","66","73","60","","","","","","","","","","","","","","","",""
"null","audio/beep-329314.mp3","null","audio-keyboard-response","199","2.1.0","236570","F=YES, J=NO","cv2fd139l0","1","66","73","60","","","","","","","","","","","","","","","",""
"null","audio/flaw.wav","null","audio-keyboard-response","200","2.1.0","237200","F=YES, J=NO","cv2fd139l0","1","66","73","60","","","","","","","","","","","","","","","",""
"642","
          <p id=""word"" style=""font-size: 40px;"">thwool</p>
          <p style=""font-size: 16px;"">F = YES &nbsp;&nbsp;&nbsp; J = NO</p>
        ","j","html-keyboard-response","201","2.1.0","237843","F=YES, J=NO","cv2fd139l0","1","66","73","60","","","","","","","","","thwool","flaw","pseudoword","pseudoword","j","true","",""
"null","<p style=""font-size: 50px;"">+</p>","null","html-keyboard-response","202","2.1.0","238149","F=YES, J=NO","cv2fd139l0","1","66","73","60","","","","","","","","","","","","","","","",""
"null","audio/beep-329314.mp3","null","audio-keyboard-response","203","2.1.0","239690","F=YES, J=NO","cv2fd139l0","1","66","73","60","","","","","","","","","","","","","","","",""
"null","audio/key1.wav","null","audio-keyboard-response","204","2.1.0","240081","F=YES, J=NO","cv2fd139l0","1","66","73","60","","","","","","","","","","","","","","","",""
"769","
          <p id=""word"" style=""font-size: 40px;"">sminsh</p>
          <p style=""font-size: 16px;"">F = YES &nbsp;&nbsp;&nbsp; J = NO</p>
        ","j","html-keyboard-response","205","2.1.0","240850","F=YES, J=NO","cv2fd139l0","1","66","73","60","","","","","","","","","sminsh","key1","pseudoword","pseudoword","j","true","",""
"null","<p style=""font-size: 50px;"">+</p>","null","html-keyboard-response","206","2.1.0","241158","F=YES, J=NO","cv2fd139l0","1","66","73","60","","","","","","","","","","","","","","","",""
"null","audio/beep-329314.mp3","null","audio-keyboard-response","207","2.1.0","242690","F=YES, J=NO","cv2fd139l0","1","66","73","60","","","","","","","","","","","","","","","",""
"null","audio/cash1.wav","null","audio-keyboard-response","208","2.1.0","243260","F=YES, J=NO","cv2fd139l0","1","66","73","60","","","","","","","","","","","","","","","",""
"794","
          <p id=""word"" style=""font-size: 40px;"">invest</p>
          <p style=""font-size: 16px;"">F = YES &nbsp;&nbsp;&nbsp; J = NO</p>
        ","f","html-keyboard-response","209","2.1.0","244055","F=YES, J=NO","cv2fd139l0","1","66","73","60","","","","","","","","","invest","cash1","literal","experimental","f","true","",""
"null","<p style=""font-size: 50px;"">+</p>","null","html-keyboard-response","210","2.1.0","244363","F=YES, J=NO","cv2fd139l0","1","66","73","60","","","","","","","","","","","","","","","",""
"null","audio/beep-329314.mp3","null","audio-keyboard-response","211","2.1.0","245910","F=YES, J=NO","cv2fd139l0","1","66","73","60","","","","","","","","","","","","","","","",""
"null","audio/meal.wav","null","audio-keyboard-response","212","2.1.0","246360","F=YES, J=NO","cv2fd139l0","1","66","73","60","","","","","","","","","","","","","","","",""
"731","
          <p id=""word"" style=""font-size: 40px;"">gallite</p>
          <p style=""font-size: 16px;"">F = YES &nbsp;&nbsp;&nbsp; J = NO</p>
        ","j","html-keyboard-response","213","2.1.0","247092","F=YES, J=NO","cv2fd139l0","1","66","73","60","","","","","","","","","gallite","meal","pseudoword","pseudoword","j","true","",""
"null","<p style=""font-size: 50px;"">+</p>","null","html-keyboard-response","214","2.1.0","247408","F=YES, J=NO","cv2fd139l0","1","66","73","60","","","","","","","","","","","","","","","",""
"null","audio/beep-329314.mp3","null","audio-keyboard-response","215","2.1.0","248960","F=YES, J=NO","cv2fd139l0","1","66","73","60","","","","","","","","","","","","","","","",""
"null","audio/relief.wav","null","audio-keyboard-response","216","2.1.0","249620","F=YES, J=NO","cv2fd139l0","1","66","73","60","","","","","","","","","","","","","","","",""
"669","
          <p id=""word"" style=""font-size: 40px;"">grigg</p>
          <p style=""font-size: 16px;"">F = YES &nbsp;&nbsp;&nbsp; J = NO</p>
        ","j","html-keyboard-response","217","2.1.0","250290","F=YES, J=NO","cv2fd139l0","1","66","73","60","","","","","","","","","grigg","relief","pseudoword","pseudoword","j","true","",""
"null","<p style=""font-size: 50px;"">+</p>","null","html-keyboard-response","218","2.1.0","250592","F=YES, J=NO","cv2fd139l0","1","66","73","60","","","","","","","","","","","","","","","",""
"null","audio/beep-329314.mp3","null","audio-keyboard-response","219","2.1.0","252150","F=YES, J=NO","cv2fd139l0","1","66","73","60","","","","","","","","","","","","","","","",""
"null","audio/tax1.wav","null","audio-keyboard-response","220","2.1.0","252770","F=YES, J=NO","cv2fd139l0","1","66","73","60","","","","","","","","","","","","","","","",""
"763","
          <p id=""word"" style=""font-size: 40px;"">scrap</p>
          <p style=""font-size: 16px;"">F = YES &nbsp;&nbsp;&nbsp; J = NO</p>
        ","f","html-keyboard-response","221","2.1.0","253534","F=YES, J=NO","cv2fd139l0","1","66","73","60","","","","","","","","","scrap","tax1","metaphor","experimental","f","true","",""
"null","<p style=""font-size: 50px;"">+</p>","null","html-keyboard-response","222","2.1.0","253843","F=YES, J=NO","cv2fd139l0","1","66","73","60","","","","","","","","","","","","","","","",""
"null","audio/beep-329314.mp3","null","audio-keyboard-response","223","2.1.0","255390","F=YES, J=NO","cv2fd139l0","1","66","73","60","","","","","","","","","","","","","","","",""
"null","audio/desire.wav","null","audio-keyboard-response","224","2.1.0","256010","F=YES, J=NO","cv2fd139l0","1","66","73","60","","","","","","","","","","","","","","","",""
"695","
          <p id=""word"" style=""font-size: 40px;"">nophed</p>
          <p style=""font-size: 16px;"">F = YES &nbsp;&nbsp;&nbsp; J = NO</p>
        ","j","html-keyboard-response","225","2.1.0","256705","F=YES, J=NO","cv2fd139l0","1","66","73","60","","","","","","","","","nophed","desire","pseudoword","pseudoword","j","true","",""
"null","<p style=""font-size: 50px;"">+</p>","null","html-keyboard-response","226","2.1.0","257011","F=YES, J=NO","cv2fd139l0","1","66","73","60","","","","","","","","","","","","","","","",""
"null","audio/beep-329314.mp3","null","audio-keyboard-response","227","2.1.0","258570","F=YES, J=NO","cv2fd139l0","1","66","73","60","","","","","","","","","","","","","","","",""
"null","audio/pig.wav","null","audio-keyboard-response","228","2.1.0","258950","F=YES, J=NO","cv2fd139l0","1","66","73","60","","","","","","","","","","","","","","","",""
"731","
          <p id=""word"" style=""font-size: 40px;"">tirlike</p>
          <p style=""font-size: 16px;"">F = YES &nbsp;&nbsp;&nbsp; J = NO</p>
        ","j","html-keyboard-response","229","2.1.0","259682","F=YES, J=NO","cv2fd139l0","1","66","73","60","","","","","","","","","tirlike","pig","pseudoword","pseudoword","j","true","",""
"1098","<p>Excellent! You have finished block 1 of 8.</p>
                     <p>Feel free to take a 30 second break.</p>
                     <p>Press any key when you're ready to continue.</p>"," ","html-keyboard-response","230","2.1.0","260780","F=YES, J=NO","cv2fd139l0","1","66","73","60","","","","","","","","","","","","","","","",""
"551","<p>Starting main block 2 of 8. Press any key to continue.</p>"," ","html-keyboard-response","231","2.1.0","261332","F=YES, J=NO","cv2fd139l0","1","66","73","60","","","","","","","","","","","","","","","",""
"null","<p style=""font-size: 50px;"">+</p>","null","html-keyboard-response","232","2.1.0","261643","F=YES, J=NO","cv2fd139l0","1","66","73","60","","","","","","","","","","","","","","","",""
"null","audio/beep-329314.mp3","null","audio-keyboard-response","233","2.1.0","263191","F=YES, J=NO","cv2fd139l0","1","66","73","60","","","","","","","","","","","","","","","",""
"null","audio/handle.wav","null","audio-keyboard-response","234","2.1.0","263811","F=YES, J=NO","cv2fd139l0","1","66","73","60","","","","","","","","","","","","","","","",""
"647","
          <p id=""word"" style=""font-size: 40px;"">moutes</p>
          <p style=""font-size: 16px;"">F = YES &nbsp;&nbsp;&nbsp; J = NO</p>
        ","j","html-keyboard-response","235","2.1.0","264458","F=YES, J=NO","cv2fd139l0","1","66","73","60","","","","","","","","","moutes","handle","pseudoword","pseudoword","j","true","",""
"null","<p style=""font-size: 50px;"">+</p>","null","html-keyboard-response","236","2.1.0","264771","F=YES, J=NO","cv2fd139l0","1","66","73","60","","","","","","","","","","","","","","","",""
"null","audio/beep-329314.mp3","null","audio-keyboard-response","237","2.1.0","266330","F=YES, J=NO","cv2fd139l0","1","66","73","60","","","","","","","","","","","","","","","",""
"null","audio/beach1.wav","null","audio-keyboard-response","238","2.1.0","266930","F=YES, J=NO","cv2fd139l0","1","66","73","60","","","","","","","","","","","","","","","",""
"617","
          <p id=""word"" style=""font-size: 40px;"">drive</p>
          <p style=""font-size: 16px;"">F = YES &nbsp;&nbsp;&nbsp; J = NO</p>
        ","f","html-keyboard-response","239","2.1.0","267547","F=YES, J=NO","cv2fd139l0","1","66","73","60","","","","","","","","","drive","beach1","filler","filler","f","true","",""
"null","<p style=""font-size: 50px;"">+</p>","null","html-keyboard-response","240","2.1.0","267851","F=YES, J=NO","cv2fd139l0","1","66","73","60","","","","","","","","","","","","","","","",""
"null","audio/beep-329314.mp3","null","audio-keyboard-response","241","2.1.0","269390","F=YES, J=NO","cv2fd139l0","1","66","73","60","","","","","","","","","","","","","","","",""
"null","audio/pain1.wav","null","audio-keyboard-response","242","2.1.0","269840","F=YES, J=NO","cv2fd139l0","1","66","73","60","","","","","","","","","","","","","","","",""
"934","
          <p id=""word"" style=""font-size: 40px;"">tritted</p>
          <p style=""font-size: 16px;"">F = YES &nbsp;&nbsp;&nbsp; J = NO</p>
        ","j","html-keyboard-response","243","2.1.0","270774","F=YES, J=NO","cv2fd139l0","1","66","73","60","","","","","","","","","tritted","pain1","pseudoword","pseudoword","j","true","",""
"null","<p style=""font-size: 50px;"">+</p>","null","html-keyboard-response","244","2.1.0","271083","F=YES, J=NO","cv2fd139l0","1","66","73","60","","","","","","","","","","","","","","","",""
"null","audio/beep-329314.mp3","null","audio-keyboard-response","245","2.1.0","272630","F=YES, J=NO","cv2fd139l0","1","66","73","60","","","","","","","","","","","","","","","",""
"null","audio/desire.wav","null","audio-keyboard-response","246","2.1.0","273240","F=YES, J=NO","cv2fd139l0","1","66","73","60","","","","","","","","","","","","","","","",""
"625","
          <p id=""word"" style=""font-size: 40px;"">open</p>
          <p style=""font-size: 16px;"">F = YES &nbsp;&nbsp;&nbsp; J = NO</p>
        ","f","html-keyboard-response","247","2.1.0","273865","F=YES, J=NO","cv2fd139l0","1","66","73","60","","","","","","","","","open","desire","unrelated","experimental","f","true","",""
"null","<p style=""font-size: 50px;"">+</p>","null","html-keyboard-response","248","2.1.0","274173","F=YES, J=NO","cv2fd139l0","1","66","73","60","","","","","","","","","","","","","","","",""
"null","audio/beep-329314.mp3","null","audio-keyboard-response","249","2.1.0","275730","F=YES, J=NO","cv2fd139l0","1","66","73","60","","","","","","","","","","","","","","","",""
"null","audio/van1.wav","null","audio-keyboard-response","250","2.1.0","276230","F=YES, J=NO","cv2fd139l0","1","66","73","60","","","","","","","","","","","","","","","",""
"709","
          <p id=""word"" style=""font-size: 40px;"">push</p>
          <p style=""font-size: 16px;"">F = YES &nbsp;&nbsp;&nbsp; J = NO</p>
        ","f","html-keyboard-response","251","2.1.0","276940","F=YES, J=NO","cv2fd139l0","1","66","73","60","","","","","","","","","push","van1","filler","filler","f","true","",""
"null","<p style=""font-size: 50px;"">+</p>","null","html-keyboard-response","252","2.1.0","277252","F=YES, J=NO","cv2fd139l0","1","66","73","60","","","","","","","","","","","","","","","",""
"null","audio/beep-329314.mp3","null","audio-keyboard-response","253","2.1.0","278810","F=YES, J=NO","cv2fd139l0","1","66","73","60","","","","","","","","","","","","","","","",""
"null","audio/novel.wav","null","audio-keyboard-response","254","2.1.0","279300","F=YES, J=NO","cv2fd139l0","1","66","73","60","","","","","","","","","","","","","","","",""
"601","
          <p id=""word"" style=""font-size: 40px;"">type</p>
          <p style=""font-size: 16px;"">F = YES &nbsp;&nbsp;&nbsp; J = NO</p>
        ","f","html-keyboard-response","255","2.1.0","279901","F=YES, J=NO","cv2fd139l0","1","66","73","60","","","","","","","","","type","novel","filler","filler","f","true","",""
"null","<p style=""font-size: 50px;"">+</p>","null","html-keyboard-response","256","2.1.0","280214","F=YES, J=NO","cv2fd139l0","1","66","73","60","","","","","","","","","","","","","","","",""
"null","audio/beep-329314.mp3","null","audio-keyboard-response","257","2.1.0","281750","F=YES, J=NO","cv2fd139l0","1","66","73","60","","","","","","","","","","","","","","","",""
"null","audio/table1.wav","null","audio-keyboard-response","258","2.1.0","282240","F=YES, J=NO","cv2fd139l0","1","66","73","60","","","","","","","","","","","","","","","",""
"1122","
          <p id=""word"" style=""font-size: 40px;"">clear</p>
          <p style=""font-size: 16px;"">F = YES &nbsp;&nbsp;&nbsp; J = NO</p>
        ","f","html-keyboard-response","259","2.1.0","283363","F=YES, J=NO","cv2fd139l0","1","66","73","60","","","","","","","","","clear","table1","literal","experimental","f","true","",""
"null","<p style=""font-size: 50px;"">+</p>","null","html-keyboard-response","260","2.1.0","283666","F=YES, J=NO","cv2fd139l0","1","66","73","60","","","","","","","","","","","","","","","",""
"null","audio/beep-329314.mp3","null","audio-keyboard-response","261","2.1.0","285210","F=YES, J=NO","cv2fd139l0","1","66","73","60","","","","","","","","","","","","","","","",""
"null","audio/grass.wav","null","audio-keyboard-response","262","2.1.0","285861","F=YES, J=NO","cv2fd139l0","1","66","73","60","","","","","","","","","","","","","","","",""
"557","
          <p id=""word"" style=""font-size: 40px;"">milames</p>
          <p style=""font-size: 16px;"">F = YES &nbsp;&nbsp;&nbsp; J = NO</p>
        ","j","html-keyboard-response","263","2.1.0","286418","F=YES, J=NO","cv2fd139l0","1","66","73","60","","","","","","","","","milames","grass","pseudoword","pseudoword","j","true","",""
"null","<p style=""font-size: 50px;"">+</p>","null","html-keyboard-response","264","2.1.0","286719","F=YES, J=NO","cv2fd139l0","1","66","73","60","","","","","","","","","","","","","","","",""
"null","audio/beep-329314.mp3","null","audio-keyboard-response","265","2.1.0","288270","F=YES, J=NO","cv2fd139l0","1","66","73","60","","","","","","","","","","","","","","","",""
"null","audio/alarm1.wav","null","audio-keyboard-response","266","2.1.0","288840","F=YES, J=NO","cv2fd139l0","1","66","73","60","","","","","","","","","","","","","","","",""
"581","
          <p id=""word"" style=""font-size: 40px;"">swetp</p>
          <p style=""font-size: 16px;"">F = YES &nbsp;&nbsp;&nbsp; J = NO</p>
        ","j","html-keyboard-response","267","2.1.0","289422","F=YES, J=NO","cv2fd139l0","1","66","73","60","","","","","","","","","swetp","alarm1","pseudoword","pseudoword","j","true","",""
"null","<p style=""font-size: 50px;"">+</p>","null","html-keyboard-response","268","2.1.0","289734","F=YES, J=NO","cv2fd139l0","1","66","73","60","","","","","","","","","","","","","","","",""
"null","audio/beep-329314.mp3","null","audio-keyboard-response","269","2.1.0","291290","F=YES, J=NO","cv2fd139l0","1","66","73","60","","","","","","","","","","","","","","","",""
"null","audio/plot1.wav","null","audio-keyboard-response","270","2.1.0","291830","F=YES, J=NO","cv2fd139l0","1","66","73","60","","","","","","","","","","","","","","","",""
"642","
          <p id=""word"" style=""font-size: 40px;"">glenter</p>
          <p style=""font-size: 16px;"">F = YES &nbsp;&nbsp;&nbsp; J = NO</p>
        ","j","html-keyboard-response","271","2.1.0","292472","F=YES, J=NO","cv2fd139l0","1","66","73","60","","","","","","","","","glenter","plot1","pseudoword","pseudoword","j","true","",""
"null","<p style=""font-size: 50px;"">+</p>","null","html-keyboard-response","272","2.1.0","292776","F=YES, J=NO","cv2fd139l0","1","66","73","60","","","","","","","","","","","","","","","",""
"null","audio/beep-329314.mp3","null","audio-keyboard-response","273","2.1.0","294330","F=YES, J=NO","cv2fd139l0","1","66","73","60","","","","","","","","","","","","","","","",""
"null","audio/prisoner.wav","null","audio-keyboard-response","274","2.1.0","294830","F=YES, J=NO","cv2fd139l0","1","66","73","60","","","","","","","","","","","","","","","",""
"955","
          <p id=""word"" style=""font-size: 40px;"">egotian</p>
          <p style=""font-size: 16px;"">F = YES &nbsp;&nbsp;&nbsp; J = NO</p>
        ","j","html-keyboard-response","275","2.1.0","295785","F=YES, J=NO","cv2fd139l0","1","66","73","60","","","","","","","","","egotian","prisoner","pseudoword","pseudoword","j","true","",""
"null","<p style=""font-size: 50px;"">+</p>","null","html-keyboard-response","276","2.1.0","296092","F=YES, J=NO","cv2fd139l0","1","66","73","60","","","","","","","","","","","","","","","",""
"null","audio/beep-329314.mp3","null","audio-keyboard-response","277","2.1.0","297650","F=YES, J=NO","cv2fd139l0","1","66","73","60","","","","","","","","","","","","","","","",""
"null","audio/terrain.wav","null","audio-keyboard-response","278","2.1.0","298220","F=YES, J=NO","cv2fd139l0","1","66","73","60","","","","","","","","","","","","","","","",""
"679","
          <p id=""word"" style=""font-size: 40px;"">navigate</p>
          <p style=""font-size: 16px;"">F = YES &nbsp;&nbsp;&nbsp; J = NO</p>
        ","f","html-keyboard-response","279","2.1.0","298899","F=YES, J=NO","cv2fd139l0","1","66","73","60","","","","","","","","","navigate","terrain","literal","experimental","f","true","",""
"null","<p style=""font-size: 50px;"">+</p>","null","html-keyboard-response","280","2.1.0","299205","F=YES, J=NO","cv2fd139l0","1","66","73","60","","","","","","","","","","","","","","","",""
"null","audio/beep-329314.mp3","null","audio-keyboard-response","281","2.1.0","300751","F=YES, J=NO","cv2fd139l0","1","66","73","60","","","","","","","","","","","","","","","",""
"null","audio/tax1.wav","null","audio-keyboard-response","282","2.1.0","301370","F=YES, J=NO","cv2fd139l0","1","66","73","60","","","","","","","","","","","","","","","",""
"645","
          <p id=""word"" style=""font-size: 40px;"">snate</p>
          <p style=""font-size: 16px;"">F = YES &nbsp;&nbsp;&nbsp; J = NO</p>
        ","j","html-keyboard-response","283","2.1.0","302015","F=YES, J=NO","cv2fd139l0","1","66","73","60","","","","","","","","","snate","tax1","pseudoword","pseudoword","j","true","",""
"null","<p style=""font-size: 50px;"">+</p>","null","html-keyboard-response","284","2.1.0","302329","F=YES, J=NO","cv2fd139l0","1","66","73","60","","","","","","","","","","","","","","","",""
"null","audio/beep-329314.mp3","null","audio-keyboard-response","285","2.1.0","303890","F=YES, J=NO","cv2fd139l0","1","66","73","60","","","","","","","","","","","","","","","",""
"null","audio/cancer1.wav","null","audio-keyboard-response","286","2.1.0","304441","F=YES, J=NO","cv2fd139l0","1","66","73","60","","","","","","","","","","","","","","","",""
"551","
          <p id=""word"" style=""font-size: 40px;"">draw</p>
          <p style=""font-size: 16px;"">F = YES &nbsp;&nbsp;&nbsp; J = NO</p>
        ","f","html-keyboard-response","287","2.1.0","304992","F=YES, J=NO","cv2fd139l0","1","66","73","60","","","","","","","","","draw","cancer1","filler","filler","f","true","",""
"null","<p style=""font-size: 50px;"">+</p>","null","html-keyboard-response","288","2.1.0","305302","F=YES, J=NO","cv2fd139l0","1","66","73","60","","","","","","","","","","","","","","","",""
"null","audio/beep-329314.mp3","null","audio-keyboard-response","289","2.1.0","306860","F=YES, J=NO","cv2fd139l0","1","66","73","60","","","","","","","","","","","","","","","",""
"null","audio/vehicle1.wav","null","audio-keyboard-response","290","2.1.0","307520","F=YES, J=NO","cv2fd139l0","1","66","73","60","","","","","","","","","","","","","","","",""
"542","
          <p id=""word"" style=""font-size: 40px;"">approach</p>
          <p style=""font-size: 16px;"">F = YES &nbsp;&nbsp;&nbsp; J = NO</p>
        ","f","html-keyboard-response","291","2.1.0","308063","F=YES, J=NO","cv2fd139l0","1","66","73","60","","","","","","","","","approach","vehicle1","literal","experimental","f","true","",""
"null","<p style=""font-size: 50px;"">+</p>","null","html-keyboard-response","292","2.1.0","308369","F=YES, J=NO","cv2fd139l0","1","66","73","60","","","","","","","","","","","","","","","",""
"null","audio/beep-329314.mp3","null","audio-keyboard-response","293","2.1.0","309920","F=YES, J=NO","cv2fd139l0","1","66","73","60","","","","","","","","","","","","","","","",""
"null","audio/pizza1.wav","null","audio-keyboard-response","294","2.1.0","310500","F=YES, J=NO","cv2fd139l0","1","66","73","60","","","","","","","","","","","","","","","",""
"979","
          <p id=""word"" style=""font-size: 40px;"">devour</p>
          <p style=""font-size: 16px;"">F = YES &nbsp;&nbsp;&nbsp; J = NO</p>
        ","f","html-keyboard-response","295","2.1.0","311480","F=YES, J=NO","cv2fd139l0","1","66","73","60","","","","","","","","","devour","pizza1","literal","experimental","f","true","",""
"586","<p>Excellent! You have finished block 2 of 8.</p>
                     <p>Feel free to take a 30 second break.</p>
                     <p>Press any key when you're ready to continue.</p>"," ","html-keyboard-response","296","2.1.0","312066","F=YES, J=NO","cv2fd139l0","1","66","73","60","","","","","","","","","","","","","","","",""
"374","<p>Starting main block 3 of 8. Press any key to continue.</p>"," ","html-keyboard-response","297","2.1.0","312441","F=YES, J=NO","cv2fd139l0","1","66","73","60","","","","","","","","","","","","","","","",""
"null","<p style=""font-size: 50px;"">+</p>","null","html-keyboard-response","298","2.1.0","312749","F=YES, J=NO","cv2fd139l0","1","66","73","60","","","","","","","","","","","","","","","",""
"null","audio/beep-329314.mp3","null","audio-keyboard-response","299","2.1.0","314310","F=YES, J=NO","cv2fd139l0","1","66","73","60","","","","","","","","","","","","","","","",""
"null","audio/price.wav","null","audio-keyboard-response","300","2.1.0","314930","F=YES, J=NO","cv2fd139l0","1","66","73","60","","","","","","","","","","","","","","","",""
"431","
          <p id=""word"" style=""font-size: 40px;"">drop</p>
          <p style=""font-size: 16px;"">F = YES &nbsp;&nbsp;&nbsp; J = NO</p>
        ","f","html-keyboard-response","301","2.1.0","315361","F=YES, J=NO","cv2fd139l0","1","66","73","60","","","","","","","","","drop","price","metaphor","experimental","f","true","",""
"null","<p style=""font-size: 50px;"">+</p>","null","html-keyboard-response","302","2.1.0","315669","F=YES, J=NO","cv2fd139l0","1","66","73","60","","","","","","","","","","","","","","","",""
"null","audio/beep-329314.mp3","null","audio-keyboard-response","303","2.1.0","317211","F=YES, J=NO","cv2fd139l0","1","66","73","60","","","","","","","","","","","","","","","",""
"null","audio/emotion.wav","null","audio-keyboard-response","304","2.1.0","317870","F=YES, J=NO","cv2fd139l0","1","66","73","60","","","","","","","","","","","","","","","",""
"669","
          <p id=""word"" style=""font-size: 40px;"">bury</p>
          <p style=""font-size: 16px;"">F = YES &nbsp;&nbsp;&nbsp; J = NO</p>
        ","f","html-keyboard-response","305","2.1.0","318539","F=YES, J=NO","cv2fd139l0","1","66","73","60","","","","","","","","","bury","emotion","metaphor","experimental","f","true","",""
"null","<p style=""font-size: 50px;"">+</p>","null","html-keyboard-response","306","2.1.0","318853","F=YES, J=NO","cv2fd139l0","1","66","73","60","","","","","","","","","","","","","","","",""
"null","audio/beep-329314.mp3","null","audio-keyboard-response","307","2.1.0","320390","F=YES, J=NO","cv2fd139l0","1","66","73","60","","","","","","","","","","","","","","","",""
"null","audio/battle1.wav","null","audio-keyboard-response","308","2.1.0","320871","F=YES, J=NO","cv2fd139l0","1","66","73","60","","","","","","","","","","","","","","","",""
"479","
          <p id=""word"" style=""font-size: 40px;"">fight</p>
          <p style=""font-size: 16px;"">F = YES &nbsp;&nbsp;&nbsp; J = NO</p>
        ","f","html-keyboard-response","309","2.1.0","321350","F=YES, J=NO","cv2fd139l0","1","66","73","60","","","","","","","","","fight","battle1","literal","experimental","f","true","",""
"null","<p style=""font-size: 50px;"">+</p>","null","html-keyboard-response","310","2.1.0","321663","F=YES, J=NO","cv2fd139l0","1","66","73","60","","","","","","","","","","","","","","","",""
"null","audio/beep-329314.mp3","null","audio-keyboard-response","311","2.1.0","323210","F=YES, J=NO","cv2fd139l0","1","66","73","60","","","","","","","","","","","","","","","",""
"null","audio/goal.wav","null","audio-keyboard-response","312","2.1.0","323630","F=YES, J=NO","cv2fd139l0","1","66","73","60","","","","","","","","","","","","","","","",""
"495","
          <p id=""word"" style=""font-size: 40px;"">support</p>
          <p style=""font-size: 16px;"">F = YES &nbsp;&nbsp;&nbsp; J = NO</p>
        ","f","html-keyboard-response","313","2.1.0","324125","F=YES, J=NO","cv2fd139l0","1","66","73","60","","","","","","","","","support","goal","metaphor","experimental","f","true","",""
"null","<p style=""font-size: 50px;"">+</p>","null","html-keyboard-response","314","2.1.0","324439","F=YES, J=NO","cv2fd139l0","1","66","73","60","","","","","","","","","","","","","","","",""
"null","audio/beep-329314.mp3","null","audio-keyboard-response","315","2.1.0","325970","F=YES, J=NO","cv2fd139l0","1","66","73","60","","","","","","","","","","","","","","","",""
"null","audio/weight1.wav","null","audio-keyboard-response","316","2.1.0","326510","F=YES, J=NO","cv2fd139l0","1","66","73","60","","","","","","","","","","","","","","","",""
"750","
          <p id=""word"" style=""font-size: 40px;"">crimsh</p>
          <p style=""font-size: 16px;"">F = YES &nbsp;&nbsp;&nbsp; J = NO</p>
        ","j","html-keyboard-response","317","2.1.0","327261","F=YES, J=NO","cv2fd139l0","1","66","73","60","","","","","","","","","crimsh","weight1","pseudoword","pseudoword","j","true","",""
"null","<p style=""font-size: 50px;"">+</p>","null","html-keyboard-response","318","2.1.0","327575","F=YES, J=NO","cv2fd139l0","1","66","73","60","","","","","","","","","","","","","","","",""
"null","audio/beep-329314.mp3","null","audio-keyboard-response","319","2.1.0","329130","F=YES, J=NO","cv2fd139l0","1","66","73","60","","","","","","","","","","","","","","","",""
"null","audio/purpose.wav","null","audio-keyboard-response","320","2.1.0","329810","F=YES, J=NO","cv2fd139l0","1","66","73","60","","","","","","","","","","","","","","","",""
"589","
          <p id=""word"" style=""font-size: 40px;"">whigm</p>
          <p style=""font-size: 16px;"">F = YES &nbsp;&nbsp;&nbsp; J = NO</p>
        ","j","html-keyboard-response","321","2.1.0","330400","F=YES, J=NO","cv2fd139l0","1","66","73","60","","","","","","","","","whigm","purpose","pseudoword","pseudoword","j","true","",""
"null","<p style=""font-size: 50px;"">+</p>","null","html-keyboard-response","322","2.1.0","330711","F=YES, J=NO","cv2fd139l0","1","66","73","60","","","","","","","","","","","","","","","",""
"null","audio/beep-329314.mp3","null","audio-keyboard-response","323","2.1.0","332271","F=YES, J=NO","cv2fd139l0","1","66","73","60","","","","","","","","","","","","","","","",""
"null","audio/road.wav","null","audio-keyboard-response","324","2.1.0","332690","F=YES, J=NO","cv2fd139l0","1","66","73","60","","","","","","","","","","","","","","","",""
"886","
          <p id=""word"" style=""font-size: 40px;"">wappings</p>
          <p style=""font-size: 16px;"">F = YES &nbsp;&nbsp;&nbsp; J = NO</p>
        ","j","html-keyboard-response","325","2.1.0","333577","F=YES, J=NO","cv2fd139l0","1","66","73","60","","","","","","","","","wappings","road","pseudoword","pseudoword","j","true","",""
"null","<p style=""font-size: 50px;"">+</p>","null","html-keyboard-response","326","2.1.0","333884","F=YES, J=NO","cv2fd139l0","1","66","73","60","","","","","","","","","","","","","","","",""
"null","audio/beep-329314.mp3","null","audio-keyboard-response","327","2.1.0","335430","F=YES, J=NO","cv2fd139l0","1","66","73","60","","","","","","","","","","","","","","","",""
"null","audio/wool1.wav","null","audio-keyboard-response","328","2.1.0","335810","F=YES, J=NO","cv2fd139l0","1","66","73","60","","","","","","","","","","","","","","","",""
"1000","
          <p id=""word"" style=""font-size: 40px;"">weave</p>
          <p style=""font-size: 16px;"">F = YES &nbsp;&nbsp;&nbsp; J = NO</p>
        ","f","html-keyboard-response","329","2.1.0","336810","F=YES, J=NO","cv2fd139l0","1","66","73","60","","","","","","","","","weave","wool1","literal","experimental","f","true","",""
"null","<p style=""font-size: 50px;"">+</p>","null","html-keyboard-response","330","2.1.0","337123","F=YES, J=NO","cv2fd139l0","1","66","73","60","","","","","","","","","","","","","","","",""
"null","audio/beep-329314.mp3","null","audio-keyboard-response","331","2.1.0","338670","F=YES, J=NO","cv2fd139l0","1","66","73","60","","","","","","","","","","","","","","","",""
"null","audio/burden.wav","null","audio-keyboard-response","332","2.1.0","339171","F=YES, J=NO","cv2fd139l0","1","66","73","60","","","","","","","","","","","","","","","",""
"563","
          <p id=""word"" style=""font-size: 40px;"">whotth</p>
          <p style=""font-size: 16px;"">F = YES &nbsp;&nbsp;&nbsp; J = NO</p>
        ","j","html-keyboard-response","333","2.1.0","339734","F=YES, J=NO","cv2fd139l0","1","66","73","60","","","","","","","","","whotth","burden","pseudoword","pseudoword","j","true","",""
"null","<p style=""font-size: 50px;"">+</p>","null","html-keyboard-response","334","2.1.0","340049","F=YES, J=NO","cv2fd139l0","1","66","73","60","","","","","","","","","","","","","","","",""
"null","audio/beep-329314.mp3","null","audio-keyboard-response","335","2.1.0","341610","F=YES, J=NO","cv2fd139l0","1","66","73","60","","","","","","","","","","","","","","","",""
"null","audio/relief.wav","null","audio-keyboard-response","336","2.1.0","342260","F=YES, J=NO","cv2fd139l0","1","66","73","60","","","","","","","","","","","","","","","",""
"688","
          <p id=""word"" style=""font-size: 40px;"">bring</p>
          <p style=""font-size: 16px;"">F = YES &nbsp;&nbsp;&nbsp; J = NO</p>
        ","f","html-keyboard-response","337","2.1.0","342949","F=YES, J=NO","cv2fd139l0","1","66","73","60","","","","","","","","","bring","relief","metaphor","experimental","f","true","",""
"null","<p style=""font-size: 50px;"">+</p>","null","html-keyboard-response","338","2.1.0","343263","F=YES, J=NO","cv2fd139l0","1","66","73","60","","","","","","","","","","","","","","","",""
"null","audio/beep-329314.mp3","null","audio-keyboard-response","339","2.1.0","344810","F=YES, J=NO","cv2fd139l0","1","66","73","60","","","","","","","","","","","","","","","",""
"null","audio/theory1.wav","null","audio-keyboard-response","340","2.1.0","345591","F=YES, J=NO","cv2fd139l0","1","66","73","60","","","","","","","","","","","","","","","",""
"913","
          <p id=""word"" style=""font-size: 40px;"">scolve</p>
          <p style=""font-size: 16px;"">F = YES &nbsp;&nbsp;&nbsp; J = NO</p>
        ","j","html-keyboard-response","341","2.1.0","346504","F=YES, J=NO","cv2fd139l0","1","66","73","60","","","","","","","","","scolve","theory1","pseudoword","pseudoword","j","true","",""
"null","<p style=""font-size: 50px;"">+</p>","null","html-keyboard-response","342","2.1.0","346816","F=YES, J=NO","cv2fd139l0","1","66","73","60","","","","","","","","","","","","","","","",""
"null","audio/beep-329314.mp3","null","audio-keyboard-response","343","2.1.0","348350","F=YES, J=NO","cv2fd139l0","1","66","73","60","","","","","","","","","","","","","","","",""
"null","audio/show.wav","null","audio-keyboard-response","344","2.1.0","349040","F=YES, J=NO","cv2fd139l0","1","66","73","60","","","","","","","","","","","","","","","",""
"858","
          <p id=""word"" style=""font-size: 40px;"">smark</p>
          <p style=""font-size: 16px;"">F = YES &nbsp;&nbsp;&nbsp; J = NO</p>
        ","j","html-keyboard-response","345","2.1.0","349899","F=YES, J=NO","cv2fd139l0","1","66","73","60","","","","","","","","","smark","show","pseudoword","pseudoword","j","true","",""
"null","<p style=""font-size: 50px;"">+</p>","null","html-keyboard-response","346","2.1.0","350208","F=YES, J=NO","cv2fd139l0","1","66","73","60","","","","","","","","","","","","","","","",""
"null","audio/beep-329314.mp3","null","audio-keyboard-response","347","2.1.0","351750","F=YES, J=NO","cv2fd139l0","1","66","73","60","","","","","","","","","","","","","","","",""
"null","audio/death1.wav","null","audio-keyboard-response","348","2.1.0","352250","F=YES, J=NO","cv2fd139l0","1","66","73","60","","","","","","","","","","","","","","","",""
"654","
          <p id=""word"" style=""font-size: 40px;"">conquer</p>
          <p style=""font-size: 16px;"">F = YES &nbsp;&nbsp;&nbsp; J = NO</p>
        ","f","html-keyboard-response","349","2.1.0","352905","F=YES, J=NO","cv2fd139l0","1","66","73","60","","","","","","","","","conquer","death1","metaphor","experimental","f","true","",""
"null","<p style=""font-size: 50px;"">+</p>","null","html-keyboard-response","350","2.1.0","353213","F=YES, J=NO","cv2fd139l0","1","66","73","60","","","","","","","","","","","","","","","",""
"null","audio/beep-329314.mp3","null","audio-keyboard-response","351","2.1.0","354770","F=YES, J=NO","cv2fd139l0","1","66","73","60","","","","","","","","","","","","","","","",""
"null","audio/test1.wav","null","audio-keyboard-response","352","2.1.0","355490","F=YES, J=NO","cv2fd139l0","1","66","73","60","","","","","","","","","","","","","","","",""
"646","
          <p id=""word"" style=""font-size: 40px;"">twopch</p>
          <p style=""font-size: 16px;"">F = YES &nbsp;&nbsp;&nbsp; J = NO</p>
        ","j","html-keyboard-response","353","2.1.0","356136","F=YES, J=NO","cv2fd139l0","1","66","73","60","","","","","","","","","twopch","test1","pseudoword","pseudoword","j","true","",""
"null","<p style=""font-size: 50px;"">+</p>","null","html-keyboard-response","354","2.1.0","356451","F=YES, J=NO","cv2fd139l0","1","66","73","60","","","","","","","","","","","","","","","",""
"null","audio/beep-329314.mp3","null","audio-keyboard-response","355","2.1.0","358010","F=YES, J=NO","cv2fd139l0","1","66","73","60","","","","","","","","","","","","","","","",""
"null","audio/effort.wav","null","audio-keyboard-response","356","2.1.0","358730","F=YES, J=NO","cv2fd139l0","1","66","73","60","","","","","","","","","","","","","","","",""
"736","
          <p id=""word"" style=""font-size: 40px;"">whonk</p>
          <p style=""font-size: 16px;"">F = YES &nbsp;&nbsp;&nbsp; J = NO</p>
        ","j","html-keyboard-response","357","2.1.0","359467","F=YES, J=NO","cv2fd139l0","1","66","73","60","","","","","","","","","whonk","effort","pseudoword","pseudoword","j","true","",""
"null","<p style=""font-size: 50px;"">+</p>","null","html-keyboard-response","358","2.1.0","359771","F=YES, J=NO","cv2fd139l0","1","66","73","60","","","","","","","","","","","","","","","",""
"null","audio/beep-329314.mp3","null","audio-keyboard-response","359","2.1.0","361310","F=YES, J=NO","cv2fd139l0","1","66","73","60","","","","","","","","","","","","","","","",""
"null","audio/smirk1.wav","null","audio-keyboard-response","360","2.1.0","362160","F=YES, J=NO","cv2fd139l0","1","66","73","60","","","","","","","","","","","","","","","",""
"878","
          <p id=""word"" style=""font-size: 40px;"">wipe</p>
          <p style=""font-size: 16px;"">F = YES &nbsp;&nbsp;&nbsp; J = NO</p>
        ","f","html-keyboard-response","361","2.1.0","363039","F=YES, J=NO","cv2fd139l0","1","66","73","60","","","","","","","","","wipe","smirk1","metaphor","experimental","f","true","",""
"657","<p>Excellent! You have finished block 3 of 8.</p>
                     <p>Feel free to take a 30 second break.</p>
                     <p>Press any key when you're ready to continue.</p>"," ","html-keyboard-response","362","2.1.0","363696","F=YES, J=NO","cv2fd139l0","1","66","73","60","","","","","","","","","","","","","","","",""
"578","<p>Starting main block 4 of 8. Press any key to continue.</p>"," ","html-keyboard-response","363","2.1.0","364274","F=YES, J=NO","cv2fd139l0","1","66","73","60","","","","","","","","","","","","","","","",""
"null","<p style=""font-size: 50px;"">+</p>","null","html-keyboard-response","364","2.1.0","364580","F=YES, J=NO","cv2fd139l0","1","66","73","60","","","","","","","","","","","","","","","",""
"null","audio/beep-329314.mp3","null","audio-keyboard-response","365","2.1.0","366141","F=YES, J=NO","cv2fd139l0","1","66","73","60","","","","","","","","","","","","","","","",""
"null","audio/pattern.wav","null","audio-keyboard-response","366","2.1.0","366650","F=YES, J=NO","cv2fd139l0","1","66","73","60","","","","","","","","","","","","","","","",""
"748","
          <p id=""word"" style=""font-size: 40px;"">tug</p>
          <p style=""font-size: 16px;"">F = YES &nbsp;&nbsp;&nbsp; J = NO</p>
        ","j","html-keyboard-response","367","2.1.0","367398","F=YES, J=NO","cv2fd139l0","1","66","73","60","","","","","","","","","tug","pattern","filler","filler","f","false","",""
"null","<p style=""font-size: 50px;"">+</p>","null","html-keyboard-response","368","2.1.0","367713","F=YES, J=NO","cv2fd139l0","1","66","73","60","","","","","","","","","","","","","","","",""
"null","audio/beep-329314.mp3","null","audio-keyboard-response","369","2.1.0","369270","F=YES, J=NO","cv2fd139l0","1","66","73","60","","","","","","","","","","","","","","","",""
"null","audio/mile1.wav","null","audio-keyboard-response","370","2.1.0","369890","F=YES, J=NO","cv2fd139l0","1","66","73","60","","","","","","","","","","","","","","","",""
"836","
          <p id=""word"" style=""font-size: 40px;"">writch</p>
          <p style=""font-size: 16px;"">F = YES &nbsp;&nbsp;&nbsp; J = NO</p>
        ","j","html-keyboard-response","371","2.1.0","370727","F=YES, J=NO","cv2fd139l0","1","66","73","60","","","","","","","","","writch","mile1","pseudoword","pseudoword","j","true","",""
"null","<p style=""font-size: 50px;"">+</p>","null","html-keyboard-response","372","2.1.0","371040","F=YES, J=NO","cv2fd139l0","1","66","73","60","","","","","","","","","","","","","","","",""
"null","audio/beep-329314.mp3","null","audio-keyboard-response","373","2.1.0","372590","F=YES, J=NO","cv2fd139l0","1","66","73","60","","","","","","","","","","","","","","","",""
"null","audio/pine.wav","null","audio-keyboard-response","374","2.1.0","373220","F=YES, J=NO","cv2fd139l0","1","66","73","60","","","","","","","","","","","","","","","",""
"997","
          <p id=""word"" style=""font-size: 40px;"">crebble</p>
          <p style=""font-size: 16px;"">F = YES &nbsp;&nbsp;&nbsp; J = NO</p>
        ","j","html-keyboard-response","375","2.1.0","374217","F=YES, J=NO","cv2fd139l0","1","66","73","60","","","","","","","","","crebble","pine","pseudoword","pseudoword","j","true","",""
"null","<p style=""font-size: 50px;"">+</p>","null","html-keyboard-response","376","2.1.0","374530","F=YES, J=NO","cv2fd139l0","1","66","73","60","","","","","","","","","","","","","","","",""
"null","audio/beep-329314.mp3","null","audio-keyboard-response","377","2.1.0","376070","F=YES, J=NO","cv2fd139l0","1","66","73","60","","","","","","","","","","","","","","","",""
"null","audio/arm.wav","null","audio-keyboard-response","378","2.1.0","376610","F=YES, J=NO","cv2fd139l0","1","66","73","60","","","","","","","","","","","","","","","",""
"755","
          <p id=""word"" style=""font-size: 40px;"">fold</p>
          <p style=""font-size: 16px;"">F = YES &nbsp;&nbsp;&nbsp; J = NO</p>
        ","f","html-keyboard-response","379","2.1.0","377366","F=YES, J=NO","cv2fd139l0","1","66","73","60","","","","","","","","","fold","arm","filler","filler","f","true","",""
"null","<p style=""font-size: 50px;"">+</p>","null","html-keyboard-response","380","2.1.0","377676","F=YES, J=NO","cv2fd139l0","1","66","73","60","","","","","","","","","","","","","","","",""
"null","audio/beep-329314.mp3","null","audio-keyboard-response","381","2.1.0","379230","F=YES, J=NO","cv2fd139l0","1","66","73","60","","","","","","","","","","","","","","","",""
"null","audio/uncle1.wav","null","audio-keyboard-response","382","2.1.0","379850","F=YES, J=NO","cv2fd139l0","1","66","73","60","","","","","","","","","","","","","","","",""
"688","
          <p id=""word"" style=""font-size: 40px;"">dramble</p>
          <p style=""font-size: 16px;"">F = YES &nbsp;&nbsp;&nbsp; J = NO</p>
        ","j","html-keyboard-response","383","2.1.0","380538","F=YES, J=NO","cv2fd139l0","1","66","73","60","","","","","","","","","dramble","uncle1","pseudoword","pseudoword","j","true","",""
"null","<p style=""font-size: 50px;"">+</p>","null","html-keyboard-response","384","2.1.0","380842","F=YES, J=NO","cv2fd139l0","1","66","73","60","","","","","","","","","","","","","","","",""
"null","audio/beep-329314.mp3","null","audio-keyboard-response","385","2.1.0","382400","F=YES, J=NO","cv2fd139l0","1","66","73","60","","","","","","","","","","","","","","","",""
"null","audio/plane1.wav","null","audio-keyboard-response","386","2.1.0","382850","F=YES, J=NO","cv2fd139l0","1","66","73","60","","","","","","","","","","","","","","","",""
"617","
          <p id=""word"" style=""font-size: 40px;"">land</p>
          <p style=""font-size: 16px;"">F = YES &nbsp;&nbsp;&nbsp; J = NO</p>
        ","f","html-keyboard-response","387","2.1.0","383467","F=YES, J=NO","cv2fd139l0","1","66","73","60","","","","","","","","","land","plane1","literal","experimental","f","true","",""
"null","<p style=""font-size: 50px;"">+</p>","null","html-keyboard-response","388","2.1.0","383779","F=YES, J=NO","cv2fd139l0","1","66","73","60","","","","","","","","","","","","","","","",""
"null","audio/beep-329314.mp3","null","audio-keyboard-response","389","2.1.0","385310","F=YES, J=NO","cv2fd139l0","1","66","73","60","","","","","","","","","","","","","","","",""
"null","audio/tomato.wav","null","audio-keyboard-response","390","2.1.0","386151","F=YES, J=NO","cv2fd139l0","1","66","73","60","","","","","","","","","","","","","","","",""
"583","
          <p id=""word"" style=""font-size: 40px;"">gladies</p>
          <p style=""font-size: 16px;"">F = YES &nbsp;&nbsp;&nbsp; J = NO</p>
        ","j","html-keyboard-response","391","2.1.0","386734","F=YES, J=NO","cv2fd139l0","1","66","73","60","","","","","","","","","gladies","tomato","pseudoword","pseudoword","j","true","",""
