"rt","stimulus","response","trial_type","trial_index","plugin_version","time_elapsed","response_mapping","subject_id","list_index","lextale_score","lextale_word_score","lextale_nonword_score","success","timeout","failed_images","failed_audio","failed_video","task","isWord","isDummy","target","prime","prime_type","stimulus_type","correct_response","correct","section","question_order"
"6515","
    <div style=""max-width: 800px; margin: auto; text-align: left;"">
      <h2>STANFORD UNIVERSITY</h2>
      <h3>Research Information Sheet</h3>
      <p><strong>Protocol Director:</strong> Robert Hawkins<br>
      <strong>Protocol Title:</strong> Communication and social cognition in natural audiovisual contexts<br>
      <strong>IRB#:</strong> 77226</p>

      <p><strong>DESCRIPTION:</strong> You are invited to participate in a research study about language and communication. The purpose of the research is to understand how you interact and communicate with other people in naturalistic settings as a fluent English speaker. This research will be conducted through the Prolific platform, including participants from the US, UK, and Canada. If you decide to participate in this research, you will play a communication game in a group with one or more partners.</p>

      <p><strong>TIME INVOLVEMENT:</strong> The task will last the amount of time advertised on Prolific. You are free to withdraw from the study at any time.</p>

      <p><strong>RISKS AND BENEFITS:</strong> You may become frustrated if your partner gets distracted, or experience discomfort if other participants in your group send text that is inappropriate for the task. We ask you to please be respectful of other participants you might be interacting with to mitigate these risks. You may also experience discomfort when being asked to discuss or challenge emotionally salient political beliefs. Study data will be stored securely, in compliance with Stanford University standards, minimizing the risk of confidentiality breach. This study advances our scientific understanding of how people communicate and collaborate in naturalistic settings. This study may lead to further insights about what can go wrong in teamwork, suggest potential interventions to overcome these barriers, and help to develop assistive technologies that collaborate with human partners. We cannot and do not guarantee or promise that you will receive any benefits from this study.</p>

      <p><strong>PAYMENTS:</strong> You will receive payment in the amount advertised on Prolific. If you do not complete this study, you will receive prorated payment based on the time that you have spent. Additionally, you may be eligible for bonus payments as described in the instructions.</p>

      <p><strong>PARTICIPANT’S RIGHTS:</strong> If you have read this form and have decided to participate in this project, please understand your participation is voluntary and you have the right to withdraw your consent or discontinue participation at any time without penalty or loss of benefits to which you are otherwise entitled. The alternative is not to participate. You have the right to refuse to answer particular questions. The results of this research study may be presented at scientific or professional meetings or published in scientific journals. Your individual privacy will be maintained in all published and written data resulting from the study. In accordance with scientific norms, the data from this study may be used or shared with other researchers for future research (after removing personally identifying information) without additional consent from you.</p>

      <p><strong>CONTACT INFORMATION:</strong><br>
      Questions: If you have any questions, concerns or complaints about this research, its procedures, risks and benefits, contact the Protocol Director, Robert Hawkins (<a href=""mailto:rdhawkins@stanford.edu"">rdhawkins@stanford.edu</a>, 217-549-6923).<br>
      Independent Contact: If you are not satisfied with how this study is being conducted, or if you have any concerns, complaints, or general questions about the research or your rights as a participant, please contact the Stanford Institutional Review Board (IRB) to speak to someone independent of the research team at 650-723-2480 or toll free at 1-866-680-2906, or email at <a href=""mailto:irbnon-med@stanford.edu"">irbnon-med@stanford.edu</a>. You can also write to the Stanford IRB, Stanford University, 1705 El Camino Real, Palo Alto, CA 94306.</p>

      <p><strong>Please save or print a copy of this page for your records.</strong></p>
      <p>If you agree to participate in this research, click ""Continue"" below.</p>
    </div>
  ","0","html-button-response","0","2.1.0","6518","J=YES, F=NO","d8vlb1l3yx","2","83","85","80","","","","","","","","","","","","","","","",""
"2310","
    <div style=""max-width: 800px; margin: auto; text-align: left;"">
      <h2>Welcome!</h2>
      <p>Thank you for participating in this study. The experiment consists of three parts:</p>
      <ol>
        <li>An English vocabulary test</li>
        <li>A main task in which you will hear and see words, and decide whether the written word is a real English word</li>
        <li>A brief survey about your background</li>
      </ol>
      <p>Each part will be introduced before it begins.</p>
      <p>Please make sure you are in a quiet environment and can hear audio clearly for the final task.</p>
      <p style=""margin-top: 2em;"">Press any key to begin.</p>
    </div>
  "," ","html-keyboard-response","1","2.1.0","8832","J=YES, F=NO","d8vlb1l3yx","2","83","85","80","","","","","","","","","","","","","","","",""
"","","","preload","2","2.1.0","286032","J=YES, F=NO","d8vlb1l3yx","2","83","85","80","true","false","[]","[]","[]","","","","","","","","","","",""
"8259","
    <div style=""max-width: 800px; margin: auto; text-align: left;"">
      <h2>Part 1: Vocabulary Test</h2>
      <p>You will now complete the first part of the study: a short English vocabulary test.</p>
      <p>This test is called <strong>LexTALE</strong> and helps us get a general sense of your English proficiency.</p>
      <p style=""margin-top: 2em;"">Press any key to continue.</p>
    </div>
  "," ","html-keyboard-response","3","2.1.0","294305","J=YES, F=NO","d8vlb1l3yx","2","83","85","80","","","","","","","","","","","","","","","",""
"23998","
    <div style=""max-width: 800px; margin: auto; text-align: left;"">
      <h2>LexTALE Vocabulary Test</h2>
      <p>In this test, you will see a series of letter strings—one at a time.</p>
      <p>Your task is to decide whether each string is a real English word.</p>
      <p><strong>Key responses:</strong></p>
      <ul>
        <li><strong>J</strong> = YES (real English word)</li>
        <li><strong>F</strong> = NO (not a real English word)</li>
      </ul>
      <p>There is no time limit, but please try to be accurate.</p>
      <p style=""margin-top: 2em;"">Press any key to begin.</p>
    </div>
  "," ","html-keyboard-response","4","2.1.0","318305","J=YES, F=NO","d8vlb1l3yx","2","83","85","80","","","","","","","","","","","","","","","",""
"84595","
  <p style=""font-size: 40px;"">platery</p>
  <p style=""font-size: 16px;"">J = YES &nbsp;&nbsp;&nbsp; F = NO</p>
","f","html-keyboard-response","5","2.1.0","402902","J=YES, F=NO","d8vlb1l3yx","2","83","85","80","","","","","","lextale","false","true","","","","","","","",""
"7725","
  <p style=""font-size: 40px;"">denial</p>
  <p style=""font-size: 16px;"">J = YES &nbsp;&nbsp;&nbsp; F = NO</p>
","j","html-keyboard-response","6","2.1.0","410629","J=YES, F=NO","d8vlb1l3yx","2","83","85","80","","","","","","lextale","true","true","","","","","","","",""
"29452","
  <p style=""font-size: 40px;"">marrit</p>
  <p style=""font-size: 16px;"">J = YES &nbsp;&nbsp;&nbsp; F = NO</p>
","f","html-keyboard-response","7","2.1.0","440083","J=YES, F=NO","d8vlb1l3yx","2","83","85","80","","","","","","lextale","false","true","","","","","","","",""
"1699","
  <p style=""font-size: 40px;"">bottle</p>
  <p style=""font-size: 16px;"">J = YES &nbsp;&nbsp;&nbsp; F = NO</p>
","j","html-keyboard-response","8","2.1.0","441784","J=YES, F=NO","d8vlb1l3yx","2","83","85","80","","","","","","lextale","true","false","","","","","","","",""
"25559","
  <p style=""font-size: 40px;"">birst</p>
  <p style=""font-size: 16px;"">J = YES &nbsp;&nbsp;&nbsp; F = NO</p>
","f","html-keyboard-response","9","2.1.0","467345","J=YES, F=NO","d8vlb1l3yx","2","83","85","80","","","","","","lextale","false","false","","","","","","","",""
"2751","
  <p style=""font-size: 40px;"">envy</p>
  <p style=""font-size: 16px;"">J = YES &nbsp;&nbsp;&nbsp; F = NO</p>
","j","html-keyboard-response","10","2.1.0","470097","J=YES, F=NO","d8vlb1l3yx","2","83","85","80","","","","","","lextale","true","false","","","","","","","",""
"11260","
  <p style=""font-size: 40px;"">brang</p>
  <p style=""font-size: 16px;"">J = YES &nbsp;&nbsp;&nbsp; F = NO</p>
","f","html-keyboard-response","11","2.1.0","481359","J=YES, F=NO","d8vlb1l3yx","2","83","85","80","","","","","","lextale","false","false","","","","","","","",""
"1860","
  <p style=""font-size: 40px;"">huge</p>
  <p style=""font-size: 16px;"">J = YES &nbsp;&nbsp;&nbsp; F = NO</p>
","j","html-keyboard-response","12","2.1.0","483221","J=YES, F=NO","d8vlb1l3yx","2","83","85","80","","","","","","lextale","true","false","","","","","","","",""
"10426","
  <p style=""font-size: 40px;"">plove</p>
  <p style=""font-size: 16px;"">J = YES &nbsp;&nbsp;&nbsp; F = NO</p>
","f","html-keyboard-response","13","2.1.0","493649","J=YES, F=NO","d8vlb1l3yx","2","83","85","80","","","","","","lextale","false","false","","","","","","","",""
"3709","
  <p style=""font-size: 40px;"">border</p>
  <p style=""font-size: 16px;"">J = YES &nbsp;&nbsp;&nbsp; F = NO</p>
","j","html-keyboard-response","14","2.1.0","497360","J=YES, F=NO","d8vlb1l3yx","2","83","85","80","","","","","","lextale","true","false","","","","","","","",""
"14077","
  <p style=""font-size: 40px;"">flimsy</p>
  <p style=""font-size: 16px;"">J = YES &nbsp;&nbsp;&nbsp; F = NO</p>
","j","html-keyboard-response","15","2.1.0","511439","J=YES, F=NO","d8vlb1l3yx","2","83","85","80","","","","","","lextale","true","false","","","","","","","",""
"1547","
  <p style=""font-size: 40px;"">drain</p>
  <p style=""font-size: 16px;"">J = YES &nbsp;&nbsp;&nbsp; F = NO</p>
","j","html-keyboard-response","16","2.1.0","512987","J=YES, F=NO","d8vlb1l3yx","2","83","85","80","","","","","","lextale","true","false","","","","","","","",""
"32475","
  <p style=""font-size: 40px;"">twindle</p>
  <p style=""font-size: 16px;"">J = YES &nbsp;&nbsp;&nbsp; F = NO</p>
","f","html-keyboard-response","17","2.1.0","545463","J=YES, F=NO","d8vlb1l3yx","2","83","85","80","","","","","","lextale","false","false","","","","","","","",""
"8836","
  <p style=""font-size: 40px;"">propose</p>
  <p style=""font-size: 16px;"">J = YES &nbsp;&nbsp;&nbsp; F = NO</p>
","j","html-keyboard-response","18","2.1.0","554300","J=YES, F=NO","d8vlb1l3yx","2","83","85","80","","","","","","lextale","true","false","","","","","","","",""
"8106","
  <p style=""font-size: 40px;"">forlay</p>
  <p style=""font-size: 16px;"">J = YES &nbsp;&nbsp;&nbsp; F = NO</p>
","f","html-keyboard-response","19","2.1.0","562408","J=YES, F=NO","d8vlb1l3yx","2","83","85","80","","","","","","lextale","false","false","","","","","","","",""
"9287","
  <p style=""font-size: 40px;"">tenant</p>
  <p style=""font-size: 16px;"">J = YES &nbsp;&nbsp;&nbsp; F = NO</p>
","j","html-keyboard-response","20","2.1.0","571696","J=YES, F=NO","d8vlb1l3yx","2","83","85","80","","","","","","lextale","true","false","","","","","","","",""
"3010","
  <p style=""font-size: 40px;"">strain</p>
  <p style=""font-size: 16px;"">J = YES &nbsp;&nbsp;&nbsp; F = NO</p>
","j","html-keyboard-response","21","2.1.0","574708","J=YES, F=NO","d8vlb1l3yx","2","83","85","80","","","","","","lextale","true","false","","","","","","","",""
"9066","
  <p style=""font-size: 40px;"">holster</p>
  <p style=""font-size: 16px;"">J = YES &nbsp;&nbsp;&nbsp; F = NO</p>
","j","html-keyboard-response","22","2.1.0","583775","J=YES, F=NO","d8vlb1l3yx","2","83","85","80","","","","","","lextale","true","false","","","","","","","",""
"10020","
  <p style=""font-size: 40px;"">hinder</p>
  <p style=""font-size: 16px;"">J = YES &nbsp;&nbsp;&nbsp; F = NO</p>
","j","html-keyboard-response","23","2.1.0","593796","J=YES, F=NO","d8vlb1l3yx","2","83","85","80","","","","","","lextale","true","false","","","","","","","",""
"14352","
  <p style=""font-size: 40px;"">swindle</p>
  <p style=""font-size: 16px;"">J = YES &nbsp;&nbsp;&nbsp; F = NO</p>
","j","html-keyboard-response","24","2.1.0","608149","J=YES, F=NO","d8vlb1l3yx","2","83","85","80","","","","","","lextale","true","false","","","","","","","",""
"17835","
  <p style=""font-size: 40px;"">nuder</p>
  <p style=""font-size: 16px;"">J = YES &nbsp;&nbsp;&nbsp; F = NO</p>
","f","html-keyboard-response","25","2.1.0","625986","J=YES, F=NO","d8vlb1l3yx","2","83","85","80","","","","","","lextale","false","false","","","","","","","",""
"3456","
  <p style=""font-size: 40px;"">pillow</p>
  <p style=""font-size: 16px;"">J = YES &nbsp;&nbsp;&nbsp; F = NO</p>
","j","html-keyboard-response","26","2.1.0","629442","J=YES, F=NO","d8vlb1l3yx","2","83","85","80","","","","","","lextale","true","false","","","","","","","",""
"26233","
  <p style=""font-size: 40px;"">shumble</p>
  <p style=""font-size: 16px;"">J = YES &nbsp;&nbsp;&nbsp; F = NO</p>
","f","html-keyboard-response","27","2.1.0","655676","J=YES, F=NO","d8vlb1l3yx","2","83","85","80","","","","","","lextale","false","false","","","","","","","",""
"3441","
  <p style=""font-size: 40px;"">thirst</p>
  <p style=""font-size: 16px;"">J = YES &nbsp;&nbsp;&nbsp; F = NO</p>
","j","html-keyboard-response","28","2.1.0","659118","J=YES, F=NO","d8vlb1l3yx","2","83","85","80","","","","","","lextale","true","false","","","","","","","",""
"14772","
  <p style=""font-size: 40px;"">unsail</p>
  <p style=""font-size: 16px;"">J = YES &nbsp;&nbsp;&nbsp; F = NO</p>
","j","html-keyboard-response","29","2.1.0","673892","J=YES, F=NO","d8vlb1l3yx","2","83","85","80","","","","","","lextale","false","false","","","","","","","",""
"13339","
  <p style=""font-size: 40px;"">rifle</p>
  <p style=""font-size: 16px;"">J = YES &nbsp;&nbsp;&nbsp; F = NO</p>
","j","html-keyboard-response","30","2.1.0","687232","J=YES, F=NO","d8vlb1l3yx","2","83","85","80","","","","","","lextale","true","false","","","","","","","",""
"6312","
  <p style=""font-size: 40px;"">mush</p>
  <p style=""font-size: 16px;"">J = YES &nbsp;&nbsp;&nbsp; F = NO</p>
","j","html-keyboard-response","31","2.1.0","693546","J=YES, F=NO","d8vlb1l3yx","2","83","85","80","","","","","","lextale","false","false","","","","","","","",""
"7263","
  <p style=""font-size: 40px;"">drench</p>
  <p style=""font-size: 16px;"">J = YES &nbsp;&nbsp;&nbsp; F = NO</p>
","j","html-keyboard-response","32","2.1.0","700810","J=YES, F=NO","d8vlb1l3yx","2","83","85","80","","","","","","lextale","true","false","","","","","","","",""
"16704","
  <p style=""font-size: 40px;"">snirt</p>
  <p style=""font-size: 16px;"">J = YES &nbsp;&nbsp;&nbsp; F = NO</p>
","f","html-keyboard-response","33","2.1.0","717516","J=YES, F=NO","d8vlb1l3yx","2","83","85","80","","","","","","lextale","false","false","","","","","","","",""
"1745","
  <p style=""font-size: 40px;"">bitter</p>
  <p style=""font-size: 16px;"">J = YES &nbsp;&nbsp;&nbsp; F = NO</p>
","j","html-keyboard-response","34","2.1.0","719263","J=YES, F=NO","d8vlb1l3yx","2","83","85","80","","","","","","lextale","true","false","","","","","","","",""
"10767","
  <p style=""font-size: 40px;"">pliff</p>
  <p style=""font-size: 16px;"">J = YES &nbsp;&nbsp;&nbsp; F = NO</p>
","f","html-keyboard-response","35","2.1.0","730031","J=YES, F=NO","d8vlb1l3yx","2","83","85","80","","","","","","lextale","false","false","","","","","","","",""
"2317","
  <p style=""font-size: 40px;"">tablet</p>
  <p style=""font-size: 16px;"">J = YES &nbsp;&nbsp;&nbsp; F = NO</p>
","j","html-keyboard-response","36","2.1.0","732350","J=YES, F=NO","d8vlb1l3yx","2","83","85","80","","","","","","lextale","true","false","","","","","","","",""
"1953","
  <p style=""font-size: 40px;"">glimmer</p>
  <p style=""font-size: 16px;"">J = YES &nbsp;&nbsp;&nbsp; F = NO</p>
","j","html-keyboard-response","37","2.1.0","734304","J=YES, F=NO","d8vlb1l3yx","2","83","85","80","","","","","","lextale","true","false","","","","","","","",""
"16028","
  <p style=""font-size: 40px;"">slink</p>
  <p style=""font-size: 16px;"">J = YES &nbsp;&nbsp;&nbsp; F = NO</p>
","j","html-keyboard-response","38","2.1.0","750333","J=YES, F=NO","d8vlb1l3yx","2","83","85","80","","","","","","lextale","true","false","","","","","","","",""
"1670","
  <p style=""font-size: 40px;"">clever</p>
  <p style=""font-size: 16px;"">J = YES &nbsp;&nbsp;&nbsp; F = NO</p>
","j","html-keyboard-response","39","2.1.0","752004","J=YES, F=NO","d8vlb1l3yx","2","83","85","80","","","","","","lextale","true","false","","","","","","","",""
"21140","
  <p style=""font-size: 40px;"">grum</p>
  <p style=""font-size: 16px;"">J = YES &nbsp;&nbsp;&nbsp; F = NO</p>
","j","html-keyboard-response","40","2.1.0","773145","J=YES, F=NO","d8vlb1l3yx","2","83","85","80","","","","","","lextale","false","false","","","","","","","",""
"1286","
  <p style=""font-size: 40px;"">string</p>
  <p style=""font-size: 16px;"">J = YES &nbsp;&nbsp;&nbsp; F = NO</p>
","j","html-keyboard-response","41","2.1.0","774433","J=YES, F=NO","d8vlb1l3yx","2","83","85","80","","","","","","lextale","true","false","","","","","","","",""
"6478","
  <p style=""font-size: 40px;"">plim</p>
  <p style=""font-size: 16px;"">J = YES &nbsp;&nbsp;&nbsp; F = NO</p>
","f","html-keyboard-response","42","2.1.0","780912","J=YES, F=NO","d8vlb1l3yx","2","83","85","80","","","","","","lextale","false","false","","","","","","","",""
"1777","
  <p style=""font-size: 40px;"">cable</p>
  <p style=""font-size: 16px;"">J = YES &nbsp;&nbsp;&nbsp; F = NO</p>
","j","html-keyboard-response","43","2.1.0","782690","J=YES, F=NO","d8vlb1l3yx","2","83","85","80","","","","","","lextale","true","false","","","","","","","",""
"10798","
  <p style=""font-size: 40px;"">shrivel</p>
  <p style=""font-size: 16px;"">J = YES &nbsp;&nbsp;&nbsp; F = NO</p>
","j","html-keyboard-response","44","2.1.0","793489","J=YES, F=NO","d8vlb1l3yx","2","83","85","80","","","","","","lextale","true","false","","","","","","","",""
"9027","
  <p style=""font-size: 40px;"">tarnish</p>
  <p style=""font-size: 16px;"">J = YES &nbsp;&nbsp;&nbsp; F = NO</p>
","j","html-keyboard-response","45","2.1.0","802517","J=YES, F=NO","d8vlb1l3yx","2","83","85","80","","","","","","lextale","true","false","","","","","","","",""
"7305","
  <p style=""font-size: 40px;"">blim</p>
  <p style=""font-size: 16px;"">J = YES &nbsp;&nbsp;&nbsp; F = NO</p>
","f","html-keyboard-response","46","2.1.0","809823","J=YES, F=NO","d8vlb1l3yx","2","83","85","80","","","","","","lextale","false","false","","","","","","","",""
"6353","
  <p style=""font-size: 40px;"">stifle</p>
  <p style=""font-size: 16px;"">J = YES &nbsp;&nbsp;&nbsp; F = NO</p>
","j","html-keyboard-response","47","2.1.0","816178","J=YES, F=NO","d8vlb1l3yx","2","83","85","80","","","","","","lextale","true","false","","","","","","","",""
"7287","
  <p style=""font-size: 40px;"">bint</p>
  <p style=""font-size: 16px;"">J = YES &nbsp;&nbsp;&nbsp; F = NO</p>
","f","html-keyboard-response","48","2.1.0","823466","J=YES, F=NO","d8vlb1l3yx","2","83","85","80","","","","","","lextale","false","false","","","","","","","",""
"1748","
  <p style=""font-size: 40px;"">purple</p>
  <p style=""font-size: 16px;"">J = YES &nbsp;&nbsp;&nbsp; F = NO</p>
","j","html-keyboard-response","49","2.1.0","825215","J=YES, F=NO","d8vlb1l3yx","2","83","85","80","","","","","","lextale","true","false","","","","","","","",""
"7750","
  <p style=""font-size: 40px;"">wriggle</p>
  <p style=""font-size: 16px;"">J = YES &nbsp;&nbsp;&nbsp; F = NO</p>
","j","html-keyboard-response","50","2.1.0","832967","J=YES, F=NO","d8vlb1l3yx","2","83","85","80","","","","","","lextale","true","false","","","","","","","",""
"8575","
  <p style=""font-size: 40px;"">mangle</p>
  <p style=""font-size: 16px;"">J = YES &nbsp;&nbsp;&nbsp; F = NO</p>
","j","html-keyboard-response","51","2.1.0","841544","J=YES, F=NO","d8vlb1l3yx","2","83","85","80","","","","","","lextale","true","false","","","","","","","",""
"20878","
  <p style=""font-size: 40px;"">shramp</p>
  <p style=""font-size: 16px;"">J = YES &nbsp;&nbsp;&nbsp; F = NO</p>
","f","html-keyboard-response","52","2.1.0","862424","J=YES, F=NO","d8vlb1l3yx","2","83","85","80","","","","","","lextale","false","false","","","","","","","",""
"1783","
  <p style=""font-size: 40px;"">flirt</p>
  <p style=""font-size: 16px;"">J = YES &nbsp;&nbsp;&nbsp; F = NO</p>
","j","html-keyboard-response","53","2.1.0","864208","J=YES, F=NO","d8vlb1l3yx","2","83","85","80","","","","","","lextale","true","false","","","","","","","",""
"7765","
  <p style=""font-size: 40px;"">frip</p>
  <p style=""font-size: 16px;"">J = YES &nbsp;&nbsp;&nbsp; F = NO</p>
","f","html-keyboard-response","54","2.1.0","871974","J=YES, F=NO","d8vlb1l3yx","2","83","85","80","","","","","","lextale","false","false","","","","","","","",""
"2276","
  <p style=""font-size: 40px;"">tangle</p>
  <p style=""font-size: 16px;"">J = YES &nbsp;&nbsp;&nbsp; F = NO</p>
","j","html-keyboard-response","55","2.1.0","874251","J=YES, F=NO","d8vlb1l3yx","2","83","85","80","","","","","","lextale","true","false","","","","","","","",""
"1693","
  <p style=""font-size: 40px;"">crumble</p>
  <p style=""font-size: 16px;"">J = YES &nbsp;&nbsp;&nbsp; F = NO</p>
","j","html-keyboard-response","56","2.1.0","875945","J=YES, F=NO","d8vlb1l3yx","2","83","85","80","","","","","","lextale","true","false","","","","","","","",""
"1626","
  <p style=""font-size: 40px;"">wrinkle</p>
  <p style=""font-size: 16px;"">J = YES &nbsp;&nbsp;&nbsp; F = NO</p>
","j","html-keyboard-response","57","2.1.0","877573","J=YES, F=NO","d8vlb1l3yx","2","83","85","80","","","","","","lextale","true","false","","","","","","","",""
"14621","
  <p style=""font-size: 40px;"">slumb</p>
  <p style=""font-size: 16px;"">J = YES &nbsp;&nbsp;&nbsp; F = NO</p>
","f","html-keyboard-response","58","2.1.0","892195","J=YES, F=NO","d8vlb1l3yx","2","83","85","80","","","","","","lextale","false","false","","","","","","","",""
"2145","
  <p style=""font-size: 40px;"">jungle</p>
  <p style=""font-size: 16px;"">J = YES &nbsp;&nbsp;&nbsp; F = NO</p>
","j","html-keyboard-response","59","2.1.0","894342","J=YES, F=NO","d8vlb1l3yx","2","83","85","80","","","","","","lextale","true","false","","","","","","","",""
"12622","
  <p style=""font-size: 40px;"">frolick</p>
  <p style=""font-size: 16px;"">J = YES &nbsp;&nbsp;&nbsp; F = NO</p>
","f","html-keyboard-response","60","2.1.0","906965","J=YES, F=NO","d8vlb1l3yx","2","83","85","80","","","","","","lextale","false","false","","","","","","","",""
"5116","
      <h2>LexTALE Test Completed</h2>
      <p>Your LexTALE vocabulary score is: <strong>83%</strong></p>
      <p>Press any key to continue.</p>
    "," ","html-keyboard-response","61","2.1.0","912084","J=YES, F=NO","d8vlb1l3yx","2","83","85","80","","","","","","","","","","","","","","","",""
"29050","
    <div style=""max-width: 800px; margin: auto; text-align: left;"">
      <h2>Break Time</h2>
      <p>You have completed the first part of the study.</p>
      <p>You may take a short <strong>30-second break</strong> before continuing.</p>
      <p>When you’re ready, press any key to continue to the final task.</p>
    </div>
  "," ","html-keyboard-response","62","2.1.0","941136","J=YES, F=NO","d8vlb1l3yx","2","83","85","80","","","","","","","","","","","","","","","",""
"40118","
    <div style=""max-width: 800px; margin: auto; text-align: left;"">
      <h2>Part 2: Lexical Decision Task</h2>
      <p>You will now begin the second part of the study.</p>
      <p>Each trial will follow this sequence:</p>
      <ul>
        <li>A fixation cross (+) appears at the center of the screen.</li>
        <li>You will hear a short beep followed by a spoken word.</li>
        <li>A written word will appear briefly on the screen.</li>
      </ul>
      <p>Your task is to judge whether the <strong>written word</strong> is a real English word.</p>
      <p style=""margin-top: 1em;""><strong>Key responses:</strong></p>
      <ul>
        <li><strong>J</strong> = YES (real English word)</li>
        <li><strong>F</strong> = NO (not a real English word)</li>
      </ul>
      <p>Please respond as quickly and accurately as you can.</p>
      <p style=""margin-top: 2em;"">Press any key to continue.</p>
    </div>
  ","n","html-keyboard-response","63","2.1.0","981256","J=YES, F=NO","d8vlb1l3yx","2","83","85","80","","","","","","","","","","","","","","","",""
"3469","
    <div style=""max-width: 800px; margin: auto; text-align: left;"">
      <h2>Before You Begin</h2>
      <p>Make sure your sound is turned on.</p>
      <p>You will hear audio during each trial, but your decision should be based only on the <strong>written word</strong> you see on the screen.</p>
      <p><strong>Reminder:</strong></p>
      <ul>
        <li><strong>J</strong> = YES (real English word)</li>
        <li><strong>F</strong> = NO (not a real English word)</li>
      </ul>
      <p style=""margin-top: 2em;"">Press any key when you are ready to begin.</p>
    </div>
  ","AudioVolumeUp","html-keyboard-response","64","2.1.0","984726","J=YES, F=NO","d8vlb1l3yx","2","83","85","80","","","","","","","","","","","","","","","",""
"4453","
    <div style=""max-width: 800px; margin: auto; text-align: left;"">
      <h2>Part 2: Practice Trials</h2>
      <p>You will now complete a few <strong>practice trials</strong> to get familiar with the task.</p>
      <p>These trials are <strong>not scored</strong> and are only to help you get used to the format.</p>
      <p style=""margin-top: 2em;"">Press any key to begin.</p>
    </div>
  "," ","html-keyboard-response","65","2.1.0","989181","J=YES, F=NO","d8vlb1l3yx","2","83","85","80","","","","","","","","","","","","","","","",""
"4605","<p>Starting practice block 1 of 2. Press any key to continue.</p>"," ","html-keyboard-response","66","2.1.0","993787","J=YES, F=NO","d8vlb1l3yx","2","83","85","80","","","","","","","","","","","","","","","",""
"null","<p style=""font-size: 50px;"">+</p>","null","html-keyboard-response","67","2.1.0","994092","J=YES, F=NO","d8vlb1l3yx","2","83","85","80","","","","","","","","","","","","","","","",""
"null","audio/beep-329314.mp3","null","audio-keyboard-response","68","2.1.0","996299","J=YES, F=NO","d8vlb1l3yx","2","83","85","80","","","","","","","","","","","","","","","",""
"null","audio/stain.wav","null","audio-keyboard-response","69","2.1.0","997368","J=YES, F=NO","d8vlb1l3yx","2","83","85","80","","","","","","","","","","","","","","","",""
"null","
          <p id=""word"" style=""font-size: 40px;"">rumpsied</p>
          <p style=""font-size: 16px;"">J = YES &nbsp;&nbsp;&nbsp; F = NO</p>
        ","null","html-keyboard-response","70","2.1.0","998870","J=YES, F=NO","d8vlb1l3yx","2","83","85","80","","","","","","","","","rumpsied","stain","pseudoword","pseudoword","f","false","",""
"null","<p style=""font-size: 50px;"">+</p>","null","html-keyboard-response","71","2.1.0","999174","J=YES, F=NO","d8vlb1l3yx","2","83","85","80","","","","","","","","","","","","","","","",""
"null","audio/beep-329314.mp3","null","audio-keyboard-response","72","2.1.0","1000698","J=YES, F=NO","d8vlb1l3yx","2","83","85","80","","","","","","","","","","","","","","","",""
"null","audio/van1.wav","null","audio-keyboard-response","73","2.1.0","1001428","J=YES, F=NO","d8vlb1l3yx","2","83","85","80","","","","","","","","","","","","","","","",""
"null","
          <p id=""word"" style=""font-size: 40px;"">push</p>
          <p style=""font-size: 16px;"">J = YES &nbsp;&nbsp;&nbsp; F = NO</p>
        ","null","html-keyboard-response","74","2.1.0","1002944","J=YES, F=NO","d8vlb1l3yx","2","83","85","80","","","","","","","","","push","van1","filler","filler","j","false","",""
"null","<p style=""font-size: 50px;"">+</p>","null","html-keyboard-response","75","2.1.0","1003249","J=YES, F=NO","d8vlb1l3yx","2","83","85","80","","","","","","","","","","","","","","","",""
"null","audio/beep-329314.mp3","null","audio-keyboard-response","76","2.1.0","1004778","J=YES, F=NO","d8vlb1l3yx","2","83","85","80","","","","","","","","","","","","","","","",""
"null","audio/age1.wav","null","audio-keyboard-response","77","2.1.0","1005588","J=YES, F=NO","d8vlb1l3yx","2","83","85","80","","","","","","","","","","","","","","","",""
"876","
          <p id=""word"" style=""font-size: 40px;"">bake</p>
          <p style=""font-size: 16px;"">J = YES &nbsp;&nbsp;&nbsp; F = NO</p>
        ","j","html-keyboard-response","78","2.1.0","1006466","J=YES, F=NO","d8vlb1l3yx","2","83","85","80","","","","","","","","","bake","age1","filler","filler","j","true","",""
"null","<p style=""font-size: 50px;"">+</p>","null","html-keyboard-response","79","2.1.0","1006775","J=YES, F=NO","d8vlb1l3yx","2","83","85","80","","","","","","","","","","","","","","","",""
"null","audio/beep-329314.mp3","null","audio-keyboard-response","80","2.1.0","1008298","J=YES, F=NO","d8vlb1l3yx","2","83","85","80","","","","","","","","","","","","","","","",""
"null","audio/brain.wav","null","audio-keyboard-response","81","2.1.0","1008968","J=YES, F=NO","d8vlb1l3yx","2","83","85","80","","","","","","","","","","","","","","","",""
"751","
          <p id=""word"" style=""font-size: 40px;"">throw</p>
          <p style=""font-size: 16px;"">J = YES &nbsp;&nbsp;&nbsp; F = NO</p>
        ","j","html-keyboard-response","82","2.1.0","1009721","J=YES, F=NO","d8vlb1l3yx","2","83","85","80","","","","","","","","","throw","brain","filler","filler","j","true","",""
"null","<p style=""font-size: 50px;"">+</p>","null","html-keyboard-response","83","2.1.0","1010026","J=YES, F=NO","d8vlb1l3yx","2","83","85","80","","","","","","","","","","","","","","","",""
"null","audio/beep-329314.mp3","null","audio-keyboard-response","84","2.1.0","1011559","J=YES, F=NO","d8vlb1l3yx","2","83","85","80","","","","","","","","","","","","","","","",""
"null","audio/planet1.wav","null","audio-keyboard-response","85","2.1.0","1012388","J=YES, F=NO","d8vlb1l3yx","2","83","85","80","","","","","","","","","","","","","","","",""
"358","
          <p id=""word"" style=""font-size: 40px;"">cratched</p>
          <p style=""font-size: 16px;"">J = YES &nbsp;&nbsp;&nbsp; F = NO</p>
        ","f","html-keyboard-response","86","2.1.0","1012748","J=YES, F=NO","d8vlb1l3yx","2","83","85","80","","","","","","","","","cratched","planet1","pseudoword","pseudoword","f","true","",""
"null","<p style=""font-size: 50px;"">+</p>","null","html-keyboard-response","87","2.1.0","1013053","J=YES, F=NO","d8vlb1l3yx","2","83","85","80","","","","","","","","","","","","","","","",""
"null","audio/beep-329314.mp3","null","audio-keyboard-response","88","2.1.0","1014578","J=YES, F=NO","d8vlb1l3yx","2","83","85","80","","","","","","","","","","","","","","","",""
"null","audio/belief.wav","null","audio-keyboard-response","89","2.1.0","1015528","J=YES, F=NO","d8vlb1l3yx","2","83","85","80","","","","","","","","","","","","","","","",""
"551","
          <p id=""word"" style=""font-size: 40px;"">read</p>
          <p style=""font-size: 16px;"">J = YES &nbsp;&nbsp;&nbsp; F = NO</p>
        ","j","html-keyboard-response","90","2.1.0","1016081","J=YES, F=NO","d8vlb1l3yx","2","83","85","80","","","","","","","","","read","belief","filler","filler","j","true","",""
"null","<p style=""font-size: 50px;"">+</p>","null","html-keyboard-response","91","2.1.0","1016397","J=YES, F=NO","d8vlb1l3yx","2","83","85","80","","","","","","","","","","","","","","","",""
"null","audio/beep-329314.mp3","null","audio-keyboard-response","92","2.1.0","1017938","J=YES, F=NO","d8vlb1l3yx","2","83","85","80","","","","","","","","","","","","","","","",""
"null","audio/breath.wav","null","audio-keyboard-response","93","2.1.0","1018848","J=YES, F=NO","d8vlb1l3yx","2","83","85","80","","","","","","","","","","","","","","","",""
"510","
          <p id=""word"" style=""font-size: 40px;"">pack</p>
          <p style=""font-size: 16px;"">J = YES &nbsp;&nbsp;&nbsp; F = NO</p>
        ","j","html-keyboard-response","94","2.1.0","1019359","J=YES, F=NO","d8vlb1l3yx","2","83","85","80","","","","","","","","","pack","breath","filler","filler","j","true","",""
"null","<p style=""font-size: 50px;"">+</p>","null","html-keyboard-response","95","2.1.0","1019676","J=YES, F=NO","d8vlb1l3yx","2","83","85","80","","","","","","","","","","","","","","","",""
"null","audio/beep-329314.mp3","null","audio-keyboard-response","96","2.1.0","1021218","J=YES, F=NO","d8vlb1l3yx","2","83","85","80","","","","","","","","","","","","","","","",""
"null","audio/terrain.wav","null","audio-keyboard-response","97","2.1.0","1022008","J=YES, F=NO","d8vlb1l3yx","2","83","85","80","","","","","","","","","","","","","","","",""
"659","
          <p id=""word"" style=""font-size: 40px;"">twist</p>
          <p style=""font-size: 16px;"">J = YES &nbsp;&nbsp;&nbsp; F = NO</p>
        ","j","html-keyboard-response","98","2.1.0","1022668","J=YES, F=NO","d8vlb1l3yx","2","83","85","80","","","","","","","","","twist","terrain","filler","filler","j","true","",""
"null","<p style=""font-size: 50px;"">+</p>","null","html-keyboard-response","99","2.1.0","1022980","J=YES, F=NO","d8vlb1l3yx","2","83","85","80","","","","","","","","","","","","","","","",""
"null","audio/beep-329314.mp3","null","audio-keyboard-response","100","2.1.0","1024519","J=YES, F=NO","d8vlb1l3yx","2","83","85","80","","","","","","","","","","","","","","","",""
"null","audio/novel.wav","null","audio-keyboard-response","101","2.1.0","1025308","J=YES, F=NO","d8vlb1l3yx","2","83","85","80","","","","","","","","","","","","","","","",""
"646","
          <p id=""word"" style=""font-size: 40px;"">type</p>
          <p style=""font-size: 16px;"">J = YES &nbsp;&nbsp;&nbsp; F = NO</p>
        ","j","html-keyboard-response","102","2.1.0","1025955","J=YES, F=NO","d8vlb1l3yx","2","83","85","80","","","","","","","","","type","novel","filler","filler","j","true","",""
"null","<p style=""font-size: 50px;"">+</p>","null","html-keyboard-response","103","2.1.0","1026276","J=YES, F=NO","d8vlb1l3yx","2","83","85","80","","","","","","","","","","","","","","","",""
"null","audio/beep-329314.mp3","null","audio-keyboard-response","104","2.1.0","1027818","J=YES, F=NO","d8vlb1l3yx","2","83","85","80","","","","","","","","","","","","","","","",""
"null","audio/sugar1.wav","null","audio-keyboard-response","105","2.1.0","1028588","J=YES, F=NO","d8vlb1l3yx","2","83","85","80","","","","","","","","","","","","","","","",""
"528","
          <p id=""word"" style=""font-size: 40px;"">glung</p>
          <p style=""font-size: 16px;"">J = YES &nbsp;&nbsp;&nbsp; F = NO</p>
        ","j","html-keyboard-response","106","2.1.0","1029117","J=YES, F=NO","d8vlb1l3yx","2","83","85","80","","","","","","","","","glung","sugar1","pseudoword","pseudoword","f","false","",""
"null","<p style=""font-size: 50px;"">+</p>","null","html-keyboard-response","107","2.1.0","1029426","J=YES, F=NO","d8vlb1l3yx","2","83","85","80","","","","","","","","","","","","","","","",""
"null","audio/beep-329314.mp3","null","audio-keyboard-response","108","2.1.0","1030959","J=YES, F=NO","d8vlb1l3yx","2","83","85","80","","","","","","","","","","","","","","","",""
"null","audio/foe1.wav","null","audio-keyboard-response","109","2.1.0","1031788","J=YES, F=NO","d8vlb1l3yx","2","83","85","80","","","","","","","","","","","","","","","",""
"888","
          <p id=""word"" style=""font-size: 40px;"">creth</p>
          <p style=""font-size: 16px;"">J = YES &nbsp;&nbsp;&nbsp; F = NO</p>
        ","f","html-keyboard-response","110","2.1.0","1032677","J=YES, F=NO","d8vlb1l3yx","2","83","85","80","","","","","","","","","creth","foe1","pseudoword","pseudoword","f","true","",""
"null","<p style=""font-size: 50px;"">+</p>","null","html-keyboard-response","111","2.1.0","1032981","J=YES, F=NO","d8vlb1l3yx","2","83","85","80","","","","","","","","","","","","","","","",""
"null","audio/beep-329314.mp3","null","audio-keyboard-response","112","2.1.0","1034519","J=YES, F=NO","d8vlb1l3yx","2","83","85","80","","","","","","","","","","","","","","","",""
"null","audio/topic.wav","null","audio-keyboard-response","113","2.1.0","1035328","J=YES, F=NO","d8vlb1l3yx","2","83","85","80","","","","","","","","","","","","","","","",""
"620","
          <p id=""word"" style=""font-size: 40px;"">infortuitist</p>
          <p style=""font-size: 16px;"">J = YES &nbsp;&nbsp;&nbsp; F = NO</p>
        ","j","html-keyboard-response","114","2.1.0","1035949","J=YES, F=NO","d8vlb1l3yx","2","83","85","80","","","","","","","","","infortuitist","topic","pseudoword","pseudoword","f","false","",""
"40478","<p>Starting practice block 2 of 2. Press any key to continue.</p>"," ","html-keyboard-response","115","2.1.0","1076428","J=YES, F=NO","d8vlb1l3yx","2","83","85","80","","","","","","","","","","","","","","","",""
"null","<p style=""font-size: 50px;"">+</p>","null","html-keyboard-response","116","2.1.0","1076735","J=YES, F=NO","d8vlb1l3yx","2","83","85","80","","","","","","","","","","","","","","","",""
"null","audio/beep-329314.mp3","null","audio-keyboard-response","117","2.1.0","1078521","J=YES, F=NO","d8vlb1l3yx","2","83","85","80","","","","","","","","","","","","","","","",""
"null","audio/breath.wav","null","audio-keyboard-response","118","2.1.0","1079171","J=YES, F=NO","d8vlb1l3yx","2","83","85","80","","","","","","","","","","","","","","","",""
"1101","
          <p id=""word"" style=""font-size: 40px;"">twets</p>
          <p style=""font-size: 16px;"">J = YES &nbsp;&nbsp;&nbsp; F = NO</p>
        ","f","html-keyboard-response","119","2.1.0","1080273","J=YES, F=NO","d8vlb1l3yx","2","83","85","80","","","","","","","","","twets","breath","pseudoword","pseudoword","f","true","",""
"null","<p style=""font-size: 50px;"">+</p>","null","html-keyboard-response","120","2.1.0","1080579","J=YES, F=NO","d8vlb1l3yx","2","83","85","80","","","","","","","","","","","","","","","",""
"null","audio/beep-329314.mp3","null","audio-keyboard-response","121","2.1.0","1082122","J=YES, F=NO","d8vlb1l3yx","2","83","85","80","","","","","","","","","","","","","","","",""
"null","audio/arm.wav","null","audio-keyboard-response","122","2.1.0","1082852","J=YES, F=NO","d8vlb1l3yx","2","83","85","80","","","","","","","","","","","","","","","",""
"777","
          <p id=""word"" style=""font-size: 40px;"">pigne</p>
          <p style=""font-size: 16px;"">J = YES &nbsp;&nbsp;&nbsp; F = NO</p>
        ","f","html-keyboard-response","123","2.1.0","1083630","J=YES, F=NO","d8vlb1l3yx","2","83","85","80","","","","","","","","","pigne","arm","pseudoword","pseudoword","f","true","",""
"null","<p style=""font-size: 50px;"">+</p>","null","html-keyboard-response","124","2.1.0","1083933","J=YES, F=NO","d8vlb1l3yx","2","83","85","80","","","","","","","","","","","","","","","",""
"null","audio/beep-329314.mp3","null","audio-keyboard-response","125","2.1.0","1085462","J=YES, F=NO","d8vlb1l3yx","2","83","85","80","","","","","","","","","","","","","","","",""
"null","audio/survey1.wav","null","audio-keyboard-response","126","2.1.0","1086491","J=YES, F=NO","d8vlb1l3yx","2","83","85","80","","","","","","","","","","","","","","","",""
"675","
          <p id=""word"" style=""font-size: 40px;"">imploth</p>
          <p style=""font-size: 16px;"">J = YES &nbsp;&nbsp;&nbsp; F = NO</p>
        ","f","html-keyboard-response","127","2.1.0","1087168","J=YES, F=NO","d8vlb1l3yx","2","83","85","80","","","","","","","","","imploth","survey1","pseudoword","pseudoword","f","true","",""
"null","<p style=""font-size: 50px;"">+</p>","null","html-keyboard-response","128","2.1.0","1087475","J=YES, F=NO","d8vlb1l3yx","2","83","85","80","","","","","","","","","","","","","","","",""
"null","audio/beep-329314.mp3","null","audio-keyboard-response","129","2.1.0","1089002","J=YES, F=NO","d8vlb1l3yx","2","83","85","80","","","","","","","","","","","","","","","",""
"null","audio/relief.wav","null","audio-keyboard-response","130","2.1.0","1090031","J=YES, F=NO","d8vlb1l3yx","2","83","85","80","","","","","","","","","","","","","","","",""
"1170","
          <p id=""word"" style=""font-size: 40px;"">grigg</p>
          <p style=""font-size: 16px;"">J = YES &nbsp;&nbsp;&nbsp; F = NO</p>
        ","f","html-keyboard-response","131","2.1.0","1091203","J=YES, F=NO","d8vlb1l3yx","2","83","85","80","","","","","","","","","grigg","relief","pseudoword","pseudoword","f","true","",""
"null","<p style=""font-size: 50px;"">+</p>","null","html-keyboard-response","132","2.1.0","1091505","J=YES, F=NO","d8vlb1l3yx","2","83","85","80","","","","","","","","","","","","","","","",""
"null","audio/beep-329314.mp3","null","audio-keyboard-response","133","2.1.0","1093042","J=YES, F=NO","d8vlb1l3yx","2","83","85","80","","","","","","","","","","","","","","","",""
"null","audio/desire.wav","null","audio-keyboard-response","134","2.1.0","1093931","J=YES, F=NO","d8vlb1l3yx","2","83","85","80","","","","","","","","","","","","","","","",""
"900","
          <p id=""word"" style=""font-size: 40px;"">nophed</p>
          <p style=""font-size: 16px;"">J = YES &nbsp;&nbsp;&nbsp; F = NO</p>
        ","j","html-keyboard-response","135","2.1.0","1094833","J=YES, F=NO","d8vlb1l3yx","2","83","85","80","","","","","","","","","nophed","desire","pseudoword","pseudoword","f","false","",""
"null","<p style=""font-size: 50px;"">+</p>","null","html-keyboard-response","136","2.1.0","1095139","J=YES, F=NO","d8vlb1l3yx","2","83","85","80","","","","","","","","","","","","","","","",""
"null","audio/beep-329314.mp3","null","audio-keyboard-response","137","2.1.0","1096681","J=YES, F=NO","d8vlb1l3yx","2","83","85","80","","","","","","","","","","","","","","","",""
"null","audio/arm.wav","null","audio-keyboard-response","138","2.1.0","1097212","J=YES, F=NO","d8vlb1l3yx","2","83","85","80","","","","","","","","","","","","","","","",""
"619","
          <p id=""word"" style=""font-size: 40px;"">fold</p>
          <p style=""font-size: 16px;"">J = YES &nbsp;&nbsp;&nbsp; F = NO</p>
        ","j","html-keyboard-response","139","2.1.0","1097832","J=YES, F=NO","d8vlb1l3yx","2","83","85","80","","","","","","","","","fold","arm","filler","filler","j","true","",""
"null","<p style=""font-size: 50px;"">+</p>","null","html-keyboard-response","140","2.1.0","1098150","J=YES, F=NO","d8vlb1l3yx","2","83","85","80","","","","","","","","","","","","","","","",""
"null","audio/beep-329314.mp3","null","audio-keyboard-response","141","2.1.0","1099681","J=YES, F=NO","d8vlb1l3yx","2","83","85","80","","","","","","","","","","","","","","","",""
"null","audio/account1.wav","null","audio-keyboard-response","142","2.1.0","1100811","J=YES, F=NO","d8vlb1l3yx","2","83","85","80","","","","","","","","","","","","","","","",""
"454","
          <p id=""word"" style=""font-size: 40px;"">paint</p>
          <p style=""font-size: 16px;"">J = YES &nbsp;&nbsp;&nbsp; F = NO</p>
        ","j","html-keyboard-response","143","2.1.0","1101267","J=YES, F=NO","d8vlb1l3yx","2","83","85","80","","","","","","","","","paint","account1","filler","filler","j","true","",""
"null","<p style=""font-size: 50px;"">+</p>","null","html-keyboard-response","144","2.1.0","1101570","J=YES, F=NO","d8vlb1l3yx","2","83","85","80","","","","","","","","","","","","","","","",""
"null","audio/beep-329314.mp3","null","audio-keyboard-response","145","2.1.0","1103102","J=YES, F=NO","d8vlb1l3yx","2","83","85","80","","","","","","","","","","","","","","","",""
"null","audio/winter.wav","null","audio-keyboard-response","146","2.1.0","1103911","J=YES, F=NO","d8vlb1l3yx","2","83","85","80","","","","","","","","","","","","","","","",""
"595","
          <p id=""word"" style=""font-size: 40px;"">straven</p>
          <p style=""font-size: 16px;"">J = YES &nbsp;&nbsp;&nbsp; F = NO</p>
        ","f","html-keyboard-response","147","2.1.0","1104508","J=YES, F=NO","d8vlb1l3yx","2","83","85","80","","","","","","","","","straven","winter","pseudoword","pseudoword","f","true","",""
"null","<p style=""font-size: 50px;"">+</p>","null","html-keyboard-response","148","2.1.0","1104820","J=YES, F=NO","d8vlb1l3yx","2","83","85","80","","","","","","","","","","","","","","","",""
"null","audio/beep-329314.mp3","null","audio-keyboard-response","149","2.1.0","1106362","J=YES, F=NO","d8vlb1l3yx","2","83","85","80","","","","","","","","","","","","","","","",""
"null","audio/ankle1.wav","null","audio-keyboard-response","150","2.1.0","1107151","J=YES, F=NO","d8vlb1l3yx","2","83","85","80","","","","","","","","","","","","","","","",""
"998","
          <p id=""word"" style=""font-size: 40px;"">switm</p>
          <p style=""font-size: 16px;"">J = YES &nbsp;&nbsp;&nbsp; F = NO</p>
        ","f","html-keyboard-response","151","2.1.0","1108150","J=YES, F=NO","d8vlb1l3yx","2","83","85","80","","","","","","","","","switm","ankle1","pseudoword","pseudoword","f","true","",""
"null","<p style=""font-size: 50px;"">+</p>","null","html-keyboard-response","152","2.1.0","1108460","J=YES, F=NO","d8vlb1l3yx","2","83","85","80","","","","","","","","","","","","","","","",""
"null","audio/beep-329314.mp3","null","audio-keyboard-response","153","2.1.0","1110002","J=YES, F=NO","d8vlb1l3yx","2","83","85","80","","","","","","","","","","","","","","","",""
"null","audio/bishop1.wav","null","audio-keyboard-response","154","2.1.0","1111231","J=YES, F=NO","d8vlb1l3yx","2","83","85","80","","","","","","","","","","","","","","","",""
"529","
          <p id=""word"" style=""font-size: 40px;"">play</p>
          <p style=""font-size: 16px;"">J = YES &nbsp;&nbsp;&nbsp; F = NO</p>
        ","j","html-keyboard-response","155","2.1.0","1111761","J=YES, F=NO","d8vlb1l3yx","2","83","85","80","","","","","","","","","play","bishop1","filler","filler","j","true","",""
"null","<p style=""font-size: 50px;"">+</p>","null","html-keyboard-response","156","2.1.0","1112074","J=YES, F=NO","d8vlb1l3yx","2","83","85","80","","","","","","","","","","","","","","","",""
"null","audio/beep-329314.mp3","null","audio-keyboard-response","157","2.1.0","1113602","J=YES, F=NO","d8vlb1l3yx","2","83","85","80","","","","","","","","","","","","","","","",""
"null","audio/battle1.wav","null","audio-keyboard-response","158","2.1.0","1114271","J=YES, F=NO","d8vlb1l3yx","2","83","85","80","","","","","","","","","","","","","","","",""
"395","
          <p id=""word"" style=""font-size: 40px;"">boil</p>
          <p style=""font-size: 16px;"">J = YES &nbsp;&nbsp;&nbsp; F = NO</p>
        ","j","html-keyboard-response","159","2.1.0","1114668","J=YES, F=NO","d8vlb1l3yx","2","83","85","80","","","","","","","","","boil","battle1","filler","filler","j","true","",""
"null","<p style=""font-size: 50px;"">+</p>","null","html-keyboard-response","160","2.1.0","1114977","J=YES, F=NO","d8vlb1l3yx","2","83","85","80","","","","","","","","","","","","","","","",""
"null","audio/beep-329314.mp3","null","audio-keyboard-response","161","2.1.0","1116502","J=YES, F=NO","d8vlb1l3yx","2","83","85","80","","","","","","","","","","","","","","","",""
"null","audio/bridge.wav","null","audio-keyboard-response","162","2.1.0","1117431","J=YES, F=NO","d8vlb1l3yx","2","83","85","80","","","","","","","","","","","","","","","",""
"533","
          <p id=""word"" style=""font-size: 40px;"">crack</p>
          <p style=""font-size: 16px;"">J = YES &nbsp;&nbsp;&nbsp; F = NO</p>
        ","j","html-keyboard-response","163","2.1.0","1117966","J=YES, F=NO","d8vlb1l3yx","2","83","85","80","","","","","","","","","crack","bridge","filler","filler","j","true","",""
"26173","
    <div style=""max-width: 800px; margin: auto; text-align: left;"">
      <h2>Part 2: Main Trials</h2>
      <p>Great job on the practice trials!</p>
      <p>You will now begin the <strong>main set of trials</strong>.</p>
      <p>Remember your key assignments:</p>
      <ul>
        <li><strong>J</strong> = YES (real English word)</li>
        <li><strong>F</strong> = NO (not a real English word)</li>
      </ul>
      <p>Try to respond as <strong>quickly and accurately</strong> as possible.</p>
      <p style=""margin-top: 2em;"">Press any key to begin the main trials.</p>
    </div>
  ","j","html-keyboard-response","164","2.1.0","1144141","J=YES, F=NO","d8vlb1l3yx","2","83","85","80","","","","","","","","","","","","","","","",""
"1722","<p>Starting main block 1 of 8. Press any key to continue.</p>","j","html-keyboard-response","165","2.1.0","1145864","J=YES, F=NO","d8vlb1l3yx","2","83","85","80","","","","","","","","","","","","","","","",""
"null","<p style=""font-size: 50px;"">+</p>","null","html-keyboard-response","166","2.1.0","1146173","J=YES, F=NO","d8vlb1l3yx","2","83","85","80","","","","","","","","","","","","","","","",""
"null","audio/beep-329314.mp3","null","audio-keyboard-response","167","2.1.0","1147972","J=YES, F=NO","d8vlb1l3yx","2","83","85","80","","","","","","","","","","","","","","","",""
"null","audio/pig.wav","null","audio-keyboard-response","168","2.1.0","1148462","J=YES, F=NO","d8vlb1l3yx","2","83","85","80","","","","","","","","","","","","","","","",""
"617","
          <p id=""word"" style=""font-size: 40px;"">feed</p>
          <p style=""font-size: 16px;"">J = YES &nbsp;&nbsp;&nbsp; F = NO</p>
        ","j","html-keyboard-response","169","2.1.0","1149081","J=YES, F=NO","d8vlb1l3yx","2","83","85","80","","","","","","","","","feed","pig","literal","experimental","j","true","",""
"null","<p style=""font-size: 50px;"">+</p>","null","html-keyboard-response","170","2.1.0","1149389","J=YES, F=NO","d8vlb1l3yx","2","83","85","80","","","","","","","","","","","","","","","",""
"null","audio/beep-329314.mp3","null","audio-keyboard-response","171","2.1.0","1150913","J=YES, F=NO","d8vlb1l3yx","2","83","85","80","","","","","","","","","","","","","","","",""
"null","audio/key1.wav","null","audio-keyboard-response","172","2.1.0","1151302","J=YES, F=NO","d8vlb1l3yx","2","83","85","80","","","","","","","","","","","","","","","",""
"627","
          <p id=""word"" style=""font-size: 40px;"">sminsh</p>
          <p style=""font-size: 16px;"">J = YES &nbsp;&nbsp;&nbsp; F = NO</p>
        ","f","html-keyboard-response","173","2.1.0","1151930","J=YES, F=NO","d8vlb1l3yx","2","83","85","80","","","","","","","","","sminsh","key1","pseudoword","pseudoword","f","true","",""
"null","<p style=""font-size: 50px;"">+</p>","null","html-keyboard-response","174","2.1.0","1152240","J=YES, F=NO","d8vlb1l3yx","2","83","85","80","","","","","","","","","","","","","","","",""
"null","audio/beep-329314.mp3","null","audio-keyboard-response","175","2.1.0","1153772","J=YES, F=NO","d8vlb1l3yx","2","83","85","80","","","","","","","","","","","","","","","",""
"null","audio/noise1.wav","null","audio-keyboard-response","176","2.1.0","1154642","J=YES, F=NO","d8vlb1l3yx","2","83","85","80","","","","","","","","","","","","","","","",""
"472","
          <p id=""word"" style=""font-size: 40px;"">build</p>
          <p style=""font-size: 16px;"">J = YES &nbsp;&nbsp;&nbsp; F = NO</p>
        ","j","html-keyboard-response","177","2.1.0","1155115","J=YES, F=NO","d8vlb1l3yx","2","83","85","80","","","","","","","","","build","noise1","unrelated","experimental","j","true","",""
"null","<p style=""font-size: 50px;"">+</p>","null","html-keyboard-response","178","2.1.0","1155422","J=YES, F=NO","d8vlb1l3yx","2","83","85","80","","","","","","","","","","","","","","","",""
"null","audio/beep-329314.mp3","null","audio-keyboard-response","179","2.1.0","1156952","J=YES, F=NO","d8vlb1l3yx","2","83","85","80","","","","","","","","","","","","","","","",""
"null","audio/alarm1.wav","null","audio-keyboard-response","180","2.1.0","1157902","J=YES, F=NO","d8vlb1l3yx","2","83","85","80","","","","","","","","","","","","","","","",""
"665","
          <p id=""word"" style=""font-size: 40px;"">lock</p>
          <p style=""font-size: 16px;"">J = YES &nbsp;&nbsp;&nbsp; F = NO</p>
        ","j","html-keyboard-response","181","2.1.0","1158568","J=YES, F=NO","d8vlb1l3yx","2","83","85","80","","","","","","","","","lock","alarm1","filler","filler","j","true","",""
"null","<p style=""font-size: 50px;"">+</p>","null","html-keyboard-response","182","2.1.0","1158875","J=YES, F=NO","d8vlb1l3yx","2","83","85","80","","","","","","","","","","","","","","","",""
"null","audio/beep-329314.mp3","null","audio-keyboard-response","183","2.1.0","1160412","J=YES, F=NO","d8vlb1l3yx","2","83","85","80","","","","","","","","","","","","","","","",""
"null","audio/empire.wav","null","audio-keyboard-response","184","2.1.0","1161322","J=YES, F=NO","d8vlb1l3yx","2","83","85","80","","","","","","","","","","","","","","","",""
"460","
          <p id=""word"" style=""font-size: 40px;"">bring</p>
          <p style=""font-size: 16px;"">J = YES &nbsp;&nbsp;&nbsp; F = NO</p>
        ","j","html-keyboard-response","185","2.1.0","1161783","J=YES, F=NO","d8vlb1l3yx","2","83","85","80","","","","","","","","","bring","empire","unrelated","experimental","j","true","",""
"null","<p style=""font-size: 50px;"">+</p>","null","html-keyboard-response","186","2.1.0","1162090","J=YES, F=NO","d8vlb1l3yx","2","83","85","80","","","","","","","","","","","","","","","",""
"null","audio/beep-329314.mp3","null","audio-keyboard-response","187","2.1.0","1163632","J=YES, F=NO","d8vlb1l3yx","2","83","85","80","","","","","","","","","","","","","","","",""
"null","audio/meal.wav","null","audio-keyboard-response","188","2.1.0","1164402","J=YES, F=NO","d8vlb1l3yx","2","83","85","80","","","","","","","","","","","","","","","",""
"518","
          <p id=""word"" style=""font-size: 40px;"">share</p>
          <p style=""font-size: 16px;"">J = YES &nbsp;&nbsp;&nbsp; F = NO</p>
        ","j","html-keyboard-response","189","2.1.0","1164922","J=YES, F=NO","d8vlb1l3yx","2","83","85","80","","","","","","","","","share","meal","literal","experimental","j","true","",""
"null","<p style=""font-size: 50px;"">+</p>","null","html-keyboard-response","190","2.1.0","1165226","J=YES, F=NO","d8vlb1l3yx","2","83","85","80","","","","","","","","","","","","","","","",""
"null","audio/beep-329314.mp3","null","audio-keyboard-response","191","2.1.0","1166752","J=YES, F=NO","d8vlb1l3yx","2","83","85","80","","","","","","","","","","","","","","","",""
"null","audio/inch1.wav","null","audio-keyboard-response","192","2.1.0","1167622","J=YES, F=NO","d8vlb1l3yx","2","83","85","80","","","","","","","","","","","","","","","",""
"445","
          <p id=""word"" style=""font-size: 40px;"">lose</p>
          <p style=""font-size: 16px;"">J = YES &nbsp;&nbsp;&nbsp; F = NO</p>
        ","j","html-keyboard-response","193","2.1.0","1168068","J=YES, F=NO","d8vlb1l3yx","2","83","85","80","","","","","","","","","lose","inch1","metaphor","experimental","j","true","",""
"null","<p style=""font-size: 50px;"">+</p>","null","html-keyboard-response","194","2.1.0","1168378","J=YES, F=NO","d8vlb1l3yx","2","83","85","80","","","","","","","","","","","","","","","",""
"null","audio/beep-329314.mp3","null","audio-keyboard-response","195","2.1.0","1169912","J=YES, F=NO","d8vlb1l3yx","2","83","85","80","","","","","","","","","","","","","","","",""
"null","audio/beach1.wav","null","audio-keyboard-response","196","2.1.0","1170802","J=YES, F=NO","d8vlb1l3yx","2","83","85","80","","","","","","","","","","","","","","","",""
"405","
          <p id=""word"" style=""font-size: 40px;"">drive</p>
          <p style=""font-size: 16px;"">J = YES &nbsp;&nbsp;&nbsp; F = NO</p>
        ","j","html-keyboard-response","197","2.1.0","1171209","J=YES, F=NO","d8vlb1l3yx","2","83","85","80","","","","","","","","","drive","beach1","filler","filler","j","true","",""
"null","<p style=""font-size: 50px;"">+</p>","null","html-keyboard-response","198","2.1.0","1171517","J=YES, F=NO","d8vlb1l3yx","2","83","85","80","","","","","","","","","","","","","","","",""
"null","audio/beep-329314.mp3","null","audio-keyboard-response","199","2.1.0","1173052","J=YES, F=NO","d8vlb1l3yx","2","83","85","80","","","","","","","","","","","","","","","",""
"null","audio/plane1.wav","null","audio-keyboard-response","200","2.1.0","1173502","J=YES, F=NO","d8vlb1l3yx","2","83","85","80","","","","","","","","","","","","","","","",""
"419","
          <p id=""word"" style=""font-size: 40px;"">land</p>
          <p style=""font-size: 16px;"">J = YES &nbsp;&nbsp;&nbsp; F = NO</p>
        ","j","html-keyboard-response","201","2.1.0","1173922","J=YES, F=NO","d8vlb1l3yx","2","83","85","80","","","","","","","","","land","plane1","literal","experimental","j","true","",""
"null","<p style=""font-size: 50px;"">+</p>","null","html-keyboard-response","202","2.1.0","1174228","J=YES, F=NO","d8vlb1l3yx","2","83","85","80","","","","","","","","","","","","","","","",""
"null","audio/beep-329314.mp3","null","audio-keyboard-response","203","2.1.0","1175752","J=YES, F=NO","d8vlb1l3yx","2","83","85","80","","","","","","","","","","","","","","","",""
"null","audio/ankle1.wav","null","audio-keyboard-response","204","2.1.0","1176262","J=YES, F=NO","d8vlb1l3yx","2","83","85","80","","","","","","","","","","","","","","","",""
"426","
          <p id=""word"" style=""font-size: 40px;"">kick</p>
          <p style=""font-size: 16px;"">J = YES &nbsp;&nbsp;&nbsp; F = NO</p>
        ","j","html-keyboard-response","205","2.1.0","1176689","J=YES, F=NO","d8vlb1l3yx","2","83","85","80","","","","","","","","","kick","ankle1","filler","filler","j","true","",""
"null","<p style=""font-size: 50px;"">+</p>","null","html-keyboard-response","206","2.1.0","1176994","J=YES, F=NO","d8vlb1l3yx","2","83","85","80","","","","","","","","","","","","","","","",""
"null","audio/beep-329314.mp3","null","audio-keyboard-response","207","2.1.0","1178532","J=YES, F=NO","d8vlb1l3yx","2","83","85","80","","","","","","","","","","","","","","","",""
"null","audio/winter.wav","null","audio-keyboard-response","208","2.1.0","1179082","J=YES, F=NO","d8vlb1l3yx","2","83","85","80","","","","","","","","","","","","","","","",""
"472","
          <p id=""word"" style=""font-size: 40px;"">expose</p>
          <p style=""font-size: 16px;"">J = YES &nbsp;&nbsp;&nbsp; F = NO</p>
        ","j","html-keyboard-response","209","2.1.0","1179556","J=YES, F=NO","d8vlb1l3yx","2","83","85","80","","","","","","","","","expose","winter","unrelated","experimental","j","true","",""
"null","<p style=""font-size: 50px;"">+</p>","null","html-keyboard-response","210","2.1.0","1179870","J=YES, F=NO","d8vlb1l3yx","2","83","85","80","","","","","","","","","","","","","","","",""
"null","audio/beep-329314.mp3","null","audio-keyboard-response","211","2.1.0","1181412","J=YES, F=NO","d8vlb1l3yx","2","83","85","80","","","","","","","","","","","","","","","",""
"null","audio/alarm1.wav","null","audio-keyboard-response","212","2.1.0","1181982","J=YES, F=NO","d8vlb1l3yx","2","83","85","80","","","","","","","","","","","","","","","",""
"599","
          <p id=""word"" style=""font-size: 40px;"">swetp</p>
          <p style=""font-size: 16px;"">J = YES &nbsp;&nbsp;&nbsp; F = NO</p>
        ","f","html-keyboard-response","213","2.1.0","1182582","J=YES, F=NO","d8vlb1l3yx","2","83","85","80","","","","","","","","","swetp","alarm1","pseudoword","pseudoword","f","true","",""
"null","<p style=""font-size: 50px;"">+</p>","null","html-keyboard-response","214","2.1.0","1182896","J=YES, F=NO","d8vlb1l3yx","2","83","85","80","","","","","","","","","","","","","","","",""
"null","audio/beep-329314.mp3","null","audio-keyboard-response","215","2.1.0","1184432","J=YES, F=NO","d8vlb1l3yx","2","83","85","80","","","","","","","","","","","","","","","",""
"null","audio/hawk1.wav","null","audio-keyboard-response","216","2.1.0","1185242","J=YES, F=NO","d8vlb1l3yx","2","83","85","80","","","","","","","","","","","","","","","",""
"695","
          <p id=""word"" style=""font-size: 40px;"">ostach</p>
          <p style=""font-size: 16px;"">J = YES &nbsp;&nbsp;&nbsp; F = NO</p>
        ","j","html-keyboard-response","217","2.1.0","1185938","J=YES, F=NO","d8vlb1l3yx","2","83","85","80","","","","","","","","","ostach","hawk1","pseudoword","pseudoword","f","false","",""
"null","<p style=""font-size: 50px;"">+</p>","null","html-keyboard-response","218","2.1.0","1186243","J=YES, F=NO","d8vlb1l3yx","2","83","85","80","","","","","","","","","","","","","","","",""
"null","audio/beep-329314.mp3","null","audio-keyboard-response","219","2.1.0","1187772","J=YES, F=NO","d8vlb1l3yx","2","83","85","80","","","","","","","","","","","","","","","",""
"null","audio/scar.wav","null","audio-keyboard-response","220","2.1.0","1188722","J=YES, F=NO","d8vlb1l3yx","2","83","85","80","","","","","","","","","","","","","","","",""
"742","
          <p id=""word"" style=""font-size: 40px;"">adelineate</p>
          <p style=""font-size: 16px;"">J = YES &nbsp;&nbsp;&nbsp; F = NO</p>
        ","f","html-keyboard-response","221","2.1.0","1189465","J=YES, F=NO","d8vlb1l3yx","2","83","85","80","","","","","","","","","adelineate","scar","pseudoword","pseudoword","f","true","",""
"null","<p style=""font-size: 50px;"">+</p>","null","html-keyboard-response","222","2.1.0","1189770","J=YES, F=NO","d8vlb1l3yx","2","83","85","80","","","","","","","","","","","","","","","",""
"null","audio/beep-329314.mp3","null","audio-keyboard-response","223","2.1.0","1191312","J=YES, F=NO","d8vlb1l3yx","2","83","85","80","","","","","","","","","","","","","","","",""
"null","audio/birth1.wav","null","audio-keyboard-response","224","2.1.0","1192122","J=YES, F=NO","d8vlb1l3yx","2","83","85","80","","","","","","","","","","","","","","","",""
"394","
          <p id=""word"" style=""font-size: 40px;"">peel</p>
          <p style=""font-size: 16px;"">J = YES &nbsp;&nbsp;&nbsp; F = NO</p>
        ","j","html-keyboard-response","225","2.1.0","1192518","J=YES, F=NO","d8vlb1l3yx","2","83","85","80","","","","","","","","","peel","birth1","filler","filler","j","true","",""
"null","<p style=""font-size: 50px;"">+</p>","null","html-keyboard-response","226","2.1.0","1192826","J=YES, F=NO","d8vlb1l3yx","2","83","85","80","","","","","","","","","","","","","","","",""
"null","audio/beep-329314.mp3","null","audio-keyboard-response","227","2.1.0","1194352","J=YES, F=NO","d8vlb1l3yx","2","83","85","80","","","","","","","","","","","","","","","",""
"null","audio/death1.wav","null","audio-keyboard-response","228","2.1.0","1195162","J=YES, F=NO","d8vlb1l3yx","2","83","85","80","","","","","","","","","","","","","","","",""
"714","
          <p id=""word"" style=""font-size: 40px;"">conquer</p>
          <p style=""font-size: 16px;"">J = YES &nbsp;&nbsp;&nbsp; F = NO</p>
        ","f","html-keyboard-response","229","2.1.0","1195877","J=YES, F=NO","d8vlb1l3yx","2","83","85","80","","","","","","","","","conquer","death1","metaphor","experimental","j","false","",""
"39437","<p>Excellent! You have finished block 1 of 8.</p>
                     <p>Feel free to take a 30 second break.</p>
                     <p>Press any key when you're ready to continue.</p>","j","html-keyboard-response","230","2.1.0","1235315","J=YES, F=NO","d8vlb1l3yx","2","83","85","80","","","","","","","","","","","","","","","",""
"1301","<p>Starting main block 2 of 8. Press any key to continue.</p>","j","html-keyboard-response","231","2.1.0","1236618","J=YES, F=NO","d8vlb1l3yx","2","83","85","80","","","","","","","","","","","","","","","",""
"null","<p style=""font-size: 50px;"">+</p>","null","html-keyboard-response","232","2.1.0","1236924","J=YES, F=NO","d8vlb1l3yx","2","83","85","80","","","","","","","","","","","","","","","",""
"null","audio/beep-329314.mp3","null","audio-keyboard-response","233","2.1.0","1238723","J=YES, F=NO","d8vlb1l3yx","2","83","85","80","","","","","","","","","","","","","","","",""
"null","audio/pizza1.wav","null","audio-keyboard-response","234","2.1.0","1239593","J=YES, F=NO","d8vlb1l3yx","2","83","85","80","","","","","","","","","","","","","","","",""
"645","
          <p id=""word"" style=""font-size: 40px;"">devour</p>
          <p style=""font-size: 16px;"">J = YES &nbsp;&nbsp;&nbsp; F = NO</p>
        ","j","html-keyboard-response","235","2.1.0","1240240","J=YES, F=NO","d8vlb1l3yx","2","83","85","80","","","","","","","","","devour","pizza1","literal","experimental","j","true","",""
"null","<p style=""font-size: 50px;"">+</p>","null","html-keyboard-response","236","2.1.0","1240551","J=YES, F=NO","d8vlb1l3yx","2","83","85","80","","","","","","","","","","","","","","","",""
"null","audio/beep-329314.mp3","null","audio-keyboard-response","237","2.1.0","1242084","J=YES, F=NO","d8vlb1l3yx","2","83","85","80","","","","","","","","","","","","","","","",""
"null","audio/life1.wav","null","audio-keyboard-response","238","2.1.0","1242873","J=YES, F=NO","d8vlb1l3yx","2","83","85","80","","","","","","","","","","","","","","","",""
"586","
          <p id=""word"" style=""font-size: 40px;"">flimch</p>
          <p style=""font-size: 16px;"">J = YES &nbsp;&nbsp;&nbsp; F = NO</p>
        ","f","html-keyboard-response","239","2.1.0","1243460","J=YES, F=NO","d8vlb1l3yx","2","83","85","80","","","","","","","","","flimch","life1","pseudoword","pseudoword","f","true","",""
"null","<p style=""font-size: 50px;"">+</p>","null","html-keyboard-response","240","2.1.0","1243773","J=YES, F=NO","d8vlb1l3yx","2","83","85","80","","","","","","","","","","","","","","","",""
"null","audio/beep-329314.mp3","null","audio-keyboard-response","241","2.1.0","1245303","J=YES, F=NO","d8vlb1l3yx","2","83","85","80","","","","","","","","","","","","","","","",""
"null","audio/pattern.wav","null","audio-keyboard-response","242","2.1.0","1246094","J=YES, F=NO","d8vlb1l3yx","2","83","85","80","","","","","","","","","","","","","","","",""
"447","
          <p id=""word"" style=""font-size: 40px;"">tug</p>
          <p style=""font-size: 16px;"">J = YES &nbsp;&nbsp;&nbsp; F = NO</p>
        ","j","html-keyboard-response","243","2.1.0","1246543","J=YES, F=NO","d8vlb1l3yx","2","83","85","80","","","","","","","","","tug","pattern","filler","filler","j","true","",""
"null","<p style=""font-size: 50px;"">+</p>","null","html-keyboard-response","244","2.1.0","1246859","J=YES, F=NO","d8vlb1l3yx","2","83","85","80","","","","","","","","","","","","","","","",""
"null","audio/beep-329314.mp3","null","audio-keyboard-response","245","2.1.0","1248384","J=YES, F=NO","d8vlb1l3yx","2","83","85","80","","","","","","","","","","","","","","","",""
"null","audio/cave1.wav","null","audio-keyboard-response","246","2.1.0","1249133","J=YES, F=NO","d8vlb1l3yx","2","83","85","80","","","","","","","","","","","","","","","",""
"472","
          <p id=""word"" style=""font-size: 40px;"">blacket</p>
          <p style=""font-size: 16px;"">J = YES &nbsp;&nbsp;&nbsp; F = NO</p>
        ","j","html-keyboard-response","247","2.1.0","1249606","J=YES, F=NO","d8vlb1l3yx","2","83","85","80","","","","","","","","","blacket","cave1","pseudoword","pseudoword","f","false","",""
"null","<p style=""font-size: 50px;"">+</p>","null","html-keyboard-response","248","2.1.0","1249915","J=YES, F=NO","d8vlb1l3yx","2","83","85","80","","","","","","","","","","","","","","","",""
"null","audio/beep-329314.mp3","null","audio-keyboard-response","249","2.1.0","1251444","J=YES, F=NO","d8vlb1l3yx","2","83","85","80","","","","","","","","","","","","","","","",""
"null","audio/rank1.wav","null","audio-keyboard-response","250","2.1.0","1252293","J=YES, F=NO","d8vlb1l3yx","2","83","85","80","","","","","","","","","","","","","","","",""
"560","
          <p id=""word"" style=""font-size: 40px;"">climb</p>
          <p style=""font-size: 16px;"">J = YES &nbsp;&nbsp;&nbsp; F = NO</p>
        ","j","html-keyboard-response","251","2.1.0","1252855","J=YES, F=NO","d8vlb1l3yx","2","83","85","80","","","","","","","","","climb","rank1","metaphor","experimental","j","true","",""
"null","<p style=""font-size: 50px;"">+</p>","null","html-keyboard-response","252","2.1.0","1253160","J=YES, F=NO","d8vlb1l3yx","2","83","85","80","","","","","","","","","","","","","","","",""
"null","audio/beep-329314.mp3","null","audio-keyboard-response","253","2.1.0","1254683","J=YES, F=NO","d8vlb1l3yx","2","83","85","80","","","","","","","","","","","","","","","",""
"null","audio/desire.wav","null","audio-keyboard-response","254","2.1.0","1255273","J=YES, F=NO","d8vlb1l3yx","2","83","85","80","","","","","","","","","","","","","","","",""
"399","
          <p id=""word"" style=""font-size: 40px;"">open</p>
          <p style=""font-size: 16px;"">J = YES &nbsp;&nbsp;&nbsp; F = NO</p>
        ","j","html-keyboard-response","255","2.1.0","1255674","J=YES, F=NO","d8vlb1l3yx","2","83","85","80","","","","","","","","","open","desire","unrelated","experimental","j","true","",""
"null","<p style=""font-size: 50px;"">+</p>","null","html-keyboard-response","256","2.1.0","1255981","J=YES, F=NO","d8vlb1l3yx","2","83","85","80","","","","","","","","","","","","","","","",""
"null","audio/beep-329314.mp3","null","audio-keyboard-response","257","2.1.0","1257523","J=YES, F=NO","d8vlb1l3yx","2","83","85","80","","","","","","","","","","","","","","","",""
"null","audio/haste1.wav","null","audio-keyboard-response","258","2.1.0","1258433","J=YES, F=NO","d8vlb1l3yx","2","83","85","80","","","","","","","","","","","","","","","",""
"560","
          <p id=""word"" style=""font-size: 40px;"">hide</p>
          <p style=""font-size: 16px;"">J = YES &nbsp;&nbsp;&nbsp; F = NO</p>
        ","j","html-keyboard-response","259","2.1.0","1258995","J=YES, F=NO","d8vlb1l3yx","2","83","85","80","","","","","","","","","hide","haste1","unrelated","experimental","j","true","",""
"null","<p style=""font-size: 50px;"">+</p>","null","html-keyboard-response","260","2.1.0","1259312","J=YES, F=NO","d8vlb1l3yx","2","83","85","80","","","","","","","","","","","","","","","",""
"null","audio/beep-329314.mp3","null","audio-keyboard-response","261","2.1.0","1260843","J=YES, F=NO","d8vlb1l3yx","2","83","85","80","","","","","","","","","","","","","","","",""
"null","audio/baby.wav","null","audio-keyboard-response","262","2.1.0","1261613","J=YES, F=NO","d8vlb1l3yx","2","83","85","80","","","","","","","","","","","","","","","",""
"433","
          <p id=""word"" style=""font-size: 40px;"">lift</p>
          <p style=""font-size: 16px;"">J = YES &nbsp;&nbsp;&nbsp; F = NO</p>
        ","j","html-keyboard-response","263","2.1.0","1262048","J=YES, F=NO","d8vlb1l3yx","2","83","85","80","","","","","","","","","lift","baby","filler","filler","j","true","",""
"null","<p style=""font-size: 50px;"">+</p>","null","html-keyboard-response","264","2.1.0","1262351","J=YES, F=NO","d8vlb1l3yx","2","83","85","80","","","","","","","","","","","","","","","",""
"null","audio/beep-329314.mp3","null","audio-keyboard-response","265","2.1.0","1263884","J=YES, F=NO","d8vlb1l3yx","2","83","85","80","","","","","","","","","","","","","","","",""
"null","audio/ground.wav","null","audio-keyboard-response","266","2.1.0","1264773","J=YES, F=NO","d8vlb1l3yx","2","83","85","80","","","","","","","","","","","","","","","",""
"460","
          <p id=""word"" style=""font-size: 40px;"">touch</p>
          <p style=""font-size: 16px;"">J = YES &nbsp;&nbsp;&nbsp; F = NO</p>
        ","j","html-keyboard-response","267","2.1.0","1265234","J=YES, F=NO","d8vlb1l3yx","2","83","85","80","","","","","","","","","touch","ground","literal","experimental","j","true","",""
"null","<p style=""font-size: 50px;"">+</p>","null","html-keyboard-response","268","2.1.0","1265546","J=YES, F=NO","d8vlb1l3yx","2","83","85","80","","","","","","","","","","","","","","","",""
"null","audio/beep-329314.mp3","null","audio-keyboard-response","269","2.1.0","1267084","J=YES, F=NO","d8vlb1l3yx","2","83","85","80","","","","","","","","","","","","","","","",""
"null","audio/mind.wav","null","audio-keyboard-response","270","2.1.0","1268053","J=YES, F=NO","d8vlb1l3yx","2","83","85","80","","","","","","","","","","","","","","","",""
"600","
          <p id=""word"" style=""font-size: 40px;"">crainate</p>
          <p style=""font-size: 16px;"">J = YES &nbsp;&nbsp;&nbsp; F = NO</p>
        ","f","html-keyboard-response","271","2.1.0","1268655","J=YES, F=NO","d8vlb1l3yx","2","83","85","80","","","","","","","","","crainate","mind","pseudoword","pseudoword","f","true","",""
"null","<p style=""font-size: 50px;"">+</p>","null","html-keyboard-response","272","2.1.0","1268961","J=YES, F=NO","d8vlb1l3yx","2","83","85","80","","","","","","","","","","","","","","","",""
"null","audio/beep-329314.mp3","null","audio-keyboard-response","273","2.1.0","1270504","J=YES, F=NO","d8vlb1l3yx","2","83","85","80","","","","","","","","","","","","","","","",""
"null","audio/corpse1.wav","null","audio-keyboard-response","274","2.1.0","1271393","J=YES, F=NO","d8vlb1l3yx","2","83","85","80","","","","","","","","","","","","","","","",""
"508","
          <p id=""word"" style=""font-size: 40px;"">glonet</p>
          <p style=""font-size: 16px;"">J = YES &nbsp;&nbsp;&nbsp; F = NO</p>
        ","j","html-keyboard-response","275","2.1.0","1271903","J=YES, F=NO","d8vlb1l3yx","2","83","85","80","","","","","","","","","glonet","corpse1","pseudoword","pseudoword","f","false","",""
"null","<p style=""font-size: 50px;"">+</p>","null","html-keyboard-response","276","2.1.0","1272221","J=YES, F=NO","d8vlb1l3yx","2","83","85","80","","","","","","","","","","","","","","","",""
"null","audio/beep-329314.mp3","null","audio-keyboard-response","277","2.1.0","1273764","J=YES, F=NO","d8vlb1l3yx","2","83","85","80","","","","","","","","","","","","","","","",""
"null","audio/bottle.wav","null","audio-keyboard-response","278","2.1.0","1274493","J=YES, F=NO","d8vlb1l3yx","2","83","85","80","","","","","","","","","","","","","","","",""
"423","
          <p id=""word"" style=""font-size: 40px;"">watch</p>
          <p style=""font-size: 16px;"">J = YES &nbsp;&nbsp;&nbsp; F = NO</p>
        ","j","html-keyboard-response","279","2.1.0","1274917","J=YES, F=NO","d8vlb1l3yx","2","83","85","80","","","","","","","","","watch","bottle","filler","filler","j","true","",""
"null","<p style=""font-size: 50px;"">+</p>","null","html-keyboard-response","280","2.1.0","1275226","J=YES, F=NO","d8vlb1l3yx","2","83","85","80","","","","","","","","","","","","","","","",""
"null","audio/beep-329314.mp3","null","audio-keyboard-response","281","2.1.0","1276764","J=YES, F=NO","d8vlb1l3yx","2","83","85","80","","","","","","","","","","","","","","","",""
"null","audio/client1.wav","null","audio-keyboard-response","282","2.1.0","1277713","J=YES, F=NO","d8vlb1l3yx","2","83","85","80","","","","","","","","","","","","","","","",""
"681","
          <p id=""word"" style=""font-size: 40px;"">droothe</p>
          <p style=""font-size: 16px;"">J = YES &nbsp;&nbsp;&nbsp; F = NO</p>
        ","f","html-keyboard-response","283","2.1.0","1278395","J=YES, F=NO","d8vlb1l3yx","2","83","85","80","","","","","","","","","droothe","client1","pseudoword","pseudoword","f","true","",""
"null","<p style=""font-size: 50px;"">+</p>","null","html-keyboard-response","284","2.1.0","1278703","J=YES, F=NO","d8vlb1l3yx","2","83","85","80","","","","","","","","","","","","","","","",""
"null","audio/beep-329314.mp3","null","audio-keyboard-response","285","2.1.0","1280244","J=YES, F=NO","d8vlb1l3yx","2","83","85","80","","","","","","","","","","","","","","","",""
"null","audio/empire.wav","null","audio-keyboard-response","286","2.1.0","1280853","J=YES, F=NO","d8vlb1l3yx","2","83","85","80","","","","","","","","","","","","","","","",""
"773","
          <p id=""word"" style=""font-size: 40px;"">slorby</p>
          <p style=""font-size: 16px;"">J = YES &nbsp;&nbsp;&nbsp; F = NO</p>
        ","f","html-keyboard-response","287","2.1.0","1281628","J=YES, F=NO","d8vlb1l3yx","2","83","85","80","","","","","","","","","slorby","empire","pseudoword","pseudoword","f","true","",""
"null","<p style=""font-size: 50px;"">+</p>","null","html-keyboard-response","288","2.1.0","1281931","J=YES, F=NO","d8vlb1l3yx","2","83","85","80","","","","","","","","","","","","","","","",""
"null","audio/beep-329314.mp3","null","audio-keyboard-response","289","2.1.0","1283463","J=YES, F=NO","d8vlb1l3yx","2","83","85","80","","","","","","","","","","","","","","","",""
"null","audio/revenue1.wav","null","audio-keyboard-response","290","2.1.0","1284413","J=YES, F=NO","d8vlb1l3yx","2","83","85","80","","","","","","","","","","","","","","","",""
"416","
          <p id=""word"" style=""font-size: 40px;"">grow</p>
          <p style=""font-size: 16px;"">J = YES &nbsp;&nbsp;&nbsp; F = NO</p>
        ","j","html-keyboard-response","291","2.1.0","1284831","J=YES, F=NO","d8vlb1l3yx","2","83","85","80","","","","","","","","","grow","revenue1","metaphor","experimental","j","true","",""
"null","<p style=""font-size: 50px;"">+</p>","null","html-keyboard-response","292","2.1.0","1285137","J=YES, F=NO","d8vlb1l3yx","2","83","85","80","","","","","","","","","","","","","","","",""
"null","audio/beep-329314.mp3","null","audio-keyboard-response","293","2.1.0","1286664","J=YES, F=NO","d8vlb1l3yx","2","83","85","80","","","","","","","","","","","","","","","",""
"null","audio/ego.wav","null","audio-keyboard-response","294","2.1.0","1287493","J=YES, F=NO","d8vlb1l3yx","2","83","85","80","","","","","","","","","","","","","","","",""
"721","
          <p id=""word"" style=""font-size: 40px;"">bruite</p>
          <p style=""font-size: 16px;"">J = YES &nbsp;&nbsp;&nbsp; F = NO</p>
        ","f","html-keyboard-response","295","2.1.0","1288215","J=YES, F=NO","d8vlb1l3yx","2","83","85","80","","","","","","","","","bruite","ego","pseudoword","pseudoword","f","true","",""
"9689","<p>Excellent! You have finished block 2 of 8.</p>
                     <p>Feel free to take a 30 second break.</p>
                     <p>Press any key when you're ready to continue.</p>","j","html-keyboard-response","296","2.1.0","1297906","J=YES, F=NO","d8vlb1l3yx","2","83","85","80","","","","","","","","","","","","","","","",""
"1272","<p>Starting main block 3 of 8. Press any key to continue.</p>","j","html-keyboard-response","297","2.1.0","1299179","J=YES, F=NO","d8vlb1l3yx","2","83","85","80","","","","","","","","","","","","","","","",""
"null","<p style=""font-size: 50px;"">+</p>","null","html-keyboard-response","298","2.1.0","1299493","J=YES, F=NO","d8vlb1l3yx","2","83","85","80","","","","","","","","","","","","","","","",""
"null","audio/beep-329314.mp3","null","audio-keyboard-response","299","2.1.0","1301000","J=YES, F=NO","d8vlb1l3yx","2","83","85","80","","","","","","","","","","","","","","","",""
"null","audio/train.wav","null","audio-keyboard-response","300","2.1.0","1301699","J=YES, F=NO","d8vlb1l3yx","2","83","85","80","","","","","","","","","","","","","","","",""
"515","
          <p id=""word"" style=""font-size: 40px;"">catch</p>
          <p style=""font-size: 16px;"">J = YES &nbsp;&nbsp;&nbsp; F = NO</p>
        ","j","html-keyboard-response","301","2.1.0","1302216","J=YES, F=NO","d8vlb1l3yx","2","83","85","80","","","","","","","","","catch","train","metaphor","experimental","j","true","",""
"null","<p style=""font-size: 50px;"">+</p>","null","html-keyboard-response","302","2.1.0","1302518","J=YES, F=NO","d8vlb1l3yx","2","83","85","80","","","","","","","","","","","","","","","",""
"null","audio/beep-329314.mp3","null","audio-keyboard-response","303","2.1.0","1304059","J=YES, F=NO","d8vlb1l3yx","2","83","85","80","","","","","","","","","","","","","","","",""
"null","audio/radio1.wav","null","audio-keyboard-response","304","2.1.0","1304839","J=YES, F=NO","d8vlb1l3yx","2","83","85","80","","","","","","","","","","","","","","","",""
"943","
          <p id=""word"" style=""font-size: 40px;"">blanter</p>
          <p style=""font-size: 16px;"">J = YES &nbsp;&nbsp;&nbsp; F = NO</p>
        ","f","html-keyboard-response","305","2.1.0","1305783","J=YES, F=NO","d8vlb1l3yx","2","83","85","80","","","","","","","","","blanter","radio1","pseudoword","pseudoword","f","true","",""
"null","<p style=""font-size: 50px;"">+</p>","null","html-keyboard-response","306","2.1.0","1306107","J=YES, F=NO","d8vlb1l3yx","2","83","85","80","","","","","","","","","","","","","","","",""
"null","audio/beep-329314.mp3","null","audio-keyboard-response","307","2.1.0","1307639","J=YES, F=NO","d8vlb1l3yx","2","83","85","80","","","","","","","","","","","","","","","",""
"null","audio/life1.wav","null","audio-keyboard-response","308","2.1.0","1308200","J=YES, F=NO","d8vlb1l3yx","2","83","85","80","","","","","","","","","","","","","","","",""
"688","
          <p id=""word"" style=""font-size: 40px;"">give</p>
          <p style=""font-size: 16px;"">J = YES &nbsp;&nbsp;&nbsp; F = NO</p>
        ","j","html-keyboard-response","309","2.1.0","1308889","J=YES, F=NO","d8vlb1l3yx","2","83","85","80","","","","","","","","","give","life1","metaphor","experimental","j","true","",""
"null","<p style=""font-size: 50px;"">+</p>","null","html-keyboard-response","310","2.1.0","1309203","J=YES, F=NO","d8vlb1l3yx","2","83","85","80","","","","","","","","","","","","","","","",""
"null","audio/beep-329314.mp3","null","audio-keyboard-response","311","2.1.0","1310740","J=YES, F=NO","d8vlb1l3yx","2","83","85","80","","","","","","","","","","","","","","","",""
"null","audio/radio1.wav","null","audio-keyboard-response","312","2.1.0","1311319","J=YES, F=NO","d8vlb1l3yx","2","83","85","80","","","","","","","","","","","","","","","",""
"533","
          <p id=""word"" style=""font-size: 40px;"">spend</p>
          <p style=""font-size: 16px;"">J = YES &nbsp;&nbsp;&nbsp; F = NO</p>
        ","j","html-keyboard-response","313","2.1.0","1311854","J=YES, F=NO","d8vlb1l3yx","2","83","85","80","","","","","","","","","spend","radio1","unrelated","experimental","j","true","",""
"null","<p style=""font-size: 50px;"">+</p>","null","html-keyboard-response","314","2.1.0","1312157","J=YES, F=NO","d8vlb1l3yx","2","83","85","80","","","","","","","","","","","","","","","",""
"null","audio/beep-329314.mp3","null","audio-keyboard-response","315","2.1.0","1313699","J=YES, F=NO","d8vlb1l3yx","2","83","85","80","","","","","","","","","","","","","","","",""
"null","audio/heart1.wav","null","audio-keyboard-response","316","2.1.0","1314719","J=YES, F=NO","d8vlb1l3yx","2","83","85","80","","","","","","","","","","","","","","","",""
"551","
          <p id=""word"" style=""font-size: 40px;"">dralm</p>
          <p style=""font-size: 16px;"">J = YES &nbsp;&nbsp;&nbsp; F = NO</p>
        ","f","html-keyboard-response","317","2.1.0","1315272","J=YES, F=NO","d8vlb1l3yx","2","83","85","80","","","","","","","","","dralm","heart1","pseudoword","pseudoword","f","true","",""
"null","<p style=""font-size: 50px;"">+</p>","null","html-keyboard-response","318","2.1.0","1315589","J=YES, F=NO","d8vlb1l3yx","2","83","85","80","","","","","","","","","","","","","","","",""
"null","audio/beep-329314.mp3","null","audio-keyboard-response","319","2.1.0","1317120","J=YES, F=NO","d8vlb1l3yx","2","83","85","80","","","","","","","","","","","","","","","",""
"null","audio/flaw.wav","null","audio-keyboard-response","320","2.1.0","1318099","J=YES, F=NO","d8vlb1l3yx","2","83","85","80","","","","","","","","","","","","","","","",""
"743","
          <p id=""word"" style=""font-size: 40px;"">thwool</p>
          <p style=""font-size: 16px;"">J = YES &nbsp;&nbsp;&nbsp; F = NO</p>
        ","f","html-keyboard-response","321","2.1.0","1318843","J=YES, F=NO","d8vlb1l3yx","2","83","85","80","","","","","","","","","thwool","flaw","pseudoword","pseudoword","f","true","",""
"null","<p style=""font-size: 50px;"">+</p>","null","html-keyboard-response","322","2.1.0","1319147","J=YES, F=NO","d8vlb1l3yx","2","83","85","80","","","","","","","","","","","","","","","",""
"null","audio/beep-329314.mp3","null","audio-keyboard-response","323","2.1.0","1320679","J=YES, F=NO","d8vlb1l3yx","2","83","85","80","","","","","","","","","","","","","","","",""
"null","audio/bush1.wav","null","audio-keyboard-response","324","2.1.0","1321519","J=YES, F=NO","d8vlb1l3yx","2","83","85","80","","","","","","","","","","","","","","","",""
"503","
          <p id=""word"" style=""font-size: 40px;"">platined</p>
          <p style=""font-size: 16px;"">J = YES &nbsp;&nbsp;&nbsp; F = NO</p>
        ","j","html-keyboard-response","325","2.1.0","1322023","J=YES, F=NO","d8vlb1l3yx","2","83","85","80","","","","","","","","","platined","bush1","pseudoword","pseudoword","f","false","",""
"null","<p style=""font-size: 50px;"">+</p>","null","html-keyboard-response","326","2.1.0","1322335","J=YES, F=NO","d8vlb1l3yx","2","83","85","80","","","","","","","","","","","","","","","",""
"null","audio/beep-329314.mp3","null","audio-keyboard-response","327","2.1.0","1323859","J=YES, F=NO","d8vlb1l3yx","2","83","85","80","","","","","","","","","","","","","","","",""
"null","audio/table1.wav","null","audio-keyboard-response","328","2.1.0","1324619","J=YES, F=NO","d8vlb1l3yx","2","83","85","80","","","","","","","","","","","","","","","",""
"442","
          <p id=""word"" style=""font-size: 40px;"">stimb</p>
          <p style=""font-size: 16px;"">J = YES &nbsp;&nbsp;&nbsp; F = NO</p>
        ","j","html-keyboard-response","329","2.1.0","1325062","J=YES, F=NO","d8vlb1l3yx","2","83","85","80","","","","","","","","","stimb","table1","pseudoword","pseudoword","f","false","",""
"null","<p style=""font-size: 50px;"">+</p>","null","html-keyboard-response","330","2.1.0","1325371","J=YES, F=NO","d8vlb1l3yx","2","83","85","80","","","","","","","","","","","","","","","",""
"null","audio/beep-329314.mp3","null","audio-keyboard-response","331","2.1.0","1326899","J=YES, F=NO","d8vlb1l3yx","2","83","85","80","","","","","","","","","","","","","","","",""
"null","audio/butter1.wav","null","audio-keyboard-response","332","2.1.0","1327659","J=YES, F=NO","d8vlb1l3yx","2","83","85","80","","","","","","","","","","","","","","","",""
"757","
          <p id=""word"" style=""font-size: 40px;"">chew</p>
          <p style=""font-size: 16px;"">J = YES &nbsp;&nbsp;&nbsp; F = NO</p>
        ","j","html-keyboard-response","333","2.1.0","1328418","J=YES, F=NO","d8vlb1l3yx","2","83","85","80","","","","","","","","","chew","butter1","filler","filler","j","true","",""
"null","<p style=""font-size: 50px;"">+</p>","null","html-keyboard-response","334","2.1.0","1328726","J=YES, F=NO","d8vlb1l3yx","2","83","85","80","","","","","","","","","","","","","","","",""
"null","audio/beep-329314.mp3","null","audio-keyboard-response","335","2.1.0","1330259","J=YES, F=NO","d8vlb1l3yx","2","83","85","80","","","","","","","","","","","","","","","",""
"null","audio/noise1.wav","null","audio-keyboard-response","336","2.1.0","1330859","J=YES, F=NO","d8vlb1l3yx","2","83","85","80","","","","","","","","","","","","","","","",""
"739","
          <p id=""word"" style=""font-size: 40px;"">slintered</p>
          <p style=""font-size: 16px;"">J = YES &nbsp;&nbsp;&nbsp; F = NO</p>
        ","f","html-keyboard-response","337","2.1.0","1331599","J=YES, F=NO","d8vlb1l3yx","2","83","85","80","","","","","","","","","slintered","noise1","pseudoword","pseudoword","f","true","",""
"null","<p style=""font-size: 50px;"">+</p>","null","html-keyboard-response","338","2.1.0","1331901","J=YES, F=NO","d8vlb1l3yx","2","83","85","80","","","","","","","","","","","","","","","",""
"null","audio/beep-329314.mp3","null","audio-keyboard-response","339","2.1.0","1333439","J=YES, F=NO","d8vlb1l3yx","2","83","85","80","","","","","","","","","","","","","","","",""
"null","audio/mile1.wav","null","audio-keyboard-response","340","2.1.0","1334099","J=YES, F=NO","d8vlb1l3yx","2","83","85","80","","","","","","","","","","","","","","","",""
"521","
          <p id=""word"" style=""font-size: 40px;"">writch</p>
          <p style=""font-size: 16px;"">J = YES &nbsp;&nbsp;&nbsp; F = NO</p>
        ","j","html-keyboard-response","341","2.1.0","1334621","J=YES, F=NO","d8vlb1l3yx","2","83","85","80","","","","","","","","","writch","mile1","pseudoword","pseudoword","f","false","",""
"null","<p style=""font-size: 50px;"">+</p>","null","html-keyboard-response","342","2.1.0","1334932","J=YES, F=NO","d8vlb1l3yx","2","83","85","80","","","","","","","","","","","","","","","",""
"null","audio/beep-329314.mp3","null","audio-keyboard-response","343","2.1.0","1336459","J=YES, F=NO","d8vlb1l3yx","2","83","85","80","","","","","","","","","","","","","","","",""
"null","audio/burden.wav","null","audio-keyboard-response","344","2.1.0","1337239","J=YES, F=NO","d8vlb1l3yx","2","83","85","80","","","","","","","","","","","","","","","",""
"458","
          <p id=""word"" style=""font-size: 40px;"">carry</p>
          <p style=""font-size: 16px;"">J = YES &nbsp;&nbsp;&nbsp; F = NO</p>
        ","j","html-keyboard-response","345","2.1.0","1337699","J=YES, F=NO","d8vlb1l3yx","2","83","85","80","","","","","","","","","carry","burden","metaphor","experimental","j","true","",""
"null","<p style=""font-size: 50px;"">+</p>","null","html-keyboard-response","346","2.1.0","1338007","J=YES, F=NO","d8vlb1l3yx","2","83","85","80","","","","","","","","","","","","","","","",""
"null","audio/beep-329314.mp3","null","audio-keyboard-response","347","2.1.0","1339539","J=YES, F=NO","d8vlb1l3yx","2","83","85","80","","","","","","","","","","","","","","","",""
"null","audio/hawk1.wav","null","audio-keyboard-response","348","2.1.0","1340119","J=YES, F=NO","d8vlb1l3yx","2","83","85","80","","","","","","","","","","","","","","","",""
"407","
          <p id=""word"" style=""font-size: 40px;"">wipe</p>
          <p style=""font-size: 16px;"">J = YES &nbsp;&nbsp;&nbsp; F = NO</p>
        ","j","html-keyboard-response","349","2.1.0","1340527","J=YES, F=NO","d8vlb1l3yx","2","83","85","80","","","","","","","","","wipe","hawk1","unrelated","experimental","j","true","",""
"null","<p style=""font-size: 50px;"">+</p>","null","html-keyboard-response","350","2.1.0","1340838","J=YES, F=NO","d8vlb1l3yx","2","83","85","80","","","","","","","","","","","","","","","",""
"null","audio/beep-329314.mp3","null","audio-keyboard-response","351","2.1.0","1342379","J=YES, F=NO","d8vlb1l3yx","2","83","85","80","","","","","","","","","","","","","","","",""
"null","audio/roof1.wav","null","audio-keyboard-response","352","2.1.0","1343279","J=YES, F=NO","d8vlb1l3yx","2","83","85","80","","","","","","","","","","","","","","","",""
"640","
          <p id=""word"" style=""font-size: 40px;"">construct</p>
          <p style=""font-size: 16px;"">J = YES &nbsp;&nbsp;&nbsp; F = NO</p>
        ","j","html-keyboard-response","353","2.1.0","1343921","J=YES, F=NO","d8vlb1l3yx","2","83","85","80","","","","","","","","","construct","roof1","literal","experimental","j","true","",""
"null","<p style=""font-size: 50px;"">+</p>","null","html-keyboard-response","354","2.1.0","1344227","J=YES, F=NO","d8vlb1l3yx","2","83","85","80","","","","","","","","","","","","","","","",""
"null","audio/beep-329314.mp3","null","audio-keyboard-response","355","2.1.0","1345760","J=YES, F=NO","d8vlb1l3yx","2","83","85","80","","","","","","","","","","","","","","","",""
"null","audio/floor.wav","null","audio-keyboard-response","356","2.1.0","1346879","J=YES, F=NO","d8vlb1l3yx","2","83","85","80","","","","","","","","","","","","","","","",""
"428","
          <p id=""word"" style=""font-size: 40px;"">mop</p>
          <p style=""font-size: 16px;"">J = YES &nbsp;&nbsp;&nbsp; F = NO</p>
        ","j","html-keyboard-response","357","2.1.0","1347308","J=YES, F=NO","d8vlb1l3yx","2","83","85","80","","","","","","","","","mop","floor","filler","filler","j","true","",""
"null","<p style=""font-size: 50px;"">+</p>","null","html-keyboard-response","358","2.1.0","1347617","J=YES, F=NO","d8vlb1l3yx","2","83","85","80","","","","","","","","","","","","","","","",""
"null","audio/beep-329314.mp3","null","audio-keyboard-response","359","2.1.0","1349159","J=YES, F=NO","d8vlb1l3yx","2","83","85","80","","","","","","","","","","","","","","","",""
"null","audio/gossip1.wav","null","audio-keyboard-response","360","2.1.0","1349999","J=YES, F=NO","d8vlb1l3yx","2","83","85","80","","","","","","","","","","","","","","","",""
"874","
          <p id=""word"" style=""font-size: 40px;"">wrestle</p>
          <p style=""font-size: 16px;"">J = YES &nbsp;&nbsp;&nbsp; F = NO</p>
        ","j","html-keyboard-response","361","2.1.0","1350874","J=YES, F=NO","d8vlb1l3yx","2","83","85","80","","","","","","","","","wrestle","gossip1","unrelated","experimental","j","true","",""
"2312","<p>Excellent! You have finished block 3 of 8.</p>
                     <p>Feel free to take a 30 second break.</p>
                     <p>Press any key when you're ready to continue.</p>"," ","html-keyboard-response","362","2.1.0","1353188","J=YES, F=NO","d8vlb1l3yx","2","83","85","80","","","","","","","","","","","","","","","",""
"1142","<p>Starting main block 4 of 8. Press any key to continue.</p>"," ","html-keyboard-response","363","2.1.0","1354330","J=YES, F=NO","d8vlb1l3yx","2","83","85","80","","","","","","","","","","","","","","","",""
"null","<p style=""font-size: 50px;"">+</p>","null","html-keyboard-response","364","2.1.0","1354638","J=YES, F=NO","d8vlb1l3yx","2","83","85","80","","","","","","","","","","","","","","","",""
"null","audio/beep-329314.mp3","null","audio-keyboard-response","365","2.1.0","1356179","J=YES, F=NO","d8vlb1l3yx","2","83","85","80","","","","","","","","","","","","","","","",""
"null","audio/show.wav","null","audio-keyboard-response","366","2.1.0","1357239","J=YES, F=NO","d8vlb1l3yx","2","83","85","80","","","","","","","","","","","","","","","",""
"561","
          <p id=""word"" style=""font-size: 40px;"">smark</p>
          <p style=""font-size: 16px;"">J = YES &nbsp;&nbsp;&nbsp; F = NO</p>
        ","j","html-keyboard-response","367","2.1.0","1357802","J=YES, F=NO","d8vlb1l3yx","2","83","85","80","","","","","","","","","smark","show","pseudoword","pseudoword","f","false","",""
"null","<p style=""font-size: 50px;"">+</p>","null","html-keyboard-response","368","2.1.0","1358103","J=YES, F=NO","d8vlb1l3yx","2","83","85","80","","","","","","","","","","","","","","","",""
"null","audio/beep-329314.mp3","null","audio-keyboard-response","369","2.1.0","1359640","J=YES, F=NO","d8vlb1l3yx","2","83","85","80","","","","","","","","","","","","","","","",""
"null","audio/weight1.wav","null","audio-keyboard-response","370","2.1.0","1360379","J=YES, F=NO","d8vlb1l3yx","2","83","85","80","","","","","","","","","","","","","","","",""
"538","
          <p id=""word"" style=""font-size: 40px;"">support</p>
          <p style=""font-size: 16px;"">J = YES &nbsp;&nbsp;&nbsp; F = NO</p>
        ","j","html-keyboard-response","371","2.1.0","1360919","J=YES, F=NO","d8vlb1l3yx","2","83","85","80","","","","","","","","","support","weight1","literal","experimental","j","true","",""
"null","<p style=""font-size: 50px;"">+</p>","null","html-keyboard-response","372","2.1.0","1361227","J=YES, F=NO","d8vlb1l3yx","2","83","85","80","","","","","","","","","","","","","","","",""
"null","audio/beep-329314.mp3","null","audio-keyboard-response","373","2.1.0","1362759","J=YES, F=NO","d8vlb1l3yx","2","83","85","80","","","","","","","","","","","","","","","",""
"null","audio/bomb1.wav","null","audio-keyboard-response","374","2.1.0","1363159","J=YES, F=NO","d8vlb1l3yx","2","83","85","80","","","","","","","","","","","","","","","",""
"501","
          <p id=""word"" style=""font-size: 40px;"">clean</p>
          <p style=""font-size: 16px;"">J = YES &nbsp;&nbsp;&nbsp; F = NO</p>
        ","j","html-keyboard-response","375","2.1.0","1363662","J=YES, F=NO","d8vlb1l3yx","2","83","85","80","","","","","","","","","clean","bomb1","filler","filler","j","true","",""
"null","<p style=""font-size: 50px;"">+</p>","null","html-keyboard-response","376","2.1.0","1363967","J=YES, F=NO","d8vlb1l3yx","2","83","85","80","","","","","","","","","","","","","","","",""
"null","audio/beep-329314.mp3","null","audio-keyboard-response","377","2.1.0","1365500","J=YES, F=NO","d8vlb1l3yx","2","83","85","80","","","","","","","","","","","","","","","",""
"null","audio/size1.wav","null","audio-keyboard-response","378","2.1.0","1366639","J=YES, F=NO","d8vlb1l3yx","2","83","85","80","","","","","","","","","","","","","","","",""
"550","
          <p id=""word"" style=""font-size: 40px;"">clear</p>
          <p style=""font-size: 16px;"">J = YES &nbsp;&nbsp;&nbsp; F = NO</p>
        ","j","html-keyboard-response","379","2.1.0","1367190","J=YES, F=NO","d8vlb1l3yx","2","83","85","80","","","","","","","","","clear","size1","unrelated","experimental","j","true","",""
"null","<p style=""font-size: 50px;"">+</p>","null","html-keyboard-response","380","2.1.0","1367507","J=YES, F=NO","d8vlb1l3yx","2","83","85","80","","","","","","","","","","","","","","","",""
"null","audio/beep-329314.mp3","null","audio-keyboard-response","381","2.1.0","1369039","J=YES, F=NO","d8vlb1l3yx","2","83","85","80","","","","","","","","","","","","","","","",""
"null","audio/road.wav","null","audio-keyboard-response","382","2.1.0","1369479","J=YES, F=NO","d8vlb1l3yx","2","83","85","80","","","","","","","","","","","","","","","",""
"766","
          <p id=""word"" style=""font-size: 40px;"">wappings</p>
          <p style=""font-size: 16px;"">J = YES &nbsp;&nbsp;&nbsp; F = NO</p>
        ","f","html-keyboard-response","383","2.1.0","1370246","J=YES, F=NO","d8vlb1l3yx","2","83","85","80","","","","","","","","","wappings","road","pseudoword","pseudoword","f","true","",""
"null","<p style=""font-size: 50px;"">+</p>","null","html-keyboard-response","384","2.1.0","1370556","J=YES, F=NO","d8vlb1l3yx","2","83","85","80","","","","","","","","","","","","","","","",""
"null","audio/beep-329314.mp3","null","audio-keyboard-response","385","2.1.0","1372080","J=YES, F=NO","d8vlb1l3yx","2","83","85","80","","","","","","","","","","","","","","","",""
"null","audio/cinema1.wav","null","audio-keyboard-response","386","2.1.0","1372959","J=YES, F=NO","d8vlb1l3yx","2","83","85","80","","","","","","","","","","","","","","","",""
"436","
          <p id=""word"" style=""font-size: 40px;"">murple</p>
          <p style=""font-size: 16px;"">J = YES &nbsp;&nbsp;&nbsp; F = NO</p>
        ","j","html-keyboard-response","387","2.1.0","1373397","J=YES, F=NO","d8vlb1l3yx","2","83","85","80","","","","","","","","","murple","cinema1","pseudoword","pseudoword","f","false","",""
"null","<p style=""font-size: 50px;"">+</p>","null","html-keyboard-response","388","2.1.0","1373700","J=YES, F=NO","d8vlb1l3yx","2","83","85","80","","","","","","","","","","","","","","","",""
"null","audio/beep-329314.mp3","null","audio-keyboard-response","389","2.1.0","1375239","J=YES, F=NO","d8vlb1l3yx","2","83","85","80","","","","","","","","","","","","","","","",""
"null","audio/foot1.wav","null","audio-keyboard-response","390","2.1.0","1375959","J=YES, F=NO","d8vlb1l3yx","2","83","85","80","","","","","","","","","","","","","","","",""
