"rt","stimulus","response","trial_type","trial_index","plugin_version","time_elapsed","response_mapping","subject_id","list_index","lextale_score","lextale_word_score","lextale_nonword_score","success","timeout","failed_images","failed_audio","failed_video","task","isWord","isDummy","target","prime","prime_type","stimulus_type","correct_response","correct","section","question_order"
"9817","
    <div style=""max-width: 800px; margin: auto; text-align: left;"">
      <h2>STANFORD UNIVERSITY</h2>
      <h3>Research Information Sheet</h3>
      <p><strong>Protocol Director:</strong> Robert Hawkins<br>
      <strong>Protocol Title:</strong> Communication and social cognition in natural audiovisual contexts<br>
      <strong>IRB#:</strong> 77226</p>

      <p><strong>DESCRIPTION:</strong> You are invited to participate in a research study about language and communication. The purpose of the research is to understand how you interact and communicate with other people in naturalistic settings as a fluent English speaker. This research will be conducted through the Prolific platform, including participants from the US, UK, and Canada. If you decide to participate in this research, you will play a communication game in a group with one or more partners.</p>

      <p><strong>TIME INVOLVEMENT:</strong> The task will last the amount of time advertised on Prolific. You are free to withdraw from the study at any time.</p>

      <p><strong>RISKS AND BENEFITS:</strong> You may become frustrated if your partner gets distracted, or experience discomfort if other participants in your group send text that is inappropriate for the task. We ask you to please be respectful of other participants you might be interacting with to mitigate these risks. You may also experience discomfort when being asked to discuss or challenge emotionally salient political beliefs. Study data will be stored securely, in compliance with Stanford University standards, minimizing the risk of confidentiality breach. This study advances our scientific understanding of how people communicate and collaborate in naturalistic settings. This study may lead to further insights about what can go wrong in teamwork, suggest potential interventions to overcome these barriers, and help to develop assistive technologies that collaborate with human partners. We cannot and do not guarantee or promise that you will receive any benefits from this study.</p>

      <p><strong>PAYMENTS:</strong> You will receive payment in the amount advertised on Prolific. If you do not complete this study, you will receive prorated payment based on the time that you have spent. Additionally, you may be eligible for bonus payments as described in the instructions.</p>

      <p><strong>PARTICIPANT’S RIGHTS:</strong> If you have read this form and have decided to participate in this project, please understand your participation is voluntary and you have the right to withdraw your consent or discontinue participation at any time without penalty or loss of benefits to which you are otherwise entitled. The alternative is not to participate. You have the right to refuse to answer particular questions. The results of this research study may be presented at scientific or professional meetings or published in scientific journals. Your individual privacy will be maintained in all published and written data resulting from the study. In accordance with scientific norms, the data from this study may be used or shared with other researchers for future research (after removing personally identifying information) without additional consent from you.</p>

      <p><strong>CONTACT INFORMATION:</strong><br>
      Questions: If you have any questions, concerns or complaints about this research, its procedures, risks and benefits, contact the Protocol Director, Robert Hawkins (<a href=""mailto:rdhawkins@stanford.edu"">rdhawkins@stanford.edu</a>, 217-549-6923).<br>
      Independent Contact: If you are not satisfied with how this study is being conducted, or if you have any concerns, complaints, or general questions about the research or your rights as a participant, please contact the Stanford Institutional Review Board (IRB) to speak to someone independent of the research team at 650-723-2480 or toll free at 1-866-680-2906, or email at <a href=""mailto:irbnon-med@stanford.edu"">irbnon-med@stanford.edu</a>. You can also write to the Stanford IRB, Stanford University, 1705 El Camino Real, Palo Alto, CA 94306.</p>

      <p><strong>Please save or print a copy of this page for your records.</strong></p>
      <p>If you agree to participate in this research, click ""Continue"" below.</p>
    </div>
  ","0","html-button-response","0","2.1.0","9828","J=YES, F=NO","dc4f9m06xa","1","69","78","60","","","","","","","","","","","","","","","",""
"11036","
    <div style=""max-width: 800px; margin: auto; text-align: left;"">
      <h2>Welcome!</h2>
      <p>Thank you for participating in this study. The experiment consists of three parts:</p>
      <ol>
        <li>An English vocabulary test</li>
        <li>A main task in which you will hear and see words, and decide whether the written word is a real English word</li>
        <li>A brief survey about your background</li>
      </ol>
      <p>Each part will be introduced before it begins.</p>
      <p>Please make sure you are in a quiet environment and can hear audio clearly for the final task.</p>
      <p style=""margin-top: 2em;"">Press any key to begin.</p>
    </div>
  "," ","html-keyboard-response","1","2.1.0","20867","J=YES, F=NO","dc4f9m06xa","1","69","78","60","","","","","","","","","","","","","","","",""
"","","","preload","2","2.1.0","23569","J=YES, F=NO","dc4f9m06xa","1","69","78","60","true","false","[]","[]","[]","","","","","","","","","","",""
"4985","
    <div style=""max-width: 800px; margin: auto; text-align: left;"">
      <h2>Part 1: Vocabulary Test</h2>
      <p>You will now complete the first part of the study: a short English vocabulary test.</p>
      <p>This test is called <strong>LexTALE</strong> and helps us get a general sense of your English proficiency.</p>
      <p style=""margin-top: 2em;"">Press any key to continue.</p>
    </div>
  "," ","html-keyboard-response","3","2.1.0","28557","J=YES, F=NO","dc4f9m06xa","1","69","78","60","","","","","","","","","","","","","","","",""
"4250","
    <div style=""max-width: 800px; margin: auto; text-align: left;"">
      <h2>LexTALE Vocabulary Test</h2>
      <p>In this test, you will see a series of letter strings—one at a time.</p>
      <p>Your task is to decide whether each string is a real English word.</p>
      <p><strong>Key responses:</strong></p>
      <ul>
        <li><strong>J</strong> = YES (real English word)</li>
        <li><strong>F</strong> = NO (not a real English word)</li>
      </ul>
      <p>There is no time limit, but please try to be accurate.</p>
      <p style=""margin-top: 2em;"">Press any key to begin.</p>
    </div>
  ","Control","html-keyboard-response","4","2.1.0","32809","J=YES, F=NO","dc4f9m06xa","1","69","78","60","","","","","","","","","","","","","","","",""
"2271","
  <p style=""font-size: 40px;"">platery</p>
  <p style=""font-size: 16px;"">J = YES &nbsp;&nbsp;&nbsp; F = NO</p>
","j","html-keyboard-response","5","2.1.0","35081","J=YES, F=NO","dc4f9m06xa","1","69","78","60","","","","","","lextale","false","true","","","","","","","",""
"1450","
  <p style=""font-size: 40px;"">denial</p>
  <p style=""font-size: 16px;"">J = YES &nbsp;&nbsp;&nbsp; F = NO</p>
","j","html-keyboard-response","6","2.1.0","36533","J=YES, F=NO","dc4f9m06xa","1","69","78","60","","","","","","lextale","true","true","","","","","","","",""
"1302","
  <p style=""font-size: 40px;"">marrit</p>
  <p style=""font-size: 16px;"">J = YES &nbsp;&nbsp;&nbsp; F = NO</p>
","f","html-keyboard-response","7","2.1.0","37836","J=YES, F=NO","dc4f9m06xa","1","69","78","60","","","","","","lextale","false","true","","","","","","","",""
"661","
  <p style=""font-size: 40px;"">bottle</p>
  <p style=""font-size: 16px;"">J = YES &nbsp;&nbsp;&nbsp; F = NO</p>
","j","html-keyboard-response","8","2.1.0","38500","J=YES, F=NO","dc4f9m06xa","1","69","78","60","","","","","","lextale","true","false","","","","","","","",""
"1917","
  <p style=""font-size: 40px;"">birst</p>
  <p style=""font-size: 16px;"">J = YES &nbsp;&nbsp;&nbsp; F = NO</p>
","j","html-keyboard-response","9","2.1.0","40420","J=YES, F=NO","dc4f9m06xa","1","69","78","60","","","","","","lextale","false","false","","","","","","","",""
"715","
  <p style=""font-size: 40px;"">envy</p>
  <p style=""font-size: 16px;"">J = YES &nbsp;&nbsp;&nbsp; F = NO</p>
","j","html-keyboard-response","10","2.1.0","41137","J=YES, F=NO","dc4f9m06xa","1","69","78","60","","","","","","lextale","true","false","","","","","","","",""
"898","
  <p style=""font-size: 40px;"">brang</p>
  <p style=""font-size: 16px;"">J = YES &nbsp;&nbsp;&nbsp; F = NO</p>
","f","html-keyboard-response","11","2.1.0","42035","J=YES, F=NO","dc4f9m06xa","1","69","78","60","","","","","","lextale","false","false","","","","","","","",""
"639","
  <p style=""font-size: 40px;"">huge</p>
  <p style=""font-size: 16px;"">J = YES &nbsp;&nbsp;&nbsp; F = NO</p>
","j","html-keyboard-response","12","2.1.0","42676","J=YES, F=NO","dc4f9m06xa","1","69","78","60","","","","","","lextale","true","false","","","","","","","",""
"836","
  <p style=""font-size: 40px;"">plove</p>
  <p style=""font-size: 16px;"">J = YES &nbsp;&nbsp;&nbsp; F = NO</p>
","f","html-keyboard-response","13","2.1.0","43514","J=YES, F=NO","dc4f9m06xa","1","69","78","60","","","","","","lextale","false","false","","","","","","","",""
"729","
  <p style=""font-size: 40px;"">border</p>
  <p style=""font-size: 16px;"">J = YES &nbsp;&nbsp;&nbsp; F = NO</p>
","j","html-keyboard-response","14","2.1.0","44243","J=YES, F=NO","dc4f9m06xa","1","69","78","60","","","","","","lextale","true","false","","","","","","","",""
"3965","
  <p style=""font-size: 40px;"">flimsy</p>
  <p style=""font-size: 16px;"">J = YES &nbsp;&nbsp;&nbsp; F = NO</p>
","f","html-keyboard-response","15","2.1.0","48211","J=YES, F=NO","dc4f9m06xa","1","69","78","60","","","","","","lextale","true","false","","","","","","","",""
"1293","
  <p style=""font-size: 40px;"">drain</p>
  <p style=""font-size: 16px;"">J = YES &nbsp;&nbsp;&nbsp; F = NO</p>
","j","html-keyboard-response","16","2.1.0","49505","J=YES, F=NO","dc4f9m06xa","1","69","78","60","","","","","","lextale","true","false","","","","","","","",""
"2601","
  <p style=""font-size: 40px;"">twindle</p>
  <p style=""font-size: 16px;"">J = YES &nbsp;&nbsp;&nbsp; F = NO</p>
","j","html-keyboard-response","17","2.1.0","52108","J=YES, F=NO","dc4f9m06xa","1","69","78","60","","","","","","lextale","false","false","","","","","","","",""
"580","
  <p style=""font-size: 40px;"">propose</p>
  <p style=""font-size: 16px;"">J = YES &nbsp;&nbsp;&nbsp; F = NO</p>
","j","html-keyboard-response","18","2.1.0","52690","J=YES, F=NO","dc4f9m06xa","1","69","78","60","","","","","","lextale","true","false","","","","","","","",""
"809","
  <p style=""font-size: 40px;"">forlay</p>
  <p style=""font-size: 16px;"">J = YES &nbsp;&nbsp;&nbsp; F = NO</p>
","f","html-keyboard-response","19","2.1.0","53500","J=YES, F=NO","dc4f9m06xa","1","69","78","60","","","","","","lextale","false","false","","","","","","","",""
"1005","
  <p style=""font-size: 40px;"">tenant</p>
  <p style=""font-size: 16px;"">J = YES &nbsp;&nbsp;&nbsp; F = NO</p>
","j","html-keyboard-response","20","2.1.0","54505","J=YES, F=NO","dc4f9m06xa","1","69","78","60","","","","","","lextale","true","false","","","","","","","",""
"874","
  <p style=""font-size: 40px;"">strain</p>
  <p style=""font-size: 16px;"">J = YES &nbsp;&nbsp;&nbsp; F = NO</p>
","j","html-keyboard-response","21","2.1.0","55381","J=YES, F=NO","dc4f9m06xa","1","69","78","60","","","","","","lextale","true","false","","","","","","","",""
"980","
  <p style=""font-size: 40px;"">holster</p>
  <p style=""font-size: 16px;"">J = YES &nbsp;&nbsp;&nbsp; F = NO</p>
","j","html-keyboard-response","22","2.1.0","56362","J=YES, F=NO","dc4f9m06xa","1","69","78","60","","","","","","lextale","true","false","","","","","","","",""
"1075","
  <p style=""font-size: 40px;"">hinder</p>
  <p style=""font-size: 16px;"">J = YES &nbsp;&nbsp;&nbsp; F = NO</p>
","f","html-keyboard-response","23","2.1.0","57437","J=YES, F=NO","dc4f9m06xa","1","69","78","60","","","","","","lextale","true","false","","","","","","","",""
"973","
  <p style=""font-size: 40px;"">swindle</p>
  <p style=""font-size: 16px;"">J = YES &nbsp;&nbsp;&nbsp; F = NO</p>
","j","html-keyboard-response","24","2.1.0","58412","J=YES, F=NO","dc4f9m06xa","1","69","78","60","","","","","","lextale","true","false","","","","","","","",""
"1268","
  <p style=""font-size: 40px;"">nuder</p>
  <p style=""font-size: 16px;"">J = YES &nbsp;&nbsp;&nbsp; F = NO</p>
","f","html-keyboard-response","25","2.1.0","59681","J=YES, F=NO","dc4f9m06xa","1","69","78","60","","","","","","lextale","false","false","","","","","","","",""
"643","
  <p style=""font-size: 40px;"">pillow</p>
  <p style=""font-size: 16px;"">J = YES &nbsp;&nbsp;&nbsp; F = NO</p>
","j","html-keyboard-response","26","2.1.0","60324","J=YES, F=NO","dc4f9m06xa","1","69","78","60","","","","","","lextale","true","false","","","","","","","",""
"1996","
  <p style=""font-size: 40px;"">shumble</p>
  <p style=""font-size: 16px;"">J = YES &nbsp;&nbsp;&nbsp; F = NO</p>
","j","html-keyboard-response","27","2.1.0","62321","J=YES, F=NO","dc4f9m06xa","1","69","78","60","","","","","","lextale","false","false","","","","","","","",""
"569","
  <p style=""font-size: 40px;"">thirst</p>
  <p style=""font-size: 16px;"">J = YES &nbsp;&nbsp;&nbsp; F = NO</p>
","j","html-keyboard-response","28","2.1.0","62892","J=YES, F=NO","dc4f9m06xa","1","69","78","60","","","","","","lextale","true","false","","","","","","","",""
"1630","
  <p style=""font-size: 40px;"">unsail</p>
  <p style=""font-size: 16px;"">J = YES &nbsp;&nbsp;&nbsp; F = NO</p>
","j","html-keyboard-response","29","2.1.0","64523","J=YES, F=NO","dc4f9m06xa","1","69","78","60","","","","","","lextale","false","false","","","","","","","",""
"613","
  <p style=""font-size: 40px;"">rifle</p>
  <p style=""font-size: 16px;"">J = YES &nbsp;&nbsp;&nbsp; F = NO</p>
","j","html-keyboard-response","30","2.1.0","65137","J=YES, F=NO","dc4f9m06xa","1","69","78","60","","","","","","lextale","true","false","","","","","","","",""
"2833","
  <p style=""font-size: 40px;"">mush</p>
  <p style=""font-size: 16px;"">J = YES &nbsp;&nbsp;&nbsp; F = NO</p>
","j","html-keyboard-response","31","2.1.0","67972","J=YES, F=NO","dc4f9m06xa","1","69","78","60","","","","","","lextale","false","false","","","","","","","",""
"661","
  <p style=""font-size: 40px;"">drench</p>
  <p style=""font-size: 16px;"">J = YES &nbsp;&nbsp;&nbsp; F = NO</p>
","j","html-keyboard-response","32","2.1.0","68633","J=YES, F=NO","dc4f9m06xa","1","69","78","60","","","","","","lextale","true","false","","","","","","","",""
"1585","
  <p style=""font-size: 40px;"">snirt</p>
  <p style=""font-size: 16px;"">J = YES &nbsp;&nbsp;&nbsp; F = NO</p>
","f","html-keyboard-response","33","2.1.0","70220","J=YES, F=NO","dc4f9m06xa","1","69","78","60","","","","","","lextale","false","false","","","","","","","",""
"734","
  <p style=""font-size: 40px;"">bitter</p>
  <p style=""font-size: 16px;"">J = YES &nbsp;&nbsp;&nbsp; F = NO</p>
","j","html-keyboard-response","34","2.1.0","70955","J=YES, F=NO","dc4f9m06xa","1","69","78","60","","","","","","lextale","true","false","","","","","","","",""
"1182","
  <p style=""font-size: 40px;"">pliff</p>
  <p style=""font-size: 16px;"">J = YES &nbsp;&nbsp;&nbsp; F = NO</p>
","f","html-keyboard-response","35","2.1.0","72140","J=YES, F=NO","dc4f9m06xa","1","69","78","60","","","","","","lextale","false","false","","","","","","","",""
"560","
  <p style=""font-size: 40px;"">tablet</p>
  <p style=""font-size: 16px;"">J = YES &nbsp;&nbsp;&nbsp; F = NO</p>
","j","html-keyboard-response","36","2.1.0","72703","J=YES, F=NO","dc4f9m06xa","1","69","78","60","","","","","","lextale","true","false","","","","","","","",""
"577","
  <p style=""font-size: 40px;"">glimmer</p>
  <p style=""font-size: 16px;"">J = YES &nbsp;&nbsp;&nbsp; F = NO</p>
","j","html-keyboard-response","37","2.1.0","73283","J=YES, F=NO","dc4f9m06xa","1","69","78","60","","","","","","lextale","true","false","","","","","","","",""
"2125","
  <p style=""font-size: 40px;"">slink</p>
  <p style=""font-size: 16px;"">J = YES &nbsp;&nbsp;&nbsp; F = NO</p>
","f","html-keyboard-response","38","2.1.0","75412","J=YES, F=NO","dc4f9m06xa","1","69","78","60","","","","","","lextale","true","false","","","","","","","",""
"717","
  <p style=""font-size: 40px;"">clever</p>
  <p style=""font-size: 16px;"">J = YES &nbsp;&nbsp;&nbsp; F = NO</p>
","j","html-keyboard-response","39","2.1.0","76131","J=YES, F=NO","dc4f9m06xa","1","69","78","60","","","","","","lextale","true","false","","","","","","","",""
"1020","
  <p style=""font-size: 40px;"">grum</p>
  <p style=""font-size: 16px;"">J = YES &nbsp;&nbsp;&nbsp; F = NO</p>
","f","html-keyboard-response","40","2.1.0","77153","J=YES, F=NO","dc4f9m06xa","1","69","78","60","","","","","","lextale","false","false","","","","","","","",""
"583","
  <p style=""font-size: 40px;"">string</p>
  <p style=""font-size: 16px;"">J = YES &nbsp;&nbsp;&nbsp; F = NO</p>
","j","html-keyboard-response","41","2.1.0","77737","J=YES, F=NO","dc4f9m06xa","1","69","78","60","","","","","","lextale","true","false","","","","","","","",""
"1360","
  <p style=""font-size: 40px;"">plim</p>
  <p style=""font-size: 16px;"">J = YES &nbsp;&nbsp;&nbsp; F = NO</p>
","f","html-keyboard-response","42","2.1.0","79100","J=YES, F=NO","dc4f9m06xa","1","69","78","60","","","","","","lextale","false","false","","","","","","","",""
"543","
  <p style=""font-size: 40px;"">cable</p>
  <p style=""font-size: 16px;"">J = YES &nbsp;&nbsp;&nbsp; F = NO</p>
","j","html-keyboard-response","43","2.1.0","79643","J=YES, F=NO","dc4f9m06xa","1","69","78","60","","","","","","lextale","true","false","","","","","","","",""
"1455","
  <p style=""font-size: 40px;"">shrivel</p>
  <p style=""font-size: 16px;"">J = YES &nbsp;&nbsp;&nbsp; F = NO</p>
","j","html-keyboard-response","44","2.1.0","81100","J=YES, F=NO","dc4f9m06xa","1","69","78","60","","","","","","lextale","true","false","","","","","","","",""
"797","
  <p style=""font-size: 40px;"">tarnish</p>
  <p style=""font-size: 16px;"">J = YES &nbsp;&nbsp;&nbsp; F = NO</p>
","j","html-keyboard-response","45","2.1.0","81900","J=YES, F=NO","dc4f9m06xa","1","69","78","60","","","","","","lextale","true","false","","","","","","","",""
"1151","
  <p style=""font-size: 40px;"">blim</p>
  <p style=""font-size: 16px;"">J = YES &nbsp;&nbsp;&nbsp; F = NO</p>
","f","html-keyboard-response","46","2.1.0","83052","J=YES, F=NO","dc4f9m06xa","1","69","78","60","","","","","","lextale","false","false","","","","","","","",""
"651","
  <p style=""font-size: 40px;"">stifle</p>
  <p style=""font-size: 16px;"">J = YES &nbsp;&nbsp;&nbsp; F = NO</p>
","j","html-keyboard-response","47","2.1.0","83705","J=YES, F=NO","dc4f9m06xa","1","69","78","60","","","","","","lextale","true","false","","","","","","","",""
"1282","
  <p style=""font-size: 40px;"">bint</p>
  <p style=""font-size: 16px;"">J = YES &nbsp;&nbsp;&nbsp; F = NO</p>
","f","html-keyboard-response","48","2.1.0","84987","J=YES, F=NO","dc4f9m06xa","1","69","78","60","","","","","","lextale","false","false","","","","","","","",""
"519","
  <p style=""font-size: 40px;"">purple</p>
  <p style=""font-size: 16px;"">J = YES &nbsp;&nbsp;&nbsp; F = NO</p>
","j","html-keyboard-response","49","2.1.0","85508","J=YES, F=NO","dc4f9m06xa","1","69","78","60","","","","","","lextale","true","false","","","","","","","",""
"771","
  <p style=""font-size: 40px;"">wriggle</p>
  <p style=""font-size: 16px;"">J = YES &nbsp;&nbsp;&nbsp; F = NO</p>
","j","html-keyboard-response","50","2.1.0","86281","J=YES, F=NO","dc4f9m06xa","1","69","78","60","","","","","","lextale","true","false","","","","","","","",""
"1281","
  <p style=""font-size: 40px;"">mangle</p>
  <p style=""font-size: 16px;"">J = YES &nbsp;&nbsp;&nbsp; F = NO</p>
","j","html-keyboard-response","51","2.1.0","87563","J=YES, F=NO","dc4f9m06xa","1","69","78","60","","","","","","lextale","true","false","","","","","","","",""
"2223","
  <p style=""font-size: 40px;"">shramp</p>
  <p style=""font-size: 16px;"">J = YES &nbsp;&nbsp;&nbsp; F = NO</p>
","j","html-keyboard-response","52","2.1.0","89788","J=YES, F=NO","dc4f9m06xa","1","69","78","60","","","","","","lextale","false","false","","","","","","","",""
"518","
  <p style=""font-size: 40px;"">flirt</p>
  <p style=""font-size: 16px;"">J = YES &nbsp;&nbsp;&nbsp; F = NO</p>
","j","html-keyboard-response","53","2.1.0","90308","J=YES, F=NO","dc4f9m06xa","1","69","78","60","","","","","","lextale","true","false","","","","","","","",""
"1269","
  <p style=""font-size: 40px;"">frip</p>
  <p style=""font-size: 16px;"">J = YES &nbsp;&nbsp;&nbsp; F = NO</p>
","f","html-keyboard-response","54","2.1.0","91577","J=YES, F=NO","dc4f9m06xa","1","69","78","60","","","","","","lextale","false","false","","","","","","","",""
"897","
  <p style=""font-size: 40px;"">tangle</p>
  <p style=""font-size: 16px;"">J = YES &nbsp;&nbsp;&nbsp; F = NO</p>
","j","html-keyboard-response","55","2.1.0","92476","J=YES, F=NO","dc4f9m06xa","1","69","78","60","","","","","","lextale","true","false","","","","","","","",""
"566","
  <p style=""font-size: 40px;"">crumble</p>
  <p style=""font-size: 16px;"">J = YES &nbsp;&nbsp;&nbsp; F = NO</p>
","j","html-keyboard-response","56","2.1.0","93043","J=YES, F=NO","dc4f9m06xa","1","69","78","60","","","","","","lextale","true","false","","","","","","","",""
"839","
  <p style=""font-size: 40px;"">wrinkle</p>
  <p style=""font-size: 16px;"">J = YES &nbsp;&nbsp;&nbsp; F = NO</p>
","j","html-keyboard-response","57","2.1.0","93883","J=YES, F=NO","dc4f9m06xa","1","69","78","60","","","","","","lextale","true","false","","","","","","","",""
"4614","
  <p style=""font-size: 40px;"">slumb</p>
  <p style=""font-size: 16px;"">J = YES &nbsp;&nbsp;&nbsp; F = NO</p>
","j","html-keyboard-response","58","2.1.0","98500","J=YES, F=NO","dc4f9m06xa","1","69","78","60","","","","","","lextale","false","false","","","","","","","",""
"1333","
  <p style=""font-size: 40px;"">jungle</p>
  <p style=""font-size: 16px;"">J = YES &nbsp;&nbsp;&nbsp; F = NO</p>
","j","html-keyboard-response","59","2.1.0","99833","J=YES, F=NO","dc4f9m06xa","1","69","78","60","","","","","","lextale","true","false","","","","","","","",""
"968","
  <p style=""font-size: 40px;"">frolick</p>
  <p style=""font-size: 16px;"">J = YES &nbsp;&nbsp;&nbsp; F = NO</p>
","f","html-keyboard-response","60","2.1.0","100801","J=YES, F=NO","dc4f9m06xa","1","69","78","60","","","","","","lextale","false","false","","","","","","","",""
"2985","
      <h2>LexTALE Test Completed</h2>
      <p>Your LexTALE vocabulary score is: <strong>69%</strong></p>
      <p>Press any key to continue.</p>
    "," ","html-keyboard-response","61","2.1.0","103788","J=YES, F=NO","dc4f9m06xa","1","69","78","60","","","","","","","","","","","","","","","",""
"9462","
    <div style=""max-width: 800px; margin: auto; text-align: left;"">
      <h2>Break Time</h2>
      <p>You have completed the first part of the study.</p>
      <p>You may take a short <strong>30-second break</strong> before continuing.</p>
      <p>When you’re ready, press any key to continue to the final task.</p>
    </div>
  "," ","html-keyboard-response","62","2.1.0","113252","J=YES, F=NO","dc4f9m06xa","1","69","78","60","","","","","","","","","","","","","","","",""
"13798","
    <div style=""max-width: 800px; margin: auto; text-align: left;"">
      <h2>Part 2: Lexical Decision Task</h2>
      <p>You will now begin the second part of the study.</p>
      <p>Each trial will follow this sequence:</p>
      <ul>
        <li>A fixation cross (+) appears at the center of the screen.</li>
        <li>You will hear a short beep followed by a spoken word.</li>
        <li>A written word will appear briefly on the screen.</li>
      </ul>
      <p>Your task is to judge whether the <strong>written word</strong> is a real English word.</p>
      <p style=""margin-top: 1em;""><strong>Key responses:</strong></p>
      <ul>
        <li><strong>J</strong> = YES (real English word)</li>
        <li><strong>F</strong> = NO (not a real English word)</li>
      </ul>
      <p>Please respond as quickly and accurately as you can.</p>
      <p style=""margin-top: 2em;"">Press any key to continue.</p>
    </div>
  "," ","html-keyboard-response","63","2.1.0","127052","J=YES, F=NO","dc4f9m06xa","1","69","78","60","","","","","","","","","","","","","","","",""
"6518","
    <div style=""max-width: 800px; margin: auto; text-align: left;"">
      <h2>Before You Begin</h2>
      <p>Make sure your sound is turned on.</p>
      <p>You will hear audio during each trial, but your decision should be based only on the <strong>written word</strong> you see on the screen.</p>
      <p><strong>Reminder:</strong></p>
      <ul>
        <li><strong>J</strong> = YES (real English word)</li>
        <li><strong>F</strong> = NO (not a real English word)</li>
      </ul>
      <p style=""margin-top: 2em;"">Press any key when you are ready to begin.</p>
    </div>
  "," ","html-keyboard-response","64","2.1.0","133572","J=YES, F=NO","dc4f9m06xa","1","69","78","60","","","","","","","","","","","","","","","",""
"1493","
    <div style=""max-width: 800px; margin: auto; text-align: left;"">
      <h2>Part 2: Practice Trials</h2>
      <p>You will now complete a few <strong>practice trials</strong> to get familiar with the task.</p>
      <p>These trials are <strong>not scored</strong> and are only to help you get used to the format.</p>
      <p style=""margin-top: 2em;"">Press any key to begin.</p>
    </div>
  "," ","html-keyboard-response","65","2.1.0","135068","J=YES, F=NO","dc4f9m06xa","1","69","78","60","","","","","","","","","","","","","","","",""
"1415","<p>Starting practice block 1 of 2. Press any key to continue.</p>"," ","html-keyboard-response","66","2.1.0","136484","J=YES, F=NO","dc4f9m06xa","1","69","78","60","","","","","","","","","","","","","","","",""
"null","<p style=""font-size: 50px;"">+</p>","null","html-keyboard-response","67","2.1.0","136785","J=YES, F=NO","dc4f9m06xa","1","69","78","60","","","","","","","","","","","","","","","",""
"null","audio/beep-329314.mp3","null","audio-keyboard-response","68","2.1.0","138278","J=YES, F=NO","dc4f9m06xa","1","69","78","60","","","","","","","","","","","","","","","",""
"null","audio/golf1.wav","null","audio-keyboard-response","69","2.1.0","138799","J=YES, F=NO","dc4f9m06xa","1","69","78","60","","","","","","","","","","","","","","","",""
"1596","
          <p id=""word"" style=""font-size: 40px;"">drabble</p>
          <p style=""font-size: 16px;"">J = YES &nbsp;&nbsp;&nbsp; F = NO</p>
        ","f","html-keyboard-response","70","2.1.0","140396","J=YES, F=NO","dc4f9m06xa","1","69","78","60","","","","","","","","","drabble","golf1","pseudoword","pseudoword","f","true","",""
"null","<p style=""font-size: 50px;"">+</p>","null","html-keyboard-response","71","2.1.0","140710","J=YES, F=NO","dc4f9m06xa","1","69","78","60","","","","","","","","","","","","","","","",""
"null","audio/beep-329314.mp3","null","audio-keyboard-response","72","2.1.0","142203","J=YES, F=NO","dc4f9m06xa","1","69","78","60","","","","","","","","","","","","","","","",""
"null","audio/belief.wav","null","audio-keyboard-response","73","2.1.0","143175","J=YES, F=NO","dc4f9m06xa","1","69","78","60","","","","","","","","","","","","","","","",""
"915","
          <p id=""word"" style=""font-size: 40px;"">read</p>
          <p style=""font-size: 16px;"">J = YES &nbsp;&nbsp;&nbsp; F = NO</p>
        ","j","html-keyboard-response","74","2.1.0","144091","J=YES, F=NO","dc4f9m06xa","1","69","78","60","","","","","","","","","read","belief","filler","filler","j","true","",""
"null","<p style=""font-size: 50px;"">+</p>","null","html-keyboard-response","75","2.1.0","144405","J=YES, F=NO","dc4f9m06xa","1","69","78","60","","","","","","","","","","","","","","","",""
"null","audio/beep-329314.mp3","null","audio-keyboard-response","76","2.1.0","145899","J=YES, F=NO","dc4f9m06xa","1","69","78","60","","","","","","","","","","","","","","","",""
"null","audio/winter.wav","null","audio-keyboard-response","77","2.1.0","146625","J=YES, F=NO","dc4f9m06xa","1","69","78","60","","","","","","","","","","","","","","","",""
"978","
          <p id=""word"" style=""font-size: 40px;"">straven</p>
          <p style=""font-size: 16px;"">J = YES &nbsp;&nbsp;&nbsp; F = NO</p>
        ","f","html-keyboard-response","78","2.1.0","147604","J=YES, F=NO","dc4f9m06xa","1","69","78","60","","","","","","","","","straven","winter","pseudoword","pseudoword","f","true","",""
"null","<p style=""font-size: 50px;"">+</p>","null","html-keyboard-response","79","2.1.0","147907","J=YES, F=NO","dc4f9m06xa","1","69","78","60","","","","","","","","","","","","","","","",""
"null","audio/beep-329314.mp3","null","audio-keyboard-response","80","2.1.0","149401","J=YES, F=NO","dc4f9m06xa","1","69","78","60","","","","","","","","","","","","","","","",""
"null","audio/life1.wav","null","audio-keyboard-response","81","2.1.0","149921","J=YES, F=NO","dc4f9m06xa","1","69","78","60","","","","","","","","","","","","","","","",""
"888","
          <p id=""word"" style=""font-size: 40px;"">flimch</p>
          <p style=""font-size: 16px;"">J = YES &nbsp;&nbsp;&nbsp; F = NO</p>
        ","f","html-keyboard-response","82","2.1.0","150812","J=YES, F=NO","dc4f9m06xa","1","69","78","60","","","","","","","","","flimch","life1","pseudoword","pseudoword","f","true","",""
"null","<p style=""font-size: 50px;"">+</p>","null","html-keyboard-response","83","2.1.0","151127","J=YES, F=NO","dc4f9m06xa","1","69","78","60","","","","","","","","","","","","","","","",""
"null","audio/beep-329314.mp3","null","audio-keyboard-response","84","2.1.0","152623","J=YES, F=NO","dc4f9m06xa","1","69","78","60","","","","","","","","","","","","","","","",""
"null","audio/topic.wav","null","audio-keyboard-response","85","2.1.0","153342","J=YES, F=NO","dc4f9m06xa","1","69","78","60","","","","","","","","","","","","","","","",""
"1186","
          <p id=""word"" style=""font-size: 40px;"">infortuitist</p>
          <p style=""font-size: 16px;"">J = YES &nbsp;&nbsp;&nbsp; F = NO</p>
        ","f","html-keyboard-response","86","2.1.0","154529","J=YES, F=NO","dc4f9m06xa","1","69","78","60","","","","","","","","","infortuitist","topic","pseudoword","pseudoword","f","true","",""
"null","<p style=""font-size: 50px;"">+</p>","null","html-keyboard-response","87","2.1.0","154830","J=YES, F=NO","dc4f9m06xa","1","69","78","60","","","","","","","","","","","","","","","",""
"null","audio/beep-329314.mp3","null","audio-keyboard-response","88","2.1.0","156324","J=YES, F=NO","dc4f9m06xa","1","69","78","60","","","","","","","","","","","","","","","",""
"null","audio/show.wav","null","audio-keyboard-response","89","2.1.0","156823","J=YES, F=NO","dc4f9m06xa","1","69","78","60","","","","","","","","","","","","","","","",""
"null","
          <p id=""word"" style=""font-size: 40px;"">smark</p>
          <p style=""font-size: 16px;"">J = YES &nbsp;&nbsp;&nbsp; F = NO</p>
        ","null","html-keyboard-response","90","2.1.0","158330","J=YES, F=NO","dc4f9m06xa","1","69","78","60","","","","","","","","","smark","show","pseudoword","pseudoword","f","false","",""
"null","<p style=""font-size: 50px;"">+</p>","null","html-keyboard-response","91","2.1.0","158637","J=YES, F=NO","dc4f9m06xa","1","69","78","60","","","","","","","","","","","","","","","",""
"null","audio/beep-329314.mp3","null","audio-keyboard-response","92","2.1.0","160127","J=YES, F=NO","dc4f9m06xa","1","69","78","60","","","","","","","","","","","","","","","",""
"null","audio/meal.wav","null","audio-keyboard-response","93","2.1.0","160536","J=YES, F=NO","dc4f9m06xa","1","69","78","60","","","","","","","","","","","","","","","",""
"698","
          <p id=""word"" style=""font-size: 40px;"">gallite</p>
          <p style=""font-size: 16px;"">J = YES &nbsp;&nbsp;&nbsp; F = NO</p>
        ","f","html-keyboard-response","94","2.1.0","161236","J=YES, F=NO","dc4f9m06xa","1","69","78","60","","","","","","","","","gallite","meal","pseudoword","pseudoword","f","true","",""
"null","<p style=""font-size: 50px;"">+</p>","null","html-keyboard-response","95","2.1.0","161543","J=YES, F=NO","dc4f9m06xa","1","69","78","60","","","","","","","","","","","","","","","",""
"null","audio/beep-329314.mp3","null","audio-keyboard-response","96","2.1.0","163034","J=YES, F=NO","dc4f9m06xa","1","69","78","60","","","","","","","","","","","","","","","",""
"null","audio/birth1.wav","null","audio-keyboard-response","97","2.1.0","163534","J=YES, F=NO","dc4f9m06xa","1","69","78","60","","","","","","","","","","","","","","","",""
"683","
          <p id=""word"" style=""font-size: 40px;"">peel</p>
          <p style=""font-size: 16px;"">J = YES &nbsp;&nbsp;&nbsp; F = NO</p>
        ","f","html-keyboard-response","98","2.1.0","164220","J=YES, F=NO","dc4f9m06xa","1","69","78","60","","","","","","","","","peel","birth1","filler","filler","j","false","",""
"null","<p style=""font-size: 50px;"">+</p>","null","html-keyboard-response","99","2.1.0","164532","J=YES, F=NO","dc4f9m06xa","1","69","78","60","","","","","","","","","","","","","","","",""
"null","audio/beep-329314.mp3","null","audio-keyboard-response","100","2.1.0","166018","J=YES, F=NO","dc4f9m06xa","1","69","78","60","","","","","","","","","","","","","","","",""
"null","audio/cancer1.wav","null","audio-keyboard-response","101","2.1.0","166720","J=YES, F=NO","dc4f9m06xa","1","69","78","60","","","","","","","","","","","","","","","",""
"547","
          <p id=""word"" style=""font-size: 40px;"">draw</p>
          <p style=""font-size: 16px;"">J = YES &nbsp;&nbsp;&nbsp; F = NO</p>
        ","j","html-keyboard-response","102","2.1.0","167267","J=YES, F=NO","dc4f9m06xa","1","69","78","60","","","","","","","","","draw","cancer1","filler","filler","j","true","",""
"null","<p style=""font-size: 50px;"">+</p>","null","html-keyboard-response","103","2.1.0","167583","J=YES, F=NO","dc4f9m06xa","1","69","78","60","","","","","","","","","","","","","","","",""
"null","audio/beep-329314.mp3","null","audio-keyboard-response","104","2.1.0","169087","J=YES, F=NO","dc4f9m06xa","1","69","78","60","","","","","","","","","","","","","","","",""
"null","audio/ankle1.wav","null","audio-keyboard-response","105","2.1.0","169772","J=YES, F=NO","dc4f9m06xa","1","69","78","60","","","","","","","","","","","","","","","",""
"503","
          <p id=""word"" style=""font-size: 40px;"">kick</p>
          <p style=""font-size: 16px;"">J = YES &nbsp;&nbsp;&nbsp; F = NO</p>
        ","j","html-keyboard-response","106","2.1.0","170276","J=YES, F=NO","dc4f9m06xa","1","69","78","60","","","","","","","","","kick","ankle1","filler","filler","j","true","",""
"null","<p style=""font-size: 50px;"">+</p>","null","html-keyboard-response","107","2.1.0","170585","J=YES, F=NO","dc4f9m06xa","1","69","78","60","","","","","","","","","","","","","","","",""
"null","audio/beep-329314.mp3","null","audio-keyboard-response","108","2.1.0","172075","J=YES, F=NO","dc4f9m06xa","1","69","78","60","","","","","","","","","","","","","","","",""
"null","audio/ankle1.wav","null","audio-keyboard-response","109","2.1.0","172575","J=YES, F=NO","dc4f9m06xa","1","69","78","60","","","","","","","","","","","","","","","",""
"858","
          <p id=""word"" style=""font-size: 40px;"">switm</p>
          <p style=""font-size: 16px;"">J = YES &nbsp;&nbsp;&nbsp; F = NO</p>
        ","f","html-keyboard-response","110","2.1.0","173435","J=YES, F=NO","dc4f9m06xa","1","69","78","60","","","","","","","","","switm","ankle1","pseudoword","pseudoword","f","true","",""
"null","<p style=""font-size: 50px;"">+</p>","null","html-keyboard-response","111","2.1.0","173747","J=YES, F=NO","dc4f9m06xa","1","69","78","60","","","","","","","","","","","","","","","",""
"null","audio/beep-329314.mp3","null","audio-keyboard-response","112","2.1.0","175235","J=YES, F=NO","dc4f9m06xa","1","69","78","60","","","","","","","","","","","","","","","",""
"null","audio/cash1.wav","null","audio-keyboard-response","113","2.1.0","176011","J=YES, F=NO","dc4f9m06xa","1","69","78","60","","","","","","","","","","","","","","","",""
"679","
          <p id=""word"" style=""font-size: 40px;"">splear</p>
          <p style=""font-size: 16px;"">J = YES &nbsp;&nbsp;&nbsp; F = NO</p>
        ","f","html-keyboard-response","114","2.1.0","176692","J=YES, F=NO","dc4f9m06xa","1","69","78","60","","","","","","","","","splear","cash1","pseudoword","pseudoword","f","true","",""
"1294","<p>Starting practice block 2 of 2. Press any key to continue.</p>"," ","html-keyboard-response","115","2.1.0","177987","J=YES, F=NO","dc4f9m06xa","1","69","78","60","","","","","","","","","","","","","","","",""
"null","<p style=""font-size: 50px;"">+</p>","null","html-keyboard-response","116","2.1.0","178328","J=YES, F=NO","dc4f9m06xa","1","69","78","60","","","","","","","","","","","","","","","",""
"null","audio/beep-329314.mp3","null","audio-keyboard-response","117","2.1.0","179822","J=YES, F=NO","dc4f9m06xa","1","69","78","60","","","","","","","","","","","","","","","",""
"null","audio/breath.wav","null","audio-keyboard-response","118","2.1.0","180341","J=YES, F=NO","dc4f9m06xa","1","69","78","60","","","","","","","","","","","","","","","",""
"852","
          <p id=""word"" style=""font-size: 40px;"">pack</p>
          <p style=""font-size: 16px;"">J = YES &nbsp;&nbsp;&nbsp; F = NO</p>
        ","j","html-keyboard-response","119","2.1.0","181196","J=YES, F=NO","dc4f9m06xa","1","69","78","60","","","","","","","","","pack","breath","filler","filler","j","true","",""
"null","<p style=""font-size: 50px;"">+</p>","null","html-keyboard-response","120","2.1.0","181509","J=YES, F=NO","dc4f9m06xa","1","69","78","60","","","","","","","","","","","","","","","",""
"null","audio/beep-329314.mp3","null","audio-keyboard-response","121","2.1.0","182998","J=YES, F=NO","dc4f9m06xa","1","69","78","60","","","","","","","","","","","","","","","",""
"null","audio/arm.wav","null","audio-keyboard-response","122","2.1.0","183493","J=YES, F=NO","dc4f9m06xa","1","69","78","60","","","","","","","","","","","","","","","",""
"685","
          <p id=""word"" style=""font-size: 40px;"">fold</p>
          <p style=""font-size: 16px;"">J = YES &nbsp;&nbsp;&nbsp; F = NO</p>
        ","j","html-keyboard-response","123","2.1.0","184179","J=YES, F=NO","dc4f9m06xa","1","69","78","60","","","","","","","","","fold","arm","filler","filler","j","true","",""
"null","<p style=""font-size: 50px;"">+</p>","null","html-keyboard-response","124","2.1.0","184489","J=YES, F=NO","dc4f9m06xa","1","69","78","60","","","","","","","","","","","","","","","",""
"null","audio/beep-329314.mp3","null","audio-keyboard-response","125","2.1.0","185980","J=YES, F=NO","dc4f9m06xa","1","69","78","60","","","","","","","","","","","","","","","",""
"null","audio/vehicle1.wav","null","audio-keyboard-response","126","2.1.0","186584","J=YES, F=NO","dc4f9m06xa","1","69","78","60","","","","","","","","","","","","","","","",""
"602","
          <p id=""word"" style=""font-size: 40px;"">dropt</p>
          <p style=""font-size: 16px;"">J = YES &nbsp;&nbsp;&nbsp; F = NO</p>
        ","f","html-keyboard-response","127","2.1.0","187188","J=YES, F=NO","dc4f9m06xa","1","69","78","60","","","","","","","","","dropt","vehicle1","pseudoword","pseudoword","f","true","",""
"null","<p style=""font-size: 50px;"">+</p>","null","html-keyboard-response","128","2.1.0","187516","J=YES, F=NO","dc4f9m06xa","1","69","78","60","","","","","","","","","","","","","","","",""
"null","audio/beep-329314.mp3","null","audio-keyboard-response","129","2.1.0","189010","J=YES, F=NO","dc4f9m06xa","1","69","78","60","","","","","","","","","","","","","","","",""
"null","audio/battle1.wav","null","audio-keyboard-response","130","2.1.0","189431","J=YES, F=NO","dc4f9m06xa","1","69","78","60","","","","","","","","","","","","","","","",""
"676","
          <p id=""word"" style=""font-size: 40px;"">boil</p>
          <p style=""font-size: 16px;"">J = YES &nbsp;&nbsp;&nbsp; F = NO</p>
        ","j","html-keyboard-response","131","2.1.0","190107","J=YES, F=NO","dc4f9m06xa","1","69","78","60","","","","","","","","","boil","battle1","filler","filler","j","true","",""
"null","<p style=""font-size: 50px;"">+</p>","null","html-keyboard-response","132","2.1.0","190409","J=YES, F=NO","dc4f9m06xa","1","69","78","60","","","","","","","","","","","","","","","",""
"null","audio/beep-329314.mp3","null","audio-keyboard-response","133","2.1.0","191894","J=YES, F=NO","dc4f9m06xa","1","69","78","60","","","","","","","","","","","","","","","",""
"null","audio/cave1.wav","null","audio-keyboard-response","134","2.1.0","192605","J=YES, F=NO","dc4f9m06xa","1","69","78","60","","","","","","","","","","","","","","","",""
"582","
          <p id=""word"" style=""font-size: 40px;"">blacket</p>
          <p style=""font-size: 16px;"">J = YES &nbsp;&nbsp;&nbsp; F = NO</p>
        ","j","html-keyboard-response","135","2.1.0","193188","J=YES, F=NO","dc4f9m06xa","1","69","78","60","","","","","","","","","blacket","cave1","pseudoword","pseudoword","f","false","",""
"null","<p style=""font-size: 50px;"">+</p>","null","html-keyboard-response","136","2.1.0","193502","J=YES, F=NO","dc4f9m06xa","1","69","78","60","","","","","","","","","","","","","","","",""
"null","audio/beep-329314.mp3","null","audio-keyboard-response","137","2.1.0","194994","J=YES, F=NO","dc4f9m06xa","1","69","78","60","","","","","","","","","","","","","","","",""
"null","audio/relief.wav","null","audio-keyboard-response","138","2.1.0","195599","J=YES, F=NO","dc4f9m06xa","1","69","78","60","","","","","","","","","","","","","","","",""
"628","
          <p id=""word"" style=""font-size: 40px;"">grigg</p>
          <p style=""font-size: 16px;"">J = YES &nbsp;&nbsp;&nbsp; F = NO</p>
        ","f","html-keyboard-response","139","2.1.0","196227","J=YES, F=NO","dc4f9m06xa","1","69","78","60","","","","","","","","","grigg","relief","pseudoword","pseudoword","f","true","",""
"null","<p style=""font-size: 50px;"">+</p>","null","html-keyboard-response","140","2.1.0","196543","J=YES, F=NO","dc4f9m06xa","1","69","78","60","","","","","","","","","","","","","","","",""
"null","audio/beep-329314.mp3","null","audio-keyboard-response","141","2.1.0","198033","J=YES, F=NO","dc4f9m06xa","1","69","78","60","","","","","","","","","","","","","","","",""
"null","audio/age1.wav","null","audio-keyboard-response","142","2.1.0","198543","J=YES, F=NO","dc4f9m06xa","1","69","78","60","","","","","","","","","","","","","","","",""
"546","
          <p id=""word"" style=""font-size: 40px;"">bake</p>
          <p style=""font-size: 16px;"">J = YES &nbsp;&nbsp;&nbsp; F = NO</p>
        ","j","html-keyboard-response","143","2.1.0","199092","J=YES, F=NO","dc4f9m06xa","1","69","78","60","","","","","","","","","bake","age1","filler","filler","j","true","",""
"null","<p style=""font-size: 50px;"">+</p>","null","html-keyboard-response","144","2.1.0","199404","J=YES, F=NO","dc4f9m06xa","1","69","78","60","","","","","","","","","","","","","","","",""
"null","audio/beep-329314.mp3","null","audio-keyboard-response","145","2.1.0","200894","J=YES, F=NO","dc4f9m06xa","1","69","78","60","","","","","","","","","","","","","","","",""
"null","audio/pattern.wav","null","audio-keyboard-response","146","2.1.0","201553","J=YES, F=NO","dc4f9m06xa","1","69","78","60","","","","","","","","","","","","","","","",""
"673","
          <p id=""word"" style=""font-size: 40px;"">tug</p>
          <p style=""font-size: 16px;"">J = YES &nbsp;&nbsp;&nbsp; F = NO</p>
        ","f","html-keyboard-response","147","2.1.0","202227","J=YES, F=NO","dc4f9m06xa","1","69","78","60","","","","","","","","","tug","pattern","filler","filler","j","false","",""
"null","<p style=""font-size: 50px;"">+</p>","null","html-keyboard-response","148","2.1.0","202537","J=YES, F=NO","dc4f9m06xa","1","69","78","60","","","","","","","","","","","","","","","",""
"null","audio/beep-329314.mp3","null","audio-keyboard-response","149","2.1.0","204024","J=YES, F=NO","dc4f9m06xa","1","69","78","60","","","","","","","","","","","","","","","",""
"null","audio/van1.wav","null","audio-keyboard-response","150","2.1.0","204475","J=YES, F=NO","dc4f9m06xa","1","69","78","60","","","","","","","","","","","","","","","",""
"669","
          <p id=""word"" style=""font-size: 40px;"">push</p>
          <p style=""font-size: 16px;"">J = YES &nbsp;&nbsp;&nbsp; F = NO</p>
        ","j","html-keyboard-response","151","2.1.0","205145","J=YES, F=NO","dc4f9m06xa","1","69","78","60","","","","","","","","","push","van1","filler","filler","j","true","",""
"null","<p style=""font-size: 50px;"">+</p>","null","html-keyboard-response","152","2.1.0","205446","J=YES, F=NO","dc4f9m06xa","1","69","78","60","","","","","","","","","","","","","","","",""
"null","audio/beep-329314.mp3","null","audio-keyboard-response","153","2.1.0","206927","J=YES, F=NO","dc4f9m06xa","1","69","78","60","","","","","","","","","","","","","","","",""
"null","audio/pine.wav","null","audio-keyboard-response","154","2.1.0","207556","J=YES, F=NO","dc4f9m06xa","1","69","78","60","","","","","","","","","","","","","","","",""
"671","
          <p id=""word"" style=""font-size: 40px;"">crebble</p>
          <p style=""font-size: 16px;"">J = YES &nbsp;&nbsp;&nbsp; F = NO</p>
        ","j","html-keyboard-response","155","2.1.0","208229","J=YES, F=NO","dc4f9m06xa","1","69","78","60","","","","","","","","","crebble","pine","pseudoword","pseudoword","f","false","",""
"null","<p style=""font-size: 50px;"">+</p>","null","html-keyboard-response","156","2.1.0","208549","J=YES, F=NO","dc4f9m06xa","1","69","78","60","","","","","","","","","","","","","","","",""
"null","audio/beep-329314.mp3","null","audio-keyboard-response","157","2.1.0","210040","J=YES, F=NO","dc4f9m06xa","1","69","78","60","","","","","","","","","","","","","","","",""
"null","audio/beach1.wav","null","audio-keyboard-response","158","2.1.0","210781","J=YES, F=NO","dc4f9m06xa","1","69","78","60","","","","","","","","","","","","","","","",""
"531","
          <p id=""word"" style=""font-size: 40px;"">drive</p>
          <p style=""font-size: 16px;"">J = YES &nbsp;&nbsp;&nbsp; F = NO</p>
        ","j","html-keyboard-response","159","2.1.0","211313","J=YES, F=NO","dc4f9m06xa","1","69","78","60","","","","","","","","","drive","beach1","filler","filler","j","true","",""
"null","<p style=""font-size: 50px;"">+</p>","null","html-keyboard-response","160","2.1.0","211618","J=YES, F=NO","dc4f9m06xa","1","69","78","60","","","","","","","","","","","","","","","",""
"null","audio/beep-329314.mp3","null","audio-keyboard-response","161","2.1.0","213109","J=YES, F=NO","dc4f9m06xa","1","69","78","60","","","","","","","","","","","","","","","",""
"null","audio/account1.wav","null","audio-keyboard-response","162","2.1.0","214006","J=YES, F=NO","dc4f9m06xa","1","69","78","60","","","","","","","","","","","","","","","",""
"597","
          <p id=""word"" style=""font-size: 40px;"">paint</p>
          <p style=""font-size: 16px;"">J = YES &nbsp;&nbsp;&nbsp; F = NO</p>
        ","j","html-keyboard-response","163","2.1.0","214603","J=YES, F=NO","dc4f9m06xa","1","69","78","60","","","","","","","","","paint","account1","filler","filler","j","true","",""
"6887","
    <div style=""max-width: 800px; margin: auto; text-align: left;"">
      <h2>Part 2: Main Trials</h2>
      <p>Great job on the practice trials!</p>
      <p>You will now begin the <strong>main set of trials</strong>.</p>
      <p>Remember your key assignments:</p>
      <ul>
        <li><strong>J</strong> = YES (real English word)</li>
        <li><strong>F</strong> = NO (not a real English word)</li>
      </ul>
      <p>Try to respond as <strong>quickly and accurately</strong> as possible.</p>
      <p style=""margin-top: 2em;"">Press any key to begin the main trials.</p>
    </div>
  "," ","html-keyboard-response","164","2.1.0","221492","J=YES, F=NO","dc4f9m06xa","1","69","78","60","","","","","","","","","","","","","","","",""
"1959","<p>Starting main block 1 of 8. Press any key to continue.</p>"," ","html-keyboard-response","165","2.1.0","223452","J=YES, F=NO","dc4f9m06xa","1","69","78","60","","","","","","","","","","","","","","","",""
"null","<p style=""font-size: 50px;"">+</p>","null","html-keyboard-response","166","2.1.0","223757","J=YES, F=NO","dc4f9m06xa","1","69","78","60","","","","","","","","","","","","","","","",""
"null","audio/beep-329314.mp3","null","audio-keyboard-response","167","2.1.0","225253","J=YES, F=NO","dc4f9m06xa","1","69","78","60","","","","","","","","","","","","","","","",""
"null","audio/scar.wav","null","audio-keyboard-response","168","2.1.0","225809","J=YES, F=NO","dc4f9m06xa","1","69","78","60","","","","","","","","","","","","","","","",""
"888","
          <p id=""word"" style=""font-size: 40px;"">adelineate</p>
          <p style=""font-size: 16px;"">J = YES &nbsp;&nbsp;&nbsp; F = NO</p>
        ","j","html-keyboard-response","169","2.1.0","226697","J=YES, F=NO","dc4f9m06xa","1","69","78","60","","","","","","","","","adelineate","scar","pseudoword","pseudoword","f","false","",""
"null","<p style=""font-size: 50px;"">+</p>","null","html-keyboard-response","170","2.1.0","227006","J=YES, F=NO","dc4f9m06xa","1","69","78","60","","","","","","","","","","","","","","","",""
"null","audio/beep-329314.mp3","null","audio-keyboard-response","171","2.1.0","228504","J=YES, F=NO","dc4f9m06xa","1","69","78","60","","","","","","","","","","","","","","","",""
"null","audio/fear.wav","null","audio-keyboard-response","172","2.1.0","228993","J=YES, F=NO","dc4f9m06xa","1","69","78","60","","","","","","","","","","","","","","","",""
"1017","
          <p id=""word"" style=""font-size: 40px;"">spread</p>
          <p style=""font-size: 16px;"">J = YES &nbsp;&nbsp;&nbsp; F = NO</p>
        ","f","html-keyboard-response","173","2.1.0","230012","J=YES, F=NO","dc4f9m06xa","1","69","78","60","","","","","","","","","spread","fear","metaphor","experimental","j","false","",""
"null","<p style=""font-size: 50px;"">+</p>","null","html-keyboard-response","174","2.1.0","230317","J=YES, F=NO","dc4f9m06xa","1","69","78","60","","","","","","","","","","","","","","","",""
"null","audio/beep-329314.mp3","null","audio-keyboard-response","175","2.1.0","231813","J=YES, F=NO","dc4f9m06xa","1","69","78","60","","","","","","","","","","","","","","","",""
"null","audio/age1.wav","null","audio-keyboard-response","176","2.1.0","232324","J=YES, F=NO","dc4f9m06xa","1","69","78","60","","","","","","","","","","","","","","","",""
"989","
          <p id=""word"" style=""font-size: 40px;"">lachry</p>
          <p style=""font-size: 16px;"">J = YES &nbsp;&nbsp;&nbsp; F = NO</p>
        ","f","html-keyboard-response","177","2.1.0","233313","J=YES, F=NO","dc4f9m06xa","1","69","78","60","","","","","","","","","lachry","age1","pseudoword","pseudoword","f","true","",""
"null","<p style=""font-size: 50px;"">+</p>","null","html-keyboard-response","178","2.1.0","233621","J=YES, F=NO","dc4f9m06xa","1","69","78","60","","","","","","","","","","","","","","","",""
"null","audio/beep-329314.mp3","null","audio-keyboard-response","179","2.1.0","235123","J=YES, F=NO","dc4f9m06xa","1","69","78","60","","","","","","","","","","","","","","","",""
"null","audio/prisoner.wav","null","audio-keyboard-response","180","2.1.0","235593","J=YES, F=NO","dc4f9m06xa","1","69","78","60","","","","","","","","","","","","","","","",""
"569","
          <p id=""word"" style=""font-size: 40px;"">release</p>
          <p style=""font-size: 16px;"">J = YES &nbsp;&nbsp;&nbsp; F = NO</p>
        ","j","html-keyboard-response","181","2.1.0","236164","J=YES, F=NO","dc4f9m06xa","1","69","78","60","","","","","","","","","release","prisoner","literal","experimental","j","true","",""
"null","<p style=""font-size: 50px;"">+</p>","null","html-keyboard-response","182","2.1.0","236474","J=YES, F=NO","dc4f9m06xa","1","69","78","60","","","","","","","","","","","","","","","",""
"null","audio/beep-329314.mp3","null","audio-keyboard-response","183","2.1.0","237971","J=YES, F=NO","dc4f9m06xa","1","69","78","60","","","","","","","","","","","","","","","",""
"null","audio/pride1.wav","null","audio-keyboard-response","184","2.1.0","238473","J=YES, F=NO","dc4f9m06xa","1","69","78","60","","","","","","","","","","","","","","","",""
"561","
          <p id=""word"" style=""font-size: 40px;"">hurt</p>
          <p style=""font-size: 16px;"">J = YES &nbsp;&nbsp;&nbsp; F = NO</p>
        ","j","html-keyboard-response","185","2.1.0","239036","J=YES, F=NO","dc4f9m06xa","1","69","78","60","","","","","","","","","hurt","pride1","metaphor","experimental","j","true","",""
"null","<p style=""font-size: 50px;"">+</p>","null","html-keyboard-response","186","2.1.0","239345","J=YES, F=NO","dc4f9m06xa","1","69","78","60","","","","","","","","","","","","","","","",""
"null","audio/beep-329314.mp3","null","audio-keyboard-response","187","2.1.0","240844","J=YES, F=NO","dc4f9m06xa","1","69","78","60","","","","","","","","","","","","","","","",""
"null","audio/empire.wav","null","audio-keyboard-response","188","2.1.0","241433","J=YES, F=NO","dc4f9m06xa","1","69","78","60","","","","","","","","","","","","","","","",""
"634","
          <p id=""word"" style=""font-size: 40px;"">slorby</p>
          <p style=""font-size: 16px;"">J = YES &nbsp;&nbsp;&nbsp; F = NO</p>
        ","f","html-keyboard-response","189","2.1.0","242068","J=YES, F=NO","dc4f9m06xa","1","69","78","60","","","","","","","","","slorby","empire","pseudoword","pseudoword","f","true","",""
"null","<p style=""font-size: 50px;"">+</p>","null","html-keyboard-response","190","2.1.0","242375","J=YES, F=NO","dc4f9m06xa","1","69","78","60","","","","","","","","","","","","","","","",""
"null","audio/beep-329314.mp3","null","audio-keyboard-response","191","2.1.0","243874","J=YES, F=NO","dc4f9m06xa","1","69","78","60","","","","","","","","","","","","","","","",""
"null","audio/client1.wav","null","audio-keyboard-response","192","2.1.0","244534","J=YES, F=NO","dc4f9m06xa","1","69","78","60","","","","","","","","","","","","","","","",""
"531","
          <p id=""word"" style=""font-size: 40px;"">land</p>
          <p style=""font-size: 16px;"">J = YES &nbsp;&nbsp;&nbsp; F = NO</p>
        ","j","html-keyboard-response","193","2.1.0","245065","J=YES, F=NO","dc4f9m06xa","1","69","78","60","","","","","","","","","land","client1","metaphor","experimental","j","true","",""
"null","<p style=""font-size: 50px;"">+</p>","null","html-keyboard-response","194","2.1.0","245368","J=YES, F=NO","dc4f9m06xa","1","69","78","60","","","","","","","","","","","","","","","",""
"null","audio/beep-329314.mp3","null","audio-keyboard-response","195","2.1.0","246859","J=YES, F=NO","dc4f9m06xa","1","69","78","60","","","","","","","","","","","","","","","",""
"null","audio/desire.wav","null","audio-keyboard-response","196","2.1.0","247433","J=YES, F=NO","dc4f9m06xa","1","69","78","60","","","","","","","","","","","","","","","",""
"536","
          <p id=""word"" style=""font-size: 40px;"">open</p>
          <p style=""font-size: 16px;"">J = YES &nbsp;&nbsp;&nbsp; F = NO</p>
        ","j","html-keyboard-response","197","2.1.0","247972","J=YES, F=NO","dc4f9m06xa","1","69","78","60","","","","","","","","","open","desire","unrelated","experimental","j","true","",""
"null","<p style=""font-size: 50px;"">+</p>","null","html-keyboard-response","198","2.1.0","248276","J=YES, F=NO","dc4f9m06xa","1","69","78","60","","","","","","","","","","","","","","","",""
"null","audio/beep-329314.mp3","null","audio-keyboard-response","199","2.1.0","249768","J=YES, F=NO","dc4f9m06xa","1","69","78","60","","","","","","","","","","","","","","","",""
"null","audio/bottle.wav","null","audio-keyboard-response","200","2.1.0","250183","J=YES, F=NO","dc4f9m06xa","1","69","78","60","","","","","","","","","","","","","","","",""
"515","
          <p id=""word"" style=""font-size: 40px;"">watch</p>
          <p style=""font-size: 16px;"">J = YES &nbsp;&nbsp;&nbsp; F = NO</p>
        ","j","html-keyboard-response","201","2.1.0","250699","J=YES, F=NO","dc4f9m06xa","1","69","78","60","","","","","","","","","watch","bottle","filler","filler","j","true","",""
"null","<p style=""font-size: 50px;"">+</p>","null","html-keyboard-response","202","2.1.0","251002","J=YES, F=NO","dc4f9m06xa","1","69","78","60","","","","","","","","","","","","","","","",""
"null","audio/beep-329314.mp3","null","audio-keyboard-response","203","2.1.0","252503","J=YES, F=NO","dc4f9m06xa","1","69","78","60","","","","","","","","","","","","","","","",""
"null","audio/golf1.wav","null","audio-keyboard-response","204","2.1.0","253024","J=YES, F=NO","dc4f9m06xa","1","69","78","60","","","","","","","","","","","","","","","",""
"570","
          <p id=""word"" style=""font-size: 40px;"">bury</p>
          <p style=""font-size: 16px;"">J = YES &nbsp;&nbsp;&nbsp; F = NO</p>
        ","j","html-keyboard-response","205","2.1.0","253595","J=YES, F=NO","dc4f9m06xa","1","69","78","60","","","","","","","","","bury","golf1","unrelated","experimental","j","true","",""
"null","<p style=""font-size: 50px;"">+</p>","null","html-keyboard-response","206","2.1.0","253908","J=YES, F=NO","dc4f9m06xa","1","69","78","60","","","","","","","","","","","","","","","",""
"null","audio/beep-329314.mp3","null","audio-keyboard-response","207","2.1.0","255398","J=YES, F=NO","dc4f9m06xa","1","69","78","60","","","","","","","","","","","","","","","",""
"null","audio/theory1.wav","null","audio-keyboard-response","208","2.1.0","255991","J=YES, F=NO","dc4f9m06xa","1","69","78","60","","","","","","","","","","","","","","","",""
"651","
          <p id=""word"" style=""font-size: 40px;"">scolve</p>
          <p style=""font-size: 16px;"">J = YES &nbsp;&nbsp;&nbsp; F = NO</p>
        ","f","html-keyboard-response","209","2.1.0","256643","J=YES, F=NO","dc4f9m06xa","1","69","78","60","","","","","","","","","scolve","theory1","pseudoword","pseudoword","f","true","",""
"null","<p style=""font-size: 50px;"">+</p>","null","html-keyboard-response","210","2.1.0","256948","J=YES, F=NO","dc4f9m06xa","1","69","78","60","","","","","","","","","","","","","","","",""
"null","audio/beep-329314.mp3","null","audio-keyboard-response","211","2.1.0","258453","J=YES, F=NO","dc4f9m06xa","1","69","78","60","","","","","","","","","","","","","","","",""
"null","audio/voice.wav","null","audio-keyboard-response","212","2.1.0","259012","J=YES, F=NO","dc4f9m06xa","1","69","78","60","","","","","","","","","","","","","","","",""
"867","
          <p id=""word"" style=""font-size: 40px;"">grintle</p>
          <p style=""font-size: 16px;"">J = YES &nbsp;&nbsp;&nbsp; F = NO</p>
        ","f","html-keyboard-response","213","2.1.0","259881","J=YES, F=NO","dc4f9m06xa","1","69","78","60","","","","","","","","","grintle","voice","pseudoword","pseudoword","f","true","",""
"null","<p style=""font-size: 50px;"">+</p>","null","html-keyboard-response","214","2.1.0","260182","J=YES, F=NO","dc4f9m06xa","1","69","78","60","","","","","","","","","","","","","","","",""
"null","audio/beep-329314.mp3","null","audio-keyboard-response","215","2.1.0","261680","J=YES, F=NO","dc4f9m06xa","1","69","78","60","","","","","","","","","","","","","","","",""
"null","audio/plot1.wav","null","audio-keyboard-response","216","2.1.0","262173","J=YES, F=NO","dc4f9m06xa","1","69","78","60","","","","","","","","","","","","","","","",""
"766","
          <p id=""word"" style=""font-size: 40px;"">glenter</p>
          <p style=""font-size: 16px;"">J = YES &nbsp;&nbsp;&nbsp; F = NO</p>
        ","f","html-keyboard-response","217","2.1.0","262939","J=YES, F=NO","dc4f9m06xa","1","69","78","60","","","","","","","","","glenter","plot1","pseudoword","pseudoword","f","true","",""
"null","<p style=""font-size: 50px;"">+</p>","null","html-keyboard-response","218","2.1.0","263251","J=YES, F=NO","dc4f9m06xa","1","69","78","60","","","","","","","","","","","","","","","",""
"null","audio/beep-329314.mp3","null","audio-keyboard-response","219","2.1.0","264753","J=YES, F=NO","dc4f9m06xa","1","69","78","60","","","","","","","","","","","","","","","",""
"null","audio/pain1.wav","null","audio-keyboard-response","220","2.1.0","265148","J=YES, F=NO","dc4f9m06xa","1","69","78","60","","","","","","","","","","","","","","","",""
"750","
          <p id=""word"" style=""font-size: 40px;"">tritted</p>
          <p style=""font-size: 16px;"">J = YES &nbsp;&nbsp;&nbsp; F = NO</p>
        ","f","html-keyboard-response","221","2.1.0","265900","J=YES, F=NO","dc4f9m06xa","1","69","78","60","","","","","","","","","tritted","pain1","pseudoword","pseudoword","f","true","",""
"null","<p style=""font-size: 50px;"">+</p>","null","html-keyboard-response","222","2.1.0","266208","J=YES, F=NO","dc4f9m06xa","1","69","78","60","","","","","","","","","","","","","","","",""
"null","audio/beep-329314.mp3","null","audio-keyboard-response","223","2.1.0","267700","J=YES, F=NO","dc4f9m06xa","1","69","78","60","","","","","","","","","","","","","","","",""
"null","audio/story.wav","null","audio-keyboard-response","224","2.1.0","268324","J=YES, F=NO","dc4f9m06xa","1","69","78","60","","","","","","","","","","","","","","","",""
"598","
          <p id=""word"" style=""font-size: 40px;"">cover</p>
          <p style=""font-size: 16px;"">J = YES &nbsp;&nbsp;&nbsp; F = NO</p>
        ","j","html-keyboard-response","225","2.1.0","268924","J=YES, F=NO","dc4f9m06xa","1","69","78","60","","","","","","","","","cover","story","metaphor","experimental","j","true","",""
"null","<p style=""font-size: 50px;"">+</p>","null","html-keyboard-response","226","2.1.0","269225","J=YES, F=NO","dc4f9m06xa","1","69","78","60","","","","","","","","","","","","","","","",""
"null","audio/beep-329314.mp3","null","audio-keyboard-response","227","2.1.0","270724","J=YES, F=NO","dc4f9m06xa","1","69","78","60","","","","","","","","","","","","","","","",""
"null","audio/cloud1.wav","null","audio-keyboard-response","228","2.1.0","271233","J=YES, F=NO","dc4f9m06xa","1","69","78","60","","","","","","","","","","","","","","","",""
"609","
          <p id=""word"" style=""font-size: 40px;"">brotant</p>
          <p style=""font-size: 16px;"">J = YES &nbsp;&nbsp;&nbsp; F = NO</p>
        ","f","html-keyboard-response","229","2.1.0","271843","J=YES, F=NO","dc4f9m06xa","1","69","78","60","","","","","","","","","brotant","cloud1","pseudoword","pseudoword","f","true","",""
"11892","<p>Excellent! You have finished block 1 of 8.</p>
                     <p>Feel free to take a 30 second break.</p>
                     <p>Press any key when you're ready to continue.</p>"," ","html-keyboard-response","230","2.1.0","283737","J=YES, F=NO","dc4f9m06xa","1","69","78","60","","","","","","","","","","","","","","","",""
"1007","<p>Starting main block 2 of 8. Press any key to continue.</p>"," ","html-keyboard-response","231","2.1.0","284745","J=YES, F=NO","dc4f9m06xa","1","69","78","60","","","","","","","","","","","","","","","",""
"null","<p style=""font-size: 50px;"">+</p>","null","html-keyboard-response","232","2.1.0","285047","J=YES, F=NO","dc4f9m06xa","1","69","78","60","","","","","","","","","","","","","","","",""
"null","audio/beep-329314.mp3","null","audio-keyboard-response","233","2.1.0","286548","J=YES, F=NO","dc4f9m06xa","1","69","78","60","","","","","","","","","","","","","","","",""
"null","audio/prisoner.wav","null","audio-keyboard-response","234","2.1.0","287026","J=YES, F=NO","dc4f9m06xa","1","69","78","60","","","","","","","","","","","","","","","",""
"1182","
          <p id=""word"" style=""font-size: 40px;"">egotian</p>
          <p style=""font-size: 16px;"">J = YES &nbsp;&nbsp;&nbsp; F = NO</p>
        ","f","html-keyboard-response","235","2.1.0","288208","J=YES, F=NO","dc4f9m06xa","1","69","78","60","","","","","","","","","egotian","prisoner","pseudoword","pseudoword","f","true","",""
"null","<p style=""font-size: 50px;"">+</p>","null","html-keyboard-response","236","2.1.0","288524","J=YES, F=NO","dc4f9m06xa","1","69","78","60","","","","","","","","","","","","","","","",""
"null","audio/beep-329314.mp3","null","audio-keyboard-response","237","2.1.0","290026","J=YES, F=NO","dc4f9m06xa","1","69","78","60","","","","","","","","","","","","","","","",""
"null","audio/novel.wav","null","audio-keyboard-response","238","2.1.0","290477","J=YES, F=NO","dc4f9m06xa","1","69","78","60","","","","","","","","","","","","","","","",""
"508","
          <p id=""word"" style=""font-size: 40px;"">type</p>
          <p style=""font-size: 16px;"">J = YES &nbsp;&nbsp;&nbsp; F = NO</p>
        ","j","html-keyboard-response","239","2.1.0","290985","J=YES, F=NO","dc4f9m06xa","1","69","78","60","","","","","","","","","type","novel","filler","filler","j","true","",""
"null","<p style=""font-size: 50px;"">+</p>","null","html-keyboard-response","240","2.1.0","291286","J=YES, F=NO","dc4f9m06xa","1","69","78","60","","","","","","","","","","","","","","","",""
"null","audio/beep-329314.mp3","null","audio-keyboard-response","241","2.1.0","292776","J=YES, F=NO","dc4f9m06xa","1","69","78","60","","","","","","","","","","","","","","","",""
"null","audio/vehicle1.wav","null","audio-keyboard-response","242","2.1.0","293381","J=YES, F=NO","dc4f9m06xa","1","69","78","60","","","","","","","","","","","","","","","",""
"570","
          <p id=""word"" style=""font-size: 40px;"">approach</p>
          <p style=""font-size: 16px;"">J = YES &nbsp;&nbsp;&nbsp; F = NO</p>
        ","j","html-keyboard-response","243","2.1.0","293952","J=YES, F=NO","dc4f9m06xa","1","69","78","60","","","","","","","","","approach","vehicle1","literal","experimental","j","true","",""
"null","<p style=""font-size: 50px;"">+</p>","null","html-keyboard-response","244","2.1.0","294254","J=YES, F=NO","dc4f9m06xa","1","69","78","60","","","","","","","","","","","","","","","",""
"null","audio/beep-329314.mp3","null","audio-keyboard-response","245","2.1.0","295747","J=YES, F=NO","dc4f9m06xa","1","69","78","60","","","","","","","","","","","","","","","",""
"null","audio/weight1.wav","null","audio-keyboard-response","246","2.1.0","296227","J=YES, F=NO","dc4f9m06xa","1","69","78","60","","","","","","","","","","","","","","","",""
"672","
          <p id=""word"" style=""font-size: 40px;"">crimsh</p>
          <p style=""font-size: 16px;"">J = YES &nbsp;&nbsp;&nbsp; F = NO</p>
        ","f","html-keyboard-response","247","2.1.0","296899","J=YES, F=NO","dc4f9m06xa","1","69","78","60","","","","","","","","","crimsh","weight1","pseudoword","pseudoword","f","true","",""
"null","<p style=""font-size: 50px;"">+</p>","null","html-keyboard-response","248","2.1.0","297211","J=YES, F=NO","dc4f9m06xa","1","69","78","60","","","","","","","","","","","","","","","",""
"null","audio/beep-329314.mp3","null","audio-keyboard-response","249","2.1.0","298721","J=YES, F=NO","dc4f9m06xa","1","69","78","60","","","","","","","","","","","","","","","",""
"null","audio/arm.wav","null","audio-keyboard-response","250","2.1.0","299221","J=YES, F=NO","dc4f9m06xa","1","69","78","60","","","","","","","","","","","","","","","",""
"628","
          <p id=""word"" style=""font-size: 40px;"">pigne</p>
          <p style=""font-size: 16px;"">J = YES &nbsp;&nbsp;&nbsp; F = NO</p>
        ","f","html-keyboard-response","251","2.1.0","299850","J=YES, F=NO","dc4f9m06xa","1","69","78","60","","","","","","","","","pigne","arm","pseudoword","pseudoword","f","true","",""
"null","<p style=""font-size: 50px;"">+</p>","null","html-keyboard-response","252","2.1.0","300158","J=YES, F=NO","dc4f9m06xa","1","69","78","60","","","","","","","","","","","","","","","",""
"null","audio/beep-329314.mp3","null","audio-keyboard-response","253","2.1.0","301662","J=YES, F=NO","dc4f9m06xa","1","69","78","60","","","","","","","","","","","","","","","",""
"null","audio/effort.wav","null","audio-keyboard-response","254","2.1.0","302232","J=YES, F=NO","dc4f9m06xa","1","69","78","60","","","","","","","","","","","","","","","",""
"531","
          <p id=""word"" style=""font-size: 40px;"">whonk</p>
          <p style=""font-size: 16px;"">J = YES &nbsp;&nbsp;&nbsp; F = NO</p>
        ","f","html-keyboard-response","255","2.1.0","302764","J=YES, F=NO","dc4f9m06xa","1","69","78","60","","","","","","","","","whonk","effort","pseudoword","pseudoword","f","true","",""
"null","<p style=""font-size: 50px;"">+</p>","null","html-keyboard-response","256","2.1.0","303076","J=YES, F=NO","dc4f9m06xa","1","69","78","60","","","","","","","","","","","","","","","",""
"null","audio/beep-329314.mp3","null","audio-keyboard-response","257","2.1.0","304571","J=YES, F=NO","dc4f9m06xa","1","69","78","60","","","","","","","","","","","","","","","",""
"null","audio/van1.wav","null","audio-keyboard-response","258","2.1.0","305017","J=YES, F=NO","dc4f9m06xa","1","69","78","60","","","","","","","","","","","","","","","",""
"536","
          <p id=""word"" style=""font-size: 40px;"">support</p>
          <p style=""font-size: 16px;"">J = YES &nbsp;&nbsp;&nbsp; F = NO</p>
        ","j","html-keyboard-response","259","2.1.0","305553","J=YES, F=NO","dc4f9m06xa","1","69","78","60","","","","","","","","","support","van1","unrelated","experimental","j","true","",""
"null","<p style=""font-size: 50px;"">+</p>","null","html-keyboard-response","260","2.1.0","305866","J=YES, F=NO","dc4f9m06xa","1","69","78","60","","","","","","","","","","","","","","","",""
"null","audio/beep-329314.mp3","null","audio-keyboard-response","261","2.1.0","307361","J=YES, F=NO","dc4f9m06xa","1","69","78","60","","","","","","","","","","","","","","","",""
"null","audio/gossip1.wav","null","audio-keyboard-response","262","2.1.0","307952","J=YES, F=NO","dc4f9m06xa","1","69","78","60","","","","","","","","","","","","","","","",""
"619","
          <p id=""word"" style=""font-size: 40px;"">camerish</p>
          <p style=""font-size: 16px;"">J = YES &nbsp;&nbsp;&nbsp; F = NO</p>
        ","f","html-keyboard-response","263","2.1.0","308572","J=YES, F=NO","dc4f9m06xa","1","69","78","60","","","","","","","","","camerish","gossip1","pseudoword","pseudoword","f","true","",""
"null","<p style=""font-size: 50px;"">+</p>","null","html-keyboard-response","264","2.1.0","308878","J=YES, F=NO","dc4f9m06xa","1","69","78","60","","","","","","","","","","","","","","","",""
"null","audio/beep-329314.mp3","null","audio-keyboard-response","265","2.1.0","310382","J=YES, F=NO","dc4f9m06xa","1","69","78","60","","","","","","","","","","","","","","","",""
"null","audio/birth1.wav","null","audio-keyboard-response","266","2.1.0","310881","J=YES, F=NO","dc4f9m06xa","1","69","78","60","","","","","","","","","","","","","","","",""
"545","
          <p id=""word"" style=""font-size: 40px;"">drop</p>
          <p style=""font-size: 16px;"">J = YES &nbsp;&nbsp;&nbsp; F = NO</p>
        ","j","html-keyboard-response","267","2.1.0","311427","J=YES, F=NO","dc4f9m06xa","1","69","78","60","","","","","","","","","drop","birth1","unrelated","experimental","j","true","",""
"null","<p style=""font-size: 50px;"">+</p>","null","html-keyboard-response","268","2.1.0","311731","J=YES, F=NO","dc4f9m06xa","1","69","78","60","","","","","","","","","","","","","","","",""
"null","audio/beep-329314.mp3","null","audio-keyboard-response","269","2.1.0","313231","J=YES, F=NO","dc4f9m06xa","1","69","78","60","","","","","","","","","","","","","","","",""
"null","audio/meal.wav","null","audio-keyboard-response","270","2.1.0","313641","J=YES, F=NO","dc4f9m06xa","1","69","78","60","","","","","","","","","","","","","","","",""
"561","
          <p id=""word"" style=""font-size: 40px;"">share</p>
          <p style=""font-size: 16px;"">J = YES &nbsp;&nbsp;&nbsp; F = NO</p>
        ","j","html-keyboard-response","271","2.1.0","314204","J=YES, F=NO","dc4f9m06xa","1","69","78","60","","","","","","","","","share","meal","literal","experimental","j","true","",""
"null","<p style=""font-size: 50px;"">+</p>","null","html-keyboard-response","272","2.1.0","314505","J=YES, F=NO","dc4f9m06xa","1","69","78","60","","","","","","","","","","","","","","","",""
"null","audio/beep-329314.mp3","null","audio-keyboard-response","273","2.1.0","316001","J=YES, F=NO","dc4f9m06xa","1","69","78","60","","","","","","","","","","","","","","","",""
"null","audio/menu.wav","null","audio-keyboard-response","274","2.1.0","316561","J=YES, F=NO","dc4f9m06xa","1","69","78","60","","","","","","","","","","","","","","","",""
"615","
          <p id=""word"" style=""font-size: 40px;"">navigate</p>
          <p style=""font-size: 16px;"">J = YES &nbsp;&nbsp;&nbsp; F = NO</p>
        ","j","html-keyboard-response","275","2.1.0","317179","J=YES, F=NO","dc4f9m06xa","1","69","78","60","","","","","","","","","navigate","menu","metaphor","experimental","j","true","",""
"null","<p style=""font-size: 50px;"">+</p>","null","html-keyboard-response","276","2.1.0","317494","J=YES, F=NO","dc4f9m06xa","1","69","78","60","","","","","","","","","","","","","","","",""
"null","audio/beep-329314.mp3","null","audio-keyboard-response","277","2.1.0","318992","J=YES, F=NO","dc4f9m06xa","1","69","78","60","","","","","","","","","","","","","","","",""
"null","audio/cloud1.wav","null","audio-keyboard-response","278","2.1.0","319501","J=YES, F=NO","dc4f9m06xa","1","69","78","60","","","","","","","","","","","","","","","",""
"556","
          <p id=""word"" style=""font-size: 40px;"">scrap</p>
          <p style=""font-size: 16px;"">J = YES &nbsp;&nbsp;&nbsp; F = NO</p>
        ","f","html-keyboard-response","279","2.1.0","320059","J=YES, F=NO","dc4f9m06xa","1","69","78","60","","","","","","","","","scrap","cloud1","unrelated","experimental","j","false","",""
"null","<p style=""font-size: 50px;"">+</p>","null","html-keyboard-response","280","2.1.0","320375","J=YES, F=NO","dc4f9m06xa","1","69","78","60","","","","","","","","","","","","","","","",""
"null","audio/beep-329314.mp3","null","audio-keyboard-response","281","2.1.0","321872","J=YES, F=NO","dc4f9m06xa","1","69","78","60","","","","","","","","","","","","","","","",""
"null","audio/bridge.wav","null","audio-keyboard-response","282","2.1.0","322366","J=YES, F=NO","dc4f9m06xa","1","69","78","60","","","","","","","","","","","","","","","",""
"548","
          <p id=""word"" style=""font-size: 40px;"">crack</p>
          <p style=""font-size: 16px;"">J = YES &nbsp;&nbsp;&nbsp; F = NO</p>
        ","j","html-keyboard-response","283","2.1.0","322916","J=YES, F=NO","dc4f9m06xa","1","69","78","60","","","","","","","","","crack","bridge","filler","filler","j","true","",""
"null","<p style=""font-size: 50px;"">+</p>","null","html-keyboard-response","284","2.1.0","323225","J=YES, F=NO","dc4f9m06xa","1","69","78","60","","","","","","","","","","","","","","","",""
"null","audio/beep-329314.mp3","null","audio-keyboard-response","285","2.1.0","324717","J=YES, F=NO","dc4f9m06xa","1","69","78","60","","","","","","","","","","","","","","","",""
"null","audio/battle1.wav","null","audio-keyboard-response","286","2.1.0","325131","J=YES, F=NO","dc4f9m06xa","1","69","78","60","","","","","","","","","","","","","","","",""
"541","
          <p id=""word"" style=""font-size: 40px;"">fight</p>
          <p style=""font-size: 16px;"">J = YES &nbsp;&nbsp;&nbsp; F = NO</p>
        ","j","html-keyboard-response","287","2.1.0","325673","J=YES, F=NO","dc4f9m06xa","1","69","78","60","","","","","","","","","fight","battle1","literal","experimental","j","true","",""
"null","<p style=""font-size: 50px;"">+</p>","null","html-keyboard-response","288","2.1.0","325982","J=YES, F=NO","dc4f9m06xa","1","69","78","60","","","","","","","","","","","","","","","",""
"null","audio/beep-329314.mp3","null","audio-keyboard-response","289","2.1.0","327482","J=YES, F=NO","dc4f9m06xa","1","69","78","60","","","","","","","","","","","","","","","",""
"null","audio/sand.wav","null","audio-keyboard-response","290","2.1.0","328091","J=YES, F=NO","dc4f9m06xa","1","69","78","60","","","","","","","","","","","","","","","",""
"644","
          <p id=""word"" style=""font-size: 40px;"">proted</p>
          <p style=""font-size: 16px;"">J = YES &nbsp;&nbsp;&nbsp; F = NO</p>
        ","j","html-keyboard-response","291","2.1.0","328737","J=YES, F=NO","dc4f9m06xa","1","69","78","60","","","","","","","","","proted","sand","pseudoword","pseudoword","f","false","",""
"null","<p style=""font-size: 50px;"">+</p>","null","html-keyboard-response","292","2.1.0","329038","J=YES, F=NO","dc4f9m06xa","1","69","78","60","","","","","","","","","","","","","","","",""
"null","audio/beep-329314.mp3","null","audio-keyboard-response","293","2.1.0","330541","J=YES, F=NO","dc4f9m06xa","1","69","78","60","","","","","","","","","","","","","","","",""
"null","audio/rain.wav","null","audio-keyboard-response","294","2.1.0","330950","J=YES, F=NO","dc4f9m06xa","1","69","78","60","","","","","","","","","","","","","","","",""
"514","
          <p id=""word"" style=""font-size: 40px;"">lose</p>
          <p style=""font-size: 16px;"">J = YES &nbsp;&nbsp;&nbsp; F = NO</p>
        ","j","html-keyboard-response","295","2.1.0","331467","J=YES, F=NO","dc4f9m06xa","1","69","78","60","","","","","","","","","lose","rain","unrelated","experimental","j","true","",""
"1063","<p>Excellent! You have finished block 2 of 8.</p>
                     <p>Feel free to take a 30 second break.</p>
                     <p>Press any key when you're ready to continue.</p>"," ","html-keyboard-response","296","2.1.0","332531","J=YES, F=NO","dc4f9m06xa","1","69","78","60","","","","","","","","","","","","","","","",""
"656","<p>Starting main block 3 of 8. Press any key to continue.</p>"," ","html-keyboard-response","297","2.1.0","333187","J=YES, F=NO","dc4f9m06xa","1","69","78","60","","","","","","","","","","","","","","","",""
"null","<p style=""font-size: 50px;"">+</p>","null","html-keyboard-response","298","2.1.0","333502","J=YES, F=NO","dc4f9m06xa","1","69","78","60","","","","","","","","","","","","","","","",""
"null","audio/beep-329314.mp3","null","audio-keyboard-response","299","2.1.0","335002","J=YES, F=NO","dc4f9m06xa","1","69","78","60","","","","","","","","","","","","","","","",""
"null","audio/cinema1.wav","null","audio-keyboard-response","300","2.1.0","335581","J=YES, F=NO","dc4f9m06xa","1","69","78","60","","","","","","","","","","","","","","","",""
"581","
          <p id=""word"" style=""font-size: 40px;"">murple</p>
          <p style=""font-size: 16px;"">J = YES &nbsp;&nbsp;&nbsp; F = NO</p>
        ","f","html-keyboard-response","301","2.1.0","336163","J=YES, F=NO","dc4f9m06xa","1","69","78","60","","","","","","","","","murple","cinema1","pseudoword","pseudoword","f","true","",""
"null","<p style=""font-size: 50px;"">+</p>","null","html-keyboard-response","302","2.1.0","336473","J=YES, F=NO","dc4f9m06xa","1","69","78","60","","","","","","","","","","","","","","","",""
"null","audio/beep-329314.mp3","null","audio-keyboard-response","303","2.1.0","337981","J=YES, F=NO","dc4f9m06xa","1","69","78","60","","","","","","","","","","","","","","","",""
"null","audio/bush1.wav","null","audio-keyboard-response","304","2.1.0","338421","J=YES, F=NO","dc4f9m06xa","1","69","78","60","","","","","","","","","","","","","","","",""
"661","
          <p id=""word"" style=""font-size: 40px;"">platined</p>
          <p style=""font-size: 16px;"">J = YES &nbsp;&nbsp;&nbsp; F = NO</p>
        ","f","html-keyboard-response","305","2.1.0","339083","J=YES, F=NO","dc4f9m06xa","1","69","78","60","","","","","","","","","platined","bush1","pseudoword","pseudoword","f","true","",""
"null","<p style=""font-size: 50px;"">+</p>","null","html-keyboard-response","306","2.1.0","339390","J=YES, F=NO","dc4f9m06xa","1","69","78","60","","","","","","","","","","","","","","","",""
"null","audio/beep-329314.mp3","null","audio-keyboard-response","307","2.1.0","340891","J=YES, F=NO","dc4f9m06xa","1","69","78","60","","","","","","","","","","","","","","","",""
"null","audio/desire.wav","null","audio-keyboard-response","308","2.1.0","341471","J=YES, F=NO","dc4f9m06xa","1","69","78","60","","","","","","","","","","","","","","","",""
"530","
          <p id=""word"" style=""font-size: 40px;"">nophed</p>
          <p style=""font-size: 16px;"">J = YES &nbsp;&nbsp;&nbsp; F = NO</p>
        ","f","html-keyboard-response","309","2.1.0","342004","J=YES, F=NO","dc4f9m06xa","1","69","78","60","","","","","","","","","nophed","desire","pseudoword","pseudoword","f","true","",""
"null","<p style=""font-size: 50px;"">+</p>","null","html-keyboard-response","310","2.1.0","342316","J=YES, F=NO","dc4f9m06xa","1","69","78","60","","","","","","","","","","","","","","","",""
"null","audio/beep-329314.mp3","null","audio-keyboard-response","311","2.1.0","343808","J=YES, F=NO","dc4f9m06xa","1","69","78","60","","","","","","","","","","","","","","","",""
"null","audio/camp.wav","null","audio-keyboard-response","312","2.1.0","344296","J=YES, F=NO","dc4f9m06xa","1","69","78","60","","","","","","","","","","","","","","","",""
"490","
          <p id=""word"" style=""font-size: 40px;"">touch</p>
          <p style=""font-size: 16px;"">J = YES &nbsp;&nbsp;&nbsp; F = NO</p>
        ","j","html-keyboard-response","313","2.1.0","344788","J=YES, F=NO","dc4f9m06xa","1","69","78","60","","","","","","","","","touch","camp","unrelated","experimental","j","true","",""
"null","<p style=""font-size: 50px;"">+</p>","null","html-keyboard-response","314","2.1.0","345091","J=YES, F=NO","dc4f9m06xa","1","69","78","60","","","","","","","","","","","","","","","",""
"null","audio/beep-329314.mp3","null","audio-keyboard-response","315","2.1.0","346588","J=YES, F=NO","dc4f9m06xa","1","69","78","60","","","","","","","","","","","","","","","",""
"null","audio/holiday1.wav","null","audio-keyboard-response","316","2.1.0","347171","J=YES, F=NO","dc4f9m06xa","1","69","78","60","","","","","","","","","","","","","","","",""
"613","
          <p id=""word"" style=""font-size: 40px;"">drivets</p>
          <p style=""font-size: 16px;"">J = YES &nbsp;&nbsp;&nbsp; F = NO</p>
        ","f","html-keyboard-response","317","2.1.0","347785","J=YES, F=NO","dc4f9m06xa","1","69","78","60","","","","","","","","","drivets","holiday1","pseudoword","pseudoword","f","true","",""
"null","<p style=""font-size: 50px;"">+</p>","null","html-keyboard-response","318","2.1.0","348091","J=YES, F=NO","dc4f9m06xa","1","69","78","60","","","","","","","","","","","","","","","",""
"null","audio/beep-329314.mp3","null","audio-keyboard-response","319","2.1.0","349591","J=YES, F=NO","dc4f9m06xa","1","69","78","60","","","","","","","","","","","","","","","",""
"null","audio/skin1.wav","null","audio-keyboard-response","320","2.1.0","350131","J=YES, F=NO","dc4f9m06xa","1","69","78","60","","","","","","","","","","","","","","","",""
"548","
          <p id=""word"" style=""font-size: 40px;"">expose</p>
          <p style=""font-size: 16px;"">J = YES &nbsp;&nbsp;&nbsp; F = NO</p>
        ","j","html-keyboard-response","321","2.1.0","350681","J=YES, F=NO","dc4f9m06xa","1","69","78","60","","","","","","","","","expose","skin1","literal","experimental","j","true","",""
"null","<p style=""font-size: 50px;"">+</p>","null","html-keyboard-response","322","2.1.0","350989","J=YES, F=NO","dc4f9m06xa","1","69","78","60","","","","","","","","","","","","","","","",""
"null","audio/beep-329314.mp3","null","audio-keyboard-response","323","2.1.0","352492","J=YES, F=NO","dc4f9m06xa","1","69","78","60","","","","","","","","","","","","","","","",""
"null","audio/fox.wav","null","audio-keyboard-response","324","2.1.0","353241","J=YES, F=NO","dc4f9m06xa","1","69","78","60","","","","","","","","","","","","","","","",""
"720","
          <p id=""word"" style=""font-size: 40px;"">conquer</p>
          <p style=""font-size: 16px;"">J = YES &nbsp;&nbsp;&nbsp; F = NO</p>
        ","j","html-keyboard-response","325","2.1.0","353963","J=YES, F=NO","dc4f9m06xa","1","69","78","60","","","","","","","","","conquer","fox","unrelated","experimental","j","true","",""
"null","<p style=""font-size: 50px;"">+</p>","null","html-keyboard-response","326","2.1.0","354302","J=YES, F=NO","dc4f9m06xa","1","69","78","60","","","","","","","","","","","","","","","",""
"null","audio/beep-329314.mp3","null","audio-keyboard-response","327","2.1.0","355827","J=YES, F=NO","dc4f9m06xa","1","69","78","60","","","","","","","","","","","","","","","",""
"null","audio/rank1.wav","null","audio-keyboard-response","328","2.1.0","356361","J=YES, F=NO","dc4f9m06xa","1","69","78","60","","","","","","","","","","","","","","","",""
"594","
          <p id=""word"" style=""font-size: 40px;"">climb</p>
          <p style=""font-size: 16px;"">J = YES &nbsp;&nbsp;&nbsp; F = NO</p>
        ","j","html-keyboard-response","329","2.1.0","356955","J=YES, F=NO","dc4f9m06xa","1","69","78","60","","","","","","","","","climb","rank1","metaphor","experimental","j","true","",""
"null","<p style=""font-size: 50px;"">+</p>","null","html-keyboard-response","330","2.1.0","357268","J=YES, F=NO","dc4f9m06xa","1","69","78","60","","","","","","","","","","","","","","","",""
"null","audio/beep-329314.mp3","null","audio-keyboard-response","331","2.1.0","358771","J=YES, F=NO","dc4f9m06xa","1","69","78","60","","","","","","","","","","","","","","","",""
"null","audio/hotel1.wav","null","audio-keyboard-response","332","2.1.0","359351","J=YES, F=NO","dc4f9m06xa","1","69","78","60","","","","","","","","","","","","","","","",""
"585","
          <p id=""word"" style=""font-size: 40px;"">flanter</p>
          <p style=""font-size: 16px;"">J = YES &nbsp;&nbsp;&nbsp; F = NO</p>
        ","f","html-keyboard-response","333","2.1.0","359939","J=YES, F=NO","dc4f9m06xa","1","69","78","60","","","","","","","","","flanter","hotel1","pseudoword","pseudoword","f","true","",""
"null","<p style=""font-size: 50px;"">+</p>","null","html-keyboard-response","334","2.1.0","360241","J=YES, F=NO","dc4f9m06xa","1","69","78","60","","","","","","","","","","","","","","","",""
"null","audio/beep-329314.mp3","null","audio-keyboard-response","335","2.1.0","361742","J=YES, F=NO","dc4f9m06xa","1","69","78","60","","","","","","","","","","","","","","","",""
"null","audio/haste1.wav","null","audio-keyboard-response","336","2.1.0","362261","J=YES, F=NO","dc4f9m06xa","1","69","78","60","","","","","","","","","","","","","","","",""
"594","
          <p id=""word"" style=""font-size: 40px;"">coraconate</p>
          <p style=""font-size: 16px;"">J = YES &nbsp;&nbsp;&nbsp; F = NO</p>
        ","f","html-keyboard-response","337","2.1.0","362857","J=YES, F=NO","dc4f9m06xa","1","69","78","60","","","","","","","","","coraconate","haste1","pseudoword","pseudoword","f","true","",""
"null","<p style=""font-size: 50px;"">+</p>","null","html-keyboard-response","338","2.1.0","363159","J=YES, F=NO","dc4f9m06xa","1","69","78","60","","","","","","","","","","","","","","","",""
"null","audio/beep-329314.mp3","null","audio-keyboard-response","339","2.1.0","364671","J=YES, F=NO","dc4f9m06xa","1","69","78","60","","","","","","","","","","","","","","","",""
"null","audio/truth1.wav","null","audio-keyboard-response","340","2.1.0","365178","J=YES, F=NO","dc4f9m06xa","1","69","78","60","","","","","","","","","","","","","","","",""
"535","
          <p id=""word"" style=""font-size: 40px;"">calitom</p>
          <p style=""font-size: 16px;"">J = YES &nbsp;&nbsp;&nbsp; F = NO</p>
        ","f","html-keyboard-response","341","2.1.0","365713","J=YES, F=NO","dc4f9m06xa","1","69","78","60","","","","","","","","","calitom","truth1","pseudoword","pseudoword","f","true","",""
"null","<p style=""font-size: 50px;"">+</p>","null","html-keyboard-response","342","2.1.0","366028","J=YES, F=NO","dc4f9m06xa","1","69","78","60","","","","","","","","","","","","","","","",""
"null","audio/beep-329314.mp3","null","audio-keyboard-response","343","2.1.0","367521","J=YES, F=NO","dc4f9m06xa","1","69","78","60","","","","","","","","","","","","","","","",""
"null","audio/hawk1.wav","null","audio-keyboard-response","344","2.1.0","368071","J=YES, F=NO","dc4f9m06xa","1","69","78","60","","","","","","","","","","","","","","","",""
"498","
          <p id=""word"" style=""font-size: 40px;"">ostach</p>
          <p style=""font-size: 16px;"">J = YES &nbsp;&nbsp;&nbsp; F = NO</p>
        ","f","html-keyboard-response","345","2.1.0","368572","J=YES, F=NO","dc4f9m06xa","1","69","78","60","","","","","","","","","ostach","hawk1","pseudoword","pseudoword","f","true","",""
"null","<p style=""font-size: 50px;"">+</p>","null","html-keyboard-response","346","2.1.0","368886","J=YES, F=NO","dc4f9m06xa","1","69","78","60","","","","","","","","","","","","","","","",""
"null","audio/beep-329314.mp3","null","audio-keyboard-response","347","2.1.0","370382","J=YES, F=NO","dc4f9m06xa","1","69","78","60","","","","","","","","","","","","","","","",""
"null","audio/wealth1.wav","null","audio-keyboard-response","348","2.1.0","370902","J=YES, F=NO","dc4f9m06xa","1","69","78","60","","","","","","","","","","","","","","","",""
"524","
          <p id=""word"" style=""font-size: 40px;"">possess</p>
          <p style=""font-size: 16px;"">J = YES &nbsp;&nbsp;&nbsp; F = NO</p>
        ","j","html-keyboard-response","349","2.1.0","371427","J=YES, F=NO","dc4f9m06xa","1","69","78","60","","","","","","","","","possess","wealth1","literal","experimental","j","true","",""
"null","<p style=""font-size: 50px;"">+</p>","null","html-keyboard-response","350","2.1.0","371735","J=YES, F=NO","dc4f9m06xa","1","69","78","60","","","","","","","","","","","","","","","",""
"null","audio/beep-329314.mp3","null","audio-keyboard-response","351","2.1.0","373226","J=YES, F=NO","dc4f9m06xa","1","69","78","60","","","","","","","","","","","","","","","",""
"null","audio/trout1.wav","null","audio-keyboard-response","352","2.1.0","373767","J=YES, F=NO","dc4f9m06xa","1","69","78","60","","","","","","","","","","","","","","","",""
"587","
          <p id=""word"" style=""font-size: 40px;"">catch</p>
          <p style=""font-size: 16px;"">J = YES &nbsp;&nbsp;&nbsp; F = NO</p>
        ","j","html-keyboard-response","353","2.1.0","374355","J=YES, F=NO","dc4f9m06xa","1","69","78","60","","","","","","","","","catch","trout1","literal","experimental","j","true","",""
"null","<p style=""font-size: 50px;"">+</p>","null","html-keyboard-response","354","2.1.0","374671","J=YES, F=NO","dc4f9m06xa","1","69","78","60","","","","","","","","","","","","","","","",""
"null","audio/beep-329314.mp3","null","audio-keyboard-response","355","2.1.0","376171","J=YES, F=NO","dc4f9m06xa","1","69","78","60","","","","","","","","","","","","","","","",""
"null","audio/camera1.wav","null","audio-keyboard-response","356","2.1.0","376641","J=YES, F=NO","dc4f9m06xa","1","69","78","60","","","","","","","","","","","","","","","",""
"633","
          <p id=""word"" style=""font-size: 40px;"">stir</p>
          <p style=""font-size: 16px;"">J = YES &nbsp;&nbsp;&nbsp; F = NO</p>
        ","j","html-keyboard-response","357","2.1.0","377275","J=YES, F=NO","dc4f9m06xa","1","69","78","60","","","","","","","","","stir","camera1","filler","filler","j","true","",""
"null","<p style=""font-size: 50px;"">+</p>","null","html-keyboard-response","358","2.1.0","377589","J=YES, F=NO","dc4f9m06xa","1","69","78","60","","","","","","","","","","","","","","","",""
"null","audio/beep-329314.mp3","null","audio-keyboard-response","359","2.1.0","379092","J=YES, F=NO","dc4f9m06xa","1","69","78","60","","","","","","","","","","","","","","","",""
"null","audio/window1.wav","null","audio-keyboard-response","360","2.1.0","379661","J=YES, F=NO","dc4f9m06xa","1","69","78","60","","","","","","","","","","","","","","","",""
"485","
          <p id=""word"" style=""font-size: 40px;"">toss</p>
          <p style=""font-size: 16px;"">J = YES &nbsp;&nbsp;&nbsp; F = NO</p>
        ","j","html-keyboard-response","361","2.1.0","380148","J=YES, F=NO","dc4f9m06xa","1","69","78","60","","","","","","","","","toss","window1","filler","filler","j","true","",""
"838","<p>Excellent! You have finished block 3 of 8.</p>
                     <p>Feel free to take a 30 second break.</p>
                     <p>Press any key when you're ready to continue.</p>"," ","html-keyboard-response","362","2.1.0","380987","J=YES, F=NO","dc4f9m06xa","1","69","78","60","","","","","","","","","","","","","","","",""
"296","<p>Starting main block 4 of 8. Press any key to continue.</p>"," ","html-keyboard-response","363","2.1.0","381283","J=YES, F=NO","dc4f9m06xa","1","69","78","60","","","","","","","","","","","","","","","",""
"null","<p style=""font-size: 50px;"">+</p>","null","html-keyboard-response","364","2.1.0","381586","J=YES, F=NO","dc4f9m06xa","1","69","78","60","","","","","","","","","","","","","","","",""
"null","audio/beep-329314.mp3","null","audio-keyboard-response","365","2.1.0","383091","J=YES, F=NO","dc4f9m06xa","1","69","78","60","","","","","","","","","","","","","","","",""
"null","audio/gold1.wav","null","audio-keyboard-response","366","2.1.0","383591","J=YES, F=NO","dc4f9m06xa","1","69","78","60","","","","","","","","","","","","","","","",""
"666","
          <p id=""word"" style=""font-size: 40px;"">sell</p>
          <p style=""font-size: 16px;"">J = YES &nbsp;&nbsp;&nbsp; F = NO</p>
        ","j","html-keyboard-response","367","2.1.0","384260","J=YES, F=NO","dc4f9m06xa","1","69","78","60","","","","","","","","","sell","gold1","literal","experimental","j","true","",""
"null","<p style=""font-size: 50px;"">+</p>","null","html-keyboard-response","368","2.1.0","384569","J=YES, F=NO","dc4f9m06xa","1","69","78","60","","","","","","","","","","","","","","","",""
"null","audio/beep-329314.mp3","null","audio-keyboard-response","369","2.1.0","386072","J=YES, F=NO","dc4f9m06xa","1","69","78","60","","","","","","","","","","","","","","","",""
"null","audio/lion1.wav","null","audio-keyboard-response","370","2.1.0","386571","J=YES, F=NO","dc4f9m06xa","1","69","78","60","","","","","","","","","","","","","","","",""
"605","
          <p id=""word"" style=""font-size: 40px;"">wrestle</p>
          <p style=""font-size: 16px;"">J = YES &nbsp;&nbsp;&nbsp; F = NO</p>
        ","j","html-keyboard-response","371","2.1.0","387177","J=YES, F=NO","dc4f9m06xa","1","69","78","60","","","","","","","","","wrestle","lion1","literal","experimental","j","true","",""
"null","<p style=""font-size: 50px;"">+</p>","null","html-keyboard-response","372","2.1.0","387487","J=YES, F=NO","dc4f9m06xa","1","69","78","60","","","","","","","","","","","","","","","",""
"null","audio/beep-329314.mp3","null","audio-keyboard-response","373","2.1.0","388981","J=YES, F=NO","dc4f9m06xa","1","69","78","60","","","","","","","","","","","","","","","",""
"null","audio/mind.wav","null","audio-keyboard-response","374","2.1.0","389511","J=YES, F=NO","dc4f9m06xa","1","69","78","60","","","","","","","","","","","","","","","",""
"490","
          <p id=""word"" style=""font-size: 40px;"">clear</p>
          <p style=""font-size: 16px;"">J = YES &nbsp;&nbsp;&nbsp; F = NO</p>
        ","j","html-keyboard-response","375","2.1.0","390003","J=YES, F=NO","dc4f9m06xa","1","69","78","60","","","","","","","","","clear","mind","metaphor","experimental","j","true","",""
"null","<p style=""font-size: 50px;"">+</p>","null","html-keyboard-response","376","2.1.0","390319","J=YES, F=NO","dc4f9m06xa","1","69","78","60","","","","","","","","","","","","","","","",""
"null","audio/beep-329314.mp3","null","audio-keyboard-response","377","2.1.0","391821","J=YES, F=NO","dc4f9m06xa","1","69","78","60","","","","","","","","","","","","","","","",""
"null","audio/tomato.wav","null","audio-keyboard-response","378","2.1.0","392471","J=YES, F=NO","dc4f9m06xa","1","69","78","60","","","","","","","","","","","","","","","",""
"602","
          <p id=""word"" style=""font-size: 40px;"">gladies</p>
          <p style=""font-size: 16px;"">J = YES &nbsp;&nbsp;&nbsp; F = NO</p>
        ","f","html-keyboard-response","379","2.1.0","393075","J=YES, F=NO","dc4f9m06xa","1","69","78","60","","","","","","","","","gladies","tomato","pseudoword","pseudoword","f","true","",""
"null","<p style=""font-size: 50px;"">+</p>","null","html-keyboard-response","380","2.1.0","393383","J=YES, F=NO","dc4f9m06xa","1","69","78","60","","","","","","","","","","","","","","","",""
"null","audio/beep-329314.mp3","null","audio-keyboard-response","381","2.1.0","394877","J=YES, F=NO","dc4f9m06xa","1","69","78","60","","","","","","","","","","","","","","","",""
"null","audio/show.wav","null","audio-keyboard-response","382","2.1.0","395371","J=YES, F=NO","dc4f9m06xa","1","69","78","60","","","","","","","","","","","","","","","",""
"542","
          <p id=""word"" style=""font-size: 40px;"">hold</p>
          <p style=""font-size: 16px;"">J = YES &nbsp;&nbsp;&nbsp; F = NO</p>
        ","j","html-keyboard-response","383","2.1.0","395915","J=YES, F=NO","dc4f9m06xa","1","69","78","60","","","","","","","","","hold","show","metaphor","experimental","j","true","",""
"null","<p style=""font-size: 50px;"">+</p>","null","html-keyboard-response","384","2.1.0","396231","J=YES, F=NO","dc4f9m06xa","1","69","78","60","","","","","","","","","","","","","","","",""
"null","audio/beep-329314.mp3","null","audio-keyboard-response","385","2.1.0","397728","J=YES, F=NO","dc4f9m06xa","1","69","78","60","","","","","","","","","","","","","","","",""
"null","audio/butter1.wav","null","audio-keyboard-response","386","2.1.0","398131","J=YES, F=NO","dc4f9m06xa","1","69","78","60","","","","","","","","","","","","","","","",""
"590","
          <p id=""word"" style=""font-size: 40px;"">chew</p>
          <p style=""font-size: 16px;"">J = YES &nbsp;&nbsp;&nbsp; F = NO</p>
        ","j","html-keyboard-response","387","2.1.0","398723","J=YES, F=NO","dc4f9m06xa","1","69","78","60","","","","","","","","","chew","butter1","filler","filler","j","true","",""
"null","<p style=""font-size: 50px;"">+</p>","null","html-keyboard-response","388","2.1.0","399035","J=YES, F=NO","dc4f9m06xa","1","69","78","60","","","","","","","","","","","","","","","",""
"null","audio/beep-329314.mp3","null","audio-keyboard-response","389","2.1.0","400551","J=YES, F=NO","dc4f9m06xa","1","69","78","60","","","","","","","","","","","","","","","",""
"null","audio/voice.wav","null","audio-keyboard-response","390","2.1.0","401108","J=YES, F=NO","dc4f9m06xa","1","69","78","60","","","","","","","","","","","","","","","",""
"508","
          <p id=""word"" style=""font-size: 40px;"">flood</p>
          <p style=""font-size: 16px;"">J = YES &nbsp;&nbsp;&nbsp; F = NO</p>
        ","j","html-keyboard-response","391","2.1.0","401617","J=YES, F=NO","dc4f9m06xa","1","69","78","60","","","","","","","","","flood","voice","unrelated","experimental","j","true","",""
