"rt","stimulus","response","trial_type","trial_index","plugin_version","time_elapsed","response_mapping","subject_id","list_index","lextale_score","lextale_word_score","lextale_nonword_score","success","timeout","failed_images","failed_audio","failed_video","task","isWord","isDummy","target","prime","prime_type","stimulus_type","correct_response","correct","section","question_order"
"136967","
    <div style=""max-width: 800px; margin: auto; text-align: left;"">
      <h2>STANFORD UNIVERSITY</h2>
      <h3>Research Information Sheet</h3>
      <p><strong>Protocol Director:</strong> Robert Hawkins<br>
      <strong>Protocol Title:</strong> Communication and social cognition in natural audiovisual contexts<br>
      <strong>IRB#:</strong> 77226</p>

      <p><strong>DESCRIPTION:</strong> You are invited to participate in a research study about language and communication. The purpose of the research is to understand how you interact and communicate with other people in naturalistic settings as a fluent English speaker. This research will be conducted through the Prolific platform, including participants from the US, UK, and Canada. If you decide to participate in this research, you will play a communication game in a group with one or more partners.</p>

      <p><strong>TIME INVOLVEMENT:</strong> The task will last the amount of time advertised on Prolific. You are free to withdraw from the study at any time.</p>

      <p><strong>RISKS AND BENEFITS:</strong> You may become frustrated if your partner gets distracted, or experience discomfort if other participants in your group send text that is inappropriate for the task. We ask you to please be respectful of other participants you might be interacting with to mitigate these risks. You may also experience discomfort when being asked to discuss or challenge emotionally salient political beliefs. Study data will be stored securely, in compliance with Stanford University standards, minimizing the risk of confidentiality breach. This study advances our scientific understanding of how people communicate and collaborate in naturalistic settings. This study may lead to further insights about what can go wrong in teamwork, suggest potential interventions to overcome these barriers, and help to develop assistive technologies that collaborate with human partners. We cannot and do not guarantee or promise that you will receive any benefits from this study.</p>

      <p><strong>PAYMENTS:</strong> You will receive payment in the amount advertised on Prolific. If you do not complete this study, you will receive prorated payment based on the time that you have spent. Additionally, you may be eligible for bonus payments as described in the instructions.</p>

      <p><strong>PARTICIPANT’S RIGHTS:</strong> If you have read this form and have decided to participate in this project, please understand your participation is voluntary and you have the right to withdraw your consent or discontinue participation at any time without penalty or loss of benefits to which you are otherwise entitled. The alternative is not to participate. You have the right to refuse to answer particular questions. The results of this research study may be presented at scientific or professional meetings or published in scientific journals. Your individual privacy will be maintained in all published and written data resulting from the study. In accordance with scientific norms, the data from this study may be used or shared with other researchers for future research (after removing personally identifying information) without additional consent from you.</p>

      <p><strong>CONTACT INFORMATION:</strong><br>
      Questions: If you have any questions, concerns or complaints about this research, its procedures, risks and benefits, contact the Protocol Director, Robert Hawkins (<a href=""mailto:rdhawkins@stanford.edu"">rdhawkins@stanford.edu</a>, 217-549-6923).<br>
      Independent Contact: If you are not satisfied with how this study is being conducted, or if you have any concerns, complaints, or general questions about the research or your rights as a participant, please contact the Stanford Institutional Review Board (IRB) to speak to someone independent of the research team at 650-723-2480 or toll free at 1-866-680-2906, or email at <a href=""mailto:irbnon-med@stanford.edu"">irbnon-med@stanford.edu</a>. You can also write to the Stanford IRB, Stanford University, 1705 El Camino Real, Palo Alto, CA 94306.</p>

      <p><strong>Please save or print a copy of this page for your records.</strong></p>
      <p>If you agree to participate in this research, click ""Continue"" below.</p>
    </div>
  ","0","html-button-response","0","2.1.0","136975","F=YES, J=NO","dh08ynedll","2","79","68","90","","","","","","","","","","","","","","","",""
"2014","
    <div style=""max-width: 800px; margin: auto; text-align: left;"">
      <h2>Welcome!</h2>
      <p>Thank you for participating in this study. The experiment consists of three parts:</p>
      <ol>
        <li>An English vocabulary test</li>
        <li>A main task in which you will hear and see words, and decide whether the written word is a real English word</li>
        <li>A brief survey about your background</li>
      </ol>
      <p>Each part will be introduced before it begins.</p>
      <p>Please make sure you are in a quiet environment and can hear audio clearly for the final task.</p>
      <p style=""margin-top: 2em;"">Press any key to begin.</p>
    </div>
  "," ","html-keyboard-response","1","2.1.0","138991","F=YES, J=NO","dh08ynedll","2","79","68","90","","","","","","","","","","","","","","","",""
"","","","preload","2","2.1.0","140161","F=YES, J=NO","dh08ynedll","2","79","68","90","true","false","[]","[]","[]","","","","","","","","","","",""
"5698","
    <div style=""max-width: 800px; margin: auto; text-align: left;"">
      <h2>Part 1: Vocabulary Test</h2>
      <p>You will now complete the first part of the study: a short English vocabulary test.</p>
      <p>This test is called <strong>LexTALE</strong> and helps us get a general sense of your English proficiency.</p>
      <p style=""margin-top: 2em;"">Press any key to continue.</p>
    </div>
  "," ","html-keyboard-response","3","2.1.0","145860","F=YES, J=NO","dh08ynedll","2","79","68","90","","","","","","","","","","","","","","","",""
"9077","
    <div style=""max-width: 800px; margin: auto; text-align: left;"">
      <h2>LexTALE Vocabulary Test</h2>
      <p>In this test, you will see a series of letter strings—one at a time.</p>
      <p>Your task is to decide whether each string is a real English word.</p>
      <p><strong>Key responses:</strong></p>
      <ul>
        <li><strong>F</strong> = YES (real English word)</li>
        <li><strong>J</strong> = NO (not a real English word)</li>
      </ul>
      <p>There is no time limit, but please try to be accurate.</p>
      <p style=""margin-top: 2em;"">Press any key to begin.</p>
    </div>
  "," ","html-keyboard-response","4","2.1.0","154938","F=YES, J=NO","dh08ynedll","2","79","68","90","","","","","","","","","","","","","","","",""
"2637","
  <p style=""font-size: 40px;"">platery</p>
  <p style=""font-size: 16px;"">F = YES &nbsp;&nbsp;&nbsp; J = NO</p>
","f","html-keyboard-response","5","2.1.0","157576","F=YES, J=NO","dh08ynedll","2","79","68","90","","","","","","lextale","false","true","","","","","","","",""
"1707","
  <p style=""font-size: 40px;"">denial</p>
  <p style=""font-size: 16px;"">F = YES &nbsp;&nbsp;&nbsp; J = NO</p>
","f","html-keyboard-response","6","2.1.0","159284","F=YES, J=NO","dh08ynedll","2","79","68","90","","","","","","lextale","true","true","","","","","","","",""
"3001","
  <p style=""font-size: 40px;"">marrit</p>
  <p style=""font-size: 16px;"">F = YES &nbsp;&nbsp;&nbsp; J = NO</p>
","f","html-keyboard-response","7","2.1.0","162285","F=YES, J=NO","dh08ynedll","2","79","68","90","","","","","","lextale","false","true","","","","","","","",""
"2514","
  <p style=""font-size: 40px;"">bottle</p>
  <p style=""font-size: 16px;"">F = YES &nbsp;&nbsp;&nbsp; J = NO</p>
","f","html-keyboard-response","8","2.1.0","164800","F=YES, J=NO","dh08ynedll","2","79","68","90","","","","","","lextale","true","false","","","","","","","",""
"1223","
  <p style=""font-size: 40px;"">birst</p>
  <p style=""font-size: 16px;"">F = YES &nbsp;&nbsp;&nbsp; J = NO</p>
","j","html-keyboard-response","9","2.1.0","166023","F=YES, J=NO","dh08ynedll","2","79","68","90","","","","","","lextale","false","false","","","","","","","",""
"1066","
  <p style=""font-size: 40px;"">envy</p>
  <p style=""font-size: 16px;"">F = YES &nbsp;&nbsp;&nbsp; J = NO</p>
","f","html-keyboard-response","10","2.1.0","167091","F=YES, J=NO","dh08ynedll","2","79","68","90","","","","","","lextale","true","false","","","","","","","",""
"984","
  <p style=""font-size: 40px;"">brang</p>
  <p style=""font-size: 16px;"">F = YES &nbsp;&nbsp;&nbsp; J = NO</p>
","j","html-keyboard-response","11","2.1.0","168075","F=YES, J=NO","dh08ynedll","2","79","68","90","","","","","","lextale","false","false","","","","","","","",""
"793","
  <p style=""font-size: 40px;"">huge</p>
  <p style=""font-size: 16px;"">F = YES &nbsp;&nbsp;&nbsp; J = NO</p>
","f","html-keyboard-response","12","2.1.0","168870","F=YES, J=NO","dh08ynedll","2","79","68","90","","","","","","lextale","true","false","","","","","","","",""
"1325","
  <p style=""font-size: 40px;"">plove</p>
  <p style=""font-size: 16px;"">F = YES &nbsp;&nbsp;&nbsp; J = NO</p>
","j","html-keyboard-response","13","2.1.0","170195","F=YES, J=NO","dh08ynedll","2","79","68","90","","","","","","lextale","false","false","","","","","","","",""
"874","
  <p style=""font-size: 40px;"">border</p>
  <p style=""font-size: 16px;"">F = YES &nbsp;&nbsp;&nbsp; J = NO</p>
","f","html-keyboard-response","14","2.1.0","171069","F=YES, J=NO","dh08ynedll","2","79","68","90","","","","","","lextale","true","false","","","","","","","",""
"4561","
  <p style=""font-size: 40px;"">flimsy</p>
  <p style=""font-size: 16px;"">F = YES &nbsp;&nbsp;&nbsp; J = NO</p>
","f","html-keyboard-response","15","2.1.0","175631","F=YES, J=NO","dh08ynedll","2","79","68","90","","","","","","lextale","true","false","","","","","","","",""
"885","
  <p style=""font-size: 40px;"">drain</p>
  <p style=""font-size: 16px;"">F = YES &nbsp;&nbsp;&nbsp; J = NO</p>
","f","html-keyboard-response","16","2.1.0","176516","F=YES, J=NO","dh08ynedll","2","79","68","90","","","","","","lextale","true","false","","","","","","","",""
"1130","
  <p style=""font-size: 40px;"">twindle</p>
  <p style=""font-size: 16px;"">F = YES &nbsp;&nbsp;&nbsp; J = NO</p>
","j","html-keyboard-response","17","2.1.0","177647","F=YES, J=NO","dh08ynedll","2","79","68","90","","","","","","lextale","false","false","","","","","","","",""
"839","
  <p style=""font-size: 40px;"">propose</p>
  <p style=""font-size: 16px;"">F = YES &nbsp;&nbsp;&nbsp; J = NO</p>
","f","html-keyboard-response","18","2.1.0","178488","F=YES, J=NO","dh08ynedll","2","79","68","90","","","","","","lextale","true","false","","","","","","","",""
"955","
  <p style=""font-size: 40px;"">forlay</p>
  <p style=""font-size: 16px;"">F = YES &nbsp;&nbsp;&nbsp; J = NO</p>
","j","html-keyboard-response","19","2.1.0","179444","F=YES, J=NO","dh08ynedll","2","79","68","90","","","","","","lextale","false","false","","","","","","","",""
"1318","
  <p style=""font-size: 40px;"">tenant</p>
  <p style=""font-size: 16px;"">F = YES &nbsp;&nbsp;&nbsp; J = NO</p>
","f","html-keyboard-response","20","2.1.0","180762","F=YES, J=NO","dh08ynedll","2","79","68","90","","","","","","lextale","true","false","","","","","","","",""
"845","
  <p style=""font-size: 40px;"">strain</p>
  <p style=""font-size: 16px;"">F = YES &nbsp;&nbsp;&nbsp; J = NO</p>
","f","html-keyboard-response","21","2.1.0","181607","F=YES, J=NO","dh08ynedll","2","79","68","90","","","","","","lextale","true","false","","","","","","","",""
"4708","
  <p style=""font-size: 40px;"">holster</p>
  <p style=""font-size: 16px;"">F = YES &nbsp;&nbsp;&nbsp; J = NO</p>
","j","html-keyboard-response","22","2.1.0","186316","F=YES, J=NO","dh08ynedll","2","79","68","90","","","","","","lextale","true","false","","","","","","","",""
"2464","
  <p style=""font-size: 40px;"">hinder</p>
  <p style=""font-size: 16px;"">F = YES &nbsp;&nbsp;&nbsp; J = NO</p>
","f","html-keyboard-response","23","2.1.0","188780","F=YES, J=NO","dh08ynedll","2","79","68","90","","","","","","lextale","true","false","","","","","","","",""
"824","
  <p style=""font-size: 40px;"">swindle</p>
  <p style=""font-size: 16px;"">F = YES &nbsp;&nbsp;&nbsp; J = NO</p>
","j","html-keyboard-response","24","2.1.0","189604","F=YES, J=NO","dh08ynedll","2","79","68","90","","","","","","lextale","true","false","","","","","","","",""
"1516","
  <p style=""font-size: 40px;"">nuder</p>
  <p style=""font-size: 16px;"">F = YES &nbsp;&nbsp;&nbsp; J = NO</p>
","j","html-keyboard-response","25","2.1.0","191121","F=YES, J=NO","dh08ynedll","2","79","68","90","","","","","","lextale","false","false","","","","","","","",""
"709","
  <p style=""font-size: 40px;"">pillow</p>
  <p style=""font-size: 16px;"">F = YES &nbsp;&nbsp;&nbsp; J = NO</p>
","f","html-keyboard-response","26","2.1.0","191831","F=YES, J=NO","dh08ynedll","2","79","68","90","","","","","","lextale","true","false","","","","","","","",""
"2194","
  <p style=""font-size: 40px;"">shumble</p>
  <p style=""font-size: 16px;"">F = YES &nbsp;&nbsp;&nbsp; J = NO</p>
","j","html-keyboard-response","27","2.1.0","194025","F=YES, J=NO","dh08ynedll","2","79","68","90","","","","","","lextale","false","false","","","","","","","",""
"963","
  <p style=""font-size: 40px;"">thirst</p>
  <p style=""font-size: 16px;"">F = YES &nbsp;&nbsp;&nbsp; J = NO</p>
","f","html-keyboard-response","28","2.1.0","194989","F=YES, J=NO","dh08ynedll","2","79","68","90","","","","","","lextale","true","false","","","","","","","",""
"2383","
  <p style=""font-size: 40px;"">unsail</p>
  <p style=""font-size: 16px;"">F = YES &nbsp;&nbsp;&nbsp; J = NO</p>
","j","html-keyboard-response","29","2.1.0","197372","F=YES, J=NO","dh08ynedll","2","79","68","90","","","","","","lextale","false","false","","","","","","","",""
"1116","
  <p style=""font-size: 40px;"">rifle</p>
  <p style=""font-size: 16px;"">F = YES &nbsp;&nbsp;&nbsp; J = NO</p>
","f","html-keyboard-response","30","2.1.0","198488","F=YES, J=NO","dh08ynedll","2","79","68","90","","","","","","lextale","true","false","","","","","","","",""
"1741","
  <p style=""font-size: 40px;"">mush</p>
  <p style=""font-size: 16px;"">F = YES &nbsp;&nbsp;&nbsp; J = NO</p>
","j","html-keyboard-response","31","2.1.0","200230","F=YES, J=NO","dh08ynedll","2","79","68","90","","","","","","lextale","false","false","","","","","","","",""
"1672","
  <p style=""font-size: 40px;"">drench</p>
  <p style=""font-size: 16px;"">F = YES &nbsp;&nbsp;&nbsp; J = NO</p>
","j","html-keyboard-response","32","2.1.0","201902","F=YES, J=NO","dh08ynedll","2","79","68","90","","","","","","lextale","true","false","","","","","","","",""
"916","
  <p style=""font-size: 40px;"">snirt</p>
  <p style=""font-size: 16px;"">F = YES &nbsp;&nbsp;&nbsp; J = NO</p>
","j","html-keyboard-response","33","2.1.0","202819","F=YES, J=NO","dh08ynedll","2","79","68","90","","","","","","lextale","false","false","","","","","","","",""
"711","
  <p style=""font-size: 40px;"">bitter</p>
  <p style=""font-size: 16px;"">F = YES &nbsp;&nbsp;&nbsp; J = NO</p>
","f","html-keyboard-response","34","2.1.0","203531","F=YES, J=NO","dh08ynedll","2","79","68","90","","","","","","lextale","true","false","","","","","","","",""
"1060","
  <p style=""font-size: 40px;"">pliff</p>
  <p style=""font-size: 16px;"">F = YES &nbsp;&nbsp;&nbsp; J = NO</p>
","j","html-keyboard-response","35","2.1.0","204591","F=YES, J=NO","dh08ynedll","2","79","68","90","","","","","","lextale","false","false","","","","","","","",""
"616","
  <p style=""font-size: 40px;"">tablet</p>
  <p style=""font-size: 16px;"">F = YES &nbsp;&nbsp;&nbsp; J = NO</p>
","f","html-keyboard-response","36","2.1.0","205208","F=YES, J=NO","dh08ynedll","2","79","68","90","","","","","","lextale","true","false","","","","","","","",""
"4018","
  <p style=""font-size: 40px;"">glimmer</p>
  <p style=""font-size: 16px;"">F = YES &nbsp;&nbsp;&nbsp; J = NO</p>
","j","html-keyboard-response","37","2.1.0","209229","F=YES, J=NO","dh08ynedll","2","79","68","90","","","","","","lextale","true","false","","","","","","","",""
"1294","
  <p style=""font-size: 40px;"">slink</p>
  <p style=""font-size: 16px;"">F = YES &nbsp;&nbsp;&nbsp; J = NO</p>
","f","html-keyboard-response","38","2.1.0","210523","F=YES, J=NO","dh08ynedll","2","79","68","90","","","","","","lextale","true","false","","","","","","","",""
"811","
  <p style=""font-size: 40px;"">clever</p>
  <p style=""font-size: 16px;"">F = YES &nbsp;&nbsp;&nbsp; J = NO</p>
","f","html-keyboard-response","39","2.1.0","211335","F=YES, J=NO","dh08ynedll","2","79","68","90","","","","","","lextale","true","false","","","","","","","",""
"2233","
  <p style=""font-size: 40px;"">grum</p>
  <p style=""font-size: 16px;"">F = YES &nbsp;&nbsp;&nbsp; J = NO</p>
","j","html-keyboard-response","40","2.1.0","213568","F=YES, J=NO","dh08ynedll","2","79","68","90","","","","","","lextale","false","false","","","","","","","",""
"1426","
  <p style=""font-size: 40px;"">string</p>
  <p style=""font-size: 16px;"">F = YES &nbsp;&nbsp;&nbsp; J = NO</p>
","f","html-keyboard-response","41","2.1.0","214995","F=YES, J=NO","dh08ynedll","2","79","68","90","","","","","","lextale","true","false","","","","","","","",""
"859","
  <p style=""font-size: 40px;"">plim</p>
  <p style=""font-size: 16px;"">F = YES &nbsp;&nbsp;&nbsp; J = NO</p>
","j","html-keyboard-response","42","2.1.0","215855","F=YES, J=NO","dh08ynedll","2","79","68","90","","","","","","lextale","false","false","","","","","","","",""
"569","
  <p style=""font-size: 40px;"">cable</p>
  <p style=""font-size: 16px;"">F = YES &nbsp;&nbsp;&nbsp; J = NO</p>
","f","html-keyboard-response","43","2.1.0","216425","F=YES, J=NO","dh08ynedll","2","79","68","90","","","","","","lextale","true","false","","","","","","","",""
"899","
  <p style=""font-size: 40px;"">shrivel</p>
  <p style=""font-size: 16px;"">F = YES &nbsp;&nbsp;&nbsp; J = NO</p>
","j","html-keyboard-response","44","2.1.0","217324","F=YES, J=NO","dh08ynedll","2","79","68","90","","","","","","lextale","true","false","","","","","","","",""
"782","
  <p style=""font-size: 40px;"">tarnish</p>
  <p style=""font-size: 16px;"">F = YES &nbsp;&nbsp;&nbsp; J = NO</p>
","j","html-keyboard-response","45","2.1.0","218107","F=YES, J=NO","dh08ynedll","2","79","68","90","","","","","","lextale","true","false","","","","","","","",""
"1222","
  <p style=""font-size: 40px;"">blim</p>
  <p style=""font-size: 16px;"">F = YES &nbsp;&nbsp;&nbsp; J = NO</p>
","f","html-keyboard-response","46","2.1.0","219329","F=YES, J=NO","dh08ynedll","2","79","68","90","","","","","","lextale","false","false","","","","","","","",""
"1464","
  <p style=""font-size: 40px;"">stifle</p>
  <p style=""font-size: 16px;"">F = YES &nbsp;&nbsp;&nbsp; J = NO</p>
","j","html-keyboard-response","47","2.1.0","220793","F=YES, J=NO","dh08ynedll","2","79","68","90","","","","","","lextale","true","false","","","","","","","",""
"821","
  <p style=""font-size: 40px;"">bint</p>
  <p style=""font-size: 16px;"">F = YES &nbsp;&nbsp;&nbsp; J = NO</p>
","j","html-keyboard-response","48","2.1.0","221615","F=YES, J=NO","dh08ynedll","2","79","68","90","","","","","","lextale","false","false","","","","","","","",""
"983","
  <p style=""font-size: 40px;"">purple</p>
  <p style=""font-size: 16px;"">F = YES &nbsp;&nbsp;&nbsp; J = NO</p>
","f","html-keyboard-response","49","2.1.0","222599","F=YES, J=NO","dh08ynedll","2","79","68","90","","","","","","lextale","true","false","","","","","","","",""
"1446","
  <p style=""font-size: 40px;"">wriggle</p>
  <p style=""font-size: 16px;"">F = YES &nbsp;&nbsp;&nbsp; J = NO</p>
","f","html-keyboard-response","50","2.1.0","224045","F=YES, J=NO","dh08ynedll","2","79","68","90","","","","","","lextale","true","false","","","","","","","",""
"1439","
  <p style=""font-size: 40px;"">mangle</p>
  <p style=""font-size: 16px;"">F = YES &nbsp;&nbsp;&nbsp; J = NO</p>
","f","html-keyboard-response","51","2.1.0","225485","F=YES, J=NO","dh08ynedll","2","79","68","90","","","","","","lextale","true","false","","","","","","","",""
"2505","
  <p style=""font-size: 40px;"">shramp</p>
  <p style=""font-size: 16px;"">F = YES &nbsp;&nbsp;&nbsp; J = NO</p>
","j","html-keyboard-response","52","2.1.0","227991","F=YES, J=NO","dh08ynedll","2","79","68","90","","","","","","lextale","false","false","","","","","","","",""
"658","
  <p style=""font-size: 40px;"">flirt</p>
  <p style=""font-size: 16px;"">F = YES &nbsp;&nbsp;&nbsp; J = NO</p>
","f","html-keyboard-response","53","2.1.0","228650","F=YES, J=NO","dh08ynedll","2","79","68","90","","","","","","lextale","true","false","","","","","","","",""
"832","
  <p style=""font-size: 40px;"">frip</p>
  <p style=""font-size: 16px;"">F = YES &nbsp;&nbsp;&nbsp; J = NO</p>
","j","html-keyboard-response","54","2.1.0","229483","F=YES, J=NO","dh08ynedll","2","79","68","90","","","","","","lextale","false","false","","","","","","","",""
"613","
  <p style=""font-size: 40px;"">tangle</p>
  <p style=""font-size: 16px;"">F = YES &nbsp;&nbsp;&nbsp; J = NO</p>
","f","html-keyboard-response","55","2.1.0","230097","F=YES, J=NO","dh08ynedll","2","79","68","90","","","","","","lextale","true","false","","","","","","","",""
"1305","
  <p style=""font-size: 40px;"">crumble</p>
  <p style=""font-size: 16px;"">F = YES &nbsp;&nbsp;&nbsp; J = NO</p>
","f","html-keyboard-response","56","2.1.0","231403","F=YES, J=NO","dh08ynedll","2","79","68","90","","","","","","lextale","true","false","","","","","","","",""
"1111","
  <p style=""font-size: 40px;"">wrinkle</p>
  <p style=""font-size: 16px;"">F = YES &nbsp;&nbsp;&nbsp; J = NO</p>
","f","html-keyboard-response","57","2.1.0","232515","F=YES, J=NO","dh08ynedll","2","79","68","90","","","","","","lextale","true","false","","","","","","","",""
"641","
  <p style=""font-size: 40px;"">slumb</p>
  <p style=""font-size: 16px;"">F = YES &nbsp;&nbsp;&nbsp; J = NO</p>
","j","html-keyboard-response","58","2.1.0","233157","F=YES, J=NO","dh08ynedll","2","79","68","90","","","","","","lextale","false","false","","","","","","","",""
"624","
  <p style=""font-size: 40px;"">jungle</p>
  <p style=""font-size: 16px;"">F = YES &nbsp;&nbsp;&nbsp; J = NO</p>
","f","html-keyboard-response","59","2.1.0","233781","F=YES, J=NO","dh08ynedll","2","79","68","90","","","","","","lextale","true","false","","","","","","","",""
"902","
  <p style=""font-size: 40px;"">frolick</p>
  <p style=""font-size: 16px;"">F = YES &nbsp;&nbsp;&nbsp; J = NO</p>
","j","html-keyboard-response","60","2.1.0","234683","F=YES, J=NO","dh08ynedll","2","79","68","90","","","","","","lextale","false","false","","","","","","","",""
"2318","
      <h2>LexTALE Test Completed</h2>
      <p>Your LexTALE vocabulary score is: <strong>79%</strong></p>
      <p>Press any key to continue.</p>
    "," ","html-keyboard-response","61","2.1.0","237002","F=YES, J=NO","dh08ynedll","2","79","68","90","","","","","","","","","","","","","","","",""
"4536","
    <div style=""max-width: 800px; margin: auto; text-align: left;"">
      <h2>Break Time</h2>
      <p>You have completed the first part of the study.</p>
      <p>You may take a short <strong>30-second break</strong> before continuing.</p>
      <p>When you’re ready, press any key to continue to the final task.</p>
    </div>
  "," ","html-keyboard-response","62","2.1.0","241539","F=YES, J=NO","dh08ynedll","2","79","68","90","","","","","","","","","","","","","","","",""
"16623","
    <div style=""max-width: 800px; margin: auto; text-align: left;"">
      <h2>Part 2: Lexical Decision Task</h2>
      <p>You will now begin the second part of the study.</p>
      <p>Each trial will follow this sequence:</p>
      <ul>
        <li>A fixation cross (+) appears at the center of the screen.</li>
        <li>You will hear a short beep followed by a spoken word.</li>
        <li>A written word will appear briefly on the screen.</li>
      </ul>
      <p>Your task is to judge whether the <strong>written word</strong> is a real English word.</p>
      <p style=""margin-top: 1em;""><strong>Key responses:</strong></p>
      <ul>
        <li><strong>F</strong> = YES (real English word)</li>
        <li><strong>J</strong> = NO (not a real English word)</li>
      </ul>
      <p>Please respond as quickly and accurately as you can.</p>
      <p style=""margin-top: 2em;"">Press any key to continue.</p>
    </div>
  "," ","html-keyboard-response","63","2.1.0","258163","F=YES, J=NO","dh08ynedll","2","79","68","90","","","","","","","","","","","","","","","",""
"4601","
    <div style=""max-width: 800px; margin: auto; text-align: left;"">
      <h2>Before You Begin</h2>
      <p>Make sure your sound is turned on.</p>
      <p>You will hear audio during each trial, but your decision should be based only on the <strong>written word</strong> you see on the screen.</p>
      <p><strong>Reminder:</strong></p>
      <ul>
        <li><strong>F</strong> = YES (real English word)</li>
        <li><strong>J</strong> = NO (not a real English word)</li>
      </ul>
      <p style=""margin-top: 2em;"">Press any key when you are ready to begin.</p>
    </div>
  "," ","html-keyboard-response","64","2.1.0","262764","F=YES, J=NO","dh08ynedll","2","79","68","90","","","","","","","","","","","","","","","",""
"4307","
    <div style=""max-width: 800px; margin: auto; text-align: left;"">
      <h2>Part 2: Practice Trials</h2>
      <p>You will now complete a few <strong>practice trials</strong> to get familiar with the task.</p>
      <p>These trials are <strong>not scored</strong> and are only to help you get used to the format.</p>
      <p style=""margin-top: 2em;"">Press any key to begin.</p>
    </div>
  "," ","html-keyboard-response","65","2.1.0","267072","F=YES, J=NO","dh08ynedll","2","79","68","90","","","","","","","","","","","","","","","",""
"2511","<p>Starting practice block 1 of 2. Press any key to continue.</p>"," ","html-keyboard-response","66","2.1.0","269584","F=YES, J=NO","dh08ynedll","2","79","68","90","","","","","","","","","","","","","","","",""
"null","<p style=""font-size: 50px;"">+</p>","null","html-keyboard-response","67","2.1.0","269894","F=YES, J=NO","dh08ynedll","2","79","68","90","","","","","","","","","","","","","","","",""
"null","audio/beep-329314.mp3","null","audio-keyboard-response","68","2.1.0","273055","F=YES, J=NO","dh08ynedll","2","79","68","90","","","","","","","","","","","","","","","",""
"null","audio/baby.wav","null","audio-keyboard-response","69","2.1.0","273554","F=YES, J=NO","dh08ynedll","2","79","68","90","","","","","","","","","","","","","","","",""
"null","
          <p id=""word"" style=""font-size: 40px;"">lift</p>
          <p style=""font-size: 16px;"">F = YES &nbsp;&nbsp;&nbsp; J = NO</p>
        ","null","html-keyboard-response","70","2.1.0","275057","F=YES, J=NO","dh08ynedll","2","79","68","90","","","","","","","","","lift","baby","filler","filler","f","false","",""
"null","<p style=""font-size: 50px;"">+</p>","null","html-keyboard-response","71","2.1.0","275365","F=YES, J=NO","dh08ynedll","2","79","68","90","","","","","","","","","","","","","","","",""
"null","audio/beep-329314.mp3","null","audio-keyboard-response","72","2.1.0","276914","F=YES, J=NO","dh08ynedll","2","79","68","90","","","","","","","","","","","","","","","",""
"null","audio/dollar.wav","null","audio-keyboard-response","73","2.1.0","277335","F=YES, J=NO","dh08ynedll","2","79","68","90","","","","","","","","","","","","","","","",""
"930","
          <p id=""word"" style=""font-size: 40px;"">gliptism</p>
          <p style=""font-size: 16px;"">F = YES &nbsp;&nbsp;&nbsp; J = NO</p>
        ","j","html-keyboard-response","74","2.1.0","278266","F=YES, J=NO","dh08ynedll","2","79","68","90","","","","","","","","","gliptism","dollar","pseudoword","pseudoword","j","true","",""
"null","<p style=""font-size: 50px;"">+</p>","null","html-keyboard-response","75","2.1.0","278581","F=YES, J=NO","dh08ynedll","2","79","68","90","","","","","","","","","","","","","","","",""
"null","audio/beep-329314.mp3","null","audio-keyboard-response","76","2.1.0","280135","F=YES, J=NO","dh08ynedll","2","79","68","90","","","","","","","","","","","","","","","",""
"null","audio/fence.wav","null","audio-keyboard-response","77","2.1.0","280775","F=YES, J=NO","dh08ynedll","2","79","68","90","","","","","","","","","","","","","","","",""
"693","
          <p id=""word"" style=""font-size: 40px;"">trim</p>
          <p style=""font-size: 16px;"">F = YES &nbsp;&nbsp;&nbsp; J = NO</p>
        ","j","html-keyboard-response","78","2.1.0","281469","F=YES, J=NO","dh08ynedll","2","79","68","90","","","","","","","","","trim","fence","filler","filler","f","false","",""
"null","<p style=""font-size: 50px;"">+</p>","null","html-keyboard-response","79","2.1.0","281780","F=YES, J=NO","dh08ynedll","2","79","68","90","","","","","","","","","","","","","","","",""
"null","audio/beep-329314.mp3","null","audio-keyboard-response","80","2.1.0","283335","F=YES, J=NO","dh08ynedll","2","79","68","90","","","","","","","","","","","","","","","",""
"null","audio/kettle1.wav","null","audio-keyboard-response","81","2.1.0","283794","F=YES, J=NO","dh08ynedll","2","79","68","90","","","","","","","","","","","","","","","",""
"1087","
          <p id=""word"" style=""font-size: 40px;"">wrap</p>
          <p style=""font-size: 16px;"">F = YES &nbsp;&nbsp;&nbsp; J = NO</p>
        ","f","html-keyboard-response","82","2.1.0","284882","F=YES, J=NO","dh08ynedll","2","79","68","90","","","","","","","","","wrap","kettle1","filler","filler","f","true","",""
"null","<p style=""font-size: 50px;"">+</p>","null","html-keyboard-response","83","2.1.0","285197","F=YES, J=NO","dh08ynedll","2","79","68","90","","","","","","","","","","","","","","","",""
"null","audio/beep-329314.mp3","null","audio-keyboard-response","84","2.1.0","286755","F=YES, J=NO","dh08ynedll","2","79","68","90","","","","","","","","","","","","","","","",""
"null","audio/belief.wav","null","audio-keyboard-response","85","2.1.0","287414","F=YES, J=NO","dh08ynedll","2","79","68","90","","","","","","","","","","","","","","","",""
"802","
          <p id=""word"" style=""font-size: 40px;"">read</p>
          <p style=""font-size: 16px;"">F = YES &nbsp;&nbsp;&nbsp; J = NO</p>
        ","f","html-keyboard-response","86","2.1.0","288218","F=YES, J=NO","dh08ynedll","2","79","68","90","","","","","","","","","read","belief","filler","filler","f","true","",""
"null","<p style=""font-size: 50px;"">+</p>","null","html-keyboard-response","87","2.1.0","288528","F=YES, J=NO","dh08ynedll","2","79","68","90","","","","","","","","","","","","","","","",""
"null","audio/beep-329314.mp3","null","audio-keyboard-response","88","2.1.0","290075","F=YES, J=NO","dh08ynedll","2","79","68","90","","","","","","","","","","","","","","","",""
"null","audio/bishop1.wav","null","audio-keyboard-response","89","2.1.0","290654","F=YES, J=NO","dh08ynedll","2","79","68","90","","","","","","","","","","","","","","","",""
"885","
          <p id=""word"" style=""font-size: 40px;"">play</p>
          <p style=""font-size: 16px;"">F = YES &nbsp;&nbsp;&nbsp; J = NO</p>
        ","f","html-keyboard-response","90","2.1.0","291540","F=YES, J=NO","dh08ynedll","2","79","68","90","","","","","","","","","play","bishop1","filler","filler","f","true","",""
"null","<p style=""font-size: 50px;"">+</p>","null","html-keyboard-response","91","2.1.0","291848","F=YES, J=NO","dh08ynedll","2","79","68","90","","","","","","","","","","","","","","","",""
"null","audio/beep-329314.mp3","null","audio-keyboard-response","92","2.1.0","293394","F=YES, J=NO","dh08ynedll","2","79","68","90","","","","","","","","","","","","","","","",""
"null","audio/voice.wav","null","audio-keyboard-response","93","2.1.0","294035","F=YES, J=NO","dh08ynedll","2","79","68","90","","","","","","","","","","","","","","","",""
"702","
          <p id=""word"" style=""font-size: 40px;"">grintle</p>
          <p style=""font-size: 16px;"">F = YES &nbsp;&nbsp;&nbsp; J = NO</p>
        ","j","html-keyboard-response","94","2.1.0","294738","F=YES, J=NO","dh08ynedll","2","79","68","90","","","","","","","","","grintle","voice","pseudoword","pseudoword","j","true","",""
"null","<p style=""font-size: 50px;"">+</p>","null","html-keyboard-response","95","2.1.0","295042","F=YES, J=NO","dh08ynedll","2","79","68","90","","","","","","","","","","","","","","","",""
"null","audio/beep-329314.mp3","null","audio-keyboard-response","96","2.1.0","296594","F=YES, J=NO","dh08ynedll","2","79","68","90","","","","","","","","","","","","","","","",""
"null","audio/bridge.wav","null","audio-keyboard-response","97","2.1.0","297174","F=YES, J=NO","dh08ynedll","2","79","68","90","","","","","","","","","","","","","","","",""
"894","
          <p id=""word"" style=""font-size: 40px;"">crack</p>
          <p style=""font-size: 16px;"">F = YES &nbsp;&nbsp;&nbsp; J = NO</p>
        ","f","html-keyboard-response","98","2.1.0","298069","F=YES, J=NO","dh08ynedll","2","79","68","90","","","","","","","","","crack","bridge","filler","filler","f","true","",""
"null","<p style=""font-size: 50px;"">+</p>","null","html-keyboard-response","99","2.1.0","298379","F=YES, J=NO","dh08ynedll","2","79","68","90","","","","","","","","","","","","","","","",""
"null","audio/beep-329314.mp3","null","audio-keyboard-response","100","2.1.0","299935","F=YES, J=NO","dh08ynedll","2","79","68","90","","","","","","","","","","","","","","","",""
"null","audio/haste1.wav","null","audio-keyboard-response","101","2.1.0","300534","F=YES, J=NO","dh08ynedll","2","79","68","90","","","","","","","","","","","","","","","",""
"1195","
          <p id=""word"" style=""font-size: 40px;"">coraconate</p>
          <p style=""font-size: 16px;"">F = YES &nbsp;&nbsp;&nbsp; J = NO</p>
        ","f","html-keyboard-response","102","2.1.0","301731","F=YES, J=NO","dh08ynedll","2","79","68","90","","","","","","","","","coraconate","haste1","pseudoword","pseudoword","j","false","",""
"null","<p style=""font-size: 50px;"">+</p>","null","html-keyboard-response","103","2.1.0","302045","F=YES, J=NO","dh08ynedll","2","79","68","90","","","","","","","","","","","","","","","",""
"null","audio/beep-329314.mp3","null","audio-keyboard-response","104","2.1.0","303595","F=YES, J=NO","dh08ynedll","2","79","68","90","","","","","","","","","","","","","","","",""
"null","audio/van1.wav","null","audio-keyboard-response","105","2.1.0","304114","F=YES, J=NO","dh08ynedll","2","79","68","90","","","","","","","","","","","","","","","",""
"null","
          <p id=""word"" style=""font-size: 40px;"">push</p>
          <p style=""font-size: 16px;"">F = YES &nbsp;&nbsp;&nbsp; J = NO</p>
        ","null","html-keyboard-response","106","2.1.0","305618","F=YES, J=NO","dh08ynedll","2","79","68","90","","","","","","","","","push","van1","filler","filler","f","false","",""
"null","<p style=""font-size: 50px;"">+</p>","null","html-keyboard-response","107","2.1.0","305922","F=YES, J=NO","dh08ynedll","2","79","68","90","","","","","","","","","","","","","","","",""
"null","audio/beep-329314.mp3","null","audio-keyboard-response","108","2.1.0","307474","F=YES, J=NO","dh08ynedll","2","79","68","90","","","","","","","","","","","","","","","",""
"null","audio/topic.wav","null","audio-keyboard-response","109","2.1.0","308174","F=YES, J=NO","dh08ynedll","2","79","68","90","","","","","","","","","","","","","","","",""
"1220","
          <p id=""word"" style=""font-size: 40px;"">infortuitist</p>
          <p style=""font-size: 16px;"">F = YES &nbsp;&nbsp;&nbsp; J = NO</p>
        ","f","html-keyboard-response","110","2.1.0","309395","F=YES, J=NO","dh08ynedll","2","79","68","90","","","","","","","","","infortuitist","topic","pseudoword","pseudoword","j","false","",""
"null","<p style=""font-size: 50px;"">+</p>","null","html-keyboard-response","111","2.1.0","309697","F=YES, J=NO","dh08ynedll","2","79","68","90","","","","","","","","","","","","","","","",""
"null","audio/beep-329314.mp3","null","audio-keyboard-response","112","2.1.0","311255","F=YES, J=NO","dh08ynedll","2","79","68","90","","","","","","","","","","","","","","","",""
"null","audio/pine.wav","null","audio-keyboard-response","113","2.1.0","311874","F=YES, J=NO","dh08ynedll","2","79","68","90","","","","","","","","","","","","","","","",""
"682","
          <p id=""word"" style=""font-size: 40px;"">crebble</p>
          <p style=""font-size: 16px;"">F = YES &nbsp;&nbsp;&nbsp; J = NO</p>
        ","j","html-keyboard-response","114","2.1.0","312557","F=YES, J=NO","dh08ynedll","2","79","68","90","","","","","","","","","crebble","pine","pseudoword","pseudoword","j","true","",""
"2060","<p>Starting practice block 2 of 2. Press any key to continue.</p>"," ","html-keyboard-response","115","2.1.0","314617","F=YES, J=NO","dh08ynedll","2","79","68","90","","","","","","","","","","","","","","","",""
"null","<p style=""font-size: 50px;"">+</p>","null","html-keyboard-response","116","2.1.0","314922","F=YES, J=NO","dh08ynedll","2","79","68","90","","","","","","","","","","","","","","","",""
"null","audio/beep-329314.mp3","null","audio-keyboard-response","117","2.1.0","316474","F=YES, J=NO","dh08ynedll","2","79","68","90","","","","","","","","","","","","","","","",""
"null","audio/budget1.wav","null","audio-keyboard-response","118","2.1.0","317214","F=YES, J=NO","dh08ynedll","2","79","68","90","","","","","","","","","","","","","","","",""
"522","
          <p id=""word"" style=""font-size: 40px;"">sulist</p>
          <p style=""font-size: 16px;"">F = YES &nbsp;&nbsp;&nbsp; J = NO</p>
        ","f","html-keyboard-response","119","2.1.0","317737","F=YES, J=NO","dh08ynedll","2","79","68","90","","","","","","","","","sulist","budget1","pseudoword","pseudoword","j","false","",""
"null","<p style=""font-size: 50px;"">+</p>","null","html-keyboard-response","120","2.1.0","318046","F=YES, J=NO","dh08ynedll","2","79","68","90","","","","","","","","","","","","","","","",""
"null","audio/beep-329314.mp3","null","audio-keyboard-response","121","2.1.0","319595","F=YES, J=NO","dh08ynedll","2","79","68","90","","","","","","","","","","","","","","","",""
"null","audio/ankle1.wav","null","audio-keyboard-response","122","2.1.0","320254","F=YES, J=NO","dh08ynedll","2","79","68","90","","","","","","","","","","","","","","","",""
"566","
          <p id=""word"" style=""font-size: 40px;"">kick</p>
          <p style=""font-size: 16px;"">F = YES &nbsp;&nbsp;&nbsp; J = NO</p>
        ","f","html-keyboard-response","123","2.1.0","320821","F=YES, J=NO","dh08ynedll","2","79","68","90","","","","","","","","","kick","ankle1","filler","filler","f","true","",""
"null","<p style=""font-size: 50px;"">+</p>","null","html-keyboard-response","124","2.1.0","321129","F=YES, J=NO","dh08ynedll","2","79","68","90","","","","","","","","","","","","","","","",""
"null","audio/beep-329314.mp3","null","audio-keyboard-response","125","2.1.0","322674","F=YES, J=NO","dh08ynedll","2","79","68","90","","","","","","","","","","","","","","","",""
"null","audio/terrain.wav","null","audio-keyboard-response","126","2.1.0","323294","F=YES, J=NO","dh08ynedll","2","79","68","90","","","","","","","","","","","","","","","",""
"770","
          <p id=""word"" style=""font-size: 40px;"">twist</p>
          <p style=""font-size: 16px;"">F = YES &nbsp;&nbsp;&nbsp; J = NO</p>
        ","j","html-keyboard-response","127","2.1.0","324065","F=YES, J=NO","dh08ynedll","2","79","68","90","","","","","","","","","twist","terrain","filler","filler","f","false","",""
"null","<p style=""font-size: 50px;"">+</p>","null","html-keyboard-response","128","2.1.0","324378","F=YES, J=NO","dh08ynedll","2","79","68","90","","","","","","","","","","","","","","","",""
"null","audio/beep-329314.mp3","null","audio-keyboard-response","129","2.1.0","325934","F=YES, J=NO","dh08ynedll","2","79","68","90","","","","","","","","","","","","","","","",""
"null","audio/brain.wav","null","audio-keyboard-response","130","2.1.0","326454","F=YES, J=NO","dh08ynedll","2","79","68","90","","","","","","","","","","","","","","","",""
"455","
          <p id=""word"" style=""font-size: 40px;"">throw</p>
          <p style=""font-size: 16px;"">F = YES &nbsp;&nbsp;&nbsp; J = NO</p>
        ","f","html-keyboard-response","131","2.1.0","326909","F=YES, J=NO","dh08ynedll","2","79","68","90","","","","","","","","","throw","brain","filler","filler","f","true","",""
"null","<p style=""font-size: 50px;"">+</p>","null","html-keyboard-response","132","2.1.0","327212","F=YES, J=NO","dh08ynedll","2","79","68","90","","","","","","","","","","","","","","","",""
"null","audio/beep-329314.mp3","null","audio-keyboard-response","133","2.1.0","328754","F=YES, J=NO","dh08ynedll","2","79","68","90","","","","","","","","","","","","","","","",""
"null","audio/camera1.wav","null","audio-keyboard-response","134","2.1.0","329274","F=YES, J=NO","dh08ynedll","2","79","68","90","","","","","","","","","","","","","","","",""
"445","
          <p id=""word"" style=""font-size: 40px;"">stir</p>
          <p style=""font-size: 16px;"">F = YES &nbsp;&nbsp;&nbsp; J = NO</p>
        ","f","html-keyboard-response","135","2.1.0","329720","F=YES, J=NO","dh08ynedll","2","79","68","90","","","","","","","","","stir","camera1","filler","filler","f","true","",""
"null","<p style=""font-size: 50px;"">+</p>","null","html-keyboard-response","136","2.1.0","330027","F=YES, J=NO","dh08ynedll","2","79","68","90","","","","","","","","","","","","","","","",""
"null","audio/beep-329314.mp3","null","audio-keyboard-response","137","2.1.0","331574","F=YES, J=NO","dh08ynedll","2","79","68","90","","","","","","","","","","","","","","","",""
"null","audio/dome.wav","null","audio-keyboard-response","138","2.1.0","331995","F=YES, J=NO","dh08ynedll","2","79","68","90","","","","","","","","","","","","","","","",""
"602","
          <p id=""word"" style=""font-size: 40px;"">scrupliness</p>
          <p style=""font-size: 16px;"">F = YES &nbsp;&nbsp;&nbsp; J = NO</p>
        ","f","html-keyboard-response","139","2.1.0","332597","F=YES, J=NO","dh08ynedll","2","79","68","90","","","","","","","","","scrupliness","dome","pseudoword","pseudoword","j","false","",""
"null","<p style=""font-size: 50px;"">+</p>","null","html-keyboard-response","140","2.1.0","332912","F=YES, J=NO","dh08ynedll","2","79","68","90","","","","","","","","","","","","","","","",""
"null","audio/beep-329314.mp3","null","audio-keyboard-response","141","2.1.0","334454","F=YES, J=NO","dh08ynedll","2","79","68","90","","","","","","","","","","","","","","","",""
"null","audio/breath.wav","null","audio-keyboard-response","142","2.1.0","335154","F=YES, J=NO","dh08ynedll","2","79","68","90","","","","","","","","","","","","","","","",""
"396","
          <p id=""word"" style=""font-size: 40px;"">twets</p>
          <p style=""font-size: 16px;"">F = YES &nbsp;&nbsp;&nbsp; J = NO</p>
        ","j","html-keyboard-response","143","2.1.0","335551","F=YES, J=NO","dh08ynedll","2","79","68","90","","","","","","","","","twets","breath","pseudoword","pseudoword","j","true","",""
"null","<p style=""font-size: 50px;"">+</p>","null","html-keyboard-response","144","2.1.0","335860","F=YES, J=NO","dh08ynedll","2","79","68","90","","","","","","","","","","","","","","","",""
"null","audio/beep-329314.mp3","null","audio-keyboard-response","145","2.1.0","337414","F=YES, J=NO","dh08ynedll","2","79","68","90","","","","","","","","","","","","","","","",""
"null","audio/grass.wav","null","audio-keyboard-response","146","2.1.0","338195","F=YES, J=NO","dh08ynedll","2","79","68","90","","","","","","","","","","","","","","","",""
"342","
          <p id=""word"" style=""font-size: 40px;"">milames</p>
          <p style=""font-size: 16px;"">F = YES &nbsp;&nbsp;&nbsp; J = NO</p>
        ","f","html-keyboard-response","147","2.1.0","338537","F=YES, J=NO","dh08ynedll","2","79","68","90","","","","","","","","","milames","grass","pseudoword","pseudoword","j","false","",""
"null","<p style=""font-size: 50px;"">+</p>","null","html-keyboard-response","148","2.1.0","338847","F=YES, J=NO","dh08ynedll","2","79","68","90","","","","","","","","","","","","","","","",""
"null","audio/beep-329314.mp3","null","audio-keyboard-response","149","2.1.0","340394","F=YES, J=NO","dh08ynedll","2","79","68","90","","","","","","","","","","","","","","","",""
"null","audio/bush1.wav","null","audio-keyboard-response","150","2.1.0","340994","F=YES, J=NO","dh08ynedll","2","79","68","90","","","","","","","","","","","","","","","",""
"569","
          <p id=""word"" style=""font-size: 40px;"">platined</p>
          <p style=""font-size: 16px;"">F = YES &nbsp;&nbsp;&nbsp; J = NO</p>
        ","f","html-keyboard-response","151","2.1.0","341564","F=YES, J=NO","dh08ynedll","2","79","68","90","","","","","","","","","platined","bush1","pseudoword","pseudoword","j","false","",""
"null","<p style=""font-size: 50px;"">+</p>","null","html-keyboard-response","152","2.1.0","341878","F=YES, J=NO","dh08ynedll","2","79","68","90","","","","","","","","","","","","","","","",""
"null","audio/beep-329314.mp3","null","audio-keyboard-response","153","2.1.0","343435","F=YES, J=NO","dh08ynedll","2","79","68","90","","","","","","","","","","","","","","","",""
"null","audio/hawk1.wav","null","audio-keyboard-response","154","2.1.0","344154","F=YES, J=NO","dh08ynedll","2","79","68","90","","","","","","","","","","","","","","","",""
"1253","
          <p id=""word"" style=""font-size: 40px;"">ostach</p>
          <p style=""font-size: 16px;"">F = YES &nbsp;&nbsp;&nbsp; J = NO</p>
        ","j","html-keyboard-response","155","2.1.0","345408","F=YES, J=NO","dh08ynedll","2","79","68","90","","","","","","","","","ostach","hawk1","pseudoword","pseudoword","j","true","",""
"null","<p style=""font-size: 50px;"">+</p>","null","html-keyboard-response","156","2.1.0","345713","F=YES, J=NO","dh08ynedll","2","79","68","90","","","","","","","","","","","","","","","",""
"null","audio/beep-329314.mp3","null","audio-keyboard-response","157","2.1.0","347274","F=YES, J=NO","dh08ynedll","2","79","68","90","","","","","","","","","","","","","","","",""
"null","audio/foot1.wav","null","audio-keyboard-response","158","2.1.0","347974","F=YES, J=NO","dh08ynedll","2","79","68","90","","","","","","","","","","","","","","","",""
"745","
          <p id=""word"" style=""font-size: 40px;"">thrutt</p>
          <p style=""font-size: 16px;"">F = YES &nbsp;&nbsp;&nbsp; J = NO</p>
        ","j","html-keyboard-response","159","2.1.0","348720","F=YES, J=NO","dh08ynedll","2","79","68","90","","","","","","","","","thrutt","foot1","pseudoword","pseudoword","j","true","",""
"null","<p style=""font-size: 50px;"">+</p>","null","html-keyboard-response","160","2.1.0","349029","F=YES, J=NO","dh08ynedll","2","79","68","90","","","","","","","","","","","","","","","",""
"null","audio/beep-329314.mp3","null","audio-keyboard-response","161","2.1.0","350574","F=YES, J=NO","dh08ynedll","2","79","68","90","","","","","","","","","","","","","","","",""
"null","audio/age1.wav","null","audio-keyboard-response","162","2.1.0","351114","F=YES, J=NO","dh08ynedll","2","79","68","90","","","","","","","","","","","","","","","",""
"1217","
          <p id=""word"" style=""font-size: 40px;"">bake</p>
          <p style=""font-size: 16px;"">F = YES &nbsp;&nbsp;&nbsp; J = NO</p>
        ","f","html-keyboard-response","163","2.1.0","352331","F=YES, J=NO","dh08ynedll","2","79","68","90","","","","","","","","","bake","age1","filler","filler","f","true","",""
"29501","
    <div style=""max-width: 800px; margin: auto; text-align: left;"">
      <h2>Part 2: Main Trials</h2>
      <p>Great job on the practice trials!</p>
      <p>You will now begin the <strong>main set of trials</strong>.</p>
      <p>Remember your key assignments:</p>
      <ul>
        <li><strong>F</strong> = YES (real English word)</li>
        <li><strong>J</strong> = NO (not a real English word)</li>
      </ul>
      <p>Try to respond as <strong>quickly and accurately</strong> as possible.</p>
      <p style=""margin-top: 2em;"">Press any key to begin the main trials.</p>
    </div>
  "," ","html-keyboard-response","164","2.1.0","381833","F=YES, J=NO","dh08ynedll","2","79","68","90","","","","","","","","","","","","","","","",""
"2549","<p>Starting main block 1 of 8. Press any key to continue.</p>"," ","html-keyboard-response","165","2.1.0","384382","F=YES, J=NO","dh08ynedll","2","79","68","90","","","","","","","","","","","","","","","",""
"null","<p style=""font-size: 50px;"">+</p>","null","html-keyboard-response","166","2.1.0","384690","F=YES, J=NO","dh08ynedll","2","79","68","90","","","","","","","","","","","","","","","",""
"null","audio/beep-329314.mp3","null","audio-keyboard-response","167","2.1.0","386393","F=YES, J=NO","dh08ynedll","2","79","68","90","","","","","","","","","","","","","","","",""
"null","audio/foot1.wav","null","audio-keyboard-response","168","2.1.0","386903","F=YES, J=NO","dh08ynedll","2","79","68","90","","","","","","","","","","","","","","","",""
"556","
          <p id=""word"" style=""font-size: 40px;"">close</p>
          <p style=""font-size: 16px;"">F = YES &nbsp;&nbsp;&nbsp; J = NO</p>
        ","f","html-keyboard-response","169","2.1.0","387460","F=YES, J=NO","dh08ynedll","2","79","68","90","","","","","","","","","close","foot1","unrelated","experimental","f","true","",""
"null","<p style=""font-size: 50px;"">+</p>","null","html-keyboard-response","170","2.1.0","387774","F=YES, J=NO","dh08ynedll","2","79","68","90","","","","","","","","","","","","","","","",""
"null","audio/beep-329314.mp3","null","audio-keyboard-response","171","2.1.0","389313","F=YES, J=NO","dh08ynedll","2","79","68","90","","","","","","","","","","","","","","","",""
"null","audio/window1.wav","null","audio-keyboard-response","172","2.1.0","390043","F=YES, J=NO","dh08ynedll","2","79","68","90","","","","","","","","","","","","","","","",""
"1146","
          <p id=""word"" style=""font-size: 40px;"">toss</p>
          <p style=""font-size: 16px;"">F = YES &nbsp;&nbsp;&nbsp; J = NO</p>
        ","f","html-keyboard-response","173","2.1.0","391190","F=YES, J=NO","dh08ynedll","2","79","68","90","","","","","","","","","toss","window1","filler","filler","f","true","",""
"null","<p style=""font-size: 50px;"">+</p>","null","html-keyboard-response","174","2.1.0","391494","F=YES, J=NO","dh08ynedll","2","79","68","90","","","","","","","","","","","","","","","",""
"null","audio/beep-329314.mp3","null","audio-keyboard-response","175","2.1.0","393033","F=YES, J=NO","dh08ynedll","2","79","68","90","","","","","","","","","","","","","","","",""
"null","audio/bishop1.wav","null","audio-keyboard-response","176","2.1.0","393604","F=YES, J=NO","dh08ynedll","2","79","68","90","","","","","","","","","","","","","","","",""
"887","
          <p id=""word"" style=""font-size: 40px;"">devour</p>
          <p style=""font-size: 16px;"">F = YES &nbsp;&nbsp;&nbsp; J = NO</p>
        ","j","html-keyboard-response","177","2.1.0","394491","F=YES, J=NO","dh08ynedll","2","79","68","90","","","","","","","","","devour","bishop1","unrelated","experimental","f","false","",""
"null","<p style=""font-size: 50px;"">+</p>","null","html-keyboard-response","178","2.1.0","394794","F=YES, J=NO","dh08ynedll","2","79","68","90","","","","","","","","","","","","","","","",""
"null","audio/beep-329314.mp3","null","audio-keyboard-response","179","2.1.0","396334","F=YES, J=NO","dh08ynedll","2","79","68","90","","","","","","","","","","","","","","","",""
"null","audio/table1.wav","null","audio-keyboard-response","180","2.1.0","396824","F=YES, J=NO","dh08ynedll","2","79","68","90","","","","","","","","","","","","","","","",""
"768","
          <p id=""word"" style=""font-size: 40px;"">stimb</p>
          <p style=""font-size: 16px;"">F = YES &nbsp;&nbsp;&nbsp; J = NO</p>
        ","j","html-keyboard-response","181","2.1.0","397592","F=YES, J=NO","dh08ynedll","2","79","68","90","","","","","","","","","stimb","table1","pseudoword","pseudoword","j","true","",""
"null","<p style=""font-size: 50px;"">+</p>","null","html-keyboard-response","182","2.1.0","397896","F=YES, J=NO","dh08ynedll","2","79","68","90","","","","","","","","","","","","","","","",""
"null","audio/beep-329314.mp3","null","audio-keyboard-response","183","2.1.0","399433","F=YES, J=NO","dh08ynedll","2","79","68","90","","","","","","","","","","","","","","","",""
"null","audio/devil1.wav","null","audio-keyboard-response","184","2.1.0","399843","F=YES, J=NO","dh08ynedll","2","79","68","90","","","","","","","","","","","","","","","",""
"658","
          <p id=""word"" style=""font-size: 40px;"">carry</p>
          <p style=""font-size: 16px;"">F = YES &nbsp;&nbsp;&nbsp; J = NO</p>
        ","f","html-keyboard-response","185","2.1.0","400502","F=YES, J=NO","dh08ynedll","2","79","68","90","","","","","","","","","carry","devil1","unrelated","experimental","f","true","",""
"null","<p style=""font-size: 50px;"">+</p>","null","html-keyboard-response","186","2.1.0","400808","F=YES, J=NO","dh08ynedll","2","79","68","90","","","","","","","","","","","","","","","",""
"null","audio/beep-329314.mp3","null","audio-keyboard-response","187","2.1.0","402333","F=YES, J=NO","dh08ynedll","2","79","68","90","","","","","","","","","","","","","","","",""
"null","audio/vehicle1.wav","null","audio-keyboard-response","188","2.1.0","402983","F=YES, J=NO","dh08ynedll","2","79","68","90","","","","","","","","","","","","","","","",""
"994","
          <p id=""word"" style=""font-size: 40px;"">dropt</p>
          <p style=""font-size: 16px;"">F = YES &nbsp;&nbsp;&nbsp; J = NO</p>
        ","f","html-keyboard-response","189","2.1.0","403979","F=YES, J=NO","dh08ynedll","2","79","68","90","","","","","","","","","dropt","vehicle1","pseudoword","pseudoword","j","false","",""
"null","<p style=""font-size: 50px;"">+</p>","null","html-keyboard-response","190","2.1.0","404292","F=YES, J=NO","dh08ynedll","2","79","68","90","","","","","","","","","","","","","","","",""
"null","audio/beep-329314.mp3","null","audio-keyboard-response","191","2.1.0","405813","F=YES, J=NO","dh08ynedll","2","79","68","90","","","","","","","","","","","","","","","",""
"null","audio/lion1.wav","null","audio-keyboard-response","192","2.1.0","406363","F=YES, J=NO","dh08ynedll","2","79","68","90","","","","","","","","","","","","","","","",""
"933","
          <p id=""word"" style=""font-size: 40px;"">wrestle</p>
          <p style=""font-size: 16px;"">F = YES &nbsp;&nbsp;&nbsp; J = NO</p>
        ","f","html-keyboard-response","193","2.1.0","407297","F=YES, J=NO","dh08ynedll","2","79","68","90","","","","","","","","","wrestle","lion1","literal","experimental","f","true","",""
"null","<p style=""font-size: 50px;"">+</p>","null","html-keyboard-response","194","2.1.0","407609","F=YES, J=NO","dh08ynedll","2","79","68","90","","","","","","","","","","","","","","","",""
"null","audio/beep-329314.mp3","null","audio-keyboard-response","195","2.1.0","409134","F=YES, J=NO","dh08ynedll","2","79","68","90","","","","","","","","","","","","","","","",""
"null","audio/bomb1.wav","null","audio-keyboard-response","196","2.1.0","409523","F=YES, J=NO","dh08ynedll","2","79","68","90","","","","","","","","","","","","","","","",""
"661","
          <p id=""word"" style=""font-size: 40px;"">clean</p>
          <p style=""font-size: 16px;"">F = YES &nbsp;&nbsp;&nbsp; J = NO</p>
        ","f","html-keyboard-response","197","2.1.0","410185","F=YES, J=NO","dh08ynedll","2","79","68","90","","","","","","","","","clean","bomb1","filler","filler","f","true","",""
"null","<p style=""font-size: 50px;"">+</p>","null","html-keyboard-response","198","2.1.0","410492","F=YES, J=NO","dh08ynedll","2","79","68","90","","","","","","","","","","","","","","","",""
"null","audio/beep-329314.mp3","null","audio-keyboard-response","199","2.1.0","412033","F=YES, J=NO","dh08ynedll","2","79","68","90","","","","","","","","","","","","","","","",""
"null","audio/effort.wav","null","audio-keyboard-response","200","2.1.0","412623","F=YES, J=NO","dh08ynedll","2","79","68","90","","","","","","","","","","","","","","","",""
"549","
          <p id=""word"" style=""font-size: 40px;"">whonk</p>
          <p style=""font-size: 16px;"">F = YES &nbsp;&nbsp;&nbsp; J = NO</p>
        ","f","html-keyboard-response","201","2.1.0","413174","F=YES, J=NO","dh08ynedll","2","79","68","90","","","","","","","","","whonk","effort","pseudoword","pseudoword","j","false","",""
"null","<p style=""font-size: 50px;"">+</p>","null","html-keyboard-response","202","2.1.0","413477","F=YES, J=NO","dh08ynedll","2","79","68","90","","","","","","","","","","","","","","","",""
"null","audio/beep-329314.mp3","null","audio-keyboard-response","203","2.1.0","415013","F=YES, J=NO","dh08ynedll","2","79","68","90","","","","","","","","","","","","","","","",""
"null","audio/show.wav","null","audio-keyboard-response","204","2.1.0","415703","F=YES, J=NO","dh08ynedll","2","79","68","90","","","","","","","","","","","","","","","",""
"715","
          <p id=""word"" style=""font-size: 40px;"">hold</p>
          <p style=""font-size: 16px;"">F = YES &nbsp;&nbsp;&nbsp; J = NO</p>
        ","f","html-keyboard-response","205","2.1.0","416419","F=YES, J=NO","dh08ynedll","2","79","68","90","","","","","","","","","hold","show","metaphor","experimental","f","true","",""
"null","<p style=""font-size: 50px;"">+</p>","null","html-keyboard-response","206","2.1.0","416728","F=YES, J=NO","dh08ynedll","2","79","68","90","","","","","","","","","","","","","","","",""
"null","audio/beep-329314.mp3","null","audio-keyboard-response","207","2.1.0","418254","F=YES, J=NO","dh08ynedll","2","79","68","90","","","","","","","","","","","","","","","",""
"null","audio/beach1.wav","null","audio-keyboard-response","208","2.1.0","418843","F=YES, J=NO","dh08ynedll","2","79","68","90","","","","","","","","","","","","","","","",""
"618","
          <p id=""word"" style=""font-size: 40px;"">drive</p>
          <p style=""font-size: 16px;"">F = YES &nbsp;&nbsp;&nbsp; J = NO</p>
        ","f","html-keyboard-response","209","2.1.0","419462","F=YES, J=NO","dh08ynedll","2","79","68","90","","","","","","","","","drive","beach1","filler","filler","f","true","",""
"null","<p style=""font-size: 50px;"">+</p>","null","html-keyboard-response","210","2.1.0","419777","F=YES, J=NO","dh08ynedll","2","79","68","90","","","","","","","","","","","","","","","",""
"null","audio/beep-329314.mp3","null","audio-keyboard-response","211","2.1.0","421313","F=YES, J=NO","dh08ynedll","2","79","68","90","","","","","","","","","","","","","","","",""
"null","audio/card1.wav","null","audio-keyboard-response","212","2.1.0","421864","F=YES, J=NO","dh08ynedll","2","79","68","90","","","","","","","","","","","","","","","",""
"759","
          <p id=""word"" style=""font-size: 40px;"">land</p>
          <p style=""font-size: 16px;"">F = YES &nbsp;&nbsp;&nbsp; J = NO</p>
        ","f","html-keyboard-response","213","2.1.0","422624","F=YES, J=NO","dh08ynedll","2","79","68","90","","","","","","","","","land","card1","unrelated","experimental","f","true","",""
"null","<p style=""font-size: 50px;"">+</p>","null","html-keyboard-response","214","2.1.0","422928","F=YES, J=NO","dh08ynedll","2","79","68","90","","","","","","","","","","","","","","","",""
"null","audio/beep-329314.mp3","null","audio-keyboard-response","215","2.1.0","424464","F=YES, J=NO","dh08ynedll","2","79","68","90","","","","","","","","","","","","","","","",""
"null","audio/chance.wav","null","audio-keyboard-response","216","2.1.0","425113","F=YES, J=NO","dh08ynedll","2","79","68","90","","","","","","","","","","","","","","","",""
"756","
          <p id=""word"" style=""font-size: 40px;"">seize</p>
          <p style=""font-size: 16px;"">F = YES &nbsp;&nbsp;&nbsp; J = NO</p>
        ","j","html-keyboard-response","217","2.1.0","425870","F=YES, J=NO","dh08ynedll","2","79","68","90","","","","","","","","","seize","chance","metaphor","experimental","f","false","",""
"null","<p style=""font-size: 50px;"">+</p>","null","html-keyboard-response","218","2.1.0","426177","F=YES, J=NO","dh08ynedll","2","79","68","90","","","","","","","","","","","","","","","",""
"null","audio/beep-329314.mp3","null","audio-keyboard-response","219","2.1.0","427724","F=YES, J=NO","dh08ynedll","2","79","68","90","","","","","","","","","","","","","","","",""
"null","audio/arm.wav","null","audio-keyboard-response","220","2.1.0","428273","F=YES, J=NO","dh08ynedll","2","79","68","90","","","","","","","","","","","","","","","",""
"693","
          <p id=""word"" style=""font-size: 40px;"">fold</p>
          <p style=""font-size: 16px;"">F = YES &nbsp;&nbsp;&nbsp; J = NO</p>
        ","f","html-keyboard-response","221","2.1.0","428966","F=YES, J=NO","dh08ynedll","2","79","68","90","","","","","","","","","fold","arm","filler","filler","f","true","",""
"null","<p style=""font-size: 50px;"">+</p>","null","html-keyboard-response","222","2.1.0","429274","F=YES, J=NO","dh08ynedll","2","79","68","90","","","","","","","","","","","","","","","",""
"null","audio/beep-329314.mp3","null","audio-keyboard-response","223","2.1.0","430823","F=YES, J=NO","dh08ynedll","2","79","68","90","","","","","","","","","","","","","","","",""
"null","audio/pig.wav","null","audio-keyboard-response","224","2.1.0","431213","F=YES, J=NO","dh08ynedll","2","79","68","90","","","","","","","","","","","","","","","",""
"802","
          <p id=""word"" style=""font-size: 40px;"">tirlike</p>
          <p style=""font-size: 16px;"">F = YES &nbsp;&nbsp;&nbsp; J = NO</p>
        ","j","html-keyboard-response","225","2.1.0","432016","F=YES, J=NO","dh08ynedll","2","79","68","90","","","","","","","","","tirlike","pig","pseudoword","pseudoword","j","true","",""
"null","<p style=""font-size: 50px;"">+</p>","null","html-keyboard-response","226","2.1.0","432325","F=YES, J=NO","dh08ynedll","2","79","68","90","","","","","","","","","","","","","","","",""
"null","audio/beep-329314.mp3","null","audio-keyboard-response","227","2.1.0","433883","F=YES, J=NO","dh08ynedll","2","79","68","90","","","","","","","","","","","","","","","",""
"null","audio/scar.wav","null","audio-keyboard-response","228","2.1.0","434513","F=YES, J=NO","dh08ynedll","2","79","68","90","","","","","","","","","","","","","","","",""
"1039","
          <p id=""word"" style=""font-size: 40px;"">adelineate</p>
          <p style=""font-size: 16px;"">F = YES &nbsp;&nbsp;&nbsp; J = NO</p>
        ","j","html-keyboard-response","229","2.1.0","435553","F=YES, J=NO","dh08ynedll","2","79","68","90","","","","","","","","","adelineate","scar","pseudoword","pseudoword","j","true","",""
"2857","<p>Excellent! You have finished block 1 of 8.</p>
                     <p>Feel free to take a 30 second break.</p>
                     <p>Press any key when you're ready to continue.</p>"," ","html-keyboard-response","230","2.1.0","438411","F=YES, J=NO","dh08ynedll","2","79","68","90","","","","","","","","","","","","","","","",""
"4262","<p>Starting main block 2 of 8. Press any key to continue.</p>"," ","html-keyboard-response","231","2.1.0","442676","F=YES, J=NO","dh08ynedll","2","79","68","90","","","","","","","","","","","","","","","",""
"null","<p style=""font-size: 50px;"">+</p>","null","html-keyboard-response","232","2.1.0","442980","F=YES, J=NO","dh08ynedll","2","79","68","90","","","","","","","","","","","","","","","",""
"null","audio/beep-329314.mp3","null","audio-keyboard-response","233","2.1.0","444526","F=YES, J=NO","dh08ynedll","2","79","68","90","","","","","","","","","","","","","","","",""
"null","audio/inch1.wav","null","audio-keyboard-response","234","2.1.0","445086","F=YES, J=NO","dh08ynedll","2","79","68","90","","","","","","","","","","","","","","","",""
"704","
          <p id=""word"" style=""font-size: 40px;"">lose</p>
          <p style=""font-size: 16px;"">F = YES &nbsp;&nbsp;&nbsp; J = NO</p>
        ","f","html-keyboard-response","235","2.1.0","445791","F=YES, J=NO","dh08ynedll","2","79","68","90","","","","","","","","","lose","inch1","metaphor","experimental","f","true","",""
"null","<p style=""font-size: 50px;"">+</p>","null","html-keyboard-response","236","2.1.0","446096","F=YES, J=NO","dh08ynedll","2","79","68","90","","","","","","","","","","","","","","","",""
"null","audio/beep-329314.mp3","null","audio-keyboard-response","237","2.1.0","447646","F=YES, J=NO","dh08ynedll","2","79","68","90","","","","","","","","","","","","","","","",""
"null","audio/golf1.wav","null","audio-keyboard-response","238","2.1.0","448206","F=YES, J=NO","dh08ynedll","2","79","68","90","","","","","","","","","","","","","","","",""
"744","
          <p id=""word"" style=""font-size: 40px;"">drabble</p>
          <p style=""font-size: 16px;"">F = YES &nbsp;&nbsp;&nbsp; J = NO</p>
        ","j","html-keyboard-response","239","2.1.0","448951","F=YES, J=NO","dh08ynedll","2","79","68","90","","","","","","","","","drabble","golf1","pseudoword","pseudoword","j","true","",""
"null","<p style=""font-size: 50px;"">+</p>","null","html-keyboard-response","240","2.1.0","449261","F=YES, J=NO","dh08ynedll","2","79","68","90","","","","","","","","","","","","","","","",""
"null","audio/beep-329314.mp3","null","audio-keyboard-response","241","2.1.0","450806","F=YES, J=NO","dh08ynedll","2","79","68","90","","","","","","","","","","","","","","","",""
"null","audio/smirk1.wav","null","audio-keyboard-response","242","2.1.0","451666","F=YES, J=NO","dh08ynedll","2","79","68","90","","","","","","","","","","","","","","","",""
"788","
          <p id=""word"" style=""font-size: 40px;"">snopt</p>
          <p style=""font-size: 16px;"">F = YES &nbsp;&nbsp;&nbsp; J = NO</p>
        ","j","html-keyboard-response","243","2.1.0","452455","F=YES, J=NO","dh08ynedll","2","79","68","90","","","","","","","","","snopt","smirk1","pseudoword","pseudoword","j","true","",""
"null","<p style=""font-size: 50px;"">+</p>","null","html-keyboard-response","244","2.1.0","452763","F=YES, J=NO","dh08ynedll","2","79","68","90","","","","","","","","","","","","","","","",""
"null","audio/beep-329314.mp3","null","audio-keyboard-response","245","2.1.0","454306","F=YES, J=NO","dh08ynedll","2","79","68","90","","","","","","","","","","","","","","","",""
"null","audio/pattern.wav","null","audio-keyboard-response","246","2.1.0","454946","F=YES, J=NO","dh08ynedll","2","79","68","90","","","","","","","","","","","","","","","",""
"835","
          <p id=""word"" style=""font-size: 40px;"">tug</p>
          <p style=""font-size: 16px;"">F = YES &nbsp;&nbsp;&nbsp; J = NO</p>
        ","j","html-keyboard-response","247","2.1.0","455781","F=YES, J=NO","dh08ynedll","2","79","68","90","","","","","","","","","tug","pattern","filler","filler","f","false","",""
"null","<p style=""font-size: 50px;"">+</p>","null","html-keyboard-response","248","2.1.0","456096","F=YES, J=NO","dh08ynedll","2","79","68","90","","","","","","","","","","","","","","","",""
"null","audio/beep-329314.mp3","null","audio-keyboard-response","249","2.1.0","457646","F=YES, J=NO","dh08ynedll","2","79","68","90","","","","","","","","","","","","","","","",""
"null","audio/foe1.wav","null","audio-keyboard-response","250","2.1.0","458286","F=YES, J=NO","dh08ynedll","2","79","68","90","","","","","","","","","","","","","","","",""
"771","
          <p id=""word"" style=""font-size: 40px;"">creth</p>
          <p style=""font-size: 16px;"">F = YES &nbsp;&nbsp;&nbsp; J = NO</p>
        ","f","html-keyboard-response","251","2.1.0","459058","F=YES, J=NO","dh08ynedll","2","79","68","90","","","","","","","","","creth","foe1","pseudoword","pseudoword","j","false","",""
"null","<p style=""font-size: 50px;"">+</p>","null","html-keyboard-response","252","2.1.0","459360","F=YES, J=NO","dh08ynedll","2","79","68","90","","","","","","","","","","","","","","","",""
"null","audio/beep-329314.mp3","null","audio-keyboard-response","253","2.1.0","460906","F=YES, J=NO","dh08ynedll","2","79","68","90","","","","","","","","","","","","","","","",""
"null","audio/age1.wav","null","audio-keyboard-response","254","2.1.0","461446","F=YES, J=NO","dh08ynedll","2","79","68","90","","","","","","","","","","","","","","","",""
"754","
          <p id=""word"" style=""font-size: 40px;"">lachry</p>
          <p style=""font-size: 16px;"">F = YES &nbsp;&nbsp;&nbsp; J = NO</p>
        ","j","html-keyboard-response","255","2.1.0","462201","F=YES, J=NO","dh08ynedll","2","79","68","90","","","","","","","","","lachry","age1","pseudoword","pseudoword","j","true","",""
"null","<p style=""font-size: 50px;"">+</p>","null","html-keyboard-response","256","2.1.0","462511","F=YES, J=NO","dh08ynedll","2","79","68","90","","","","","","","","","","","","","","","",""
"null","audio/beep-329314.mp3","null","audio-keyboard-response","257","2.1.0","464066","F=YES, J=NO","dh08ynedll","2","79","68","90","","","","","","","","","","","","","","","",""
"null","audio/grass.wav","null","audio-keyboard-response","258","2.1.0","464706","F=YES, J=NO","dh08ynedll","2","79","68","90","","","","","","","","","","","","","","","",""
"560","
          <p id=""word"" style=""font-size: 40px;"">cut</p>
          <p style=""font-size: 16px;"">F = YES &nbsp;&nbsp;&nbsp; J = NO</p>
        ","f","html-keyboard-response","259","2.1.0","465267","F=YES, J=NO","dh08ynedll","2","79","68","90","","","","","","","","","cut","grass","literal","experimental","f","true","",""
"null","<p style=""font-size: 50px;"">+</p>","null","html-keyboard-response","260","2.1.0","465576","F=YES, J=NO","dh08ynedll","2","79","68","90","","","","","","","","","","","","","","","",""
"null","audio/beep-329314.mp3","null","audio-keyboard-response","261","2.1.0","467126","F=YES, J=NO","dh08ynedll","2","79","68","90","","","","","","","","","","","","","","","",""
"null","audio/theory1.wav","null","audio-keyboard-response","262","2.1.0","467926","F=YES, J=NO","dh08ynedll","2","79","68","90","","","","","","","","","","","","","","","",""
"1296","
          <p id=""word"" style=""font-size: 40px;"">scolve</p>
          <p style=""font-size: 16px;"">F = YES &nbsp;&nbsp;&nbsp; J = NO</p>
        ","j","html-keyboard-response","263","2.1.0","469223","F=YES, J=NO","dh08ynedll","2","79","68","90","","","","","","","","","scolve","theory1","pseudoword","pseudoword","j","true","",""
"null","<p style=""font-size: 50px;"">+</p>","null","html-keyboard-response","264","2.1.0","469527","F=YES, J=NO","dh08ynedll","2","79","68","90","","","","","","","","","","","","","","","",""
"null","audio/beep-329314.mp3","null","audio-keyboard-response","265","2.1.0","471086","F=YES, J=NO","dh08ynedll","2","79","68","90","","","","","","","","","","","","","","","",""
"null","audio/weight1.wav","null","audio-keyboard-response","266","2.1.0","471646","F=YES, J=NO","dh08ynedll","2","79","68","90","","","","","","","","","","","","","","","",""
"701","
          <p id=""word"" style=""font-size: 40px;"">crimsh</p>
          <p style=""font-size: 16px;"">F = YES &nbsp;&nbsp;&nbsp; J = NO</p>
        ","j","html-keyboard-response","267","2.1.0","472348","F=YES, J=NO","dh08ynedll","2","79","68","90","","","","","","","","","crimsh","weight1","pseudoword","pseudoword","j","true","",""
"null","<p style=""font-size: 50px;"">+</p>","null","html-keyboard-response","268","2.1.0","472662","F=YES, J=NO","dh08ynedll","2","79","68","90","","","","","","","","","","","","","","","",""
"null","audio/beep-329314.mp3","null","audio-keyboard-response","269","2.1.0","474206","F=YES, J=NO","dh08ynedll","2","79","68","90","","","","","","","","","","","","","","","",""
"null","audio/meal.wav","null","audio-keyboard-response","270","2.1.0","474786","F=YES, J=NO","dh08ynedll","2","79","68","90","","","","","","","","","","","","","","","",""
"987","
          <p id=""word"" style=""font-size: 40px;"">gallite</p>
          <p style=""font-size: 16px;"">F = YES &nbsp;&nbsp;&nbsp; J = NO</p>
        ","j","html-keyboard-response","271","2.1.0","475774","F=YES, J=NO","dh08ynedll","2","79","68","90","","","","","","","","","gallite","meal","pseudoword","pseudoword","j","true","",""
"null","<p style=""font-size: 50px;"">+</p>","null","html-keyboard-response","272","2.1.0","476080","F=YES, J=NO","dh08ynedll","2","79","68","90","","","","","","","","","","","","","","","",""
"null","audio/beep-329314.mp3","null","audio-keyboard-response","273","2.1.0","477626","F=YES, J=NO","dh08ynedll","2","79","68","90","","","","","","","","","","","","","","","",""
"null","audio/uncle1.wav","null","audio-keyboard-response","274","2.1.0","478146","F=YES, J=NO","dh08ynedll","2","79","68","90","","","","","","","","","","","","","","","",""
"1358","
          <p id=""word"" style=""font-size: 40px;"">dramble</p>
          <p style=""font-size: 16px;"">F = YES &nbsp;&nbsp;&nbsp; J = NO</p>
        ","f","html-keyboard-response","275","2.1.0","479505","F=YES, J=NO","dh08ynedll","2","79","68","90","","","","","","","","","dramble","uncle1","pseudoword","pseudoword","j","false","",""
"null","<p style=""font-size: 50px;"">+</p>","null","html-keyboard-response","276","2.1.0","479810","F=YES, J=NO","dh08ynedll","2","79","68","90","","","","","","","","","","","","","","","",""
"null","audio/beep-329314.mp3","null","audio-keyboard-response","277","2.1.0","481366","F=YES, J=NO","dh08ynedll","2","79","68","90","","","","","","","","","","","","","","","",""
"null","audio/corpse1.wav","null","audio-keyboard-response","278","2.1.0","481986","F=YES, J=NO","dh08ynedll","2","79","68","90","","","","","","","","","","","","","","","",""
"970","
          <p id=""word"" style=""font-size: 40px;"">glonet</p>
          <p style=""font-size: 16px;"">F = YES &nbsp;&nbsp;&nbsp; J = NO</p>
        ","j","html-keyboard-response","279","2.1.0","482957","F=YES, J=NO","dh08ynedll","2","79","68","90","","","","","","","","","glonet","corpse1","pseudoword","pseudoword","j","true","",""
"null","<p style=""font-size: 50px;"">+</p>","null","html-keyboard-response","280","2.1.0","483260","F=YES, J=NO","dh08ynedll","2","79","68","90","","","","","","","","","","","","","","","",""
"null","audio/beep-329314.mp3","null","audio-keyboard-response","281","2.1.0","484806","F=YES, J=NO","dh08ynedll","2","79","68","90","","","","","","","","","","","","","","","",""
"null","audio/mile1.wav","null","audio-keyboard-response","282","2.1.0","485286","F=YES, J=NO","dh08ynedll","2","79","68","90","","","","","","","","","","","","","","","",""
"657","
          <p id=""word"" style=""font-size: 40px;"">writch</p>
          <p style=""font-size: 16px;"">F = YES &nbsp;&nbsp;&nbsp; J = NO</p>
        ","f","html-keyboard-response","283","2.1.0","485944","F=YES, J=NO","dh08ynedll","2","79","68","90","","","","","","","","","writch","mile1","pseudoword","pseudoword","j","false","",""
"null","<p style=""font-size: 50px;"">+</p>","null","html-keyboard-response","284","2.1.0","486260","F=YES, J=NO","dh08ynedll","2","79","68","90","","","","","","","","","","","","","","","",""
"null","audio/beep-329314.mp3","null","audio-keyboard-response","285","2.1.0","487806","F=YES, J=NO","dh08ynedll","2","79","68","90","","","","","","","","","","","","","","","",""
"null","audio/noise1.wav","null","audio-keyboard-response","286","2.1.0","488547","F=YES, J=NO","dh08ynedll","2","79","68","90","","","","","","","","","","","","","","","",""
"709","
          <p id=""word"" style=""font-size: 40px;"">slintered</p>
          <p style=""font-size: 16px;"">F = YES &nbsp;&nbsp;&nbsp; J = NO</p>
        ","j","html-keyboard-response","287","2.1.0","489257","F=YES, J=NO","dh08ynedll","2","79","68","90","","","","","","","","","slintered","noise1","pseudoword","pseudoword","j","true","",""
"null","<p style=""font-size: 50px;"">+</p>","null","html-keyboard-response","288","2.1.0","489560","F=YES, J=NO","dh08ynedll","2","79","68","90","","","","","","","","","","","","","","","",""
"null","audio/beep-329314.mp3","null","audio-keyboard-response","289","2.1.0","491106","F=YES, J=NO","dh08ynedll","2","79","68","90","","","","","","","","","","","","","","","",""
"null","audio/hotel1.wav","null","audio-keyboard-response","290","2.1.0","491766","F=YES, J=NO","dh08ynedll","2","79","68","90","","","","","","","","","","","","","","","",""
"1076","
          <p id=""word"" style=""font-size: 40px;"">flanter</p>
          <p style=""font-size: 16px;"">F = YES &nbsp;&nbsp;&nbsp; J = NO</p>
        ","j","html-keyboard-response","291","2.1.0","492843","F=YES, J=NO","dh08ynedll","2","79","68","90","","","","","","","","","flanter","hotel1","pseudoword","pseudoword","j","true","",""
"null","<p style=""font-size: 50px;"">+</p>","null","html-keyboard-response","292","2.1.0","493145","F=YES, J=NO","dh08ynedll","2","79","68","90","","","","","","","","","","","","","","","",""
"null","audio/beep-329314.mp3","null","audio-keyboard-response","293","2.1.0","494706","F=YES, J=NO","dh08ynedll","2","79","68","90","","","","","","","","","","","","","","","",""
"null","audio/alarm1.wav","null","audio-keyboard-response","294","2.1.0","495327","F=YES, J=NO","dh08ynedll","2","79","68","90","","","","","","","","","","","","","","","",""
"781","
          <p id=""word"" style=""font-size: 40px;"">swetp</p>
          <p style=""font-size: 16px;"">F = YES &nbsp;&nbsp;&nbsp; J = NO</p>
        ","j","html-keyboard-response","295","2.1.0","496109","F=YES, J=NO","dh08ynedll","2","79","68","90","","","","","","","","","swetp","alarm1","pseudoword","pseudoword","j","true","",""
"21390","<p>Excellent! You have finished block 2 of 8.</p>
                     <p>Feel free to take a 30 second break.</p>
                     <p>Press any key when you're ready to continue.</p>"," ","html-keyboard-response","296","2.1.0","517504","F=YES, J=NO","dh08ynedll","2","79","68","90","","","","","","","","","","","","","","","",""
"8939","<p>Starting main block 3 of 8. Press any key to continue.</p>"," ","html-keyboard-response","297","2.1.0","526444","F=YES, J=NO","dh08ynedll","2","79","68","90","","","","","","","","","","","","","","","",""
"null","<p style=""font-size: 50px;"">+</p>","null","html-keyboard-response","298","2.1.0","526757","F=YES, J=NO","dh08ynedll","2","79","68","90","","","","","","","","","","","","","","","",""
"null","audio/beep-329314.mp3","null","audio-keyboard-response","299","2.1.0","528660","F=YES, J=NO","dh08ynedll","2","79","68","90","","","","","","","","","","","","","","","",""
"null","audio/heart1.wav","null","audio-keyboard-response","300","2.1.0","529300","F=YES, J=NO","dh08ynedll","2","79","68","90","","","","","","","","","","","","","","","",""
"604","
          <p id=""word"" style=""font-size: 40px;"">dralm</p>
          <p style=""font-size: 16px;"">F = YES &nbsp;&nbsp;&nbsp; J = NO</p>
        ","j","html-keyboard-response","301","2.1.0","529905","F=YES, J=NO","dh08ynedll","2","79","68","90","","","","","","","","","dralm","heart1","pseudoword","pseudoword","j","true","",""
"null","<p style=""font-size: 50px;"">+</p>","null","html-keyboard-response","302","2.1.0","530214","F=YES, J=NO","dh08ynedll","2","79","68","90","","","","","","","","","","","","","","","",""
"null","audio/beep-329314.mp3","null","audio-keyboard-response","303","2.1.0","531759","F=YES, J=NO","dh08ynedll","2","79","68","90","","","","","","","","","","","","","","","",""
"null","audio/bottle.wav","null","audio-keyboard-response","304","2.1.0","532260","F=YES, J=NO","dh08ynedll","2","79","68","90","","","","","","","","","","","","","","","",""
"1104","
          <p id=""word"" style=""font-size: 40px;"">watch</p>
          <p style=""font-size: 16px;"">F = YES &nbsp;&nbsp;&nbsp; J = NO</p>
        ","j","html-keyboard-response","305","2.1.0","533365","F=YES, J=NO","dh08ynedll","2","79","68","90","","","","","","","","","watch","bottle","filler","filler","f","false","",""
"null","<p style=""font-size: 50px;"">+</p>","null","html-keyboard-response","306","2.1.0","533679","F=YES, J=NO","dh08ynedll","2","79","68","90","","","","","","","","","","","","","","","",""
"null","audio/beep-329314.mp3","null","audio-keyboard-response","307","2.1.0","535241","F=YES, J=NO","dh08ynedll","2","79","68","90","","","","","","","","","","","","","","","",""
"null","audio/pain1.wav","null","audio-keyboard-response","308","2.1.0","535680","F=YES, J=NO","dh08ynedll","2","79","68","90","","","","","","","","","","","","","","","",""
"807","
          <p id=""word"" style=""font-size: 40px;"">tritted</p>
          <p style=""font-size: 16px;"">F = YES &nbsp;&nbsp;&nbsp; J = NO</p>
        ","f","html-keyboard-response","309","2.1.0","536489","F=YES, J=NO","dh08ynedll","2","79","68","90","","","","","","","","","tritted","pain1","pseudoword","pseudoword","j","false","",""
"null","<p style=""font-size: 50px;"">+</p>","null","html-keyboard-response","310","2.1.0","536800","F=YES, J=NO","dh08ynedll","2","79","68","90","","","","","","","","","","","","","","","",""
"null","audio/beep-329314.mp3","null","audio-keyboard-response","311","2.1.0","538360","F=YES, J=NO","dh08ynedll","2","79","68","90","","","","","","","","","","","","","","","",""
"null","audio/gift1.wav","null","audio-keyboard-response","312","2.1.0","538860","F=YES, J=NO","dh08ynedll","2","79","68","90","","","","","","","","","","","","","","","",""
"667","
          <p id=""word"" style=""font-size: 40px;"">protsh</p>
          <p style=""font-size: 16px;"">F = YES &nbsp;&nbsp;&nbsp; J = NO</p>
        ","j","html-keyboard-response","313","2.1.0","539528","F=YES, J=NO","dh08ynedll","2","79","68","90","","","","","","","","","protsh","gift1","pseudoword","pseudoword","j","true","",""
"null","<p style=""font-size: 50px;"">+</p>","null","html-keyboard-response","314","2.1.0","539846","F=YES, J=NO","dh08ynedll","2","79","68","90","","","","","","","","","","","","","","","",""
"null","audio/beep-329314.mp3","null","audio-keyboard-response","315","2.1.0","541400","F=YES, J=NO","dh08ynedll","2","79","68","90","","","","","","","","","","","","","","","",""
"null","audio/empire.wav","null","audio-keyboard-response","316","2.1.0","542061","F=YES, J=NO","dh08ynedll","2","79","68","90","","","","","","","","","","","","","","","",""
"271","
          <p id=""word"" style=""font-size: 40px;"">slorby</p>
          <p style=""font-size: 16px;"">F = YES &nbsp;&nbsp;&nbsp; J = NO</p>
        ","j","html-keyboard-response","317","2.1.0","542334","F=YES, J=NO","dh08ynedll","2","79","68","90","","","","","","","","","slorby","empire","pseudoword","pseudoword","j","true","",""
"null","<p style=""font-size: 50px;"">+</p>","null","html-keyboard-response","318","2.1.0","542647","F=YES, J=NO","dh08ynedll","2","79","68","90","","","","","","","","","","","","","","","",""
"null","audio/beep-329314.mp3","null","audio-keyboard-response","319","2.1.0","544200","F=YES, J=NO","dh08ynedll","2","79","68","90","","","","","","","","","","","","","","","",""
"null","audio/cinema1.wav","null","audio-keyboard-response","320","2.1.0","544800","F=YES, J=NO","dh08ynedll","2","79","68","90","","","","","","","","","","","","","","","",""
"618","
          <p id=""word"" style=""font-size: 40px;"">grow</p>
          <p style=""font-size: 16px;"">F = YES &nbsp;&nbsp;&nbsp; J = NO</p>
        ","f","html-keyboard-response","321","2.1.0","545418","F=YES, J=NO","dh08ynedll","2","79","68","90","","","","","","","","","grow","cinema1","unrelated","experimental","f","true","",""
"null","<p style=""font-size: 50px;"">+</p>","null","html-keyboard-response","322","2.1.0","545730","F=YES, J=NO","dh08ynedll","2","79","68","90","","","","","","","","","","","","","","","",""
"null","audio/beep-329314.mp3","null","audio-keyboard-response","323","2.1.0","547281","F=YES, J=NO","dh08ynedll","2","79","68","90","","","","","","","","","","","","","","","",""
"null","audio/winter.wav","null","audio-keyboard-response","324","2.1.0","547881","F=YES, J=NO","dh08ynedll","2","79","68","90","","","","","","","","","","","","","","","",""
"611","
          <p id=""word"" style=""font-size: 40px;"">straven</p>
          <p style=""font-size: 16px;"">F = YES &nbsp;&nbsp;&nbsp; J = NO</p>
        ","j","html-keyboard-response","325","2.1.0","548494","F=YES, J=NO","dh08ynedll","2","79","68","90","","","","","","","","","straven","winter","pseudoword","pseudoword","j","true","",""
"null","<p style=""font-size: 50px;"">+</p>","null","html-keyboard-response","326","2.1.0","548796","F=YES, J=NO","dh08ynedll","2","79","68","90","","","","","","","","","","","","","","","",""
"null","audio/beep-329314.mp3","null","audio-keyboard-response","327","2.1.0","550341","F=YES, J=NO","dh08ynedll","2","79","68","90","","","","","","","","","","","","","","","",""
"null","audio/ego.wav","null","audio-keyboard-response","328","2.1.0","550881","F=YES, J=NO","dh08ynedll","2","79","68","90","","","","","","","","","","","","","","","",""
"1117","
          <p id=""word"" style=""font-size: 40px;"">bruite</p>
          <p style=""font-size: 16px;"">F = YES &nbsp;&nbsp;&nbsp; J = NO</p>
        ","f","html-keyboard-response","329","2.1.0","552001","F=YES, J=NO","dh08ynedll","2","79","68","90","","","","","","","","","bruite","ego","pseudoword","pseudoword","j","false","",""
"null","<p style=""font-size: 50px;"">+</p>","null","html-keyboard-response","330","2.1.0","552313","F=YES, J=NO","dh08ynedll","2","79","68","90","","","","","","","","","","","","","","","",""
"null","audio/beep-329314.mp3","null","audio-keyboard-response","331","2.1.0","553860","F=YES, J=NO","dh08ynedll","2","79","68","90","","","","","","","","","","","","","","","",""
"null","audio/cash1.wav","null","audio-keyboard-response","332","2.1.0","554481","F=YES, J=NO","dh08ynedll","2","79","68","90","","","","","","","","","","","","","","","",""
"1213","
          <p id=""word"" style=""font-size: 40px;"">splear</p>
          <p style=""font-size: 16px;"">F = YES &nbsp;&nbsp;&nbsp; J = NO</p>
        ","j","html-keyboard-response","333","2.1.0","555695","F=YES, J=NO","dh08ynedll","2","79","68","90","","","","","","","","","splear","cash1","pseudoword","pseudoword","j","true","",""
"null","<p style=""font-size: 50px;"">+</p>","null","html-keyboard-response","334","2.1.0","555997","F=YES, J=NO","dh08ynedll","2","79","68","90","","","","","","","","","","","","","","","",""
"null","audio/beep-329314.mp3","null","audio-keyboard-response","335","2.1.0","557541","F=YES, J=NO","dh08ynedll","2","79","68","90","","","","","","","","","","","","","","","",""
"null","audio/emotion.wav","null","audio-keyboard-response","336","2.1.0","558220","F=YES, J=NO","dh08ynedll","2","79","68","90","","","","","","","","","","","","","","","",""
"1087","
          <p id=""word"" style=""font-size: 40px;"">devering</p>
          <p style=""font-size: 16px;"">F = YES &nbsp;&nbsp;&nbsp; J = NO</p>
        ","f","html-keyboard-response","337","2.1.0","559308","F=YES, J=NO","dh08ynedll","2","79","68","90","","","","","","","","","devering","emotion","pseudoword","pseudoword","j","false","",""
"null","<p style=""font-size: 50px;"">+</p>","null","html-keyboard-response","338","2.1.0","559613","F=YES, J=NO","dh08ynedll","2","79","68","90","","","","","","","","","","","","","","","",""
"null","audio/beep-329314.mp3","null","audio-keyboard-response","339","2.1.0","561162","F=YES, J=NO","dh08ynedll","2","79","68","90","","","","","","","","","","","","","","","",""
"null","audio/account1.wav","null","audio-keyboard-response","340","2.1.0","561881","F=YES, J=NO","dh08ynedll","2","79","68","90","","","","","","","","","","","","","","","",""
"571","
          <p id=""word"" style=""font-size: 40px;"">paint</p>
          <p style=""font-size: 16px;"">F = YES &nbsp;&nbsp;&nbsp; J = NO</p>
        ","f","html-keyboard-response","341","2.1.0","562453","F=YES, J=NO","dh08ynedll","2","79","68","90","","","","","","","","","paint","account1","filler","filler","f","true","",""
"null","<p style=""font-size: 50px;"">+</p>","null","html-keyboard-response","342","2.1.0","562763","F=YES, J=NO","dh08ynedll","2","79","68","90","","","","","","","","","","","","","","","",""
"null","audio/beep-329314.mp3","null","audio-keyboard-response","343","2.1.0","564320","F=YES, J=NO","dh08ynedll","2","79","68","90","","","","","","","","","","","","","","","",""
"null","audio/cancer1.wav","null","audio-keyboard-response","344","2.1.0","564861","F=YES, J=NO","dh08ynedll","2","79","68","90","","","","","","","","","","","","","","","",""
"921","
          <p id=""word"" style=""font-size: 40px;"">fight</p>
          <p style=""font-size: 16px;"">F = YES &nbsp;&nbsp;&nbsp; J = NO</p>
        ","f","html-keyboard-response","345","2.1.0","565783","F=YES, J=NO","dh08ynedll","2","79","68","90","","","","","","","","","fight","cancer1","metaphor","experimental","f","true","",""
"null","<p style=""font-size: 50px;"">+</p>","null","html-keyboard-response","346","2.1.0","566098","F=YES, J=NO","dh08ynedll","2","79","68","90","","","","","","","","","","","","","","","",""
"null","audio/beep-329314.mp3","null","audio-keyboard-response","347","2.1.0","567661","F=YES, J=NO","dh08ynedll","2","79","68","90","","","","","","","","","","","","","","","",""
"null","audio/key1.wav","null","audio-keyboard-response","348","2.1.0","568021","F=YES, J=NO","dh08ynedll","2","79","68","90","","","","","","","","","","","","","","","",""
"738","
          <p id=""word"" style=""font-size: 40px;"">sminsh</p>
          <p style=""font-size: 16px;"">F = YES &nbsp;&nbsp;&nbsp; J = NO</p>
        ","j","html-keyboard-response","349","2.1.0","568762","F=YES, J=NO","dh08ynedll","2","79","68","90","","","","","","","","","sminsh","key1","pseudoword","pseudoword","j","true","",""
"null","<p style=""font-size: 50px;"">+</p>","null","html-keyboard-response","350","2.1.0","569080","F=YES, J=NO","dh08ynedll","2","79","68","90","","","","","","","","","","","","","","","",""
"null","audio/beep-329314.mp3","null","audio-keyboard-response","351","2.1.0","570642","F=YES, J=NO","dh08ynedll","2","79","68","90","","","","","","","","","","","","","","","",""
"null","audio/road.wav","null","audio-keyboard-response","352","2.1.0","571060","F=YES, J=NO","dh08ynedll","2","79","68","90","","","","","","","","","","","","","","","",""
"null","
          <p id=""word"" style=""font-size: 40px;"">flood</p>
          <p style=""font-size: 16px;"">F = YES &nbsp;&nbsp;&nbsp; J = NO</p>
        ","null","html-keyboard-response","353","2.1.0","572572","F=YES, J=NO","dh08ynedll","2","79","68","90","","","","","","","","","flood","road","literal","experimental","f","false","",""
"null","<p style=""font-size: 50px;"">+</p>","null","html-keyboard-response","354","2.1.0","572879","F=YES, J=NO","dh08ynedll","2","79","68","90","","","","","","","","","","","","","","","",""
"null","audio/beep-329314.mp3","null","audio-keyboard-response","355","2.1.0","574442","F=YES, J=NO","dh08ynedll","2","79","68","90","","","","","","","","","","","","","","","",""
"null","audio/handle.wav","null","audio-keyboard-response","356","2.1.0","575101","F=YES, J=NO","dh08ynedll","2","79","68","90","","","","","","","","","","","","","","","",""
"736","
          <p id=""word"" style=""font-size: 40px;"">moutes</p>
          <p style=""font-size: 16px;"">F = YES &nbsp;&nbsp;&nbsp; J = NO</p>
        ","j","html-keyboard-response","357","2.1.0","575839","F=YES, J=NO","dh08ynedll","2","79","68","90","","","","","","","","","moutes","handle","pseudoword","pseudoword","j","true","",""
"null","<p style=""font-size: 50px;"">+</p>","null","html-keyboard-response","358","2.1.0","576147","F=YES, J=NO","dh08ynedll","2","79","68","90","","","","","","","","","","","","","","","",""
"null","audio/beep-329314.mp3","null","audio-keyboard-response","359","2.1.0","577705","F=YES, J=NO","dh08ynedll","2","79","68","90","","","","","","","","","","","","","","","",""
"null","audio/stain.wav","null","audio-keyboard-response","360","2.1.0","578384","F=YES, J=NO","dh08ynedll","2","79","68","90","","","","","","","","","","","","","","","",""
"802","
          <p id=""word"" style=""font-size: 40px;"">rumpsied</p>
          <p style=""font-size: 16px;"">F = YES &nbsp;&nbsp;&nbsp; J = NO</p>
        ","j","html-keyboard-response","361","2.1.0","579189","F=YES, J=NO","dh08ynedll","2","79","68","90","","","","","","","","","rumpsied","stain","pseudoword","pseudoword","j","true","",""
"21364","<p>Excellent! You have finished block 3 of 8.</p>
                     <p>Feel free to take a 30 second break.</p>
                     <p>Press any key when you're ready to continue.</p>","f","html-keyboard-response","362","2.1.0","600554","F=YES, J=NO","dh08ynedll","2","79","68","90","","","","","","","","","","","","","","","",""
"3008","<p>Starting main block 4 of 8. Press any key to continue.</p>"," ","html-keyboard-response","363","2.1.0","603562","F=YES, J=NO","dh08ynedll","2","79","68","90","","","","","","","","","","","","","","","",""
"null","<p style=""font-size: 50px;"">+</p>","null","html-keyboard-response","364","2.1.0","603879","F=YES, J=NO","dh08ynedll","2","79","68","90","","","","","","","","","","","","","","","",""
"null","audio/beep-329314.mp3","null","audio-keyboard-response","365","2.1.0","605686","F=YES, J=NO","dh08ynedll","2","79","68","90","","","","","","","","","","","","","","","",""
"null","audio/handle.wav","null","audio-keyboard-response","366","2.1.0","606286","F=YES, J=NO","dh08ynedll","2","79","68","90","","","","","","","","","","","","","","","",""
"1087","
          <p id=""word"" style=""font-size: 40px;"">grasp</p>
          <p style=""font-size: 16px;"">F = YES &nbsp;&nbsp;&nbsp; J = NO</p>
        ","f","html-keyboard-response","367","2.1.0","607374","F=YES, J=NO","dh08ynedll","2","79","68","90","","","","","","","","","grasp","handle","literal","experimental","f","true","",""
"null","<p style=""font-size: 50px;"">+</p>","null","html-keyboard-response","368","2.1.0","607683","F=YES, J=NO","dh08ynedll","2","79","68","90","","","","","","","","","","","","","","","",""
"null","audio/beep-329314.mp3","null","audio-keyboard-response","369","2.1.0","609206","F=YES, J=NO","dh08ynedll","2","79","68","90","","","","","","","","","","","","","","","",""
"null","audio/holiday1.wav","null","audio-keyboard-response","370","2.1.0","609966","F=YES, J=NO","dh08ynedll","2","79","68","90","","","","","","","","","","","","","","","",""
"635","
          <p id=""word"" style=""font-size: 40px;"">spend</p>
          <p style=""font-size: 16px;"">F = YES &nbsp;&nbsp;&nbsp; J = NO</p>
        ","j","html-keyboard-response","371","2.1.0","610602","F=YES, J=NO","dh08ynedll","2","79","68","90","","","","","","","","","spend","holiday1","metaphor","experimental","f","false","",""
"null","<p style=""font-size: 50px;"">+</p>","null","html-keyboard-response","372","2.1.0","610915","F=YES, J=NO","dh08ynedll","2","79","68","90","","","","","","","","","","","","","","","",""
"null","audio/beep-329314.mp3","null","audio-keyboard-response","373","2.1.0","612447","F=YES, J=NO","dh08ynedll","2","79","68","90","","","","","","","","","","","","","","","",""
"null","audio/prisoner.wav","null","audio-keyboard-response","374","2.1.0","612988","F=YES, J=NO","dh08ynedll","2","79","68","90","","","","","","","","","","","","","","","",""
"807","
          <p id=""word"" style=""font-size: 40px;"">release</p>
          <p style=""font-size: 16px;"">F = YES &nbsp;&nbsp;&nbsp; J = NO</p>
        ","f","html-keyboard-response","375","2.1.0","613796","F=YES, J=NO","dh08ynedll","2","79","68","90","","","","","","","","","release","prisoner","literal","experimental","f","true","",""
"null","<p style=""font-size: 50px;"">+</p>","null","html-keyboard-response","376","2.1.0","614100","F=YES, J=NO","dh08ynedll","2","79","68","90","","","","","","","","","","","","","","","",""
"null","audio/beep-329314.mp3","null","audio-keyboard-response","377","2.1.0","615626","F=YES, J=NO","dh08ynedll","2","79","68","90","","","","","","","","","","","","","","","",""
"null","audio/sand.wav","null","audio-keyboard-response","378","2.1.0","616306","F=YES, J=NO","dh08ynedll","2","79","68","90","","","","","","","","","","","","","","","",""
"922","
          <p id=""word"" style=""font-size: 40px;"">proted</p>
          <p style=""font-size: 16px;"">F = YES &nbsp;&nbsp;&nbsp; J = NO</p>
        ","j","html-keyboard-response","379","2.1.0","617229","F=YES, J=NO","dh08ynedll","2","79","68","90","","","","","","","","","proted","sand","pseudoword","pseudoword","j","true","",""
"null","<p style=""font-size: 50px;"">+</p>","null","html-keyboard-response","380","2.1.0","617532","F=YES, J=NO","dh08ynedll","2","79","68","90","","","","","","","","","","","","","","","",""
"null","audio/beep-329314.mp3","null","audio-keyboard-response","381","2.1.0","619067","F=YES, J=NO","dh08ynedll","2","79","68","90","","","","","","","","","","","","","","","",""
"null","audio/sugar1.wav","null","audio-keyboard-response","382","2.1.0","619587","F=YES, J=NO","dh08ynedll","2","79","68","90","","","","","","","","","","","","","","","",""
"null","
          <p id=""word"" style=""font-size: 40px;"">approach</p>
          <p style=""font-size: 16px;"">F = YES &nbsp;&nbsp;&nbsp; J = NO</p>
        ","null","html-keyboard-response","383","2.1.0","621092","F=YES, J=NO","dh08ynedll","2","79","68","90","","","","","","","","","approach","sugar1","unrelated","experimental","f","false","",""
"null","<p style=""font-size: 50px;"">+</p>","null","html-keyboard-response","384","2.1.0","621398","F=YES, J=NO","dh08ynedll","2","79","68","90","","","","","","","","","","","","","","","",""
"null","audio/beep-329314.mp3","null","audio-keyboard-response","385","2.1.0","622926","F=YES, J=NO","dh08ynedll","2","79","68","90","","","","","","","","","","","","","","","",""
"null","audio/neck.wav","null","audio-keyboard-response","386","2.1.0","623606","F=YES, J=NO","dh08ynedll","2","79","68","90","","","","","","","","","","","","","","","",""
"1275","
          <p id=""word"" style=""font-size: 40px;"">werling</p>
          <p style=""font-size: 16px;"">F = YES &nbsp;&nbsp;&nbsp; J = NO</p>
        ","f","html-keyboard-response","387","2.1.0","624882","F=YES, J=NO","dh08ynedll","2","79","68","90","","","","","","","","","werling","neck","pseudoword","pseudoword","j","false","",""
"null","<p style=""font-size: 50px;"">+</p>","null","html-keyboard-response","388","2.1.0","625188","F=YES, J=NO","dh08ynedll","2","79","68","90","","","","","","","","","","","","","","","",""
"null","audio/beep-329314.mp3","null","audio-keyboard-response","389","2.1.0","626728","F=YES, J=NO","dh08ynedll","2","79","68","90","","","","","","","","","","","","","","","",""
"null","audio/road.wav","null","audio-keyboard-response","390","2.1.0","627146","F=YES, J=NO","dh08ynedll","2","79","68","90","","","","","","","","","","","","","","","",""
"968","
          <p id=""word"" style=""font-size: 40px;"">wappings</p>
          <p style=""font-size: 16px;"">F = YES &nbsp;&nbsp;&nbsp; J = NO</p>
