"rt","stimulus","response","trial_type","trial_index","plugin_version","time_elapsed","response_mapping","subject_id","list_index","lextale_score","lextale_word_score","lextale_nonword_score","success","timeout","failed_images","failed_audio","failed_video","task","isWord","isDummy","target","prime","prime_type","stimulus_type","correct_response","correct","section","question_order"
"6587","
    <div style=""max-width: 800px; margin: auto; text-align: left;"">
      <h2>STANFORD UNIVERSITY</h2>
      <h3>Research Information Sheet</h3>
      <p><strong>Protocol Director:</strong> Robert Hawkins<br>
      <strong>Protocol Title:</strong> Communication and social cognition in natural audiovisual contexts<br>
      <strong>IRB#:</strong> 77226</p>

      <p><strong>DESCRIPTION:</strong> You are invited to participate in a research study about language and communication. The purpose of the research is to understand how you interact and communicate with other people in naturalistic settings as a fluent English speaker. This research will be conducted through the Prolific platform, including participants from the US, UK, and Canada. If you decide to participate in this research, you will play a communication game in a group with one or more partners.</p>

      <p><strong>TIME INVOLVEMENT:</strong> The task will last the amount of time advertised on Prolific. You are free to withdraw from the study at any time.</p>

      <p><strong>RISKS AND BENEFITS:</strong> You may become frustrated if your partner gets distracted, or experience discomfort if other participants in your group send text that is inappropriate for the task. We ask you to please be respectful of other participants you might be interacting with to mitigate these risks. You may also experience discomfort when being asked to discuss or challenge emotionally salient political beliefs. Study data will be stored securely, in compliance with Stanford University standards, minimizing the risk of confidentiality breach. This study advances our scientific understanding of how people communicate and collaborate in naturalistic settings. This study may lead to further insights about what can go wrong in teamwork, suggest potential interventions to overcome these barriers, and help to develop assistive technologies that collaborate with human partners. We cannot and do not guarantee or promise that you will receive any benefits from this study.</p>

      <p><strong>PAYMENTS:</strong> You will receive payment in the amount advertised on Prolific. If you do not complete this study, you will receive prorated payment based on the time that you have spent. Additionally, you may be eligible for bonus payments as described in the instructions.</p>

      <p><strong>PARTICIPANT’S RIGHTS:</strong> If you have read this form and have decided to participate in this project, please understand your participation is voluntary and you have the right to withdraw your consent or discontinue participation at any time without penalty or loss of benefits to which you are otherwise entitled. The alternative is not to participate. You have the right to refuse to answer particular questions. The results of this research study may be presented at scientific or professional meetings or published in scientific journals. Your individual privacy will be maintained in all published and written data resulting from the study. In accordance with scientific norms, the data from this study may be used or shared with other researchers for future research (after removing personally identifying information) without additional consent from you.</p>

      <p><strong>CONTACT INFORMATION:</strong><br>
      Questions: If you have any questions, concerns or complaints about this research, its procedures, risks and benefits, contact the Protocol Director, Robert Hawkins (<a href=""mailto:rdhawkins@stanford.edu"">rdhawkins@stanford.edu</a>, 217-549-6923).<br>
      Independent Contact: If you are not satisfied with how this study is being conducted, or if you have any concerns, complaints, or general questions about the research or your rights as a participant, please contact the Stanford Institutional Review Board (IRB) to speak to someone independent of the research team at 650-723-2480 or toll free at 1-866-680-2906, or email at <a href=""mailto:irbnon-med@stanford.edu"">irbnon-med@stanford.edu</a>. You can also write to the Stanford IRB, Stanford University, 1705 El Camino Real, Palo Alto, CA 94306.</p>

      <p><strong>Please save or print a copy of this page for your records.</strong></p>
      <p>If you agree to participate in this research, click ""Continue"" below.</p>
    </div>
  ","0","html-button-response","0","2.1.0","6605","F=YES, J=NO","dpka4hxq5l","2","68","55","80","","","","","","","","","","","","","","","",""
"493","
    <div style=""max-width: 800px; margin: auto; text-align: left;"">
      <h2>Welcome!</h2>
      <p>Thank you for participating in this study. The experiment consists of three parts:</p>
      <ol>
        <li>An English vocabulary test</li>
        <li>A main task in which you will hear and see words, and decide whether the written word is a real English word</li>
        <li>A brief survey about your background</li>
      </ol>
      <p>Each part will be introduced before it begins.</p>
      <p>Please make sure you are in a quiet environment and can hear audio clearly for the final task.</p>
      <p style=""margin-top: 2em;"">Press any key to begin.</p>
    </div>
  ","Control","html-keyboard-response","1","2.1.0","7103","F=YES, J=NO","dpka4hxq5l","2","68","55","80","","","","","","","","","","","","","","","",""
"","","","preload","2","2.1.0","10719","F=YES, J=NO","dpka4hxq5l","2","68","55","80","true","false","[]","[]","[]","","","","","","","","","","",""
"3418","
    <div style=""max-width: 800px; margin: auto; text-align: left;"">
      <h2>Part 1: Vocabulary Test</h2>
      <p>You will now complete the first part of the study: a short English vocabulary test.</p>
      <p>This test is called <strong>LexTALE</strong> and helps us get a general sense of your English proficiency.</p>
      <p style=""margin-top: 2em;"">Press any key to continue.</p>
    </div>
  ","d","html-keyboard-response","3","2.1.0","14139","F=YES, J=NO","dpka4hxq5l","2","68","55","80","","","","","","","","","","","","","","","",""
"8691","
    <div style=""max-width: 800px; margin: auto; text-align: left;"">
      <h2>LexTALE Vocabulary Test</h2>
      <p>In this test, you will see a series of letter strings—one at a time.</p>
      <p>Your task is to decide whether each string is a real English word.</p>
      <p><strong>Key responses:</strong></p>
      <ul>
        <li><strong>F</strong> = YES (real English word)</li>
        <li><strong>J</strong> = NO (not a real English word)</li>
      </ul>
      <p>There is no time limit, but please try to be accurate.</p>
      <p style=""margin-top: 2em;"">Press any key to begin.</p>
    </div>
  ","f","html-keyboard-response","4","2.1.0","22832","F=YES, J=NO","dpka4hxq5l","2","68","55","80","","","","","","","","","","","","","","","",""
"1550","
  <p style=""font-size: 40px;"">platery</p>
  <p style=""font-size: 16px;"">F = YES &nbsp;&nbsp;&nbsp; J = NO</p>
","f","html-keyboard-response","5","2.1.0","24384","F=YES, J=NO","dpka4hxq5l","2","68","55","80","","","","","","lextale","false","true","","","","","","","",""
"1991","
  <p style=""font-size: 40px;"">denial</p>
  <p style=""font-size: 16px;"">F = YES &nbsp;&nbsp;&nbsp; J = NO</p>
","f","html-keyboard-response","6","2.1.0","26376","F=YES, J=NO","dpka4hxq5l","2","68","55","80","","","","","","lextale","true","true","","","","","","","",""
"1190","
  <p style=""font-size: 40px;"">marrit</p>
  <p style=""font-size: 16px;"">F = YES &nbsp;&nbsp;&nbsp; J = NO</p>
","j","html-keyboard-response","7","2.1.0","27568","F=YES, J=NO","dpka4hxq5l","2","68","55","80","","","","","","lextale","false","true","","","","","","","",""
"2789","
  <p style=""font-size: 40px;"">bottle</p>
  <p style=""font-size: 16px;"">F = YES &nbsp;&nbsp;&nbsp; J = NO</p>
","f","html-keyboard-response","8","2.1.0","30359","F=YES, J=NO","dpka4hxq5l","2","68","55","80","","","","","","lextale","true","false","","","","","","","",""
"1315","
  <p style=""font-size: 40px;"">birst</p>
  <p style=""font-size: 16px;"">F = YES &nbsp;&nbsp;&nbsp; J = NO</p>
","j","html-keyboard-response","9","2.1.0","31676","F=YES, J=NO","dpka4hxq5l","2","68","55","80","","","","","","lextale","false","false","","","","","","","",""
"1057","
  <p style=""font-size: 40px;"">envy</p>
  <p style=""font-size: 16px;"">F = YES &nbsp;&nbsp;&nbsp; J = NO</p>
","f","html-keyboard-response","10","2.1.0","32735","F=YES, J=NO","dpka4hxq5l","2","68","55","80","","","","","","lextale","true","false","","","","","","","",""
"2695","
  <p style=""font-size: 40px;"">brang</p>
  <p style=""font-size: 16px;"">F = YES &nbsp;&nbsp;&nbsp; J = NO</p>
","j","html-keyboard-response","11","2.1.0","35432","F=YES, J=NO","dpka4hxq5l","2","68","55","80","","","","","","lextale","false","false","","","","","","","",""
"796","
  <p style=""font-size: 40px;"">huge</p>
  <p style=""font-size: 16px;"">F = YES &nbsp;&nbsp;&nbsp; J = NO</p>
","f","html-keyboard-response","12","2.1.0","36228","F=YES, J=NO","dpka4hxq5l","2","68","55","80","","","","","","lextale","true","false","","","","","","","",""
"1361","
  <p style=""font-size: 40px;"">plove</p>
  <p style=""font-size: 16px;"">F = YES &nbsp;&nbsp;&nbsp; J = NO</p>
","j","html-keyboard-response","13","2.1.0","37592","F=YES, J=NO","dpka4hxq5l","2","68","55","80","","","","","","lextale","false","false","","","","","","","",""
"1050","
  <p style=""font-size: 40px;"">border</p>
  <p style=""font-size: 16px;"">F = YES &nbsp;&nbsp;&nbsp; J = NO</p>
","f","html-keyboard-response","14","2.1.0","38644","F=YES, J=NO","dpka4hxq5l","2","68","55","80","","","","","","lextale","true","false","","","","","","","",""
"4392","
  <p style=""font-size: 40px;"">flimsy</p>
  <p style=""font-size: 16px;"">F = YES &nbsp;&nbsp;&nbsp; J = NO</p>
","j","html-keyboard-response","15","2.1.0","43039","F=YES, J=NO","dpka4hxq5l","2","68","55","80","","","","","","lextale","true","false","","","","","","","",""
"900","
  <p style=""font-size: 40px;"">drain</p>
  <p style=""font-size: 16px;"">F = YES &nbsp;&nbsp;&nbsp; J = NO</p>
","f","html-keyboard-response","16","2.1.0","43940","F=YES, J=NO","dpka4hxq5l","2","68","55","80","","","","","","lextale","true","false","","","","","","","",""
"1383","
  <p style=""font-size: 40px;"">twindle</p>
  <p style=""font-size: 16px;"">F = YES &nbsp;&nbsp;&nbsp; J = NO</p>
","j","html-keyboard-response","17","2.1.0","45324","F=YES, J=NO","dpka4hxq5l","2","68","55","80","","","","","","lextale","false","false","","","","","","","",""
"814","
  <p style=""font-size: 40px;"">propose</p>
  <p style=""font-size: 16px;"">F = YES &nbsp;&nbsp;&nbsp; J = NO</p>
","f","html-keyboard-response","18","2.1.0","46139","F=YES, J=NO","dpka4hxq5l","2","68","55","80","","","","","","lextale","true","false","","","","","","","",""
"888","
  <p style=""font-size: 40px;"">forlay</p>
  <p style=""font-size: 16px;"">F = YES &nbsp;&nbsp;&nbsp; J = NO</p>
","j","html-keyboard-response","19","2.1.0","47028","F=YES, J=NO","dpka4hxq5l","2","68","55","80","","","","","","lextale","false","false","","","","","","","",""
"951","
  <p style=""font-size: 40px;"">tenant</p>
  <p style=""font-size: 16px;"">F = YES &nbsp;&nbsp;&nbsp; J = NO</p>
","f","html-keyboard-response","20","2.1.0","47981","F=YES, J=NO","dpka4hxq5l","2","68","55","80","","","","","","lextale","true","false","","","","","","","",""
"1431","
  <p style=""font-size: 40px;"">strain</p>
  <p style=""font-size: 16px;"">F = YES &nbsp;&nbsp;&nbsp; J = NO</p>
","f","html-keyboard-response","21","2.1.0","49413","F=YES, J=NO","dpka4hxq5l","2","68","55","80","","","","","","lextale","true","false","","","","","","","",""
"1998","
  <p style=""font-size: 40px;"">holster</p>
  <p style=""font-size: 16px;"">F = YES &nbsp;&nbsp;&nbsp; J = NO</p>
","j","html-keyboard-response","22","2.1.0","51413","F=YES, J=NO","dpka4hxq5l","2","68","55","80","","","","","","lextale","true","false","","","","","","","",""
"2269","
  <p style=""font-size: 40px;"">hinder</p>
  <p style=""font-size: 16px;"">F = YES &nbsp;&nbsp;&nbsp; J = NO</p>
","j","html-keyboard-response","23","2.1.0","53685","F=YES, J=NO","dpka4hxq5l","2","68","55","80","","","","","","lextale","true","false","","","","","","","",""
"1339","
  <p style=""font-size: 40px;"">swindle</p>
  <p style=""font-size: 16px;"">F = YES &nbsp;&nbsp;&nbsp; J = NO</p>
","j","html-keyboard-response","24","2.1.0","55025","F=YES, J=NO","dpka4hxq5l","2","68","55","80","","","","","","lextale","true","false","","","","","","","",""
"1462","
  <p style=""font-size: 40px;"">nuder</p>
  <p style=""font-size: 16px;"">F = YES &nbsp;&nbsp;&nbsp; J = NO</p>
","j","html-keyboard-response","25","2.1.0","56488","F=YES, J=NO","dpka4hxq5l","2","68","55","80","","","","","","lextale","false","false","","","","","","","",""
"705","
  <p style=""font-size: 40px;"">pillow</p>
  <p style=""font-size: 16px;"">F = YES &nbsp;&nbsp;&nbsp; J = NO</p>
","f","html-keyboard-response","26","2.1.0","57196","F=YES, J=NO","dpka4hxq5l","2","68","55","80","","","","","","lextale","true","false","","","","","","","",""
"1299","
  <p style=""font-size: 40px;"">shumble</p>
  <p style=""font-size: 16px;"">F = YES &nbsp;&nbsp;&nbsp; J = NO</p>
","j","html-keyboard-response","27","2.1.0","58496","F=YES, J=NO","dpka4hxq5l","2","68","55","80","","","","","","lextale","false","false","","","","","","","",""
"6434","
  <p style=""font-size: 40px;"">thirst</p>
  <p style=""font-size: 16px;"">F = YES &nbsp;&nbsp;&nbsp; J = NO</p>
","j","html-keyboard-response","28","2.1.0","64933","F=YES, J=NO","dpka4hxq5l","2","68","55","80","","","","","","lextale","true","false","","","","","","","",""
"2246","
  <p style=""font-size: 40px;"">unsail</p>
  <p style=""font-size: 16px;"">F = YES &nbsp;&nbsp;&nbsp; J = NO</p>
","j","html-keyboard-response","29","2.1.0","67181","F=YES, J=NO","dpka4hxq5l","2","68","55","80","","","","","","lextale","false","false","","","","","","","",""
"906","
  <p style=""font-size: 40px;"">rifle</p>
  <p style=""font-size: 16px;"">F = YES &nbsp;&nbsp;&nbsp; J = NO</p>
","f","html-keyboard-response","30","2.1.0","68088","F=YES, J=NO","dpka4hxq5l","2","68","55","80","","","","","","lextale","true","false","","","","","","","",""
"1130","
  <p style=""font-size: 40px;"">mush</p>
  <p style=""font-size: 16px;"">F = YES &nbsp;&nbsp;&nbsp; J = NO</p>
","f","html-keyboard-response","31","2.1.0","69220","F=YES, J=NO","dpka4hxq5l","2","68","55","80","","","","","","lextale","false","false","","","","","","","",""
"1170","
  <p style=""font-size: 40px;"">drench</p>
  <p style=""font-size: 16px;"">F = YES &nbsp;&nbsp;&nbsp; J = NO</p>
","f","html-keyboard-response","32","2.1.0","70391","F=YES, J=NO","dpka4hxq5l","2","68","55","80","","","","","","lextale","true","false","","","","","","","",""
"839","
  <p style=""font-size: 40px;"">snirt</p>
  <p style=""font-size: 16px;"">F = YES &nbsp;&nbsp;&nbsp; J = NO</p>
","j","html-keyboard-response","33","2.1.0","71231","F=YES, J=NO","dpka4hxq5l","2","68","55","80","","","","","","lextale","false","false","","","","","","","",""
"875","
  <p style=""font-size: 40px;"">bitter</p>
  <p style=""font-size: 16px;"">F = YES &nbsp;&nbsp;&nbsp; J = NO</p>
","f","html-keyboard-response","34","2.1.0","72107","F=YES, J=NO","dpka4hxq5l","2","68","55","80","","","","","","lextale","true","false","","","","","","","",""
"804","
  <p style=""font-size: 40px;"">pliff</p>
  <p style=""font-size: 16px;"">F = YES &nbsp;&nbsp;&nbsp; J = NO</p>
","j","html-keyboard-response","35","2.1.0","72912","F=YES, J=NO","dpka4hxq5l","2","68","55","80","","","","","","lextale","false","false","","","","","","","",""
"2240","
  <p style=""font-size: 40px;"">tablet</p>
  <p style=""font-size: 16px;"">F = YES &nbsp;&nbsp;&nbsp; J = NO</p>
","f","html-keyboard-response","36","2.1.0","75153","F=YES, J=NO","dpka4hxq5l","2","68","55","80","","","","","","lextale","true","false","","","","","","","",""
"2278","
  <p style=""font-size: 40px;"">glimmer</p>
  <p style=""font-size: 16px;"">F = YES &nbsp;&nbsp;&nbsp; J = NO</p>
","j","html-keyboard-response","37","2.1.0","77433","F=YES, J=NO","dpka4hxq5l","2","68","55","80","","","","","","lextale","true","false","","","","","","","",""
"1186","
  <p style=""font-size: 40px;"">slink</p>
  <p style=""font-size: 16px;"">F = YES &nbsp;&nbsp;&nbsp; J = NO</p>
","j","html-keyboard-response","38","2.1.0","78621","F=YES, J=NO","dpka4hxq5l","2","68","55","80","","","","","","lextale","true","false","","","","","","","",""
"1064","
  <p style=""font-size: 40px;"">clever</p>
  <p style=""font-size: 16px;"">F = YES &nbsp;&nbsp;&nbsp; J = NO</p>
","f","html-keyboard-response","39","2.1.0","79685","F=YES, J=NO","dpka4hxq5l","2","68","55","80","","","","","","lextale","true","false","","","","","","","",""
"930","
  <p style=""font-size: 40px;"">grum</p>
  <p style=""font-size: 16px;"">F = YES &nbsp;&nbsp;&nbsp; J = NO</p>
","j","html-keyboard-response","40","2.1.0","80616","F=YES, J=NO","dpka4hxq5l","2","68","55","80","","","","","","lextale","false","false","","","","","","","",""
"1065","
  <p style=""font-size: 40px;"">string</p>
  <p style=""font-size: 16px;"">F = YES &nbsp;&nbsp;&nbsp; J = NO</p>
","f","html-keyboard-response","41","2.1.0","81683","F=YES, J=NO","dpka4hxq5l","2","68","55","80","","","","","","lextale","true","false","","","","","","","",""
"2715","
  <p style=""font-size: 40px;"">plim</p>
  <p style=""font-size: 16px;"">F = YES &nbsp;&nbsp;&nbsp; J = NO</p>
","f","html-keyboard-response","42","2.1.0","84398","F=YES, J=NO","dpka4hxq5l","2","68","55","80","","","","","","lextale","false","false","","","","","","","",""
"903","
  <p style=""font-size: 40px;"">cable</p>
  <p style=""font-size: 16px;"">F = YES &nbsp;&nbsp;&nbsp; J = NO</p>
","f","html-keyboard-response","43","2.1.0","85302","F=YES, J=NO","dpka4hxq5l","2","68","55","80","","","","","","lextale","true","false","","","","","","","",""
"1192","
  <p style=""font-size: 40px;"">shrivel</p>
  <p style=""font-size: 16px;"">F = YES &nbsp;&nbsp;&nbsp; J = NO</p>
","j","html-keyboard-response","44","2.1.0","86495","F=YES, J=NO","dpka4hxq5l","2","68","55","80","","","","","","lextale","true","false","","","","","","","",""
"2721","
  <p style=""font-size: 40px;"">tarnish</p>
  <p style=""font-size: 16px;"">F = YES &nbsp;&nbsp;&nbsp; J = NO</p>
","j","html-keyboard-response","45","2.1.0","89217","F=YES, J=NO","dpka4hxq5l","2","68","55","80","","","","","","lextale","true","false","","","","","","","",""
"962","
  <p style=""font-size: 40px;"">blim</p>
  <p style=""font-size: 16px;"">F = YES &nbsp;&nbsp;&nbsp; J = NO</p>
","j","html-keyboard-response","46","2.1.0","90181","F=YES, J=NO","dpka4hxq5l","2","68","55","80","","","","","","lextale","false","false","","","","","","","",""
"1421","
  <p style=""font-size: 40px;"">stifle</p>
  <p style=""font-size: 16px;"">F = YES &nbsp;&nbsp;&nbsp; J = NO</p>
","j","html-keyboard-response","47","2.1.0","91603","F=YES, J=NO","dpka4hxq5l","2","68","55","80","","","","","","lextale","true","false","","","","","","","",""
"3717","
  <p style=""font-size: 40px;"">bint</p>
  <p style=""font-size: 16px;"">F = YES &nbsp;&nbsp;&nbsp; J = NO</p>
","f","html-keyboard-response","48","2.1.0","95321","F=YES, J=NO","dpka4hxq5l","2","68","55","80","","","","","","lextale","false","false","","","","","","","",""
"770","
  <p style=""font-size: 40px;"">purple</p>
  <p style=""font-size: 16px;"">F = YES &nbsp;&nbsp;&nbsp; J = NO</p>
","f","html-keyboard-response","49","2.1.0","96092","F=YES, J=NO","dpka4hxq5l","2","68","55","80","","","","","","lextale","true","false","","","","","","","",""
"2767","
  <p style=""font-size: 40px;"">wriggle</p>
  <p style=""font-size: 16px;"">F = YES &nbsp;&nbsp;&nbsp; J = NO</p>
","j","html-keyboard-response","50","2.1.0","98861","F=YES, J=NO","dpka4hxq5l","2","68","55","80","","","","","","lextale","true","false","","","","","","","",""
"4714","
  <p style=""font-size: 40px;"">mangle</p>
  <p style=""font-size: 16px;"">F = YES &nbsp;&nbsp;&nbsp; J = NO</p>
","j","html-keyboard-response","51","2.1.0","103577","F=YES, J=NO","dpka4hxq5l","2","68","55","80","","","","","","lextale","true","false","","","","","","","",""
"1646","
  <p style=""font-size: 40px;"">shramp</p>
  <p style=""font-size: 16px;"">F = YES &nbsp;&nbsp;&nbsp; J = NO</p>
","j","html-keyboard-response","52","2.1.0","105225","F=YES, J=NO","dpka4hxq5l","2","68","55","80","","","","","","lextale","false","false","","","","","","","",""
"930","
  <p style=""font-size: 40px;"">flirt</p>
  <p style=""font-size: 16px;"">F = YES &nbsp;&nbsp;&nbsp; J = NO</p>
","f","html-keyboard-response","53","2.1.0","106156","F=YES, J=NO","dpka4hxq5l","2","68","55","80","","","","","","lextale","true","false","","","","","","","",""
"1570","
  <p style=""font-size: 40px;"">frip</p>
  <p style=""font-size: 16px;"">F = YES &nbsp;&nbsp;&nbsp; J = NO</p>
","j","html-keyboard-response","54","2.1.0","107727","F=YES, J=NO","dpka4hxq5l","2","68","55","80","","","","","","lextale","false","false","","","","","","","",""
"2085","
  <p style=""font-size: 40px;"">tangle</p>
  <p style=""font-size: 16px;"">F = YES &nbsp;&nbsp;&nbsp; J = NO</p>
","f","html-keyboard-response","55","2.1.0","109812","F=YES, J=NO","dpka4hxq5l","2","68","55","80","","","","","","lextale","true","false","","","","","","","",""
"1363","
  <p style=""font-size: 40px;"">crumble</p>
  <p style=""font-size: 16px;"">F = YES &nbsp;&nbsp;&nbsp; J = NO</p>
","f","html-keyboard-response","56","2.1.0","111176","F=YES, J=NO","dpka4hxq5l","2","68","55","80","","","","","","lextale","true","false","","","","","","","",""
"1458","
  <p style=""font-size: 40px;"">wrinkle</p>
  <p style=""font-size: 16px;"">F = YES &nbsp;&nbsp;&nbsp; J = NO</p>
","f","html-keyboard-response","57","2.1.0","112636","F=YES, J=NO","dpka4hxq5l","2","68","55","80","","","","","","lextale","true","false","","","","","","","",""
"1068","
  <p style=""font-size: 40px;"">slumb</p>
  <p style=""font-size: 16px;"">F = YES &nbsp;&nbsp;&nbsp; J = NO</p>
","j","html-keyboard-response","58","2.1.0","113706","F=YES, J=NO","dpka4hxq5l","2","68","55","80","","","","","","lextale","false","false","","","","","","","",""
"798","
  <p style=""font-size: 40px;"">jungle</p>
  <p style=""font-size: 16px;"">F = YES &nbsp;&nbsp;&nbsp; J = NO</p>
","f","html-keyboard-response","59","2.1.0","114505","F=YES, J=NO","dpka4hxq5l","2","68","55","80","","","","","","lextale","true","false","","","","","","","",""
"951","
  <p style=""font-size: 40px;"">frolick</p>
  <p style=""font-size: 16px;"">F = YES &nbsp;&nbsp;&nbsp; J = NO</p>
","j","html-keyboard-response","60","2.1.0","115457","F=YES, J=NO","dpka4hxq5l","2","68","55","80","","","","","","lextale","false","false","","","","","","","",""
"3240","
      <h2>LexTALE Test Completed</h2>
      <p>Your LexTALE vocabulary score is: <strong>68%</strong></p>
      <p>Press any key to continue.</p>
    ","j","html-keyboard-response","61","2.1.0","118701","F=YES, J=NO","dpka4hxq5l","2","68","55","80","","","","","","","","","","","","","","","",""
"5158","
    <div style=""max-width: 800px; margin: auto; text-align: left;"">
      <h2>Break Time</h2>
      <p>You have completed the first part of the study.</p>
      <p>You may take a short <strong>30-second break</strong> before continuing.</p>
      <p>When you’re ready, press any key to continue to the final task.</p>
    </div>
  ","j","html-keyboard-response","62","2.1.0","123860","F=YES, J=NO","dpka4hxq5l","2","68","55","80","","","","","","","","","","","","","","","",""
"17003","
    <div style=""max-width: 800px; margin: auto; text-align: left;"">
      <h2>Part 2: Lexical Decision Task</h2>
      <p>You will now begin the second part of the study.</p>
      <p>Each trial will follow this sequence:</p>
      <ul>
        <li>A fixation cross (+) appears at the center of the screen.</li>
        <li>You will hear a short beep followed by a spoken word.</li>
        <li>A written word will appear briefly on the screen.</li>
      </ul>
      <p>Your task is to judge whether the <strong>written word</strong> is a real English word.</p>
      <p style=""margin-top: 1em;""><strong>Key responses:</strong></p>
      <ul>
        <li><strong>F</strong> = YES (real English word)</li>
        <li><strong>J</strong> = NO (not a real English word)</li>
      </ul>
      <p>Please respond as quickly and accurately as you can.</p>
      <p style=""margin-top: 2em;"">Press any key to continue.</p>
    </div>
  ","j","html-keyboard-response","63","2.1.0","140865","F=YES, J=NO","dpka4hxq5l","2","68","55","80","","","","","","","","","","","","","","","",""
"2865","
    <div style=""max-width: 800px; margin: auto; text-align: left;"">
      <h2>Before You Begin</h2>
      <p>Make sure your sound is turned on.</p>
      <p>You will hear audio during each trial, but your decision should be based only on the <strong>written word</strong> you see on the screen.</p>
      <p><strong>Reminder:</strong></p>
      <ul>
        <li><strong>F</strong> = YES (real English word)</li>
        <li><strong>J</strong> = NO (not a real English word)</li>
      </ul>
      <p style=""margin-top: 2em;"">Press any key when you are ready to begin.</p>
    </div>
  ","j","html-keyboard-response","64","2.1.0","143732","F=YES, J=NO","dpka4hxq5l","2","68","55","80","","","","","","","","","","","","","","","",""
"5527","
    <div style=""max-width: 800px; margin: auto; text-align: left;"">
      <h2>Part 2: Practice Trials</h2>
      <p>You will now complete a few <strong>practice trials</strong> to get familiar with the task.</p>
      <p>These trials are <strong>not scored</strong> and are only to help you get used to the format.</p>
      <p style=""margin-top: 2em;"">Press any key to begin.</p>
    </div>
  ","j","html-keyboard-response","65","2.1.0","149261","F=YES, J=NO","dpka4hxq5l","2","68","55","80","","","","","","","","","","","","","","","",""
"1682","<p>Starting practice block 1 of 2. Press any key to continue.</p>","j","html-keyboard-response","66","2.1.0","150945","F=YES, J=NO","dpka4hxq5l","2","68","55","80","","","","","","","","","","","","","","","",""
"null","<p style=""font-size: 50px;"">+</p>","null","html-keyboard-response","67","2.1.0","151255","F=YES, J=NO","dpka4hxq5l","2","68","55","80","","","","","","","","","","","","","","","",""
"null","audio/beep-329314.mp3","null","audio-keyboard-response","68","2.1.0","153162","F=YES, J=NO","dpka4hxq5l","2","68","55","80","","","","","","","","","","","","","","","",""
"null","audio/winter.wav","null","audio-keyboard-response","69","2.1.0","153823","F=YES, J=NO","dpka4hxq5l","2","68","55","80","","","","","","","","","","","","","","","",""
"null","
          <p id=""word"" style=""font-size: 40px;"">straven</p>
          <p style=""font-size: 16px;"">F = YES &nbsp;&nbsp;&nbsp; J = NO</p>
        ","null","html-keyboard-response","70","2.1.0","155333","F=YES, J=NO","dpka4hxq5l","2","68","55","80","","","","","","","","","straven","winter","pseudoword","pseudoword","j","false","",""
"null","<p style=""font-size: 50px;"">+</p>","null","html-keyboard-response","71","2.1.0","155641","F=YES, J=NO","dpka4hxq5l","2","68","55","80","","","","","","","","","","","","","","","",""
"null","audio/beep-329314.mp3","null","audio-keyboard-response","72","2.1.0","157183","F=YES, J=NO","dpka4hxq5l","2","68","55","80","","","","","","","","","","","","","","","",""
"null","audio/age1.wav","null","audio-keyboard-response","73","2.1.0","157803","F=YES, J=NO","dpka4hxq5l","2","68","55","80","","","","","","","","","","","","","","","",""
"931","
          <p id=""word"" style=""font-size: 40px;"">bake</p>
          <p style=""font-size: 16px;"">F = YES &nbsp;&nbsp;&nbsp; J = NO</p>
        ","j","html-keyboard-response","74","2.1.0","158736","F=YES, J=NO","dpka4hxq5l","2","68","55","80","","","","","","","","","bake","age1","filler","filler","f","false","",""
"null","<p style=""font-size: 50px;"">+</p>","null","html-keyboard-response","75","2.1.0","159042","F=YES, J=NO","dpka4hxq5l","2","68","55","80","","","","","","","","","","","","","","","",""
"null","audio/beep-329314.mp3","null","audio-keyboard-response","76","2.1.0","160584","F=YES, J=NO","dpka4hxq5l","2","68","55","80","","","","","","","","","","","","","","","",""
"null","audio/roof1.wav","null","audio-keyboard-response","77","2.1.0","161183","F=YES, J=NO","dpka4hxq5l","2","68","55","80","","","","","","","","","","","","","","","",""
"700","
          <p id=""word"" style=""font-size: 40px;"">wronb</p>
          <p style=""font-size: 16px;"">F = YES &nbsp;&nbsp;&nbsp; J = NO</p>
        ","j","html-keyboard-response","78","2.1.0","161885","F=YES, J=NO","dpka4hxq5l","2","68","55","80","","","","","","","","","wronb","roof1","pseudoword","pseudoword","j","true","",""
"null","<p style=""font-size: 50px;"">+</p>","null","html-keyboard-response","79","2.1.0","162195","F=YES, J=NO","dpka4hxq5l","2","68","55","80","","","","","","","","","","","","","","","",""
"null","audio/beep-329314.mp3","null","audio-keyboard-response","80","2.1.0","163724","F=YES, J=NO","dpka4hxq5l","2","68","55","80","","","","","","","","","","","","","","","",""
"null","audio/relief.wav","null","audio-keyboard-response","81","2.1.0","164403","F=YES, J=NO","dpka4hxq5l","2","68","55","80","","","","","","","","","","","","","","","",""
"545","
          <p id=""word"" style=""font-size: 40px;"">grigg</p>
          <p style=""font-size: 16px;"">F = YES &nbsp;&nbsp;&nbsp; J = NO</p>
        ","j","html-keyboard-response","82","2.1.0","164949","F=YES, J=NO","dpka4hxq5l","2","68","55","80","","","","","","","","","grigg","relief","pseudoword","pseudoword","j","true","",""
"null","<p style=""font-size: 50px;"">+</p>","null","html-keyboard-response","83","2.1.0","165266","F=YES, J=NO","dpka4hxq5l","2","68","55","80","","","","","","","","","","","","","","","",""
"null","audio/beep-329314.mp3","null","audio-keyboard-response","84","2.1.0","166804","F=YES, J=NO","dpka4hxq5l","2","68","55","80","","","","","","","","","","","","","","","",""
"null","audio/camera1.wav","null","audio-keyboard-response","85","2.1.0","167363","F=YES, J=NO","dpka4hxq5l","2","68","55","80","","","","","","","","","","","","","","","",""
"488","
          <p id=""word"" style=""font-size: 40px;"">stir</p>
          <p style=""font-size: 16px;"">F = YES &nbsp;&nbsp;&nbsp; J = NO</p>
        ","j","html-keyboard-response","86","2.1.0","167852","F=YES, J=NO","dpka4hxq5l","2","68","55","80","","","","","","","","","stir","camera1","filler","filler","f","false","",""
"null","<p style=""font-size: 50px;"">+</p>","null","html-keyboard-response","87","2.1.0","168156","F=YES, J=NO","dpka4hxq5l","2","68","55","80","","","","","","","","","","","","","","","",""
"null","audio/beep-329314.mp3","null","audio-keyboard-response","88","2.1.0","169684","F=YES, J=NO","dpka4hxq5l","2","68","55","80","","","","","","","","","","","","","","","",""
"null","audio/cinema1.wav","null","audio-keyboard-response","89","2.1.0","170363","F=YES, J=NO","dpka4hxq5l","2","68","55","80","","","","","","","","","","","","","","","",""
"724","
          <p id=""word"" style=""font-size: 40px;"">murple</p>
          <p style=""font-size: 16px;"">F = YES &nbsp;&nbsp;&nbsp; J = NO</p>
        ","j","html-keyboard-response","90","2.1.0","171089","F=YES, J=NO","dpka4hxq5l","2","68","55","80","","","","","","","","","murple","cinema1","pseudoword","pseudoword","j","true","",""
"null","<p style=""font-size: 50px;"">+</p>","null","html-keyboard-response","91","2.1.0","171399","F=YES, J=NO","dpka4hxq5l","2","68","55","80","","","","","","","","","","","","","","","",""
"null","audio/beep-329314.mp3","null","audio-keyboard-response","92","2.1.0","172924","F=YES, J=NO","dpka4hxq5l","2","68","55","80","","","","","","","","","","","","","","","",""
"null","audio/trout1.wav","null","audio-keyboard-response","93","2.1.0","173544","F=YES, J=NO","dpka4hxq5l","2","68","55","80","","","","","","","","","","","","","","","",""
"631","
          <p id=""word"" style=""font-size: 40px;"">spimt</p>
          <p style=""font-size: 16px;"">F = YES &nbsp;&nbsp;&nbsp; J = NO</p>
        ","j","html-keyboard-response","94","2.1.0","174177","F=YES, J=NO","dpka4hxq5l","2","68","55","80","","","","","","","","","spimt","trout1","pseudoword","pseudoword","j","true","",""
"null","<p style=""font-size: 50px;"">+</p>","null","html-keyboard-response","95","2.1.0","174480","F=YES, J=NO","dpka4hxq5l","2","68","55","80","","","","","","","","","","","","","","","",""
"null","audio/beep-329314.mp3","null","audio-keyboard-response","96","2.1.0","176003","F=YES, J=NO","dpka4hxq5l","2","68","55","80","","","","","","","","","","","","","","","",""
"null","audio/cloud1.wav","null","audio-keyboard-response","97","2.1.0","176563","F=YES, J=NO","dpka4hxq5l","2","68","55","80","","","","","","","","","","","","","","","",""
"704","
          <p id=""word"" style=""font-size: 40px;"">brotant</p>
          <p style=""font-size: 16px;"">F = YES &nbsp;&nbsp;&nbsp; J = NO</p>
        ","j","html-keyboard-response","98","2.1.0","177268","F=YES, J=NO","dpka4hxq5l","2","68","55","80","","","","","","","","","brotant","cloud1","pseudoword","pseudoword","j","true","",""
"null","<p style=""font-size: 50px;"">+</p>","null","html-keyboard-response","99","2.1.0","177573","F=YES, J=NO","dpka4hxq5l","2","68","55","80","","","","","","","","","","","","","","","",""
"null","audio/beep-329314.mp3","null","audio-keyboard-response","100","2.1.0","179103","F=YES, J=NO","dpka4hxq5l","2","68","55","80","","","","","","","","","","","","","","","",""
"null","audio/ankle1.wav","null","audio-keyboard-response","101","2.1.0","179663","F=YES, J=NO","dpka4hxq5l","2","68","55","80","","","","","","","","","","","","","","","",""
"616","
          <p id=""word"" style=""font-size: 40px;"">kick</p>
          <p style=""font-size: 16px;"">F = YES &nbsp;&nbsp;&nbsp; J = NO</p>
        ","f","html-keyboard-response","102","2.1.0","180281","F=YES, J=NO","dpka4hxq5l","2","68","55","80","","","","","","","","","kick","ankle1","filler","filler","f","true","",""
"null","<p style=""font-size: 50px;"">+</p>","null","html-keyboard-response","103","2.1.0","180600","F=YES, J=NO","dpka4hxq5l","2","68","55","80","","","","","","","","","","","","","","","",""
"null","audio/beep-329314.mp3","null","audio-keyboard-response","104","2.1.0","182123","F=YES, J=NO","dpka4hxq5l","2","68","55","80","","","","","","","","","","","","","","","",""
"null","audio/bridge.wav","null","audio-keyboard-response","105","2.1.0","182703","F=YES, J=NO","dpka4hxq5l","2","68","55","80","","","","","","","","","","","","","","","",""
"507","
          <p id=""word"" style=""font-size: 40px;"">crack</p>
          <p style=""font-size: 16px;"">F = YES &nbsp;&nbsp;&nbsp; J = NO</p>
        ","j","html-keyboard-response","106","2.1.0","183212","F=YES, J=NO","dpka4hxq5l","2","68","55","80","","","","","","","","","crack","bridge","filler","filler","f","false","",""
"null","<p style=""font-size: 50px;"">+</p>","null","html-keyboard-response","107","2.1.0","183525","F=YES, J=NO","dpka4hxq5l","2","68","55","80","","","","","","","","","","","","","","","",""
"null","audio/beep-329314.mp3","null","audio-keyboard-response","108","2.1.0","185064","F=YES, J=NO","dpka4hxq5l","2","68","55","80","","","","","","","","","","","","","","","",""
"null","audio/age1.wav","null","audio-keyboard-response","109","2.1.0","185603","F=YES, J=NO","dpka4hxq5l","2","68","55","80","","","","","","","","","","","","","","","",""
"451","
          <p id=""word"" style=""font-size: 40px;"">lachry</p>
          <p style=""font-size: 16px;"">F = YES &nbsp;&nbsp;&nbsp; J = NO</p>
        ","j","html-keyboard-response","110","2.1.0","186056","F=YES, J=NO","dpka4hxq5l","2","68","55","80","","","","","","","","","lachry","age1","pseudoword","pseudoword","j","true","",""
"null","<p style=""font-size: 50px;"">+</p>","null","html-keyboard-response","111","2.1.0","186360","F=YES, J=NO","dpka4hxq5l","2","68","55","80","","","","","","","","","","","","","","","",""
"null","audio/beep-329314.mp3","null","audio-keyboard-response","112","2.1.0","187883","F=YES, J=NO","dpka4hxq5l","2","68","55","80","","","","","","","","","","","","","","","",""
"null","audio/account1.wav","null","audio-keyboard-response","113","2.1.0","188664","F=YES, J=NO","dpka4hxq5l","2","68","55","80","","","","","","","","","","","","","","","",""
"669","
          <p id=""word"" style=""font-size: 40px;"">paint</p>
          <p style=""font-size: 16px;"">F = YES &nbsp;&nbsp;&nbsp; J = NO</p>
        ","f","html-keyboard-response","114","2.1.0","189336","F=YES, J=NO","dpka4hxq5l","2","68","55","80","","","","","","","","","paint","account1","filler","filler","f","true","",""
"1629","<p>Starting practice block 2 of 2. Press any key to continue.</p>","j","html-keyboard-response","115","2.1.0","190967","F=YES, J=NO","dpka4hxq5l","2","68","55","80","","","","","","","","","","","","","","","",""
"null","<p style=""font-size: 50px;"">+</p>","null","html-keyboard-response","116","2.1.0","191280","F=YES, J=NO","dpka4hxq5l","2","68","55","80","","","","","","","","","","","","","","","",""
"null","audio/beep-329314.mp3","null","audio-keyboard-response","117","2.1.0","192802","F=YES, J=NO","dpka4hxq5l","2","68","55","80","","","","","","","","","","","","","","","",""
"null","audio/brain.wav","null","audio-keyboard-response","118","2.1.0","193303","F=YES, J=NO","dpka4hxq5l","2","68","55","80","","","","","","","","","","","","","","","",""
"847","
          <p id=""word"" style=""font-size: 40px;"">throw</p>
          <p style=""font-size: 16px;"">F = YES &nbsp;&nbsp;&nbsp; J = NO</p>
        ","f","html-keyboard-response","119","2.1.0","194151","F=YES, J=NO","dpka4hxq5l","2","68","55","80","","","","","","","","","throw","brain","filler","filler","f","true","",""
"null","<p style=""font-size: 50px;"">+</p>","null","html-keyboard-response","120","2.1.0","194457","F=YES, J=NO","dpka4hxq5l","2","68","55","80","","","","","","","","","","","","","","","",""
"null","audio/beep-329314.mp3","null","audio-keyboard-response","121","2.1.0","195984","F=YES, J=NO","dpka4hxq5l","2","68","55","80","","","","","","","","","","","","","","","",""
"null","audio/floor.wav","null","audio-keyboard-response","122","2.1.0","196563","F=YES, J=NO","dpka4hxq5l","2","68","55","80","","","","","","","","","","","","","","","",""
"748","
          <p id=""word"" style=""font-size: 40px;"">mop</p>
          <p style=""font-size: 16px;"">F = YES &nbsp;&nbsp;&nbsp; J = NO</p>
        ","j","html-keyboard-response","123","2.1.0","197312","F=YES, J=NO","dpka4hxq5l","2","68","55","80","","","","","","","","","mop","floor","filler","filler","f","false","",""
"null","<p style=""font-size: 50px;"">+</p>","null","html-keyboard-response","124","2.1.0","197617","F=YES, J=NO","dpka4hxq5l","2","68","55","80","","","","","","","","","","","","","","","",""
"null","audio/beep-329314.mp3","null","audio-keyboard-response","125","2.1.0","199142","F=YES, J=NO","dpka4hxq5l","2","68","55","80","","","","","","","","","","","","","","","",""
"null","audio/golf1.wav","null","audio-keyboard-response","126","2.1.0","199762","F=YES, J=NO","dpka4hxq5l","2","68","55","80","","","","","","","","","","","","","","","",""
"580","
          <p id=""word"" style=""font-size: 40px;"">drabble</p>
          <p style=""font-size: 16px;"">F = YES &nbsp;&nbsp;&nbsp; J = NO</p>
        ","j","html-keyboard-response","127","2.1.0","200344","F=YES, J=NO","dpka4hxq5l","2","68","55","80","","","","","","","","","drabble","golf1","pseudoword","pseudoword","j","true","",""
"null","<p style=""font-size: 50px;"">+</p>","null","html-keyboard-response","128","2.1.0","200652","F=YES, J=NO","dpka4hxq5l","2","68","55","80","","","","","","","","","","","","","","","",""
"null","audio/beep-329314.mp3","null","audio-keyboard-response","129","2.1.0","202182","F=YES, J=NO","dpka4hxq5l","2","68","55","80","","","","","","","","","","","","","","","",""
"null","audio/bomb1.wav","null","audio-keyboard-response","130","2.1.0","202584","F=YES, J=NO","dpka4hxq5l","2","68","55","80","","","","","","","","","","","","","","","",""
"731","
          <p id=""word"" style=""font-size: 40px;"">clean</p>
          <p style=""font-size: 16px;"">F = YES &nbsp;&nbsp;&nbsp; J = NO</p>
        ","f","html-keyboard-response","131","2.1.0","203316","F=YES, J=NO","dpka4hxq5l","2","68","55","80","","","","","","","","","clean","bomb1","filler","filler","f","true","",""
"null","<p style=""font-size: 50px;"">+</p>","null","html-keyboard-response","132","2.1.0","203619","F=YES, J=NO","dpka4hxq5l","2","68","55","80","","","","","","","","","","","","","","","",""
"null","audio/beep-329314.mp3","null","audio-keyboard-response","133","2.1.0","205143","F=YES, J=NO","dpka4hxq5l","2","68","55","80","","","","","","","","","","","","","","","",""
"null","audio/gift1.wav","null","audio-keyboard-response","134","2.1.0","205683","F=YES, J=NO","dpka4hxq5l","2","68","55","80","","","","","","","","","","","","","","","",""
"590","
          <p id=""word"" style=""font-size: 40px;"">protsh</p>
          <p style=""font-size: 16px;"">F = YES &nbsp;&nbsp;&nbsp; J = NO</p>
        ","j","html-keyboard-response","135","2.1.0","206275","F=YES, J=NO","dpka4hxq5l","2","68","55","80","","","","","","","","","protsh","gift1","pseudoword","pseudoword","j","true","",""
"null","<p style=""font-size: 50px;"">+</p>","null","html-keyboard-response","136","2.1.0","206582","F=YES, J=NO","dpka4hxq5l","2","68","55","80","","","","","","","","","","","","","","","",""
"null","audio/beep-329314.mp3","null","audio-keyboard-response","137","2.1.0","208122","F=YES, J=NO","dpka4hxq5l","2","68","55","80","","","","","","","","","","","","","","","",""
"null","audio/key1.wav","null","audio-keyboard-response","138","2.1.0","208542","F=YES, J=NO","dpka4hxq5l","2","68","55","80","","","","","","","","","","","","","","","",""
"625","
          <p id=""word"" style=""font-size: 40px;"">sminsh</p>
          <p style=""font-size: 16px;"">F = YES &nbsp;&nbsp;&nbsp; J = NO</p>
        ","j","html-keyboard-response","139","2.1.0","209168","F=YES, J=NO","dpka4hxq5l","2","68","55","80","","","","","","","","","sminsh","key1","pseudoword","pseudoword","j","true","",""
"null","<p style=""font-size: 50px;"">+</p>","null","html-keyboard-response","140","2.1.0","209486","F=YES, J=NO","dpka4hxq5l","2","68","55","80","","","","","","","","","","","","","","","",""
"null","audio/beep-329314.mp3","null","audio-keyboard-response","141","2.1.0","211022","F=YES, J=NO","dpka4hxq5l","2","68","55","80","","","","","","","","","","","","","","","",""
"null","audio/road.wav","null","audio-keyboard-response","142","2.1.0","211504","F=YES, J=NO","dpka4hxq5l","2","68","55","80","","","","","","","","","","","","","","","",""
"670","
          <p id=""word"" style=""font-size: 40px;"">wappings</p>
          <p style=""font-size: 16px;"">F = YES &nbsp;&nbsp;&nbsp; J = NO</p>
        ","j","html-keyboard-response","143","2.1.0","212175","F=YES, J=NO","dpka4hxq5l","2","68","55","80","","","","","","","","","wappings","road","pseudoword","pseudoword","j","true","",""
"null","<p style=""font-size: 50px;"">+</p>","null","html-keyboard-response","144","2.1.0","212479","F=YES, J=NO","dpka4hxq5l","2","68","55","80","","","","","","","","","","","","","","","",""
"null","audio/beep-329314.mp3","null","audio-keyboard-response","145","2.1.0","214003","F=YES, J=NO","dpka4hxq5l","2","68","55","80","","","","","","","","","","","","","","","",""
"null","audio/baby.wav","null","audio-keyboard-response","146","2.1.0","214543","F=YES, J=NO","dpka4hxq5l","2","68","55","80","","","","","","","","","","","","","","","",""
"519","
          <p id=""word"" style=""font-size: 40px;"">lift</p>
          <p style=""font-size: 16px;"">F = YES &nbsp;&nbsp;&nbsp; J = NO</p>
        ","f","html-keyboard-response","147","2.1.0","215063","F=YES, J=NO","dpka4hxq5l","2","68","55","80","","","","","","","","","lift","baby","filler","filler","f","true","",""
"null","<p style=""font-size: 50px;"">+</p>","null","html-keyboard-response","148","2.1.0","215366","F=YES, J=NO","dpka4hxq5l","2","68","55","80","","","","","","","","","","","","","","","",""
"null","audio/beep-329314.mp3","null","audio-keyboard-response","149","2.1.0","216903","F=YES, J=NO","dpka4hxq5l","2","68","55","80","","","","","","","","","","","","","","","",""
"null","audio/gossip1.wav","null","audio-keyboard-response","150","2.1.0","217584","F=YES, J=NO","dpka4hxq5l","2","68","55","80","","","","","","","","","","","","","","","",""
"562","
          <p id=""word"" style=""font-size: 40px;"">camerish</p>
          <p style=""font-size: 16px;"">F = YES &nbsp;&nbsp;&nbsp; J = NO</p>
        ","j","html-keyboard-response","151","2.1.0","218147","F=YES, J=NO","dpka4hxq5l","2","68","55","80","","","","","","","","","camerish","gossip1","pseudoword","pseudoword","j","true","",""
"null","<p style=""font-size: 50px;"">+</p>","null","html-keyboard-response","152","2.1.0","218458","F=YES, J=NO","dpka4hxq5l","2","68","55","80","","","","","","","","","","","","","","","",""
"null","audio/beep-329314.mp3","null","audio-keyboard-response","153","2.1.0","219982","F=YES, J=NO","dpka4hxq5l","2","68","55","80","","","","","","","","","","","","","","","",""
"null","audio/novel.wav","null","audio-keyboard-response","154","2.1.0","220542","F=YES, J=NO","dpka4hxq5l","2","68","55","80","","","","","","","","","","","","","","","",""
"500","
          <p id=""word"" style=""font-size: 40px;"">type</p>
          <p style=""font-size: 16px;"">F = YES &nbsp;&nbsp;&nbsp; J = NO</p>
        ","j","html-keyboard-response","155","2.1.0","221044","F=YES, J=NO","dpka4hxq5l","2","68","55","80","","","","","","","","","type","novel","filler","filler","f","false","",""
"null","<p style=""font-size: 50px;"">+</p>","null","html-keyboard-response","156","2.1.0","221350","F=YES, J=NO","dpka4hxq5l","2","68","55","80","","","","","","","","","","","","","","","",""
"null","audio/beep-329314.mp3","null","audio-keyboard-response","157","2.1.0","222882","F=YES, J=NO","dpka4hxq5l","2","68","55","80","","","","","","","","","","","","","","","",""
"null","audio/menu.wav","null","audio-keyboard-response","158","2.1.0","223463","F=YES, J=NO","dpka4hxq5l","2","68","55","80","","","","","","","","","","","","","","","",""
"591","
          <p id=""word"" style=""font-size: 40px;"">slice</p>
          <p style=""font-size: 16px;"">F = YES &nbsp;&nbsp;&nbsp; J = NO</p>
        ","j","html-keyboard-response","159","2.1.0","224055","F=YES, J=NO","dpka4hxq5l","2","68","55","80","","","","","","","","","slice","menu","filler","filler","f","false","",""
"null","<p style=""font-size: 50px;"">+</p>","null","html-keyboard-response","160","2.1.0","224365","F=YES, J=NO","dpka4hxq5l","2","68","55","80","","","","","","","","","","","","","","","",""
"null","audio/beep-329314.mp3","null","audio-keyboard-response","161","2.1.0","225903","F=YES, J=NO","dpka4hxq5l","2","68","55","80","","","","","","","","","","","","","","","",""
"null","audio/butter1.wav","null","audio-keyboard-response","162","2.1.0","226362","F=YES, J=NO","dpka4hxq5l","2","68","55","80","","","","","","","","","","","","","","","",""
"580","
          <p id=""word"" style=""font-size: 40px;"">chew</p>
          <p style=""font-size: 16px;"">F = YES &nbsp;&nbsp;&nbsp; J = NO</p>
        ","j","html-keyboard-response","163","2.1.0","226943","F=YES, J=NO","dpka4hxq5l","2","68","55","80","","","","","","","","","chew","butter1","filler","filler","f","false","",""
"267","
    <div style=""max-width: 800px; margin: auto; text-align: left;"">
      <h2>Part 2: Main Trials</h2>
      <p>Great job on the practice trials!</p>
      <p>You will now begin the <strong>main set of trials</strong>.</p>
      <p>Remember your key assignments:</p>
      <ul>
        <li><strong>F</strong> = YES (real English word)</li>
        <li><strong>J</strong> = NO (not a real English word)</li>
      </ul>
      <p>Try to respond as <strong>quickly and accurately</strong> as possible.</p>
      <p style=""margin-top: 2em;"">Press any key to begin the main trials.</p>
    </div>
  ","f","html-keyboard-response","164","2.1.0","227212","F=YES, J=NO","dpka4hxq5l","2","68","55","80","","","","","","","","","","","","","","","",""
"2075","<p>Starting main block 1 of 8. Press any key to continue.</p>","f","html-keyboard-response","165","2.1.0","229288","F=YES, J=NO","dpka4hxq5l","2","68","55","80","","","","","","","","","","","","","","","",""
"null","<p style=""font-size: 50px;"">+</p>","null","html-keyboard-response","166","2.1.0","229594","F=YES, J=NO","dpka4hxq5l","2","68","55","80","","","","","","","","","","","","","","","",""
"null","audio/beep-329314.mp3","null","audio-keyboard-response","167","2.1.0","231123","F=YES, J=NO","dpka4hxq5l","2","68","55","80","","","","","","","","","","","","","","","",""
"null","audio/birth1.wav","null","audio-keyboard-response","168","2.1.0","231682","F=YES, J=NO","dpka4hxq5l","2","68","55","80","","","","","","","","","","","","","","","",""
"782","
          <p id=""word"" style=""font-size: 40px;"">peel</p>
          <p style=""font-size: 16px;"">F = YES &nbsp;&nbsp;&nbsp; J = NO</p>
        ","f","html-keyboard-response","169","2.1.0","232465","F=YES, J=NO","dpka4hxq5l","2","68","55","80","","","","","","","","","peel","birth1","filler","filler","f","true","",""
"null","<p style=""font-size: 50px;"">+</p>","null","html-keyboard-response","170","2.1.0","232781","F=YES, J=NO","dpka4hxq5l","2","68","55","80","","","","","","","","","","","","","","","",""
"null","audio/beep-329314.mp3","null","audio-keyboard-response","171","2.1.0","234323","F=YES, J=NO","dpka4hxq5l","2","68","55","80","","","","","","","","","","","","","","","",""
"null","audio/trout1.wav","null","audio-keyboard-response","172","2.1.0","234902","F=YES, J=NO","dpka4hxq5l","2","68","55","80","","","","","","","","","","","","","","","",""
"533","
          <p id=""word"" style=""font-size: 40px;"">catch</p>
          <p style=""font-size: 16px;"">F = YES &nbsp;&nbsp;&nbsp; J = NO</p>
        ","j","html-keyboard-response","173","2.1.0","235436","F=YES, J=NO","dpka4hxq5l","2","68","55","80","","","","","","","","","catch","trout1","literal","experimental","f","false","",""
"null","<p style=""font-size: 50px;"">+</p>","null","html-keyboard-response","174","2.1.0","235738","F=YES, J=NO","dpka4hxq5l","2","68","55","80","","","","","","","","","","","","","","","",""
"null","audio/beep-329314.mp3","null","audio-keyboard-response","175","2.1.0","237263","F=YES, J=NO","dpka4hxq5l","2","68","55","80","","","","","","","","","","","","","","","",""
"null","audio/client1.wav","null","audio-keyboard-response","176","2.1.0","237983","F=YES, J=NO","dpka4hxq5l","2","68","55","80","","","","","","","","","","","","","","","",""
"432","
          <p id=""word"" style=""font-size: 40px;"">land</p>
          <p style=""font-size: 16px;"">F = YES &nbsp;&nbsp;&nbsp; J = NO</p>
        ","f","html-keyboard-response","177","2.1.0","238416","F=YES, J=NO","dpka4hxq5l","2","68","55","80","","","","","","","","","land","client1","metaphor","experimental","f","true","",""
"null","<p style=""font-size: 50px;"">+</p>","null","html-keyboard-response","178","2.1.0","238725","F=YES, J=NO","dpka4hxq5l","2","68","55","80","","","","","","","","","","","","","","","",""
"null","audio/beep-329314.mp3","null","audio-keyboard-response","179","2.1.0","240263","F=YES, J=NO","dpka4hxq5l","2","68","55","80","","","","","","","","","","","","","","","",""
"null","audio/trust.wav","null","audio-keyboard-response","180","2.1.0","240902","F=YES, J=NO","dpka4hxq5l","2","68","55","80","","","","","","","","","","","","","","","",""
"1000","
          <p id=""word"" style=""font-size: 40px;"">swint</p>
          <p style=""font-size: 16px;"">F = YES &nbsp;&nbsp;&nbsp; J = NO</p>
        ","j","html-keyboard-response","181","2.1.0","241904","F=YES, J=NO","dpka4hxq5l","2","68","55","80","","","","","","","","","swint","trust","pseudoword","pseudoword","j","true","",""
"null","<p style=""font-size: 50px;"">+</p>","null","html-keyboard-response","182","2.1.0","242219","F=YES, J=NO","dpka4hxq5l","2","68","55","80","","","","","","","","","","","","","","","",""
"null","audio/beep-329314.mp3","null","audio-keyboard-response","183","2.1.0","243742","F=YES, J=NO","dpka4hxq5l","2","68","55","80","","","","","","","","","","","","","","","",""
"null","audio/floor.wav","null","audio-keyboard-response","184","2.1.0","244282","F=YES, J=NO","dpka4hxq5l","2","68","55","80","","","","","","","","","","","","","","","",""
"589","
          <p id=""word"" style=""font-size: 40px;"">cover</p>
          <p style=""font-size: 16px;"">F = YES &nbsp;&nbsp;&nbsp; J = NO</p>
        ","f","html-keyboard-response","185","2.1.0","244872","F=YES, J=NO","dpka4hxq5l","2","68","55","80","","","","","","","","","cover","floor","literal","experimental","f","true","",""
"null","<p style=""font-size: 50px;"">+</p>","null","html-keyboard-response","186","2.1.0","245176","F=YES, J=NO","dpka4hxq5l","2","68","55","80","","","","","","","","","","","","","","","",""
"null","audio/beep-329314.mp3","null","audio-keyboard-response","187","2.1.0","246703","F=YES, J=NO","dpka4hxq5l","2","68","55","80","","","","","","","","","","","","","","","",""
"null","audio/uncle1.wav","null","audio-keyboard-response","188","2.1.0","247202","F=YES, J=NO","dpka4hxq5l","2","68","55","80","","","","","","","","","","","","","","","",""
"668","
          <p id=""word"" style=""font-size: 40px;"">dramble</p>
          <p style=""font-size: 16px;"">F = YES &nbsp;&nbsp;&nbsp; J = NO</p>
        ","j","html-keyboard-response","189","2.1.0","247872","F=YES, J=NO","dpka4hxq5l","2","68","55","80","","","","","","","","","dramble","uncle1","pseudoword","pseudoword","j","true","",""
"null","<p style=""font-size: 50px;"">+</p>","null","html-keyboard-response","190","2.1.0","248174","F=YES, J=NO","dpka4hxq5l","2","68","55","80","","","","","","","","","","","","","","","",""
"null","audio/beep-329314.mp3","null","audio-keyboard-response","191","2.1.0","249703","F=YES, J=NO","dpka4hxq5l","2","68","55","80","","","","","","","","","","","","","","","",""
"null","audio/beach1.wav","null","audio-keyboard-response","192","2.1.0","250322","F=YES, J=NO","dpka4hxq5l","2","68","55","80","","","","","","","","","","","","","","","",""
"644","
          <p id=""word"" style=""font-size: 40px;"">drive</p>
          <p style=""font-size: 16px;"">F = YES &nbsp;&nbsp;&nbsp; J = NO</p>
        ","f","html-keyboard-response","193","2.1.0","250967","F=YES, J=NO","dpka4hxq5l","2","68","55","80","","","","","","","","","drive","beach1","filler","filler","f","true","",""
"null","<p style=""font-size: 50px;"">+</p>","null","html-keyboard-response","194","2.1.0","251286","F=YES, J=NO","dpka4hxq5l","2","68","55","80","","","","","","","","","","","","","","","",""
"null","audio/beep-329314.mp3","null","audio-keyboard-response","195","2.1.0","252823","F=YES, J=NO","dpka4hxq5l","2","68","55","80","","","","","","","","","","","","","","","",""
"null","audio/purpose.wav","null","audio-keyboard-response","196","2.1.0","253523","F=YES, J=NO","dpka4hxq5l","2","68","55","80","","","","","","","","","","","","","","","",""
"551","
          <p id=""word"" style=""font-size: 40px;"">whigm</p>
          <p style=""font-size: 16px;"">F = YES &nbsp;&nbsp;&nbsp; J = NO</p>
        ","j","html-keyboard-response","197","2.1.0","254075","F=YES, J=NO","dpka4hxq5l","2","68","55","80","","","","","","","","","whigm","purpose","pseudoword","pseudoword","j","true","",""
"null","<p style=""font-size: 50px;"">+</p>","null","html-keyboard-response","198","2.1.0","254378","F=YES, J=NO","dpka4hxq5l","2","68","55","80","","","","","","","","","","","","","","","",""
"null","audio/beep-329314.mp3","null","audio-keyboard-response","199","2.1.0","255903","F=YES, J=NO","dpka4hxq5l","2","68","55","80","","","","","","","","","","","","","","","",""
"null","audio/mile1.wav","null","audio-keyboard-response","200","2.1.0","256423","F=YES, J=NO","dpka4hxq5l","2","68","55","80","","","","","","","","","","","","","","","",""
"588","
          <p id=""word"" style=""font-size: 40px;"">writch</p>
          <p style=""font-size: 16px;"">F = YES &nbsp;&nbsp;&nbsp; J = NO</p>
        ","f","html-keyboard-response","201","2.1.0","257013","F=YES, J=NO","dpka4hxq5l","2","68","55","80","","","","","","","","","writch","mile1","pseudoword","pseudoword","j","false","",""
"null","<p style=""font-size: 50px;"">+</p>","null","html-keyboard-response","202","2.1.0","257330","F=YES, J=NO","dpka4hxq5l","2","68","55","80","","","","","","","","","","","","","","","",""
"null","audio/beep-329314.mp3","null","audio-keyboard-response","203","2.1.0","258863","F=YES, J=NO","dpka4hxq5l","2","68","55","80","","","","","","","","","","","","","","","",""
"null","audio/bridge.wav","null","audio-keyboard-response","204","2.1.0","259402","F=YES, J=NO","dpka4hxq5l","2","68","55","80","","","","","","","","","","","","","","","",""
"848","
          <p id=""word"" style=""font-size: 40px;"">build</p>
          <p style=""font-size: 16px;"">F = YES &nbsp;&nbsp;&nbsp; J = NO</p>
        ","f","html-keyboard-response","205","2.1.0","260251","F=YES, J=NO","dpka4hxq5l","2","68","55","80","","","","","","","","","build","bridge","literal","experimental","f","true","",""
"null","<p style=""font-size: 50px;"">+</p>","null","html-keyboard-response","206","2.1.0","260569","F=YES, J=NO","dpka4hxq5l","2","68","55","80","","","","","","","","","","","","","","","",""
"null","audio/beep-329314.mp3","null","audio-keyboard-response","207","2.1.0","262104","F=YES, J=NO","dpka4hxq5l","2","68","55","80","","","","","","","","","","","","","","","",""
"null","audio/holiday1.wav","null","audio-keyboard-response","208","2.1.0","262763","F=YES, J=NO","dpka4hxq5l","2","68","55","80","","","","","","","","","","","","","","","",""
"647","
          <p id=""word"" style=""font-size: 40px;"">drivets</p>
          <p style=""font-size: 16px;"">F = YES &nbsp;&nbsp;&nbsp; J = NO</p>
        ","j","html-keyboard-response","209","2.1.0","263412","F=YES, J=NO","dpka4hxq5l","2","68","55","80","","","","","","","","","drivets","holiday1","pseudoword","pseudoword","j","true","",""
"null","<p style=""font-size: 50px;"">+</p>","null","html-keyboard-response","210","2.1.0","263715","F=YES, J=NO","dpka4hxq5l","2","68","55","80","","","","","","","","","","","","","","","",""
"null","audio/beep-329314.mp3","null","audio-keyboard-response","211","2.1.0","265244","F=YES, J=NO","dpka4hxq5l","2","68","55","80","","","","","","","","","","","","","","","",""
"null","audio/burden.wav","null","audio-keyboard-response","212","2.1.0","265783","F=YES, J=NO","dpka4hxq5l","2","68","55","80","","","","","","","","","","","","","","","",""
"704","
          <p id=""word"" style=""font-size: 40px;"">whotth</p>
          <p style=""font-size: 16px;"">F = YES &nbsp;&nbsp;&nbsp; J = NO</p>
        ","j","html-keyboard-response","213","2.1.0","266488","F=YES, J=NO","dpka4hxq5l","2","68","55","80","","","","","","","","","whotth","burden","pseudoword","pseudoword","j","true","",""
"null","<p style=""font-size: 50px;"">+</p>","null","html-keyboard-response","214","2.1.0","266795","F=YES, J=NO","dpka4hxq5l","2","68","55","80","","","","","","","","","","","","","","","",""
"null","audio/beep-329314.mp3","null","audio-keyboard-response","215","2.1.0","268323","F=YES, J=NO","dpka4hxq5l","2","68","55","80","","","","","","","","","","","","","","","",""
"null","audio/arm.wav","null","audio-keyboard-response","216","2.1.0","268903","F=YES, J=NO","dpka4hxq5l","2","68","55","80","","","","","","","","","","","","","","","",""
"532","
          <p id=""word"" style=""font-size: 40px;"">fold</p>
          <p style=""font-size: 16px;"">F = YES &nbsp;&nbsp;&nbsp; J = NO</p>
        ","j","html-keyboard-response","217","2.1.0","269437","F=YES, J=NO","dpka4hxq5l","2","68","55","80","","","","","","","","","fold","arm","filler","filler","f","false","",""
"null","<p style=""font-size: 50px;"">+</p>","null","html-keyboard-response","218","2.1.0","269740","F=YES, J=NO","dpka4hxq5l","2","68","55","80","","","","","","","","","","","","","","","",""
"null","audio/beep-329314.mp3","null","audio-keyboard-response","219","2.1.0","271263","F=YES, J=NO","dpka4hxq5l","2","68","55","80","","","","","","","","","","","","","","","",""
"null","audio/cash1.wav","null","audio-keyboard-response","220","2.1.0","271863","F=YES, J=NO","dpka4hxq5l","2","68","55","80","","","","","","","","","","","","","","","",""
"699","
          <p id=""word"" style=""font-size: 40px;"">splear</p>
          <p style=""font-size: 16px;"">F = YES &nbsp;&nbsp;&nbsp; J = NO</p>
        ","j","html-keyboard-response","221","2.1.0","272564","F=YES, J=NO","dpka4hxq5l","2","68","55","80","","","","","","","","","splear","cash1","pseudoword","pseudoword","j","true","",""
"null","<p style=""font-size: 50px;"">+</p>","null","html-keyboard-response","222","2.1.0","272870","F=YES, J=NO","dpka4hxq5l","2","68","55","80","","","","","","","","","","","","","","","",""
"null","audio/beep-329314.mp3","null","audio-keyboard-response","223","2.1.0","274403","F=YES, J=NO","dpka4hxq5l","2","68","55","80","","","","","","","","","","","","","","","",""
"null","audio/dome.wav","null","audio-keyboard-response","224","2.1.0","274863","F=YES, J=NO","dpka4hxq5l","2","68","55","80","","","","","","","","","","","","","","","",""
"591","
          <p id=""word"" style=""font-size: 40px;"">scrupliness</p>
          <p style=""font-size: 16px;"">F = YES &nbsp;&nbsp;&nbsp; J = NO</p>
        ","j","html-keyboard-response","225","2.1.0","275455","F=YES, J=NO","dpka4hxq5l","2","68","55","80","","","","","","","","","scrupliness","dome","pseudoword","pseudoword","j","true","",""
"null","<p style=""font-size: 50px;"">+</p>","null","html-keyboard-response","226","2.1.0","275770","F=YES, J=NO","dpka4hxq5l","2","68","55","80","","","","","","","","","","","","","","","",""
"null","audio/beep-329314.mp3","null","audio-keyboard-response","227","2.1.0","277303","F=YES, J=NO","dpka4hxq5l","2","68","55","80","","","","","","","","","","","","","","","",""
"null","audio/strength.wav","null","audio-keyboard-response","228","2.1.0","278042","F=YES, J=NO","dpka4hxq5l","2","68","55","80","","","","","","","","","","","","","","","",""
"608","
          <p id=""word"" style=""font-size: 40px;"">plabet</p>
          <p style=""font-size: 16px;"">F = YES &nbsp;&nbsp;&nbsp; J = NO</p>
        ","j","html-keyboard-response","229","2.1.0","278651","F=YES, J=NO","dpka4hxq5l","2","68","55","80","","","","","","","","","plabet","strength","pseudoword","pseudoword","j","true","",""
"6132","<p>Excellent! You have finished block 1 of 8.</p>
                     <p>Feel free to take a 30 second break.</p>
                     <p>Press any key when you're ready to continue.</p>","j","html-keyboard-response","230","2.1.0","284784","F=YES, J=NO","dpka4hxq5l","2","68","55","80","","","","","","","","","","","","","","","",""
"779","<p>Starting main block 2 of 8. Press any key to continue.</p>","j","html-keyboard-response","231","2.1.0","285564","F=YES, J=NO","dpka4hxq5l","2","68","55","80","","","","","","","","","","","","","","","",""
"null","<p style=""font-size: 50px;"">+</p>","null","html-keyboard-response","232","2.1.0","285870","F=YES, J=NO","dpka4hxq5l","2","68","55","80","","","","","","","","","","","","","","","",""
"null","audio/beep-329314.mp3","null","audio-keyboard-response","233","2.1.0","287403","F=YES, J=NO","dpka4hxq5l","2","68","55","80","","","","","","","","","","","","","","","",""
"null","audio/bush1.wav","null","audio-keyboard-response","234","2.1.0","287902","F=YES, J=NO","dpka4hxq5l","2","68","55","80","","","","","","","","","","","","","","","",""
"520","
          <p id=""word"" style=""font-size: 40px;"">run</p>
          <p style=""font-size: 16px;"">F = YES &nbsp;&nbsp;&nbsp; J = NO</p>
        ","f","html-keyboard-response","235","2.1.0","288424","F=YES, J=NO","dpka4hxq5l","2","68","55","80","","","","","","","","","run","bush1","unrelated","experimental","f","true","",""
"null","<p style=""font-size: 50px;"">+</p>","null","html-keyboard-response","236","2.1.0","288735","F=YES, J=NO","dpka4hxq5l","2","68","55","80","","","","","","","","","","","","","","","",""
"null","audio/beep-329314.mp3","null","audio-keyboard-response","237","2.1.0","290264","F=YES, J=NO","dpka4hxq5l","2","68","55","80","","","","","","","","","","","","","","","",""
"null","audio/lion1.wav","null","audio-keyboard-response","238","2.1.0","290843","F=YES, J=NO","dpka4hxq5l","2","68","55","80","","","","","","","","","","","","","","","",""
"932","
          <p id=""word"" style=""font-size: 40px;"">wrestle</p>
          <p style=""font-size: 16px;"">F = YES &nbsp;&nbsp;&nbsp; J = NO</p>
        ","f","html-keyboard-response","239","2.1.0","291776","F=YES, J=NO","dpka4hxq5l","2","68","55","80","","","","","","","","","wrestle","lion1","literal","experimental","f","true","",""
"null","<p style=""font-size: 50px;"">+</p>","null","html-keyboard-response","240","2.1.0","292092","F=YES, J=NO","dpka4hxq5l","2","68","55","80","","","","","","","","","","","","","","","",""
"null","audio/beep-329314.mp3","null","audio-keyboard-response","241","2.1.0","293624","F=YES, J=NO","dpka4hxq5l","2","68","55","80","","","","","","","","","","","","","","","",""
"null","audio/vehicle1.wav","null","audio-keyboard-response","242","2.1.0","294303","F=YES, J=NO","dpka4hxq5l","2","68","55","80","","","","","","","","","","","","","","","",""
"451","
          <p id=""word"" style=""font-size: 40px;"">approach</p>
          <p style=""font-size: 16px;"">F = YES &nbsp;&nbsp;&nbsp; J = NO</p>
        ","j","html-keyboard-response","243","2.1.0","294756","F=YES, J=NO","dpka4hxq5l","2","68","55","80","","","","","","","","","approach","vehicle1","literal","experimental","f","false","",""
"null","<p style=""font-size: 50px;"">+</p>","null","html-keyboard-response","244","2.1.0","295071","F=YES, J=NO","dpka4hxq5l","2","68","55","80","","","","","","","","","","","","","","","",""
"null","audio/beep-329314.mp3","null","audio-keyboard-response","245","2.1.0","296603","F=YES, J=NO","dpka4hxq5l","2","68","55","80","","","","","","","","","","","","","","","",""
"null","audio/pine.wav","null","audio-keyboard-response","246","2.1.0","297123","F=YES, J=NO","dpka4hxq5l","2","68","55","80","","","","","","","","","","","","","","","",""
"804","
          <p id=""word"" style=""font-size: 40px;"">weave</p>
          <p style=""font-size: 16px;"">F = YES &nbsp;&nbsp;&nbsp; J = NO</p>
        ","j","html-keyboard-response","247","2.1.0","297929","F=YES, J=NO","dpka4hxq5l","2","68","55","80","","","","","","","","","weave","pine","unrelated","experimental","f","false","",""
"null","<p style=""font-size: 50px;"">+</p>","null","html-keyboard-response","248","2.1.0","298241","F=YES, J=NO","dpka4hxq5l","2","68","55","80","","","","","","","","","","","","","","","",""
"null","audio/beep-329314.mp3","null","audio-keyboard-response","249","2.1.0","299764","F=YES, J=NO","dpka4hxq5l","2","68","55","80","","","","","","","","","","","","","","","",""
"null","audio/noise1.wav","null","audio-keyboard-response","250","2.1.0","300403","F=YES, J=NO","dpka4hxq5l","2","68","55","80","","","","","","","","","","","","","","","",""
"627","
          <p id=""word"" style=""font-size: 40px;"">slintered</p>
          <p style=""font-size: 16px;"">F = YES &nbsp;&nbsp;&nbsp; J = NO</p>
        ","j","html-keyboard-response","251","2.1.0","301032","F=YES, J=NO","dpka4hxq5l","2","68","55","80","","","","","","","","","slintered","noise1","pseudoword","pseudoword","j","true","",""
"null","<p style=""font-size: 50px;"">+</p>","null","html-keyboard-response","252","2.1.0","301339","F=YES, J=NO","dpka4hxq5l","2","68","55","80","","","","","","","","","","","","","","","",""
"null","audio/beep-329314.mp3","null","audio-keyboard-response","253","2.1.0","302864","F=YES, J=NO","dpka4hxq5l","2","68","55","80","","","","","","","","","","","","","","","",""
"null","audio/smirk1.wav","null","audio-keyboard-response","254","2.1.0","303623","F=YES, J=NO","dpka4hxq5l","2","68","55","80","","","","","","","","","","","","","","","",""
"563","
          <p id=""word"" style=""font-size: 40px;"">snopt</p>
          <p style=""font-size: 16px;"">F = YES &nbsp;&nbsp;&nbsp; J = NO</p>
        ","j","html-keyboard-response","255","2.1.0","304188","F=YES, J=NO","dpka4hxq5l","2","68","55","80","","","","","","","","","snopt","smirk1","pseudoword","pseudoword","j","true","",""
"null","<p style=""font-size: 50px;"">+</p>","null","html-keyboard-response","256","2.1.0","304491","F=YES, J=NO","dpka4hxq5l","2","68","55","80","","","","","","","","","","","","","","","",""
"null","audio/beep-329314.mp3","null","audio-keyboard-response","257","2.1.0","306022","F=YES, J=NO","dpka4hxq5l","2","68","55","80","","","","","","","","","","","","","","","",""
"null","audio/desire.wav","null","audio-keyboard-response","258","2.1.0","306642","F=YES, J=NO","dpka4hxq5l","2","68","55","80","","","","","","","","","","","","","","","",""
"621","
          <p id=""word"" style=""font-size: 40px;"">nophed</p>
          <p style=""font-size: 16px;"">F = YES &nbsp;&nbsp;&nbsp; J = NO</p>
        ","f","html-keyboard-response","259","2.1.0","307264","F=YES, J=NO","dpka4hxq5l","2","68","55","80","","","","","","","","","nophed","desire","pseudoword","pseudoword","j","false","",""
"null","<p style=""font-size: 50px;"">+</p>","null","html-keyboard-response","260","2.1.0","307569","F=YES, J=NO","dpka4hxq5l","2","68","55","80","","","","","","","","","","","","","","","",""
"null","audio/beep-329314.mp3","null","audio-keyboard-response","261","2.1.0","309104","F=YES, J=NO","dpka4hxq5l","2","68","55","80","","","","","","","","","","","","","","","",""
"null","audio/ego.wav","null","audio-keyboard-response","262","2.1.0","309683","F=YES, J=NO","dpka4hxq5l","2","68","55","80","","","","","","","","","","","","","","","",""
"796","
          <p id=""word"" style=""font-size: 40px;"">bruite</p>
          <p style=""font-size: 16px;"">F = YES &nbsp;&nbsp;&nbsp; J = NO</p>
        ","j","html-keyboard-response","263","2.1.0","310481","F=YES, J=NO","dpka4hxq5l","2","68","55","80","","","","","","","","","bruite","ego","pseudoword","pseudoword","j","true","",""
"null","<p style=""font-size: 50px;"">+</p>","null","html-keyboard-response","264","2.1.0","310786","F=YES, J=NO","dpka4hxq5l","2","68","55","80","","","","","","","","","","","","","","","",""
"null","audio/beep-329314.mp3","null","audio-keyboard-response","265","2.1.0","312324","F=YES, J=NO","dpka4hxq5l","2","68","55","80","","","","","","","","","","","","","","","",""
"null","audio/foot1.wav","null","audio-keyboard-response","266","2.1.0","312904","F=YES, J=NO","dpka4hxq5l","2","68","55","80","","","","","","","","","","","","","","","",""
"556","
          <p id=""word"" style=""font-size: 40px;"">thrutt</p>
          <p style=""font-size: 16px;"">F = YES &nbsp;&nbsp;&nbsp; J = NO</p>
        ","j","html-keyboard-response","267","2.1.0","313461","F=YES, J=NO","dpka4hxq5l","2","68","55","80","","","","","","","","","thrutt","foot1","pseudoword","pseudoword","j","true","",""
"null","<p style=""font-size: 50px;"">+</p>","null","html-keyboard-response","268","2.1.0","313767","F=YES, J=NO","dpka4hxq5l","2","68","55","80","","","","","","","","","","","","","","","",""
"null","audio/beep-329314.mp3","null","audio-keyboard-response","269","2.1.0","315304","F=YES, J=NO","dpka4hxq5l","2","68","55","80","","","","","","","","","","","","","","","",""
"null","audio/voice.wav","null","audio-keyboard-response","270","2.1.0","315924","F=YES, J=NO","dpka4hxq5l","2","68","55","80","","","","","","","","","","","","","","","",""
"548","
          <p id=""word"" style=""font-size: 40px;"">grintle</p>
          <p style=""font-size: 16px;"">F = YES &nbsp;&nbsp;&nbsp; J = NO</p>
        ","j","html-keyboard-response","271","2.1.0","316473","F=YES, J=NO","dpka4hxq5l","2","68","55","80","","","","","","","","","grintle","voice","pseudoword","pseudoword","j","true","",""
"null","<p style=""font-size: 50px;"">+</p>","null","html-keyboard-response","272","2.1.0","316780","F=YES, J=NO","dpka4hxq5l","2","68","55","80","","","","","","","","","","","","","","","",""
"null","audio/beep-329314.mp3","null","audio-keyboard-response","273","2.1.0","318304","F=YES, J=NO","dpka4hxq5l","2","68","55","80","","","","","","","","","","","","","","","",""
"null","audio/test1.wav","null","audio-keyboard-response","274","2.1.0","318903","F=YES, J=NO","dpka4hxq5l","2","68","55","80","","","","","","","","","","","","","","","",""
"680","
          <p id=""word"" style=""font-size: 40px;"">twopch</p>
          <p style=""font-size: 16px;"">F = YES &nbsp;&nbsp;&nbsp; J = NO</p>
        ","j","html-keyboard-response","275","2.1.0","319585","F=YES, J=NO","dpka4hxq5l","2","68","55","80","","","","","","","","","twopch","test1","pseudoword","pseudoword","j","true","",""
"null","<p style=""font-size: 50px;"">+</p>","null","html-keyboard-response","276","2.1.0","319901","F=YES, J=NO","dpka4hxq5l","2","68","55","80","","","","","","","","","","","","","","","",""
"null","audio/beep-329314.mp3","null","audio-keyboard-response","277","2.1.0","321424","F=YES, J=NO","dpka4hxq5l","2","68","55","80","","","","","","","","","","","","","","","",""
"null","audio/promise1.wav","null","audio-keyboard-response","278","2.1.0","322123","F=YES, J=NO","dpka4hxq5l","2","68","55","80","","","","","","","","","","","","","","","",""
"248","
          <p id=""word"" style=""font-size: 40px;"">break</p>
          <p style=""font-size: 16px;"">F = YES &nbsp;&nbsp;&nbsp; J = NO</p>
        ","j","html-keyboard-response","279","2.1.0","322373","F=YES, J=NO","dpka4hxq5l","2","68","55","80","","","","","","","","","break","promise1","metaphor","experimental","f","false","",""
"null","<p style=""font-size: 50px;"">+</p>","null","html-keyboard-response","280","2.1.0","322691","F=YES, J=NO","dpka4hxq5l","2","68","55","80","","","","","","","","","","","","","","","",""
"null","audio/beep-329314.mp3","null","audio-keyboard-response","281","2.1.0","324224","F=YES, J=NO","dpka4hxq5l","2","68","55","80","","","","","","","","","","","","","","","",""
"null","audio/corpse1.wav","null","audio-keyboard-response","282","2.1.0","324883","F=YES, J=NO","dpka4hxq5l","2","68","55","80","","","","","","","","","","","","","","","",""
"340","
          <p id=""word"" style=""font-size: 40px;"">glonet</p>
          <p style=""font-size: 16px;"">F = YES &nbsp;&nbsp;&nbsp; J = NO</p>
        ","f","html-keyboard-response","283","2.1.0","325224","F=YES, J=NO","dpka4hxq5l","2","68","55","80","","","","","","","","","glonet","corpse1","pseudoword","pseudoword","j","false","",""
"null","<p style=""font-size: 50px;"">+</p>","null","html-keyboard-response","284","2.1.0","325530","F=YES, J=NO","dpka4hxq5l","2","68","55","80","","","","","","","","","","","","","","","",""
"null","audio/beep-329314.mp3","null","audio-keyboard-response","285","2.1.0","327064","F=YES, J=NO","dpka4hxq5l","2","68","55","80","","","","","","","","","","","","","","","",""
"null","audio/table1.wav","null","audio-keyboard-response","286","2.1.0","327584","F=YES, J=NO","dpka4hxq5l","2","68","55","80","","","","","","","","","","","","","","","",""
"472","
          <p id=""word"" style=""font-size: 40px;"">clear</p>
          <p style=""font-size: 16px;"">F = YES &nbsp;&nbsp;&nbsp; J = NO</p>
        ","j","html-keyboard-response","287","2.1.0","328057","F=YES, J=NO","dpka4hxq5l","2","68","55","80","","","","","","","","","clear","table1","literal","experimental","f","false","",""
"null","<p style=""font-size: 50px;"">+</p>","null","html-keyboard-response","288","2.1.0","328360","F=YES, J=NO","dpka4hxq5l","2","68","55","80","","","","","","","","","","","","","","","",""
"null","audio/beep-329314.mp3","null","audio-keyboard-response","289","2.1.0","329883","F=YES, J=NO","dpka4hxq5l","2","68","55","80","","","","","","","","","","","","","","","",""
"null","audio/death1.wav","null","audio-keyboard-response","290","2.1.0","330403","F=YES, J=NO","dpka4hxq5l","2","68","55","80","","","","","","","","","","","","","","","",""
"635","
          <p id=""word"" style=""font-size: 40px;"">conquer</p>
          <p style=""font-size: 16px;"">F = YES &nbsp;&nbsp;&nbsp; J = NO</p>
        ","f","html-keyboard-response","291","2.1.0","331040","F=YES, J=NO","dpka4hxq5l","2","68","55","80","","","","","","","","","conquer","death1","metaphor","experimental","f","true","",""
"null","<p style=""font-size: 50px;"">+</p>","null","html-keyboard-response","292","2.1.0","331351","F=YES, J=NO","dpka4hxq5l","2","68","55","80","","","","","","","","","","","","","","","",""
"null","audio/beep-329314.mp3","null","audio-keyboard-response","293","2.1.0","332884","F=YES, J=NO","dpka4hxq5l","2","68","55","80","","","","","","","","","","","","","","","",""
"null","audio/rank1.wav","null","audio-keyboard-response","294","2.1.0","333483","F=YES, J=NO","dpka4hxq5l","2","68","55","80","","","","","","","","","","","","","","","",""
"492","
          <p id=""word"" style=""font-size: 40px;"">climb</p>
          <p style=""font-size: 16px;"">F = YES &nbsp;&nbsp;&nbsp; J = NO</p>
        ","f","html-keyboard-response","295","2.1.0","333977","F=YES, J=NO","dpka4hxq5l","2","68","55","80","","","","","","","","","climb","rank1","metaphor","experimental","f","true","",""
"6047","<p>Excellent! You have finished block 2 of 8.</p>
                     <p>Feel free to take a 30 second break.</p>
                     <p>Press any key when you're ready to continue.</p>","j","html-keyboard-response","296","2.1.0","340025","F=YES, J=NO","dpka4hxq5l","2","68","55","80","","","","","","","","","","","","","","","",""
"951","<p>Starting main block 3 of 8. Press any key to continue.</p>","j","html-keyboard-response","297","2.1.0","340977","F=YES, J=NO","dpka4hxq5l","2","68","55","80","","","","","","","","","","","","","","","",""
"null","<p style=""font-size: 50px;"">+</p>","null","html-keyboard-response","298","2.1.0","341286","F=YES, J=NO","dpka4hxq5l","2","68","55","80","","","","","","","","","","","","","","","",""
"null","audio/beep-329314.mp3","null","audio-keyboard-response","299","2.1.0","342824","F=YES, J=NO","dpka4hxq5l","2","68","55","80","","","","","","","","","","","","","","","",""
"null","audio/mouth1.wav","null","audio-keyboard-response","300","2.1.0","343424","F=YES, J=NO","dpka4hxq5l","2","68","55","80","","","","","","","","","","","","","","","",""
"328","
          <p id=""word"" style=""font-size: 40px;"">spolial</p>
          <p style=""font-size: 16px;"">F = YES &nbsp;&nbsp;&nbsp; J = NO</p>
        ","f","html-keyboard-response","301","2.1.0","343753","F=YES, J=NO","dpka4hxq5l","2","68","55","80","","","","","","","","","spolial","mouth1","pseudoword","pseudoword","j","false","",""
"null","<p style=""font-size: 50px;"">+</p>","null","html-keyboard-response","302","2.1.0","344061","F=YES, J=NO","dpka4hxq5l","2","68","55","80","","","","","","","","","","","","","","","",""
"null","audio/beep-329314.mp3","null","audio-keyboard-response","303","2.1.0","345584","F=YES, J=NO","dpka4hxq5l","2","68","55","80","","","","","","","","","","","","","","","",""
"null","audio/rain.wav","null","audio-keyboard-response","304","2.1.0","346063","F=YES, J=NO","dpka4hxq5l","2","68","55","80","","","","","","","","","","","","","","","",""
"497","
          <p id=""word"" style=""font-size: 40px;"">lose</p>
          <p style=""font-size: 16px;"">F = YES &nbsp;&nbsp;&nbsp; J = NO</p>
        ","f","html-keyboard-response","305","2.1.0","346562","F=YES, J=NO","dpka4hxq5l","2","68","55","80","","","","","","","","","lose","rain","unrelated","experimental","f","true","",""
"null","<p style=""font-size: 50px;"">+</p>","null","html-keyboard-response","306","2.1.0","346881","F=YES, J=NO","dpka4hxq5l","2","68","55","80","","","","","","","","","","","","","","","",""
"null","audio/beep-329314.mp3","null","audio-keyboard-response","307","2.1.0","348404","F=YES, J=NO","dpka4hxq5l","2","68","55","80","","","","","","","","","","","","","","","",""
"null","audio/news.wav","null","audio-keyboard-response","308","2.1.0","349083","F=YES, J=NO","dpka4hxq5l","2","68","55","80","","","","","","","","","","","","","","","",""
"333","
          <p id=""word"" style=""font-size: 40px;"">digest</p>
          <p style=""font-size: 16px;"">F = YES &nbsp;&nbsp;&nbsp; J = NO</p>
        ","f","html-keyboard-response","309","2.1.0","349417","F=YES, J=NO","dpka4hxq5l","2","68","55","80","","","","","","","","","digest","news","metaphor","experimental","f","true","",""
"null","<p style=""font-size: 50px;"">+</p>","null","html-keyboard-response","310","2.1.0","349731","F=YES, J=NO","dpka4hxq5l","2","68","55","80","","","","","","","","","","","","","","","",""
"null","audio/beep-329314.mp3","null","audio-keyboard-response","311","2.1.0","351264","F=YES, J=NO","dpka4hxq5l","2","68","55","80","","","","","","","","","","","","","","","",""
"null","audio/kettle1.wav","null","audio-keyboard-response","312","2.1.0","351764","F=YES, J=NO","dpka4hxq5l","2","68","55","80","","","","","","","","","","","","","","","",""
"335","
          <p id=""word"" style=""font-size: 40px;"">wrap</p>
          <p style=""font-size: 16px;"">F = YES &nbsp;&nbsp;&nbsp; J = NO</p>
        ","f","html-keyboard-response","313","2.1.0","352100","F=YES, J=NO","dpka4hxq5l","2","68","55","80","","","","","","","","","wrap","kettle1","filler","filler","f","true","",""
"null","<p style=""font-size: 50px;"">+</p>","null","html-keyboard-response","314","2.1.0","352416","F=YES, J=NO","dpka4hxq5l","2","68","55","80","","","","","","","","","","","","","","","",""
"null","audio/beep-329314.mp3","null","audio-keyboard-response","315","2.1.0","353944","F=YES, J=NO","dpka4hxq5l","2","68","55","80","","","","","","","","","","","","","","","",""
"null","audio/mood1.wav","null","audio-keyboard-response","316","2.1.0","354443","F=YES, J=NO","dpka4hxq5l","2","68","55","80","","","","","","","","","","","","","","","",""
"356","
          <p id=""word"" style=""font-size: 40px;"">give</p>
          <p style=""font-size: 16px;"">F = YES &nbsp;&nbsp;&nbsp; J = NO</p>
        ","f","html-keyboard-response","317","2.1.0","354801","F=YES, J=NO","dpka4hxq5l","2","68","55","80","","","","","","","","","give","mood1","unrelated","experimental","f","true","",""
"null","<p style=""font-size: 50px;"">+</p>","null","html-keyboard-response","318","2.1.0","355110","F=YES, J=NO","dpka4hxq5l","2","68","55","80","","","","","","","","","","","","","","","",""
"null","audio/beep-329314.mp3","null","audio-keyboard-response","319","2.1.0","356643","F=YES, J=NO","dpka4hxq5l","2","68","55","80","","","","","","","","","","","","","","","",""
"null","audio/alarm1.wav","null","audio-keyboard-response","320","2.1.0","357264","F=YES, J=NO","dpka4hxq5l","2","68","55","80","","","","","","","","","","","","","","","",""
"279","
          <p id=""word"" style=""font-size: 40px;"">swetp</p>
          <p style=""font-size: 16px;"">F = YES &nbsp;&nbsp;&nbsp; J = NO</p>
        ","f","html-keyboard-response","321","2.1.0","357545","F=YES, J=NO","dpka4hxq5l","2","68","55","80","","","","","","","","","swetp","alarm1","pseudoword","pseudoword","j","false","",""
"null","<p style=""font-size: 50px;"">+</p>","null","html-keyboard-response","322","2.1.0","357861","F=YES, J=NO","dpka4hxq5l","2","68","55","80","","","","","","","","","","","","","","","",""
"null","audio/beep-329314.mp3","null","audio-keyboard-response","323","2.1.0","359385","F=YES, J=NO","dpka4hxq5l","2","68","55","80","","","","","","","","","","","","","","","",""
"null","audio/budget1.wav","null","audio-keyboard-response","324","2.1.0","360064","F=YES, J=NO","dpka4hxq5l","2","68","55","80","","","","","","","","","","","","","","","",""
"251","
          <p id=""word"" style=""font-size: 40px;"">sulist</p>
          <p style=""font-size: 16px;"">F = YES &nbsp;&nbsp;&nbsp; J = NO</p>
        ","f","html-keyboard-response","325","2.1.0","360317","F=YES, J=NO","dpka4hxq5l","2","68","55","80","","","","","","","","","sulist","budget1","pseudoword","pseudoword","j","false","",""
"null","<p style=""font-size: 50px;"">+</p>","null","html-keyboard-response","326","2.1.0","360631","F=YES, J=NO","dpka4hxq5l","2","68","55","80","","","","","","","","","","","","","","","",""
"null","audio/beep-329314.mp3","null","audio-keyboard-response","327","2.1.0","362164","F=YES, J=NO","dpka4hxq5l","2","68","55","80","","","","","","","","","","","","","","","",""
"null","audio/tax1.wav","null","audio-keyboard-response","328","2.1.0","362943","F=YES, J=NO","dpka4hxq5l","2","68","55","80","","","","","","","","","","","","","","","",""
"372","
          <p id=""word"" style=""font-size: 40px;"">snate</p>
          <p style=""font-size: 16px;"">F = YES &nbsp;&nbsp;&nbsp; J = NO</p>
        ","f","html-keyboard-response","329","2.1.0","363317","F=YES, J=NO","dpka4hxq5l","2","68","55","80","","","","","","","","","snate","tax1","pseudoword","pseudoword","j","false","",""
"null","<p style=""font-size: 50px;"">+</p>","null","html-keyboard-response","330","2.1.0","363621","F=YES, J=NO","dpka4hxq5l","2","68","55","80","","","","","","","","","","","","","","","",""
"null","audio/beep-329314.mp3","null","audio-keyboard-response","331","2.1.0","365145","F=YES, J=NO","dpka4hxq5l","2","68","55","80","","","","","","","","","","","","","","","",""
"null","audio/grass.wav","null","audio-keyboard-response","332","2.1.0","366084","F=YES, J=NO","dpka4hxq5l","2","68","55","80","","","","","","","","","","","","","","","",""
"300","
          <p id=""word"" style=""font-size: 40px;"">milames</p>
          <p style=""font-size: 16px;"">F = YES &nbsp;&nbsp;&nbsp; J = NO</p>
        ","f","html-keyboard-response","333","2.1.0","366385","F=YES, J=NO","dpka4hxq5l","2","68","55","80","","","","","","","","","milames","grass","pseudoword","pseudoword","j","false","",""
"null","<p style=""font-size: 50px;"">+</p>","null","html-keyboard-response","334","2.1.0","366693","F=YES, J=NO","dpka4hxq5l","2","68","55","80","","","","","","","","","","","","","","","",""
"null","audio/beep-329314.mp3","null","audio-keyboard-response","335","2.1.0","368224","F=YES, J=NO","dpka4hxq5l","2","68","55","80","","","","","","","","","","","","","","","",""
"null","audio/mind.wav","null","audio-keyboard-response","336","2.1.0","368963","F=YES, J=NO","dpka4hxq5l","2","68","55","80","","","","","","","","","","","","","","","",""
"620","
          <p id=""word"" style=""font-size: 40px;"">crainate</p>
          <p style=""font-size: 16px;"">F = YES &nbsp;&nbsp;&nbsp; J = NO</p>
        ","j","html-keyboard-response","337","2.1.0","369584","F=YES, J=NO","dpka4hxq5l","2","68","55","80","","","","","","","","","crainate","mind","pseudoword","pseudoword","j","true","",""
"null","<p style=""font-size: 50px;"">+</p>","null","html-keyboard-response","338","2.1.0","369901","F=YES, J=NO","dpka4hxq5l","2","68","55","80","","","","","","","","","","","","","","","",""
"null","audio/beep-329314.mp3","null","audio-keyboard-response","339","2.1.0","371424","F=YES, J=NO","dpka4hxq5l","2","68","55","80","","","","","","","","","","","","","","","",""
"null","audio/van1.wav","null","audio-keyboard-response","340","2.1.0","372284","F=YES, J=NO","dpka4hxq5l","2","68","55","80","","","","","","","","","","","","","","","",""
"544","
          <p id=""word"" style=""font-size: 40px;"">support</p>
          <p style=""font-size: 16px;"">F = YES &nbsp;&nbsp;&nbsp; J = NO</p>
        ","f","html-keyboard-response","341","2.1.0","372829","F=YES, J=NO","dpka4hxq5l","2","68","55","80","","","","","","","","","support","van1","unrelated","experimental","f","true","",""
"null","<p style=""font-size: 50px;"">+</p>","null","html-keyboard-response","342","2.1.0","373132","F=YES, J=NO","dpka4hxq5l","2","68","55","80","","","","","","","","","","","","","","","",""
"null","audio/beep-329314.mp3","null","audio-keyboard-response","343","2.1.0","374664","F=YES, J=NO","dpka4hxq5l","2","68","55","80","","","","","","","","","","","","","","","",""
"null","audio/pain1.wav","null","audio-keyboard-response","344","2.1.0","375124","F=YES, J=NO","dpka4hxq5l","2","68","55","80","","","","","","","","","","","","","","","",""
"616","
          <p id=""word"" style=""font-size: 40px;"">tritted</p>
          <p style=""font-size: 16px;"">F = YES &nbsp;&nbsp;&nbsp; J = NO</p>
        ","f","html-keyboard-response","345","2.1.0","375741","F=YES, J=NO","dpka4hxq5l","2","68","55","80","","","","","","","","","tritted","pain1","pseudoword","pseudoword","j","false","",""
"null","<p style=""font-size: 50px;"">+</p>","null","html-keyboard-response","346","2.1.0","376061","F=YES, J=NO","dpka4hxq5l","2","68","55","80","","","","","","","","","","","","","","","",""
"null","audio/beep-329314.mp3","null","audio-keyboard-response","347","2.1.0","377584","F=YES, J=NO","dpka4hxq5l","2","68","55","80","","","","","","","","","","","","","","","",""
"null","audio/stain.wav","null","audio-keyboard-response","348","2.1.0","378303","F=YES, J=NO","dpka4hxq5l","2","68","55","80","","","","","","","","","","","","","","","",""
"288","
          <p id=""word"" style=""font-size: 40px;"">wipe</p>
          <p style=""font-size: 16px;"">F = YES &nbsp;&nbsp;&nbsp; J = NO</p>
        ","j","html-keyboard-response","349","2.1.0","378593","F=YES, J=NO","dpka4hxq5l","2","68","55","80","","","","","","","","","wipe","stain","literal","experimental","f","false","",""
"null","<p style=""font-size: 50px;"">+</p>","null","html-keyboard-response","350","2.1.0","378911","F=YES, J=NO","dpka4hxq5l","2","68","55","80","","","","","","","","","","","","","","","",""
"null","audio/beep-329314.mp3","null","audio-keyboard-response","351","2.1.0","380443","F=YES, J=NO","dpka4hxq5l","2","68","55","80","","","","","","","","","","","","","","","",""
"null","audio/weapon.wav","null","audio-keyboard-response","352","2.1.0","381043","F=YES, J=NO","dpka4hxq5l","2","68","55","80","","","","","","","","","","","","","","","",""
"540","
          <p id=""word"" style=""font-size: 40px;"">carry</p>
          <p style=""font-size: 16px;"">F = YES &nbsp;&nbsp;&nbsp; J = NO</p>
        ","f","html-keyboard-response","353","2.1.0","381584","F=YES, J=NO","dpka4hxq5l","2","68","55","80","","","","","","","","","carry","weapon","literal","experimental","f","true","",""
"null","<p style=""font-size: 50px;"">+</p>","null","html-keyboard-response","354","2.1.0","381901","F=YES, J=NO","dpka4hxq5l","2","68","55","80","","","","","","","","","","","","","","","",""
"null","audio/beep-329314.mp3","null","audio-keyboard-response","355","2.1.0","383443","F=YES, J=NO","dpka4hxq5l","2","68","55","80","","","","","","","","","","","","","","","",""
"null","audio/garden1.wav","null","audio-keyboard-response","356","2.1.0","384003","F=YES, J=NO","dpka4hxq5l","2","68","55","80","","","","","","","","","","","","","","","",""
"407","
          <p id=""word"" style=""font-size: 40px;"">invest</p>
          <p style=""font-size: 16px;"">F = YES &nbsp;&nbsp;&nbsp; J = NO</p>
        ","f","html-keyboard-response","357","2.1.0","384412","F=YES, J=NO","dpka4hxq5l","2","68","55","80","","","","","","","","","invest","garden1","unrelated","experimental","f","true","",""
"null","<p style=""font-size: 50px;"">+</p>","null","html-keyboard-response","358","2.1.0","384721","F=YES, J=NO","dpka4hxq5l","2","68","55","80","","","","","","","","","","","","","","","",""
"null","audio/beep-329314.mp3","null","audio-keyboard-response","359","2.1.0","386244","F=YES, J=NO","dpka4hxq5l","2","68","55","80","","","","","","","","","","","","","","","",""
"null","audio/camp.wav","null","audio-keyboard-response","360","2.1.0","386824","F=YES, J=NO","dpka4hxq5l","2","68","55","80","","","","","","","","","","","","","","","",""
"428","
          <p id=""word"" style=""font-size: 40px;"">touch</p>
          <p style=""font-size: 16px;"">F = YES &nbsp;&nbsp;&nbsp; J = NO</p>
        ","f","html-keyboard-response","361","2.1.0","387253","F=YES, J=NO","dpka4hxq5l","2","68","55","80","","","","","","","","","touch","camp","unrelated","experimental","f","true","",""
"795","<p>Excellent! You have finished block 3 of 8.</p>
                     <p>Feel free to take a 30 second break.</p>
                     <p>Press any key when you're ready to continue.</p>","f","html-keyboard-response","362","2.1.0","388049","F=YES, J=NO","dpka4hxq5l","2","68","55","80","","","","","","","","","","","","","","","",""
"502","<p>Starting main block 4 of 8. Press any key to continue.</p>","f","html-keyboard-response","363","2.1.0","388552","F=YES, J=NO","dpka4hxq5l","2","68","55","80","","","","","","","","","","","","","","","",""
"null","<p style=""font-size: 50px;"">+</p>","null","html-keyboard-response","364","2.1.0","388867","F=YES, J=NO","dpka4hxq5l","2","68","55","80","","","","","","","","","","","","","","","",""
"null","audio/beep-329314.mp3","null","audio-keyboard-response","365","2.1.0","390404","F=YES, J=NO","dpka4hxq5l","2","68","55","80","","","","","","","","","","","","","","","",""
"null","audio/breath.wav","null","audio-keyboard-response","366","2.1.0","391043","F=YES, J=NO","dpka4hxq5l","2","68","55","80","","","","","","","","","","","","","","","",""
"340","
          <p id=""word"" style=""font-size: 40px;"">pack</p>
          <p style=""font-size: 16px;"">F = YES &nbsp;&nbsp;&nbsp; J = NO</p>
        ","f","html-keyboard-response","367","2.1.0","391385","F=YES, J=NO","dpka4hxq5l","2","68","55","80","","","","","","","","","pack","breath","filler","filler","f","true","",""
"null","<p style=""font-size: 50px;"">+</p>","null","html-keyboard-response","368","2.1.0","391701","F=YES, J=NO","dpka4hxq5l","2","68","55","80","","","","","","","","","","","","","","","",""
"null","audio/beep-329314.mp3","null","audio-keyboard-response","369","2.1.0","393224","F=YES, J=NO","dpka4hxq5l","2","68","55","80","","","","","","","","","","","","","","","",""
"null","audio/vehicle1.wav","null","audio-keyboard-response","370","2.1.0","393864","F=YES, J=NO","dpka4hxq5l","2","68","55","80","","","","","","","","","","","","","","","",""
"344","
          <p id=""word"" style=""font-size: 40px;"">dropt</p>
          <p style=""font-size: 16px;"">F = YES &nbsp;&nbsp;&nbsp; J = NO</p>
        ","f","html-keyboard-response","371","2.1.0","394210","F=YES, J=NO","dpka4hxq5l","2","68","55","80","","","","","","","","","dropt","vehicle1","pseudoword","pseudoword","j","false","",""
"null","<p style=""font-size: 50px;"">+</p>","null","html-keyboard-response","372","2.1.0","394521","F=YES, J=NO","dpka4hxq5l","2","68","55","80","","","","","","","","","","","","","","","",""
"null","audio/beep-329314.mp3","null","audio-keyboard-response","373","2.1.0","396044","F=YES, J=NO","dpka4hxq5l","2","68","55","80","","","","","","","","","","","","","","","",""
"null","audio/battle1.wav","null","audio-keyboard-response","374","2.1.0","396583","F=YES, J=NO","dpka4hxq5l","2","68","55","80","","","","","","","","","","","","","","","",""
"289","
          <p id=""word"" style=""font-size: 40px;"">fight</p>
          <p style=""font-size: 16px;"">F = YES &nbsp;&nbsp;&nbsp; J = NO</p>
        ","f","html-keyboard-response","375","2.1.0","396873","F=YES, J=NO","dpka4hxq5l","2","68","55","80","","","","","","","","","fight","battle1","literal","experimental","f","true","",""
"null","<p style=""font-size: 50px;"">+</p>","null","html-keyboard-response","376","2.1.0","397181","F=YES, J=NO","dpka4hxq5l","2","68","55","80","","","","","","","","","","","","","","","",""
"null","audio/beep-329314.mp3","null","audio-keyboard-response","377","2.1.0","398704","F=YES, J=NO","dpka4hxq5l","2","68","55","80","","","","","","","","","","","","","","","",""
"null","audio/theory1.wav","null","audio-keyboard-response","378","2.1.0","399664","F=YES, J=NO","dpka4hxq5l","2","68","55","80","","","","","","","","","","","","","","","",""
"276","
          <p id=""word"" style=""font-size: 40px;"">scolve</p>
          <p style=""font-size: 16px;"">F = YES &nbsp;&nbsp;&nbsp; J = NO</p>
        ","f","html-keyboard-response","379","2.1.0","399941","F=YES, J=NO","dpka4hxq5l","2","68","55","80","","","","","","","","","scolve","theory1","pseudoword","pseudoword","j","false","",""
"null","<p style=""font-size: 50px;"">+</p>","null","html-keyboard-response","380","2.1.0","400260","F=YES, J=NO","dpka4hxq5l","2","68","55","80","","","","","","","","","","","","","","","",""
"null","audio/beep-329314.mp3","null","audio-keyboard-response","381","2.1.0","401784","F=YES, J=NO","dpka4hxq5l","2","68","55","80","","","","","","","","","","","","","","","",""
"null","audio/terrain.wav","null","audio-keyboard-response","382","2.1.0","402444","F=YES, J=NO","dpka4hxq5l","2","68","55","80","","","","","","","","","","","","","","","",""
"455","
          <p id=""word"" style=""font-size: 40px;"">twist</p>
          <p style=""font-size: 16px;"">F = YES &nbsp;&nbsp;&nbsp; J = NO</p>
        ","j","html-keyboard-response","383","2.1.0","402901","F=YES, J=NO","dpka4hxq5l","2","68","55","80","","","","","","","","","twist","terrain","filler","filler","f","false","",""
"null","<p style=""font-size: 50px;"">+</p>","null","html-keyboard-response","384","2.1.0","403221","F=YES, J=NO","dpka4hxq5l","2","68","55","80","","","","","","","","","","","","","","","",""
"null","audio/beep-329314.mp3","null","audio-keyboard-response","385","2.1.0","404744","F=YES, J=NO","dpka4hxq5l","2","68","55","80","","","","","","","","","","","","","","","",""
"null","audio/ego.wav","null","audio-keyboard-response","386","2.1.0","405283","F=YES, J=NO","dpka4hxq5l","2","68","55","80","","","","","","","","","","","","","","","",""
"445","
          <p id=""word"" style=""font-size: 40px;"">feed</p>
          <p style=""font-size: 16px;"">F = YES &nbsp;&nbsp;&nbsp; J = NO</p>
        ","j","html-keyboard-response","387","2.1.0","405729","F=YES, J=NO","dpka4hxq5l","2","68","55","80","","","","","","","","","feed","ego","metaphor","experimental","f","false","",""
"null","<p style=""font-size: 50px;"">+</p>","null","html-keyboard-response","388","2.1.0","406041","F=YES, J=NO","dpka4hxq5l","2","68","55","80","","","","","","","","","","","","","","","",""
"null","audio/beep-329314.mp3","null","audio-keyboard-response","389","2.1.0","407564","F=YES, J=NO","dpka4hxq5l","2","68","55","80","","","","","","","","","","","","","","","",""
"null","audio/stain.wav","null","audio-keyboard-response","390","2.1.0","408203","F=YES, J=NO","dpka4hxq5l","2","68","55","80","","","","","","","","","","","","","","","",""
"677","
          <p id=""word"" style=""font-size: 40px;"">rumpsied</p>
          <p style=""font-size: 16px;"">F = YES &nbsp;&nbsp;&nbsp; J = NO</p>
        ","j","html-keyboard-response","391","2.1.0","408881","F=YES, J=NO","dpka4hxq5l","2","68","55","80","","","","","","","","","rumpsied","stain","pseudoword","pseudoword","j","true","",""
