"rt","stimulus","response","trial_type","trial_index","plugin_version","time_elapsed","response_mapping","subject_id","list_index","lextale_score","lextale_word_score","lextale_nonword_score","success","timeout","failed_images","failed_audio","failed_video","task","isWord","isDummy","target","prime","prime_type","stimulus_type","correct_response","correct","section","question_order"
"17495","
    <div style=""max-width: 800px; margin: auto; text-align: left;"">
      <h2>STANFORD UNIVERSITY</h2>
      <h3>Research Information Sheet</h3>
      <p><strong>Protocol Director:</strong> Robert Hawkins<br>
      <strong>Protocol Title:</strong> Communication and social cognition in natural audiovisual contexts<br>
      <strong>IRB#:</strong> 77226</p>

      <p><strong>DESCRIPTION:</strong> You are invited to participate in a research study about language and communication. The purpose of the research is to understand how you interact and communicate with other people in naturalistic settings as a fluent English speaker. This research will be conducted through the Prolific platform, including participants from the US, UK, and Canada. If you decide to participate in this research, you will play a communication game in a group with one or more partners.</p>

      <p><strong>TIME INVOLVEMENT:</strong> The task will last the amount of time advertised on Prolific. You are free to withdraw from the study at any time.</p>

      <p><strong>RISKS AND BENEFITS:</strong> You may become frustrated if your partner gets distracted, or experience discomfort if other participants in your group send text that is inappropriate for the task. We ask you to please be respectful of other participants you might be interacting with to mitigate these risks. You may also experience discomfort when being asked to discuss or challenge emotionally salient political beliefs. Study data will be stored securely, in compliance with Stanford University standards, minimizing the risk of confidentiality breach. This study advances our scientific understanding of how people communicate and collaborate in naturalistic settings. This study may lead to further insights about what can go wrong in teamwork, suggest potential interventions to overcome these barriers, and help to develop assistive technologies that collaborate with human partners. We cannot and do not guarantee or promise that you will receive any benefits from this study.</p>

      <p><strong>PAYMENTS:</strong> You will receive payment in the amount advertised on Prolific. If you do not complete this study, you will receive prorated payment based on the time that you have spent. Additionally, you may be eligible for bonus payments as described in the instructions.</p>

      <p><strong>PARTICIPANT’S RIGHTS:</strong> If you have read this form and have decided to participate in this project, please understand your participation is voluntary and you have the right to withdraw your consent or discontinue participation at any time without penalty or loss of benefits to which you are otherwise entitled. The alternative is not to participate. You have the right to refuse to answer particular questions. The results of this research study may be presented at scientific or professional meetings or published in scientific journals. Your individual privacy will be maintained in all published and written data resulting from the study. In accordance with scientific norms, the data from this study may be used or shared with other researchers for future research (after removing personally identifying information) without additional consent from you.</p>

      <p><strong>CONTACT INFORMATION:</strong><br>
      Questions: If you have any questions, concerns or complaints about this research, its procedures, risks and benefits, contact the Protocol Director, Robert Hawkins (<a href=""mailto:rdhawkins@stanford.edu"">rdhawkins@stanford.edu</a>, 217-549-6923).<br>
      Independent Contact: If you are not satisfied with how this study is being conducted, or if you have any concerns, complaints, or general questions about the research or your rights as a participant, please contact the Stanford Institutional Review Board (IRB) to speak to someone independent of the research team at 650-723-2480 or toll free at 1-866-680-2906, or email at <a href=""mailto:irbnon-med@stanford.edu"">irbnon-med@stanford.edu</a>. You can also write to the Stanford IRB, Stanford University, 1705 El Camino Real, Palo Alto, CA 94306.</p>

      <p><strong>Please save or print a copy of this page for your records.</strong></p>
      <p>If you agree to participate in this research, click ""Continue"" below.</p>
    </div>
  ","0","html-button-response","0","2.1.0","17504","J=YES, F=NO","dqto8cv093","2","66","63","70","","","","","","","","","","","","","","","",""
"26238","
    <div style=""max-width: 800px; margin: auto; text-align: left;"">
      <h2>Welcome!</h2>
      <p>Thank you for participating in this study. The experiment consists of three parts:</p>
      <ol>
        <li>An English vocabulary test</li>
        <li>A main task in which you will hear and see words, and decide whether the written word is a real English word</li>
        <li>A brief survey about your background</li>
      </ol>
      <p>Each part will be introduced before it begins.</p>
      <p>Please make sure you are in a quiet environment and can hear audio clearly for the final task.</p>
      <p style=""margin-top: 2em;"">Press any key to begin.</p>
    </div>
  "," ","html-keyboard-response","1","2.1.0","43745","J=YES, F=NO","dqto8cv093","2","66","63","70","","","","","","","","","","","","","","","",""
"","","","preload","2","2.1.0","44701","J=YES, F=NO","dqto8cv093","2","66","63","70","true","false","[]","[]","[]","","","","","","","","","","",""
"8627","
    <div style=""max-width: 800px; margin: auto; text-align: left;"">
      <h2>Part 1: Vocabulary Test</h2>
      <p>You will now complete the first part of the study: a short English vocabulary test.</p>
      <p>This test is called <strong>LexTALE</strong> and helps us get a general sense of your English proficiency.</p>
      <p style=""margin-top: 2em;"">Press any key to continue.</p>
    </div>
  "," ","html-keyboard-response","3","2.1.0","53329","J=YES, F=NO","dqto8cv093","2","66","63","70","","","","","","","","","","","","","","","",""
"29456","
    <div style=""max-width: 800px; margin: auto; text-align: left;"">
      <h2>LexTALE Vocabulary Test</h2>
      <p>In this test, you will see a series of letter strings—one at a time.</p>
      <p>Your task is to decide whether each string is a real English word.</p>
      <p><strong>Key responses:</strong></p>
      <ul>
        <li><strong>J</strong> = YES (real English word)</li>
        <li><strong>F</strong> = NO (not a real English word)</li>
      </ul>
      <p>There is no time limit, but please try to be accurate.</p>
      <p style=""margin-top: 2em;"">Press any key to begin.</p>
    </div>
  "," ","html-keyboard-response","4","2.1.0","82787","J=YES, F=NO","dqto8cv093","2","66","63","70","","","","","","","","","","","","","","","",""
"1387","
  <p style=""font-size: 40px;"">platery</p>
  <p style=""font-size: 16px;"">J = YES &nbsp;&nbsp;&nbsp; F = NO</p>
","j","html-keyboard-response","5","2.1.0","84179","J=YES, F=NO","dqto8cv093","2","66","63","70","","","","","","lextale","false","true","","","","","","","",""
"1132","
  <p style=""font-size: 40px;"">denial</p>
  <p style=""font-size: 16px;"">J = YES &nbsp;&nbsp;&nbsp; F = NO</p>
","j","html-keyboard-response","6","2.1.0","85314","J=YES, F=NO","dqto8cv093","2","66","63","70","","","","","","lextale","true","true","","","","","","","",""
"1868","
  <p style=""font-size: 40px;"">marrit</p>
  <p style=""font-size: 16px;"">J = YES &nbsp;&nbsp;&nbsp; F = NO</p>
","j","html-keyboard-response","7","2.1.0","87186","J=YES, F=NO","dqto8cv093","2","66","63","70","","","","","","lextale","false","true","","","","","","","",""
"1000","
  <p style=""font-size: 40px;"">bottle</p>
  <p style=""font-size: 16px;"">J = YES &nbsp;&nbsp;&nbsp; F = NO</p>
","j","html-keyboard-response","8","2.1.0","88190","J=YES, F=NO","dqto8cv093","2","66","63","70","","","","","","lextale","true","false","","","","","","","",""
"1628","
  <p style=""font-size: 40px;"">birst</p>
  <p style=""font-size: 16px;"">J = YES &nbsp;&nbsp;&nbsp; F = NO</p>
","f","html-keyboard-response","9","2.1.0","89822","J=YES, F=NO","dqto8cv093","2","66","63","70","","","","","","lextale","false","false","","","","","","","",""
"2035","
  <p style=""font-size: 40px;"">envy</p>
  <p style=""font-size: 16px;"">J = YES &nbsp;&nbsp;&nbsp; F = NO</p>
","f","html-keyboard-response","10","2.1.0","91858","J=YES, F=NO","dqto8cv093","2","66","63","70","","","","","","lextale","true","false","","","","","","","",""
"1048","
  <p style=""font-size: 40px;"">brang</p>
  <p style=""font-size: 16px;"">J = YES &nbsp;&nbsp;&nbsp; F = NO</p>
","f","html-keyboard-response","11","2.1.0","92908","J=YES, F=NO","dqto8cv093","2","66","63","70","","","","","","lextale","false","false","","","","","","","",""
"929","
  <p style=""font-size: 40px;"">huge</p>
  <p style=""font-size: 16px;"">J = YES &nbsp;&nbsp;&nbsp; F = NO</p>
","j","html-keyboard-response","12","2.1.0","93838","J=YES, F=NO","dqto8cv093","2","66","63","70","","","","","","lextale","true","false","","","","","","","",""
"1025","
  <p style=""font-size: 40px;"">plove</p>
  <p style=""font-size: 16px;"">J = YES &nbsp;&nbsp;&nbsp; F = NO</p>
","f","html-keyboard-response","13","2.1.0","94864","J=YES, F=NO","dqto8cv093","2","66","63","70","","","","","","lextale","false","false","","","","","","","",""
"805","
  <p style=""font-size: 40px;"">border</p>
  <p style=""font-size: 16px;"">J = YES &nbsp;&nbsp;&nbsp; F = NO</p>
","j","html-keyboard-response","14","2.1.0","95670","J=YES, F=NO","dqto8cv093","2","66","63","70","","","","","","lextale","true","false","","","","","","","",""
"1516","
  <p style=""font-size: 40px;"">flimsy</p>
  <p style=""font-size: 16px;"">J = YES &nbsp;&nbsp;&nbsp; F = NO</p>
","f","html-keyboard-response","15","2.1.0","97187","J=YES, F=NO","dqto8cv093","2","66","63","70","","","","","","lextale","true","false","","","","","","","",""
"1072","
  <p style=""font-size: 40px;"">drain</p>
  <p style=""font-size: 16px;"">J = YES &nbsp;&nbsp;&nbsp; F = NO</p>
","j","html-keyboard-response","16","2.1.0","98260","J=YES, F=NO","dqto8cv093","2","66","63","70","","","","","","lextale","true","false","","","","","","","",""
"1305","
  <p style=""font-size: 40px;"">twindle</p>
  <p style=""font-size: 16px;"">J = YES &nbsp;&nbsp;&nbsp; F = NO</p>
","j","html-keyboard-response","17","2.1.0","99566","J=YES, F=NO","dqto8cv093","2","66","63","70","","","","","","lextale","false","false","","","","","","","",""
"809","
  <p style=""font-size: 40px;"">propose</p>
  <p style=""font-size: 16px;"">J = YES &nbsp;&nbsp;&nbsp; F = NO</p>
","j","html-keyboard-response","18","2.1.0","100375","J=YES, F=NO","dqto8cv093","2","66","63","70","","","","","","lextale","true","false","","","","","","","",""
"952","
  <p style=""font-size: 40px;"">forlay</p>
  <p style=""font-size: 16px;"">J = YES &nbsp;&nbsp;&nbsp; F = NO</p>
","f","html-keyboard-response","19","2.1.0","101329","J=YES, F=NO","dqto8cv093","2","66","63","70","","","","","","lextale","false","false","","","","","","","",""
"2162","
  <p style=""font-size: 40px;"">tenant</p>
  <p style=""font-size: 16px;"">J = YES &nbsp;&nbsp;&nbsp; F = NO</p>
","j","html-keyboard-response","20","2.1.0","103491","J=YES, F=NO","dqto8cv093","2","66","63","70","","","","","","lextale","true","false","","","","","","","",""
"1025","
  <p style=""font-size: 40px;"">strain</p>
  <p style=""font-size: 16px;"">J = YES &nbsp;&nbsp;&nbsp; F = NO</p>
","j","html-keyboard-response","21","2.1.0","104517","J=YES, F=NO","dqto8cv093","2","66","63","70","","","","","","lextale","true","false","","","","","","","",""
"2220","
  <p style=""font-size: 40px;"">holster</p>
  <p style=""font-size: 16px;"">J = YES &nbsp;&nbsp;&nbsp; F = NO</p>
","f","html-keyboard-response","22","2.1.0","106738","J=YES, F=NO","dqto8cv093","2","66","63","70","","","","","","lextale","true","false","","","","","","","",""
"946","
  <p style=""font-size: 40px;"">hinder</p>
  <p style=""font-size: 16px;"">J = YES &nbsp;&nbsp;&nbsp; F = NO</p>
","f","html-keyboard-response","23","2.1.0","107685","J=YES, F=NO","dqto8cv093","2","66","63","70","","","","","","lextale","true","false","","","","","","","",""
"1060","
  <p style=""font-size: 40px;"">swindle</p>
  <p style=""font-size: 16px;"">J = YES &nbsp;&nbsp;&nbsp; F = NO</p>
","f","html-keyboard-response","24","2.1.0","108745","J=YES, F=NO","dqto8cv093","2","66","63","70","","","","","","lextale","true","false","","","","","","","",""
"1727","
  <p style=""font-size: 40px;"">nuder</p>
  <p style=""font-size: 16px;"">J = YES &nbsp;&nbsp;&nbsp; F = NO</p>
","f","html-keyboard-response","25","2.1.0","110473","J=YES, F=NO","dqto8cv093","2","66","63","70","","","","","","lextale","false","false","","","","","","","",""
"919","
  <p style=""font-size: 40px;"">pillow</p>
  <p style=""font-size: 16px;"">J = YES &nbsp;&nbsp;&nbsp; F = NO</p>
","j","html-keyboard-response","26","2.1.0","111393","J=YES, F=NO","dqto8cv093","2","66","63","70","","","","","","lextale","true","false","","","","","","","",""
"2406","
  <p style=""font-size: 40px;"">shumble</p>
  <p style=""font-size: 16px;"">J = YES &nbsp;&nbsp;&nbsp; F = NO</p>
","f","html-keyboard-response","27","2.1.0","113800","J=YES, F=NO","dqto8cv093","2","66","63","70","","","","","","lextale","false","false","","","","","","","",""
"838","
  <p style=""font-size: 40px;"">thirst</p>
  <p style=""font-size: 16px;"">J = YES &nbsp;&nbsp;&nbsp; F = NO</p>
","j","html-keyboard-response","28","2.1.0","114638","J=YES, F=NO","dqto8cv093","2","66","63","70","","","","","","lextale","true","false","","","","","","","",""
"1346","
  <p style=""font-size: 40px;"">unsail</p>
  <p style=""font-size: 16px;"">J = YES &nbsp;&nbsp;&nbsp; F = NO</p>
","j","html-keyboard-response","29","2.1.0","115985","J=YES, F=NO","dqto8cv093","2","66","63","70","","","","","","lextale","false","false","","","","","","","",""
"924","
  <p style=""font-size: 40px;"">rifle</p>
  <p style=""font-size: 16px;"">J = YES &nbsp;&nbsp;&nbsp; F = NO</p>
","f","html-keyboard-response","30","2.1.0","116909","J=YES, F=NO","dqto8cv093","2","66","63","70","","","","","","lextale","true","false","","","","","","","",""
"803","
  <p style=""font-size: 40px;"">mush</p>
  <p style=""font-size: 16px;"">J = YES &nbsp;&nbsp;&nbsp; F = NO</p>
","j","html-keyboard-response","31","2.1.0","117713","J=YES, F=NO","dqto8cv093","2","66","63","70","","","","","","lextale","false","false","","","","","","","",""
"792","
  <p style=""font-size: 40px;"">drench</p>
  <p style=""font-size: 16px;"">J = YES &nbsp;&nbsp;&nbsp; F = NO</p>
","f","html-keyboard-response","32","2.1.0","118506","J=YES, F=NO","dqto8cv093","2","66","63","70","","","","","","lextale","true","false","","","","","","","",""
"912","
  <p style=""font-size: 40px;"">snirt</p>
  <p style=""font-size: 16px;"">J = YES &nbsp;&nbsp;&nbsp; F = NO</p>
","f","html-keyboard-response","33","2.1.0","119419","J=YES, F=NO","dqto8cv093","2","66","63","70","","","","","","lextale","false","false","","","","","","","",""
"981","
  <p style=""font-size: 40px;"">bitter</p>
  <p style=""font-size: 16px;"">J = YES &nbsp;&nbsp;&nbsp; F = NO</p>
","j","html-keyboard-response","34","2.1.0","120401","J=YES, F=NO","dqto8cv093","2","66","63","70","","","","","","lextale","true","false","","","","","","","",""
"1277","
  <p style=""font-size: 40px;"">pliff</p>
  <p style=""font-size: 16px;"">J = YES &nbsp;&nbsp;&nbsp; F = NO</p>
","f","html-keyboard-response","35","2.1.0","121678","J=YES, F=NO","dqto8cv093","2","66","63","70","","","","","","lextale","false","false","","","","","","","",""
"775","
  <p style=""font-size: 40px;"">tablet</p>
  <p style=""font-size: 16px;"">J = YES &nbsp;&nbsp;&nbsp; F = NO</p>
","j","html-keyboard-response","36","2.1.0","122455","J=YES, F=NO","dqto8cv093","2","66","63","70","","","","","","lextale","true","false","","","","","","","",""
"849","
  <p style=""font-size: 40px;"">glimmer</p>
  <p style=""font-size: 16px;"">J = YES &nbsp;&nbsp;&nbsp; F = NO</p>
","j","html-keyboard-response","37","2.1.0","123305","J=YES, F=NO","dqto8cv093","2","66","63","70","","","","","","lextale","true","false","","","","","","","",""
"8899","
  <p style=""font-size: 40px;"">slink</p>
  <p style=""font-size: 16px;"">J = YES &nbsp;&nbsp;&nbsp; F = NO</p>
","j","html-keyboard-response","38","2.1.0","132204","J=YES, F=NO","dqto8cv093","2","66","63","70","","","","","","lextale","true","false","","","","","","","",""
"776","
  <p style=""font-size: 40px;"">clever</p>
  <p style=""font-size: 16px;"">J = YES &nbsp;&nbsp;&nbsp; F = NO</p>
","j","html-keyboard-response","39","2.1.0","132980","J=YES, F=NO","dqto8cv093","2","66","63","70","","","","","","lextale","true","false","","","","","","","",""
"815","
  <p style=""font-size: 40px;"">grum</p>
  <p style=""font-size: 16px;"">J = YES &nbsp;&nbsp;&nbsp; F = NO</p>
","f","html-keyboard-response","40","2.1.0","133796","J=YES, F=NO","dqto8cv093","2","66","63","70","","","","","","lextale","false","false","","","","","","","",""
"786","
  <p style=""font-size: 40px;"">string</p>
  <p style=""font-size: 16px;"">J = YES &nbsp;&nbsp;&nbsp; F = NO</p>
","j","html-keyboard-response","41","2.1.0","134583","J=YES, F=NO","dqto8cv093","2","66","63","70","","","","","","lextale","true","false","","","","","","","",""
"1324","
  <p style=""font-size: 40px;"">plim</p>
  <p style=""font-size: 16px;"">J = YES &nbsp;&nbsp;&nbsp; F = NO</p>
","f","html-keyboard-response","42","2.1.0","135907","J=YES, F=NO","dqto8cv093","2","66","63","70","","","","","","lextale","false","false","","","","","","","",""
"814","
  <p style=""font-size: 40px;"">cable</p>
  <p style=""font-size: 16px;"">J = YES &nbsp;&nbsp;&nbsp; F = NO</p>
","j","html-keyboard-response","43","2.1.0","136722","J=YES, F=NO","dqto8cv093","2","66","63","70","","","","","","lextale","true","false","","","","","","","",""
"8569","
  <p style=""font-size: 40px;"">shrivel</p>
  <p style=""font-size: 16px;"">J = YES &nbsp;&nbsp;&nbsp; F = NO</p>
","j","html-keyboard-response","44","2.1.0","145292","J=YES, F=NO","dqto8cv093","2","66","63","70","","","","","","lextale","true","false","","","","","","","",""
"1289","
  <p style=""font-size: 40px;"">tarnish</p>
  <p style=""font-size: 16px;"">J = YES &nbsp;&nbsp;&nbsp; F = NO</p>
","j","html-keyboard-response","45","2.1.0","146581","J=YES, F=NO","dqto8cv093","2","66","63","70","","","","","","lextale","true","false","","","","","","","",""
"769","
  <p style=""font-size: 40px;"">blim</p>
  <p style=""font-size: 16px;"">J = YES &nbsp;&nbsp;&nbsp; F = NO</p>
","f","html-keyboard-response","46","2.1.0","147351","J=YES, F=NO","dqto8cv093","2","66","63","70","","","","","","lextale","false","false","","","","","","","",""
"826","
  <p style=""font-size: 40px;"">stifle</p>
  <p style=""font-size: 16px;"">J = YES &nbsp;&nbsp;&nbsp; F = NO</p>
","f","html-keyboard-response","47","2.1.0","148178","J=YES, F=NO","dqto8cv093","2","66","63","70","","","","","","lextale","true","false","","","","","","","",""
"1329","
  <p style=""font-size: 40px;"">bint</p>
  <p style=""font-size: 16px;"">J = YES &nbsp;&nbsp;&nbsp; F = NO</p>
","f","html-keyboard-response","48","2.1.0","149507","J=YES, F=NO","dqto8cv093","2","66","63","70","","","","","","lextale","false","false","","","","","","","",""
"678","
  <p style=""font-size: 40px;"">purple</p>
  <p style=""font-size: 16px;"">J = YES &nbsp;&nbsp;&nbsp; F = NO</p>
","j","html-keyboard-response","49","2.1.0","150187","J=YES, F=NO","dqto8cv093","2","66","63","70","","","","","","lextale","true","false","","","","","","","",""
"1106","
  <p style=""font-size: 40px;"">wriggle</p>
  <p style=""font-size: 16px;"">J = YES &nbsp;&nbsp;&nbsp; F = NO</p>
","j","html-keyboard-response","50","2.1.0","151294","J=YES, F=NO","dqto8cv093","2","66","63","70","","","","","","lextale","true","false","","","","","","","",""
"8631","
  <p style=""font-size: 40px;"">mangle</p>
  <p style=""font-size: 16px;"">J = YES &nbsp;&nbsp;&nbsp; F = NO</p>
","f","html-keyboard-response","51","2.1.0","159926","J=YES, F=NO","dqto8cv093","2","66","63","70","","","","","","lextale","true","false","","","","","","","",""
"5795","
  <p style=""font-size: 40px;"">shramp</p>
  <p style=""font-size: 16px;"">J = YES &nbsp;&nbsp;&nbsp; F = NO</p>
","j","html-keyboard-response","52","2.1.0","165721","J=YES, F=NO","dqto8cv093","2","66","63","70","","","","","","lextale","false","false","","","","","","","",""
"873","
  <p style=""font-size: 40px;"">flirt</p>
  <p style=""font-size: 16px;"">J = YES &nbsp;&nbsp;&nbsp; F = NO</p>
","j","html-keyboard-response","53","2.1.0","166595","J=YES, F=NO","dqto8cv093","2","66","63","70","","","","","","lextale","true","false","","","","","","","",""
"5744","
  <p style=""font-size: 40px;"">frip</p>
  <p style=""font-size: 16px;"">J = YES &nbsp;&nbsp;&nbsp; F = NO</p>
","f","html-keyboard-response","54","2.1.0","172340","J=YES, F=NO","dqto8cv093","2","66","63","70","","","","","","lextale","false","false","","","","","","","",""
"1640","
  <p style=""font-size: 40px;"">tangle</p>
  <p style=""font-size: 16px;"">J = YES &nbsp;&nbsp;&nbsp; F = NO</p>
","j","html-keyboard-response","55","2.1.0","173981","J=YES, F=NO","dqto8cv093","2","66","63","70","","","","","","lextale","true","false","","","","","","","",""
"798","
  <p style=""font-size: 40px;"">crumble</p>
  <p style=""font-size: 16px;"">J = YES &nbsp;&nbsp;&nbsp; F = NO</p>
","j","html-keyboard-response","56","2.1.0","174781","J=YES, F=NO","dqto8cv093","2","66","63","70","","","","","","lextale","true","false","","","","","","","",""
"764","
  <p style=""font-size: 40px;"">wrinkle</p>
  <p style=""font-size: 16px;"">J = YES &nbsp;&nbsp;&nbsp; F = NO</p>
","j","html-keyboard-response","57","2.1.0","175545","J=YES, F=NO","dqto8cv093","2","66","63","70","","","","","","lextale","true","false","","","","","","","",""
"5162","
  <p style=""font-size: 40px;"">slumb</p>
  <p style=""font-size: 16px;"">J = YES &nbsp;&nbsp;&nbsp; F = NO</p>
","j","html-keyboard-response","58","2.1.0","180708","J=YES, F=NO","dqto8cv093","2","66","63","70","","","","","","lextale","false","false","","","","","","","",""
"821","
  <p style=""font-size: 40px;"">jungle</p>
  <p style=""font-size: 16px;"">J = YES &nbsp;&nbsp;&nbsp; F = NO</p>
","j","html-keyboard-response","59","2.1.0","181530","J=YES, F=NO","dqto8cv093","2","66","63","70","","","","","","lextale","true","false","","","","","","","",""
"1648","
  <p style=""font-size: 40px;"">frolick</p>
  <p style=""font-size: 16px;"">J = YES &nbsp;&nbsp;&nbsp; F = NO</p>
","f","html-keyboard-response","60","2.1.0","183178","J=YES, F=NO","dqto8cv093","2","66","63","70","","","","","","lextale","false","false","","","","","","","",""
"3336","
      <h2>LexTALE Test Completed</h2>
      <p>Your LexTALE vocabulary score is: <strong>66%</strong></p>
      <p>Press any key to continue.</p>
    "," ","html-keyboard-response","61","2.1.0","186515","J=YES, F=NO","dqto8cv093","2","66","63","70","","","","","","","","","","","","","","","",""
"33293","
    <div style=""max-width: 800px; margin: auto; text-align: left;"">
      <h2>Break Time</h2>
      <p>You have completed the first part of the study.</p>
      <p>You may take a short <strong>30-second break</strong> before continuing.</p>
      <p>When you’re ready, press any key to continue to the final task.</p>
    </div>
  "," ","html-keyboard-response","62","2.1.0","219809","J=YES, F=NO","dqto8cv093","2","66","63","70","","","","","","","","","","","","","","","",""
"19801","
    <div style=""max-width: 800px; margin: auto; text-align: left;"">
      <h2>Part 2: Lexical Decision Task</h2>
      <p>You will now begin the second part of the study.</p>
      <p>Each trial will follow this sequence:</p>
      <ul>
        <li>A fixation cross (+) appears at the center of the screen.</li>
        <li>You will hear a short beep followed by a spoken word.</li>
        <li>A written word will appear briefly on the screen.</li>
      </ul>
      <p>Your task is to judge whether the <strong>written word</strong> is a real English word.</p>
      <p style=""margin-top: 1em;""><strong>Key responses:</strong></p>
      <ul>
        <li><strong>J</strong> = YES (real English word)</li>
        <li><strong>F</strong> = NO (not a real English word)</li>
      </ul>
      <p>Please respond as quickly and accurately as you can.</p>
      <p style=""margin-top: 2em;"">Press any key to continue.</p>
    </div>
  "," ","html-keyboard-response","63","2.1.0","239612","J=YES, F=NO","dqto8cv093","2","66","63","70","","","","","","","","","","","","","","","",""
"16143","
    <div style=""max-width: 800px; margin: auto; text-align: left;"">
      <h2>Before You Begin</h2>
      <p>Make sure your sound is turned on.</p>
      <p>You will hear audio during each trial, but your decision should be based only on the <strong>written word</strong> you see on the screen.</p>
      <p><strong>Reminder:</strong></p>
      <ul>
        <li><strong>J</strong> = YES (real English word)</li>
        <li><strong>F</strong> = NO (not a real English word)</li>
      </ul>
      <p style=""margin-top: 2em;"">Press any key when you are ready to begin.</p>
    </div>
  "," ","html-keyboard-response","64","2.1.0","255757","J=YES, F=NO","dqto8cv093","2","66","63","70","","","","","","","","","","","","","","","",""
"4739","
    <div style=""max-width: 800px; margin: auto; text-align: left;"">
      <h2>Part 2: Practice Trials</h2>
      <p>You will now complete a few <strong>practice trials</strong> to get familiar with the task.</p>
      <p>These trials are <strong>not scored</strong> and are only to help you get used to the format.</p>
      <p style=""margin-top: 2em;"">Press any key to begin.</p>
    </div>
  "," ","html-keyboard-response","65","2.1.0","260497","J=YES, F=NO","dqto8cv093","2","66","63","70","","","","","","","","","","","","","","","",""
"5179","<p>Starting practice block 1 of 2. Press any key to continue.</p>"," ","html-keyboard-response","66","2.1.0","265678","J=YES, F=NO","dqto8cv093","2","66","63","70","","","","","","","","","","","","","","","",""
"null","<p style=""font-size: 50px;"">+</p>","null","html-keyboard-response","67","2.1.0","265990","J=YES, F=NO","dqto8cv093","2","66","63","70","","","","","","","","","","","","","","","",""
"null","audio/beep-329314.mp3","null","audio-keyboard-response","68","2.1.0","267544","J=YES, F=NO","dqto8cv093","2","66","63","70","","","","","","","","","","","","","","","",""
"null","audio/ego.wav","null","audio-keyboard-response","69","2.1.0","268124","J=YES, F=NO","dqto8cv093","2","66","63","70","","","","","","","","","","","","","","","",""
"null","
          <p id=""word"" style=""font-size: 40px;"">bruite</p>
          <p style=""font-size: 16px;"">J = YES &nbsp;&nbsp;&nbsp; F = NO</p>
        ","null","html-keyboard-response","70","2.1.0","269638","J=YES, F=NO","dqto8cv093","2","66","63","70","","","","","","","","","bruite","ego","pseudoword","pseudoword","f","false","",""
"null","<p style=""font-size: 50px;"">+</p>","null","html-keyboard-response","71","2.1.0","269954","J=YES, F=NO","dqto8cv093","2","66","63","70","","","","","","","","","","","","","","","",""
"null","audio/beep-329314.mp3","null","audio-keyboard-response","72","2.1.0","271484","J=YES, F=NO","dqto8cv093","2","66","63","70","","","","","","","","","","","","","","","",""
"null","audio/cave1.wav","null","audio-keyboard-response","73","2.1.0","272084","J=YES, F=NO","dqto8cv093","2","66","63","70","","","","","","","","","","","","","","","",""
"1470","
          <p id=""word"" style=""font-size: 40px;"">blacket</p>
          <p style=""font-size: 16px;"">J = YES &nbsp;&nbsp;&nbsp; F = NO</p>
        ","f","html-keyboard-response","74","2.1.0","273555","J=YES, F=NO","dqto8cv093","2","66","63","70","","","","","","","","","blacket","cave1","pseudoword","pseudoword","f","true","",""
"null","<p style=""font-size: 50px;"">+</p>","null","html-keyboard-response","75","2.1.0","273856","J=YES, F=NO","dqto8cv093","2","66","63","70","","","","","","","","","","","","","","","",""
"null","audio/beep-329314.mp3","null","audio-keyboard-response","76","2.1.0","275384","J=YES, F=NO","dqto8cv093","2","66","63","70","","","","","","","","","","","","","","","",""
"null","audio/baby.wav","null","audio-keyboard-response","77","2.1.0","275904","J=YES, F=NO","dqto8cv093","2","66","63","70","","","","","","","","","","","","","","","",""
"605","
          <p id=""word"" style=""font-size: 40px;"">lift</p>
          <p style=""font-size: 16px;"">J = YES &nbsp;&nbsp;&nbsp; F = NO</p>
        ","j","html-keyboard-response","78","2.1.0","276510","J=YES, F=NO","dqto8cv093","2","66","63","70","","","","","","","","","lift","baby","filler","filler","j","true","",""
"null","<p style=""font-size: 50px;"">+</p>","null","html-keyboard-response","79","2.1.0","276817","J=YES, F=NO","dqto8cv093","2","66","63","70","","","","","","","","","","","","","","","",""
"null","audio/beep-329314.mp3","null","audio-keyboard-response","80","2.1.0","278344","J=YES, F=NO","dqto8cv093","2","66","63","70","","","","","","","","","","","","","","","",""
"null","audio/cash1.wav","null","audio-keyboard-response","81","2.1.0","278964","J=YES, F=NO","dqto8cv093","2","66","63","70","","","","","","","","","","","","","","","",""
"774","
          <p id=""word"" style=""font-size: 40px;"">splear</p>
          <p style=""font-size: 16px;"">J = YES &nbsp;&nbsp;&nbsp; F = NO</p>
        ","f","html-keyboard-response","82","2.1.0","279739","J=YES, F=NO","dqto8cv093","2","66","63","70","","","","","","","","","splear","cash1","pseudoword","pseudoword","f","true","",""
"null","<p style=""font-size: 50px;"">+</p>","null","html-keyboard-response","83","2.1.0","280041","J=YES, F=NO","dqto8cv093","2","66","63","70","","","","","","","","","","","","","","","",""
"null","audio/beep-329314.mp3","null","audio-keyboard-response","84","2.1.0","281564","J=YES, F=NO","dqto8cv093","2","66","63","70","","","","","","","","","","","","","","","",""
"null","audio/window1.wav","null","audio-keyboard-response","85","2.1.0","282224","J=YES, F=NO","dqto8cv093","2","66","63","70","","","","","","","","","","","","","","","",""
"794","
          <p id=""word"" style=""font-size: 40px;"">toss</p>
          <p style=""font-size: 16px;"">J = YES &nbsp;&nbsp;&nbsp; F = NO</p>
        ","f","html-keyboard-response","86","2.1.0","283019","J=YES, F=NO","dqto8cv093","2","66","63","70","","","","","","","","","toss","window1","filler","filler","j","false","",""
"null","<p style=""font-size: 50px;"">+</p>","null","html-keyboard-response","87","2.1.0","283321","J=YES, F=NO","dqto8cv093","2","66","63","70","","","","","","","","","","","","","","","",""
"null","audio/beep-329314.mp3","null","audio-keyboard-response","88","2.1.0","284844","J=YES, F=NO","dqto8cv093","2","66","63","70","","","","","","","","","","","","","","","",""
"null","audio/radio1.wav","null","audio-keyboard-response","89","2.1.0","285584","J=YES, F=NO","dqto8cv093","2","66","63","70","","","","","","","","","","","","","","","",""
"726","
          <p id=""word"" style=""font-size: 40px;"">blanter</p>
          <p style=""font-size: 16px;"">J = YES &nbsp;&nbsp;&nbsp; F = NO</p>
        ","j","html-keyboard-response","90","2.1.0","286311","J=YES, F=NO","dqto8cv093","2","66","63","70","","","","","","","","","blanter","radio1","pseudoword","pseudoword","f","false","",""
"null","<p style=""font-size: 50px;"">+</p>","null","html-keyboard-response","91","2.1.0","286620","J=YES, F=NO","dqto8cv093","2","66","63","70","","","","","","","","","","","","","","","",""
"null","audio/beep-329314.mp3","null","audio-keyboard-response","92","2.1.0","288144","J=YES, F=NO","dqto8cv093","2","66","63","70","","","","","","","","","","","","","","","",""
"null","audio/pig.wav","null","audio-keyboard-response","93","2.1.0","288584","J=YES, F=NO","dqto8cv093","2","66","63","70","","","","","","","","","","","","","","","",""
"790","
          <p id=""word"" style=""font-size: 40px;"">tirlike</p>
          <p style=""font-size: 16px;"">J = YES &nbsp;&nbsp;&nbsp; F = NO</p>
        ","j","html-keyboard-response","94","2.1.0","289375","J=YES, F=NO","dqto8cv093","2","66","63","70","","","","","","","","","tirlike","pig","pseudoword","pseudoword","f","false","",""
"null","<p style=""font-size: 50px;"">+</p>","null","html-keyboard-response","95","2.1.0","289684","J=YES, F=NO","dqto8cv093","2","66","63","70","","","","","","","","","","","","","","","",""
"null","audio/beep-329314.mp3","null","audio-keyboard-response","96","2.1.0","291224","J=YES, F=NO","dqto8cv093","2","66","63","70","","","","","","","","","","","","","","","",""
"null","audio/birth1.wav","null","audio-keyboard-response","97","2.1.0","291824","J=YES, F=NO","dqto8cv093","2","66","63","70","","","","","","","","","","","","","","","",""
"584","
          <p id=""word"" style=""font-size: 40px;"">peel</p>
          <p style=""font-size: 16px;"">J = YES &nbsp;&nbsp;&nbsp; F = NO</p>
        ","j","html-keyboard-response","98","2.1.0","292409","J=YES, F=NO","dqto8cv093","2","66","63","70","","","","","","","","","peel","birth1","filler","filler","j","true","",""
"null","<p style=""font-size: 50px;"">+</p>","null","html-keyboard-response","99","2.1.0","292712","J=YES, F=NO","dqto8cv093","2","66","63","70","","","","","","","","","","","","","","","",""
"null","audio/beep-329314.mp3","null","audio-keyboard-response","100","2.1.0","294244","J=YES, F=NO","dqto8cv093","2","66","63","70","","","","","","","","","","","","","","","",""
"null","audio/haste1.wav","null","audio-keyboard-response","101","2.1.0","294804","J=YES, F=NO","dqto8cv093","2","66","63","70","","","","","","","","","","","","","","","",""
"731","
          <p id=""word"" style=""font-size: 40px;"">coraconate</p>
          <p style=""font-size: 16px;"">J = YES &nbsp;&nbsp;&nbsp; F = NO</p>
        ","j","html-keyboard-response","102","2.1.0","295536","J=YES, F=NO","dqto8cv093","2","66","63","70","","","","","","","","","coraconate","haste1","pseudoword","pseudoword","f","false","",""
"null","<p style=""font-size: 50px;"">+</p>","null","html-keyboard-response","103","2.1.0","295840","J=YES, F=NO","dqto8cv093","2","66","63","70","","","","","","","","","","","","","","","",""
"null","audio/beep-329314.mp3","null","audio-keyboard-response","104","2.1.0","297364","J=YES, F=NO","dqto8cv093","2","66","63","70","","","","","","","","","","","","","","","",""
"null","audio/alarm1.wav","null","audio-keyboard-response","105","2.1.0","298104","J=YES, F=NO","dqto8cv093","2","66","63","70","","","","","","","","","","","","","","","",""
"614","
          <p id=""word"" style=""font-size: 40px;"">lock</p>
          <p style=""font-size: 16px;"">J = YES &nbsp;&nbsp;&nbsp; F = NO</p>
        ","j","html-keyboard-response","106","2.1.0","298719","J=YES, F=NO","dqto8cv093","2","66","63","70","","","","","","","","","lock","alarm1","filler","filler","j","true","",""
"null","<p style=""font-size: 50px;"">+</p>","null","html-keyboard-response","107","2.1.0","299025","J=YES, F=NO","dqto8cv093","2","66","63","70","","","","","","","","","","","","","","","",""
"null","audio/beep-329314.mp3","null","audio-keyboard-response","108","2.1.0","300564","J=YES, F=NO","dqto8cv093","2","66","63","70","","","","","","","","","","","","","","","",""
"null","audio/pattern.wav","null","audio-keyboard-response","109","2.1.0","301104","J=YES, F=NO","dqto8cv093","2","66","63","70","","","","","","","","","","","","","","","",""
"631","
          <p id=""word"" style=""font-size: 40px;"">tug</p>
          <p style=""font-size: 16px;"">J = YES &nbsp;&nbsp;&nbsp; F = NO</p>
        ","f","html-keyboard-response","110","2.1.0","301736","J=YES, F=NO","dqto8cv093","2","66","63","70","","","","","","","","","tug","pattern","filler","filler","j","false","",""
"null","<p style=""font-size: 50px;"">+</p>","null","html-keyboard-response","111","2.1.0","302043","J=YES, F=NO","dqto8cv093","2","66","63","70","","","","","","","","","","","","","","","",""
"null","audio/beep-329314.mp3","null","audio-keyboard-response","112","2.1.0","303584","J=YES, F=NO","dqto8cv093","2","66","63","70","","","","","","","","","","","","","","","",""
"null","audio/account1.wav","null","audio-keyboard-response","113","2.1.0","304324","J=YES, F=NO","dqto8cv093","2","66","63","70","","","","","","","","","","","","","","","",""
"521","
          <p id=""word"" style=""font-size: 40px;"">paint</p>
          <p style=""font-size: 16px;"">J = YES &nbsp;&nbsp;&nbsp; F = NO</p>
        ","j","html-keyboard-response","114","2.1.0","304846","J=YES, F=NO","dqto8cv093","2","66","63","70","","","","","","","","","paint","account1","filler","filler","j","true","",""
"2816","<p>Starting practice block 2 of 2. Press any key to continue.</p>"," ","html-keyboard-response","115","2.1.0","307664","J=YES, F=NO","dqto8cv093","2","66","63","70","","","","","","","","","","","","","","","",""
"null","<p style=""font-size: 50px;"">+</p>","null","html-keyboard-response","116","2.1.0","307973","J=YES, F=NO","dqto8cv093","2","66","63","70","","","","","","","","","","","","","","","",""
"null","audio/beep-329314.mp3","null","audio-keyboard-response","117","2.1.0","309504","J=YES, F=NO","dqto8cv093","2","66","63","70","","","","","","","","","","","","","","","",""
"null","audio/fence.wav","null","audio-keyboard-response","118","2.1.0","310304","J=YES, F=NO","dqto8cv093","2","66","63","70","","","","","","","","","","","","","","","",""
"673","
          <p id=""word"" style=""font-size: 40px;"">trim</p>
          <p style=""font-size: 16px;"">J = YES &nbsp;&nbsp;&nbsp; F = NO</p>
        ","j","html-keyboard-response","119","2.1.0","310978","J=YES, F=NO","dqto8cv093","2","66","63","70","","","","","","","","","trim","fence","filler","filler","j","true","",""
"null","<p style=""font-size: 50px;"">+</p>","null","html-keyboard-response","120","2.1.0","311293","J=YES, F=NO","dqto8cv093","2","66","63","70","","","","","","","","","","","","","","","",""
"null","audio/beep-329314.mp3","null","audio-keyboard-response","121","2.1.0","312824","J=YES, F=NO","dqto8cv093","2","66","63","70","","","","","","","","","","","","","","","",""
"null","audio/bishop1.wav","null","audio-keyboard-response","122","2.1.0","313424","J=YES, F=NO","dqto8cv093","2","66","63","70","","","","","","","","","","","","","","","",""
"542","
          <p id=""word"" style=""font-size: 40px;"">play</p>
          <p style=""font-size: 16px;"">J = YES &nbsp;&nbsp;&nbsp; F = NO</p>
        ","j","html-keyboard-response","123","2.1.0","313967","J=YES, F=NO","dqto8cv093","2","66","63","70","","","","","","","","","play","bishop1","filler","filler","j","true","",""
"null","<p style=""font-size: 50px;"">+</p>","null","html-keyboard-response","124","2.1.0","314279","J=YES, F=NO","dqto8cv093","2","66","63","70","","","","","","","","","","","","","","","",""
"null","audio/beep-329314.mp3","null","audio-keyboard-response","125","2.1.0","315804","J=YES, F=NO","dqto8cv093","2","66","63","70","","","","","","","","","","","","","","","",""
"null","audio/terrain.wav","null","audio-keyboard-response","126","2.1.0","316524","J=YES, F=NO","dqto8cv093","2","66","63","70","","","","","","","","","","","","","","","",""
"533","
          <p id=""word"" style=""font-size: 40px;"">twist</p>
          <p style=""font-size: 16px;"">J = YES &nbsp;&nbsp;&nbsp; F = NO</p>
        ","j","html-keyboard-response","127","2.1.0","317059","J=YES, F=NO","dqto8cv093","2","66","63","70","","","","","","","","","twist","terrain","filler","filler","j","true","",""
"null","<p style=""font-size: 50px;"">+</p>","null","html-keyboard-response","128","2.1.0","317366","J=YES, F=NO","dqto8cv093","2","66","63","70","","","","","","","","","","","","","","","",""
"null","audio/beep-329314.mp3","null","audio-keyboard-response","129","2.1.0","318904","J=YES, F=NO","dqto8cv093","2","66","63","70","","","","","","","","","","","","","","","",""
"null","audio/hotel1.wav","null","audio-keyboard-response","130","2.1.0","319584","J=YES, F=NO","dqto8cv093","2","66","63","70","","","","","","","","","","","","","","","",""
"668","
          <p id=""word"" style=""font-size: 40px;"">flanter</p>
          <p style=""font-size: 16px;"">J = YES &nbsp;&nbsp;&nbsp; F = NO</p>
        ","f","html-keyboard-response","131","2.1.0","320253","J=YES, F=NO","dqto8cv093","2","66","63","70","","","","","","","","","flanter","hotel1","pseudoword","pseudoword","f","true","",""
"null","<p style=""font-size: 50px;"">+</p>","null","html-keyboard-response","132","2.1.0","320556","J=YES, F=NO","dqto8cv093","2","66","63","70","","","","","","","","","","","","","","","",""
"null","audio/beep-329314.mp3","null","audio-keyboard-response","133","2.1.0","322084","J=YES, F=NO","dqto8cv093","2","66","63","70","","","","","","","","","","","","","","","",""
"null","audio/breath.wav","null","audio-keyboard-response","134","2.1.0","322644","J=YES, F=NO","dqto8cv093","2","66","63","70","","","","","","","","","","","","","","","",""
"534","
          <p id=""word"" style=""font-size: 40px;"">pack</p>
          <p style=""font-size: 16px;"">J = YES &nbsp;&nbsp;&nbsp; F = NO</p>
        ","j","html-keyboard-response","135","2.1.0","323179","J=YES, F=NO","dqto8cv093","2","66","63","70","","","","","","","","","pack","breath","filler","filler","j","true","",""
"null","<p style=""font-size: 50px;"">+</p>","null","html-keyboard-response","136","2.1.0","323483","J=YES, F=NO","dqto8cv093","2","66","63","70","","","","","","","","","","","","","","","",""
"null","audio/beep-329314.mp3","null","audio-keyboard-response","137","2.1.0","325024","J=YES, F=NO","dqto8cv093","2","66","63","70","","","","","","","","","","","","","","","",""
"null","audio/mouth1.wav","null","audio-keyboard-response","138","2.1.0","325724","J=YES, F=NO","dqto8cv093","2","66","63","70","","","","","","","","","","","","","","","",""
"604","
          <p id=""word"" style=""font-size: 40px;"">spolial</p>
          <p style=""font-size: 16px;"">J = YES &nbsp;&nbsp;&nbsp; F = NO</p>
        ","f","html-keyboard-response","139","2.1.0","326329","J=YES, F=NO","dqto8cv093","2","66","63","70","","","","","","","","","spolial","mouth1","pseudoword","pseudoword","f","true","",""
"null","<p style=""font-size: 50px;"">+</p>","null","html-keyboard-response","140","2.1.0","326642","J=YES, F=NO","dqto8cv093","2","66","63","70","","","","","","","","","","","","","","","",""
"null","audio/beep-329314.mp3","null","audio-keyboard-response","141","2.1.0","328164","J=YES, F=NO","dqto8cv093","2","66","63","70","","","","","","","","","","","","","","","",""
"null","audio/test1.wav","null","audio-keyboard-response","142","2.1.0","328884","J=YES, F=NO","dqto8cv093","2","66","63","70","","","","","","","","","","","","","","","",""
"615","
          <p id=""word"" style=""font-size: 40px;"">twopch</p>
          <p style=""font-size: 16px;"">J = YES &nbsp;&nbsp;&nbsp; F = NO</p>
        ","f","html-keyboard-response","143","2.1.0","329499","J=YES, F=NO","dqto8cv093","2","66","63","70","","","","","","","","","twopch","test1","pseudoword","pseudoword","f","true","",""
"null","<p style=""font-size: 50px;"">+</p>","null","html-keyboard-response","144","2.1.0","329805","J=YES, F=NO","dqto8cv093","2","66","63","70","","","","","","","","","","","","","","","",""
"null","audio/beep-329314.mp3","null","audio-keyboard-response","145","2.1.0","331344","J=YES, F=NO","dqto8cv093","2","66","63","70","","","","","","","","","","","","","","","",""
"null","audio/grass.wav","null","audio-keyboard-response","146","2.1.0","332144","J=YES, F=NO","dqto8cv093","2","66","63","70","","","","","","","","","","","","","","","",""
"834","
          <p id=""word"" style=""font-size: 40px;"">milames</p>
          <p style=""font-size: 16px;"">J = YES &nbsp;&nbsp;&nbsp; F = NO</p>
        ","f","html-keyboard-response","147","2.1.0","332979","J=YES, F=NO","dqto8cv093","2","66","63","70","","","","","","","","","milames","grass","pseudoword","pseudoword","f","true","",""
"null","<p style=""font-size: 50px;"">+</p>","null","html-keyboard-response","148","2.1.0","333295","J=YES, F=NO","dqto8cv093","2","66","63","70","","","","","","","","","","","","","","","",""
"null","audio/beep-329314.mp3","null","audio-keyboard-response","149","2.1.0","334824","J=YES, F=NO","dqto8cv093","2","66","63","70","","","","","","","","","","","","","","","",""
"null","audio/roof1.wav","null","audio-keyboard-response","150","2.1.0","335364","J=YES, F=NO","dqto8cv093","2","66","63","70","","","","","","","","","","","","","","","",""
"672","
          <p id=""word"" style=""font-size: 40px;"">wronb</p>
          <p style=""font-size: 16px;"">J = YES &nbsp;&nbsp;&nbsp; F = NO</p>
        ","f","html-keyboard-response","151","2.1.0","336037","J=YES, F=NO","dqto8cv093","2","66","63","70","","","","","","","","","wronb","roof1","pseudoword","pseudoword","f","true","",""
"null","<p style=""font-size: 50px;"">+</p>","null","html-keyboard-response","152","2.1.0","336352","J=YES, F=NO","dqto8cv093","2","66","63","70","","","","","","","","","","","","","","","",""
"null","audio/beep-329314.mp3","null","audio-keyboard-response","153","2.1.0","337884","J=YES, F=NO","dqto8cv093","2","66","63","70","","","","","","","","","","","","","","","",""
"null","audio/menu.wav","null","audio-keyboard-response","154","2.1.0","338484","J=YES, F=NO","dqto8cv093","2","66","63","70","","","","","","","","","","","","","","","",""
"541","
          <p id=""word"" style=""font-size: 40px;"">slice</p>
          <p style=""font-size: 16px;"">J = YES &nbsp;&nbsp;&nbsp; F = NO</p>
        ","j","html-keyboard-response","155","2.1.0","339026","J=YES, F=NO","dqto8cv093","2","66","63","70","","","","","","","","","slice","menu","filler","filler","j","true","",""
"null","<p style=""font-size: 50px;"">+</p>","null","html-keyboard-response","156","2.1.0","339343","J=YES, F=NO","dqto8cv093","2","66","63","70","","","","","","","","","","","","","","","",""
"null","audio/beep-329314.mp3","null","audio-keyboard-response","157","2.1.0","340864","J=YES, F=NO","dqto8cv093","2","66","63","70","","","","","","","","","","","","","","","",""
"null","audio/brain.wav","null","audio-keyboard-response","158","2.1.0","341404","J=YES, F=NO","dqto8cv093","2","66","63","70","","","","","","","","","","","","","","","",""
"599","
          <p id=""word"" style=""font-size: 40px;"">throw</p>
          <p style=""font-size: 16px;"">J = YES &nbsp;&nbsp;&nbsp; F = NO</p>
        ","j","html-keyboard-response","159","2.1.0","342004","J=YES, F=NO","dqto8cv093","2","66","63","70","","","","","","","","","throw","brain","filler","filler","j","true","",""
"null","<p style=""font-size: 50px;"">+</p>","null","html-keyboard-response","160","2.1.0","342310","J=YES, F=NO","dqto8cv093","2","66","63","70","","","","","","","","","","","","","","","",""
"null","audio/beep-329314.mp3","null","audio-keyboard-response","161","2.1.0","343844","J=YES, F=NO","dqto8cv093","2","66","63","70","","","","","","","","","","","","","","","",""
"null","audio/mind.wav","null","audio-keyboard-response","162","2.1.0","344564","J=YES, F=NO","dqto8cv093","2","66","63","70","","","","","","","","","","","","","","","",""
"947","
          <p id=""word"" style=""font-size: 40px;"">crainate</p>
          <p style=""font-size: 16px;"">J = YES &nbsp;&nbsp;&nbsp; F = NO</p>
        ","f","html-keyboard-response","163","2.1.0","345512","J=YES, F=NO","dqto8cv093","2","66","63","70","","","","","","","","","crainate","mind","pseudoword","pseudoword","f","true","",""
"13198","
    <div style=""max-width: 800px; margin: auto; text-align: left;"">
      <h2>Part 2: Main Trials</h2>
      <p>Great job on the practice trials!</p>
      <p>You will now begin the <strong>main set of trials</strong>.</p>
      <p>Remember your key assignments:</p>
      <ul>
        <li><strong>J</strong> = YES (real English word)</li>
        <li><strong>F</strong> = NO (not a real English word)</li>
      </ul>
      <p>Try to respond as <strong>quickly and accurately</strong> as possible.</p>
      <p style=""margin-top: 2em;"">Press any key to begin the main trials.</p>
    </div>
  "," ","html-keyboard-response","164","2.1.0","358712","J=YES, F=NO","dqto8cv093","2","66","63","70","","","","","","","","","","","","","","","",""
"1613","<p>Starting main block 1 of 8. Press any key to continue.</p>"," ","html-keyboard-response","165","2.1.0","360326","J=YES, F=NO","dqto8cv093","2","66","63","70","","","","","","","","","","","","","","","",""
"null","<p style=""font-size: 50px;"">+</p>","null","html-keyboard-response","166","2.1.0","360636","J=YES, F=NO","dqto8cv093","2","66","63","70","","","","","","","","","","","","","","","",""
"null","audio/beep-329314.mp3","null","audio-keyboard-response","167","2.1.0","362172","J=YES, F=NO","dqto8cv093","2","66","63","70","","","","","","","","","","","","","","","",""
"null","audio/show.wav","null","audio-keyboard-response","168","2.1.0","362692","J=YES, F=NO","dqto8cv093","2","66","63","70","","","","","","","","","","","","","","","",""
"559","
          <p id=""word"" style=""font-size: 40px;"">smark</p>
          <p style=""font-size: 16px;"">J = YES &nbsp;&nbsp;&nbsp; F = NO</p>
        ","j","html-keyboard-response","169","2.1.0","363252","J=YES, F=NO","dqto8cv093","2","66","63","70","","","","","","","","","smark","show","pseudoword","pseudoword","f","false","",""
"null","<p style=""font-size: 50px;"">+</p>","null","html-keyboard-response","170","2.1.0","363566","J=YES, F=NO","dqto8cv093","2","66","63","70","","","","","","","","","","","","","","","",""
"null","audio/beep-329314.mp3","null","audio-keyboard-response","171","2.1.0","365092","J=YES, F=NO","dqto8cv093","2","66","63","70","","","","","","","","","","","","","","","",""
"null","audio/enemy1.wav","null","audio-keyboard-response","172","2.1.0","365572","J=YES, F=NO","dqto8cv093","2","66","63","70","","","","","","","","","","","","","","","",""
"844","
          <p id=""word"" style=""font-size: 40px;"">defeat</p>
          <p style=""font-size: 16px;"">J = YES &nbsp;&nbsp;&nbsp; F = NO</p>
        ","j","html-keyboard-response","173","2.1.0","366418","J=YES, F=NO","dqto8cv093","2","66","63","70","","","","","","","","","defeat","enemy1","literal","experimental","j","true","",""
"null","<p style=""font-size: 50px;"">+</p>","null","html-keyboard-response","174","2.1.0","366726","J=YES, F=NO","dqto8cv093","2","66","63","70","","","","","","","","","","","","","","","",""
"null","audio/beep-329314.mp3","null","audio-keyboard-response","175","2.1.0","368252","J=YES, F=NO","dqto8cv093","2","66","63","70","","","","","","","","","","","","","","","",""
"null","audio/ship.wav","null","audio-keyboard-response","176","2.1.0","368792","J=YES, F=NO","dqto8cv093","2","66","63","70","","","","","","","","","","","","","","","",""
"888","
          <p id=""word"" style=""font-size: 40px;"">scrap</p>
          <p style=""font-size: 16px;"">J = YES &nbsp;&nbsp;&nbsp; F = NO</p>
        ","j","html-keyboard-response","177","2.1.0","369681","J=YES, F=NO","dqto8cv093","2","66","63","70","","","","","","","","","scrap","ship","literal","experimental","j","true","",""
"null","<p style=""font-size: 50px;"">+</p>","null","html-keyboard-response","178","2.1.0","369983","J=YES, F=NO","dqto8cv093","2","66","63","70","","","","","","","","","","","","","","","",""
"null","audio/beep-329314.mp3","null","audio-keyboard-response","179","2.1.0","371512","J=YES, F=NO","dqto8cv093","2","66","63","70","","","","","","","","","","","","","","","",""
"null","audio/empire.wav","null","audio-keyboard-response","180","2.1.0","372292","J=YES, F=NO","dqto8cv093","2","66","63","70","","","","","","","","","","","","","","","",""
"668","
          <p id=""word"" style=""font-size: 40px;"">slorby</p>
          <p style=""font-size: 16px;"">J = YES &nbsp;&nbsp;&nbsp; F = NO</p>
        ","f","html-keyboard-response","181","2.1.0","372961","J=YES, F=NO","dqto8cv093","2","66","63","70","","","","","","","","","slorby","empire","pseudoword","pseudoword","f","true","",""
"null","<p style=""font-size: 50px;"">+</p>","null","html-keyboard-response","182","2.1.0","373274","J=YES, F=NO","dqto8cv093","2","66","63","70","","","","","","","","","","","","","","","",""
"null","audio/beep-329314.mp3","null","audio-keyboard-response","183","2.1.0","374812","J=YES, F=NO","dqto8cv093","2","66","63","70","","","","","","","","","","","","","","","",""
"null","audio/bomb1.wav","null","audio-keyboard-response","184","2.1.0","375192","J=YES, F=NO","dqto8cv093","2","66","63","70","","","","","","","","","","","","","","","",""
"529","
          <p id=""word"" style=""font-size: 40px;"">drop</p>
          <p style=""font-size: 16px;"">J = YES &nbsp;&nbsp;&nbsp; F = NO</p>
        ","j","html-keyboard-response","185","2.1.0","375722","J=YES, F=NO","dqto8cv093","2","66","63","70","","","","","","","","","drop","bomb1","literal","experimental","j","true","",""
"null","<p style=""font-size: 50px;"">+</p>","null","html-keyboard-response","186","2.1.0","376023","J=YES, F=NO","dqto8cv093","2","66","63","70","","","","","","","","","","","","","","","",""
"null","audio/beep-329314.mp3","null","audio-keyboard-response","187","2.1.0","377552","J=YES, F=NO","dqto8cv093","2","66","63","70","","","","","","","","","","","","","","","",""
"null","audio/bush1.wav","null","audio-keyboard-response","188","2.1.0","378152","J=YES, F=NO","dqto8cv093","2","66","63","70","","","","","","","","","","","","","","","",""
"518","
          <p id=""word"" style=""font-size: 40px;"">platined</p>
          <p style=""font-size: 16px;"">J = YES &nbsp;&nbsp;&nbsp; F = NO</p>
        ","j","html-keyboard-response","189","2.1.0","378671","J=YES, F=NO","dqto8cv093","2","66","63","70","","","","","","","","","platined","bush1","pseudoword","pseudoword","f","false","",""
"null","<p style=""font-size: 50px;"">+</p>","null","html-keyboard-response","190","2.1.0","378981","J=YES, F=NO","dqto8cv093","2","66","63","70","","","","","","","","","","","","","","","",""
"null","audio/beep-329314.mp3","null","audio-keyboard-response","191","2.1.0","380512","J=YES, F=NO","dqto8cv093","2","66","63","70","","","","","","","","","","","","","","","",""
"null","audio/bottle.wav","null","audio-keyboard-response","192","2.1.0","381132","J=YES, F=NO","dqto8cv093","2","66","63","70","","","","","","","","","","","","","","","",""
"498","
          <p id=""word"" style=""font-size: 40px;"">watch</p>
          <p style=""font-size: 16px;"">J = YES &nbsp;&nbsp;&nbsp; F = NO</p>
        ","j","html-keyboard-response","193","2.1.0","381632","J=YES, F=NO","dqto8cv093","2","66","63","70","","","","","","","","","watch","bottle","filler","filler","j","true","",""
"null","<p style=""font-size: 50px;"">+</p>","null","html-keyboard-response","194","2.1.0","381946","J=YES, F=NO","dqto8cv093","2","66","63","70","","","","","","","","","","","","","","","",""
"null","audio/beep-329314.mp3","null","audio-keyboard-response","195","2.1.0","383472","J=YES, F=NO","dqto8cv093","2","66","63","70","","","","","","","","","","","","","","","",""
"null","audio/relief.wav","null","audio-keyboard-response","196","2.1.0","384272","J=YES, F=NO","dqto8cv093","2","66","63","70","","","","","","","","","","","","","","","",""
"661","
          <p id=""word"" style=""font-size: 40px;"">grigg</p>
          <p style=""font-size: 16px;"">J = YES &nbsp;&nbsp;&nbsp; F = NO</p>
        ","f","html-keyboard-response","197","2.1.0","384934","J=YES, F=NO","dqto8cv093","2","66","63","70","","","","","","","","","grigg","relief","pseudoword","pseudoword","f","true","",""
"null","<p style=""font-size: 50px;"">+</p>","null","html-keyboard-response","198","2.1.0","385246","J=YES, F=NO","dqto8cv093","2","66","63","70","","","","","","","","","","","","","","","",""
"null","audio/beep-329314.mp3","null","audio-keyboard-response","199","2.1.0","386772","J=YES, F=NO","dqto8cv093","2","66","63","70","","","","","","","","","","","","","","","",""
"null","audio/size1.wav","null","audio-keyboard-response","200","2.1.0","387512","J=YES, F=NO","dqto8cv093","2","66","63","70","","","","","","","","","","","","","","","",""
"530","
          <p id=""word"" style=""font-size: 40px;"">clear</p>
          <p style=""font-size: 16px;"">J = YES &nbsp;&nbsp;&nbsp; F = NO</p>
        ","j","html-keyboard-response","201","2.1.0","388043","J=YES, F=NO","dqto8cv093","2","66","63","70","","","","","","","","","clear","size1","unrelated","experimental","j","true","",""
"null","<p style=""font-size: 50px;"">+</p>","null","html-keyboard-response","202","2.1.0","388346","J=YES, F=NO","dqto8cv093","2","66","63","70","","","","","","","","","","","","","","","",""
"null","audio/beep-329314.mp3","null","audio-keyboard-response","203","2.1.0","389872","J=YES, F=NO","dqto8cv093","2","66","63","70","","","","","","","","","","","","","","","",""
"null","audio/foe1.wav","null","audio-keyboard-response","204","2.1.0","390532","J=YES, F=NO","dqto8cv093","2","66","63","70","","","","","","","","","","","","","","","",""
"607","
          <p id=""word"" style=""font-size: 40px;"">creth</p>
          <p style=""font-size: 16px;"">J = YES &nbsp;&nbsp;&nbsp; F = NO</p>
        ","f","html-keyboard-response","205","2.1.0","391140","J=YES, F=NO","dqto8cv093","2","66","63","70","","","","","","","","","creth","foe1","pseudoword","pseudoword","f","true","",""
"null","<p style=""font-size: 50px;"">+</p>","null","html-keyboard-response","206","2.1.0","391451","J=YES, F=NO","dqto8cv093","2","66","63","70","","","","","","","","","","","","","","","",""
"null","audio/beep-329314.mp3","null","audio-keyboard-response","207","2.1.0","392992","J=YES, F=NO","dqto8cv093","2","66","63","70","","","","","","","","","","","","","","","",""
"null","audio/chance.wav","null","audio-keyboard-response","208","2.1.0","393792","J=YES, F=NO","dqto8cv093","2","66","63","70","","","","","","","","","","","","","","","",""
"582","
          <p id=""word"" style=""font-size: 40px;"">seize</p>
          <p style=""font-size: 16px;"">J = YES &nbsp;&nbsp;&nbsp; F = NO</p>
        ","f","html-keyboard-response","209","2.1.0","394375","J=YES, F=NO","dqto8cv093","2","66","63","70","","","","","","","","","seize","chance","metaphor","experimental","j","false","",""
"null","<p style=""font-size: 50px;"">+</p>","null","html-keyboard-response","210","2.1.0","394687","J=YES, F=NO","dqto8cv093","2","66","63","70","","","","","","","","","","","","","","","",""
"null","audio/beep-329314.mp3","null","audio-keyboard-response","211","2.1.0","396212","J=YES, F=NO","dqto8cv093","2","66","63","70","","","","","","","","","","","","","","","",""
"null","audio/uncle1.wav","null","audio-keyboard-response","212","2.1.0","396832","J=YES, F=NO","dqto8cv093","2","66","63","70","","","","","","","","","","","","","","","",""
"457","
          <p id=""word"" style=""font-size: 40px;"">break</p>
          <p style=""font-size: 16px;"">J = YES &nbsp;&nbsp;&nbsp; F = NO</p>
        ","j","html-keyboard-response","213","2.1.0","397290","J=YES, F=NO","dqto8cv093","2","66","63","70","","","","","","","","","break","uncle1","unrelated","experimental","j","true","",""
"null","<p style=""font-size: 50px;"">+</p>","null","html-keyboard-response","214","2.1.0","397597","J=YES, F=NO","dqto8cv093","2","66","63","70","","","","","","","","","","","","","","","",""
"null","audio/beep-329314.mp3","null","audio-keyboard-response","215","2.1.0","399132","J=YES, F=NO","dqto8cv093","2","66","63","70","","","","","","","","","","","","","","","",""
"null","audio/skin1.wav","null","audio-keyboard-response","216","2.1.0","399712","J=YES, F=NO","dqto8cv093","2","66","63","70","","","","","","","","","","","","","","","",""
"504","
          <p id=""word"" style=""font-size: 40px;"">expose</p>
          <p style=""font-size: 16px;"">J = YES &nbsp;&nbsp;&nbsp; F = NO</p>
        ","j","html-keyboard-response","217","2.1.0","400217","J=YES, F=NO","dqto8cv093","2","66","63","70","","","","","","","","","expose","skin1","literal","experimental","j","true","",""
"null","<p style=""font-size: 50px;"">+</p>","null","html-keyboard-response","218","2.1.0","400533","J=YES, F=NO","dqto8cv093","2","66","63","70","","","","","","","","","","","","","","","",""
"null","audio/beep-329314.mp3","null","audio-keyboard-response","219","2.1.0","402072","J=YES, F=NO","dqto8cv093","2","66","63","70","","","","","","","","","","","","","","","",""
"null","audio/key1.wav","null","audio-keyboard-response","220","2.1.0","402432","J=YES, F=NO","dqto8cv093","2","66","63","70","","","","","","","","","","","","","","","",""
"568","
          <p id=""word"" style=""font-size: 40px;"">sminsh</p>
          <p style=""font-size: 16px;"">J = YES &nbsp;&nbsp;&nbsp; F = NO</p>
        ","f","html-keyboard-response","221","2.1.0","403001","J=YES, F=NO","dqto8cv093","2","66","63","70","","","","","","","","","sminsh","key1","pseudoword","pseudoword","f","true","",""
"null","<p style=""font-size: 50px;"">+</p>","null","html-keyboard-response","222","2.1.0","403314","J=YES, F=NO","dqto8cv093","2","66","63","70","","","","","","","","","","","","","","","",""
"null","audio/beep-329314.mp3","null","audio-keyboard-response","223","2.1.0","404852","J=YES, F=NO","dqto8cv093","2","66","63","70","","","","","","","","","","","","","","","",""
"null","audio/effort.wav","null","audio-keyboard-response","224","2.1.0","405492","J=YES, F=NO","dqto8cv093","2","66","63","70","","","","","","","","","","","","","","","",""
"635","
          <p id=""word"" style=""font-size: 40px;"">whonk</p>
          <p style=""font-size: 16px;"">J = YES &nbsp;&nbsp;&nbsp; F = NO</p>
        ","f","html-keyboard-response","225","2.1.0","406128","J=YES, F=NO","dqto8cv093","2","66","63","70","","","","","","","","","whonk","effort","pseudoword","pseudoword","f","true","",""
"null","<p style=""font-size: 50px;"">+</p>","null","html-keyboard-response","226","2.1.0","406441","J=YES, F=NO","dqto8cv093","2","66","63","70","","","","","","","","","","","","","","","",""
"null","audio/beep-329314.mp3","null","audio-keyboard-response","227","2.1.0","407972","J=YES, F=NO","dqto8cv093","2","66","63","70","","","","","","","","","","","","","","","",""
"null","audio/truth1.wav","null","audio-keyboard-response","228","2.1.0","408512","J=YES, F=NO","dqto8cv093","2","66","63","70","","","","","","","","","","","","","","","",""
"633","
          <p id=""word"" style=""font-size: 40px;"">calitom</p>
          <p style=""font-size: 16px;"">J = YES &nbsp;&nbsp;&nbsp; F = NO</p>
        ","f","html-keyboard-response","229","2.1.0","409146","J=YES, F=NO","dqto8cv093","2","66","63","70","","","","","","","","","calitom","truth1","pseudoword","pseudoword","f","true","",""
"36532","<p>Excellent! You have finished block 1 of 8.</p>
                     <p>Feel free to take a 30 second break.</p>
                     <p>Press any key when you're ready to continue.</p>"," ","html-keyboard-response","230","2.1.0","445679","J=YES, F=NO","dqto8cv093","2","66","63","70","","","","","","","","","","","","","","","",""
"2064","<p>Starting main block 2 of 8. Press any key to continue.</p>"," ","html-keyboard-response","231","2.1.0","447744","J=YES, F=NO","dqto8cv093","2","66","63","70","","","","","","","","","","","","","","","",""
"null","<p style=""font-size: 50px;"">+</p>","null","html-keyboard-response","232","2.1.0","448049","J=YES, F=NO","dqto8cv093","2","66","63","70","","","","","","","","","","","","","","","",""
"null","audio/beep-329314.mp3","null","audio-keyboard-response","233","2.1.0","449586","J=YES, F=NO","dqto8cv093","2","66","63","70","","","","","","","","","","","","","","","",""
"null","audio/ankle1.wav","null","audio-keyboard-response","234","2.1.0","450246","J=YES, F=NO","dqto8cv093","2","66","63","70","","","","","","","","","","","","","","","",""
"681","
          <p id=""word"" style=""font-size: 40px;"">kick</p>
          <p style=""font-size: 16px;"">J = YES &nbsp;&nbsp;&nbsp; F = NO</p>
        ","j","html-keyboard-response","235","2.1.0","450928","J=YES, F=NO","dqto8cv093","2","66","63","70","","","","","","","","","kick","ankle1","filler","filler","j","true","",""
"null","<p style=""font-size: 50px;"">+</p>","null","html-keyboard-response","236","2.1.0","451230","J=YES, F=NO","dqto8cv093","2","66","63","70","","","","","","","","","","","","","","","",""
"null","audio/beep-329314.mp3","null","audio-keyboard-response","237","2.1.0","452766","J=YES, F=NO","dqto8cv093","2","66","63","70","","","","","","","","","","","","","","","",""
"null","audio/mile1.wav","null","audio-keyboard-response","238","2.1.0","453406","J=YES, F=NO","dqto8cv093","2","66","63","70","","","","","","","","","","","","","","","",""
"510","
          <p id=""word"" style=""font-size: 40px;"">writch</p>
          <p style=""font-size: 16px;"">J = YES &nbsp;&nbsp;&nbsp; F = NO</p>
        ","j","html-keyboard-response","239","2.1.0","453917","J=YES, F=NO","dqto8cv093","2","66","63","70","","","","","","","","","writch","mile1","pseudoword","pseudoword","f","false","",""
"null","<p style=""font-size: 50px;"">+</p>","null","html-keyboard-response","240","2.1.0","454233","J=YES, F=NO","dqto8cv093","2","66","63","70","","","","","","","","","","","","","","","",""
"null","audio/beep-329314.mp3","null","audio-keyboard-response","241","2.1.0","455766","J=YES, F=NO","dqto8cv093","2","66","63","70","","","","","","","","","","","","","","","",""
"null","audio/burden.wav","null","audio-keyboard-response","242","2.1.0","456326","J=YES, F=NO","dqto8cv093","2","66","63","70","","","","","","","","","","","","","","","",""
"522","
          <p id=""word"" style=""font-size: 40px;"">whotth</p>
          <p style=""font-size: 16px;"">J = YES &nbsp;&nbsp;&nbsp; F = NO</p>
        ","f","html-keyboard-response","243","2.1.0","456849","J=YES, F=NO","dqto8cv093","2","66","63","70","","","","","","","","","whotth","burden","pseudoword","pseudoword","f","true","",""
"null","<p style=""font-size: 50px;"">+</p>","null","html-keyboard-response","244","2.1.0","457154","J=YES, F=NO","dqto8cv093","2","66","63","70","","","","","","","","","","","","","","","",""
"null","audio/beep-329314.mp3","null","audio-keyboard-response","245","2.1.0","458686","J=YES, F=NO","dqto8cv093","2","66","63","70","","","","","","","","","","","","","","","",""
"null","audio/beach1.wav","null","audio-keyboard-response","246","2.1.0","459426","J=YES, F=NO","dqto8cv093","2","66","63","70","","","","","","","","","","","","","","","",""
"514","
          <p id=""word"" style=""font-size: 40px;"">drive</p>
          <p style=""font-size: 16px;"">J = YES &nbsp;&nbsp;&nbsp; F = NO</p>
        ","j","html-keyboard-response","247","2.1.0","459941","J=YES, F=NO","dqto8cv093","2","66","63","70","","","","","","","","","drive","beach1","filler","filler","j","true","",""
"null","<p style=""font-size: 50px;"">+</p>","null","html-keyboard-response","248","2.1.0","460244","J=YES, F=NO","dqto8cv093","2","66","63","70","","","","","","","","","","","","","","","",""
"null","audio/beep-329314.mp3","null","audio-keyboard-response","249","2.1.0","461766","J=YES, F=NO","dqto8cv093","2","66","63","70","","","","","","","","","","","","","","","",""
"null","audio/pain1.wav","null","audio-keyboard-response","250","2.1.0","462206","J=YES, F=NO","dqto8cv093","2","66","63","70","","","","","","","","","","","","","","","",""
"661","
          <p id=""word"" style=""font-size: 40px;"">tritted</p>
          <p style=""font-size: 16px;"">J = YES &nbsp;&nbsp;&nbsp; F = NO</p>
        ","f","html-keyboard-response","251","2.1.0","462868","J=YES, F=NO","dqto8cv093","2","66","63","70","","","","","","","","","tritted","pain1","pseudoword","pseudoword","f","true","",""
"null","<p style=""font-size: 50px;"">+</p>","null","html-keyboard-response","252","2.1.0","463181","J=YES, F=NO","dqto8cv093","2","66","63","70","","","","","","","","","","","","","","","",""
"null","audio/beep-329314.mp3","null","audio-keyboard-response","253","2.1.0","464706","J=YES, F=NO","dqto8cv093","2","66","63","70","","","","","","","","","","","","","","","",""
"null","audio/ankle1.wav","null","audio-keyboard-response","254","2.1.0","465226","J=YES, F=NO","dqto8cv093","2","66","63","70","","","","","","","","","","","","","","","",""
"801","
          <p id=""word"" style=""font-size: 40px;"">switm</p>
          <p style=""font-size: 16px;"">J = YES &nbsp;&nbsp;&nbsp; F = NO</p>
        ","f","html-keyboard-response","255","2.1.0","466029","J=YES, F=NO","dqto8cv093","2","66","63","70","","","","","","","","","switm","ankle1","pseudoword","pseudoword","f","true","",""
"null","<p style=""font-size: 50px;"">+</p>","null","html-keyboard-response","256","2.1.0","466342","J=YES, F=NO","dqto8cv093","2","66","63","70","","","","","","","","","","","","","","","",""
"null","audio/beep-329314.mp3","null","audio-keyboard-response","257","2.1.0","467866","J=YES, F=NO","dqto8cv093","2","66","63","70","","","","","","","","","","","","","","","",""
"null","audio/planet1.wav","null","audio-keyboard-response","258","2.1.0","468506","J=YES, F=NO","dqto8cv093","2","66","63","70","","","","","","","","","","","","","","","",""
"647","
          <p id=""word"" style=""font-size: 40px;"">cratched</p>
          <p style=""font-size: 16px;"">J = YES &nbsp;&nbsp;&nbsp; F = NO</p>
        ","j","html-keyboard-response","259","2.1.0","469155","J=YES, F=NO","dqto8cv093","2","66","63","70","","","","","","","","","cratched","planet1","pseudoword","pseudoword","f","false","",""
"null","<p style=""font-size: 50px;"">+</p>","null","html-keyboard-response","260","2.1.0","469460","J=YES, F=NO","dqto8cv093","2","66","63","70","","","","","","","","","","","","","","","",""
"null","audio/beep-329314.mp3","null","audio-keyboard-response","261","2.1.0","470986","J=YES, F=NO","dqto8cv093","2","66","63","70","","","","","","","","","","","","","","","",""
"null","audio/bottle.wav","null","audio-keyboard-response","262","2.1.0","471446","J=YES, F=NO","dqto8cv093","2","66","63","70","","","","","","","","","","","","","","","",""
"503","
          <p id=""word"" style=""font-size: 40px;"">open</p>
          <p style=""font-size: 16px;"">J = YES &nbsp;&nbsp;&nbsp; F = NO</p>
        ","j","html-keyboard-response","263","2.1.0","471950","J=YES, F=NO","dqto8cv093","2","66","63","70","","","","","","","","","open","bottle","literal","experimental","j","true","",""
"null","<p style=""font-size: 50px;"">+</p>","null","html-keyboard-response","264","2.1.0","472254","J=YES, F=NO","dqto8cv093","2","66","63","70","","","","","","","","","","","","","","","",""
"null","audio/beep-329314.mp3","null","audio-keyboard-response","265","2.1.0","473786","J=YES, F=NO","dqto8cv093","2","66","63","70","","","","","","","","","","","","","","","",""
"null","audio/bomb1.wav","null","audio-keyboard-response","266","2.1.0","474166","J=YES, F=NO","dqto8cv093","2","66","63","70","","","","","","","","","","","","","","","",""
"476","
          <p id=""word"" style=""font-size: 40px;"">clean</p>
          <p style=""font-size: 16px;"">J = YES &nbsp;&nbsp;&nbsp; F = NO</p>
        ","j","html-keyboard-response","267","2.1.0","474643","J=YES, F=NO","dqto8cv093","2","66","63","70","","","","","","","","","clean","bomb1","filler","filler","j","true","",""
"null","<p style=""font-size: 50px;"">+</p>","null","html-keyboard-response","268","2.1.0","474959","J=YES, F=NO","dqto8cv093","2","66","63","70","","","","","","","","","","","","","","","",""
"null","audio/beep-329314.mp3","null","audio-keyboard-response","269","2.1.0","476486","J=YES, F=NO","dqto8cv093","2","66","63","70","","","","","","","","","","","","","","","",""
"null","audio/noise1.wav","null","audio-keyboard-response","270","2.1.0","477146","J=YES, F=NO","dqto8cv093","2","66","63","70","","","","","","","","","","","","","","","",""
"611","
          <p id=""word"" style=""font-size: 40px;"">slintered</p>
          <p style=""font-size: 16px;"">J = YES &nbsp;&nbsp;&nbsp; F = NO</p>
        ","f","html-keyboard-response","271","2.1.0","477758","J=YES, F=NO","dqto8cv093","2","66","63","70","","","","","","","","","slintered","noise1","pseudoword","pseudoword","f","true","",""
"null","<p style=""font-size: 50px;"">+</p>","null","html-keyboard-response","272","2.1.0","478070","J=YES, F=NO","dqto8cv093","2","66","63","70","","","","","","","","","","","","","","","",""
"null","audio/beep-329314.mp3","null","audio-keyboard-response","273","2.1.0","479606","J=YES, F=NO","dqto8cv093","2","66","63","70","","","","","","","","","","","","","","","",""
"null","audio/budget1.wav","null","audio-keyboard-response","274","2.1.0","480266","J=YES, F=NO","dqto8cv093","2","66","63","70","","","","","","","","","","","","","","","",""
"543","
          <p id=""word"" style=""font-size: 40px;"">sulist</p>
          <p style=""font-size: 16px;"">J = YES &nbsp;&nbsp;&nbsp; F = NO</p>
        ","f","html-keyboard-response","275","2.1.0","480810","J=YES, F=NO","dqto8cv093","2","66","63","70","","","","","","","","","sulist","budget1","pseudoword","pseudoword","f","true","",""
"null","<p style=""font-size: 50px;"">+</p>","null","html-keyboard-response","276","2.1.0","481116","J=YES, F=NO","dqto8cv093","2","66","63","70","","","","","","","","","","","","","","","",""
"null","audio/beep-329314.mp3","null","audio-keyboard-response","277","2.1.0","482646","J=YES, F=NO","dqto8cv093","2","66","63","70","","","","","","","","","","","","","","","",""
"null","audio/floor.wav","null","audio-keyboard-response","278","2.1.0","483186","J=YES, F=NO","dqto8cv093","2","66","63","70","","","","","","","","","","","","","","","",""
"567","
          <p id=""word"" style=""font-size: 40px;"">mop</p>
          <p style=""font-size: 16px;"">J = YES &nbsp;&nbsp;&nbsp; F = NO</p>
        ","j","html-keyboard-response","279","2.1.0","483754","J=YES, F=NO","dqto8cv093","2","66","63","70","","","","","","","","","mop","floor","filler","filler","j","true","",""
"null","<p style=""font-size: 50px;"">+</p>","null","html-keyboard-response","280","2.1.0","484060","J=YES, F=NO","dqto8cv093","2","66","63","70","","","","","","","","","","","","","","","",""
"null","audio/beep-329314.mp3","null","audio-keyboard-response","281","2.1.0","485586","J=YES, F=NO","dqto8cv093","2","66","63","70","","","","","","","","","","","","","","","",""
"null","audio/road.wav","null","audio-keyboard-response","282","2.1.0","486006","J=YES, F=NO","dqto8cv093","2","66","63","70","","","","","","","","","","","","","","","",""
"588","
          <p id=""word"" style=""font-size: 40px;"">wappings</p>
          <p style=""font-size: 16px;"">J = YES &nbsp;&nbsp;&nbsp; F = NO</p>
        ","f","html-keyboard-response","283","2.1.0","486595","J=YES, F=NO","dqto8cv093","2","66","63","70","","","","","","","","","wappings","road","pseudoword","pseudoword","f","true","",""
"null","<p style=""font-size: 50px;"">+</p>","null","html-keyboard-response","284","2.1.0","486905","J=YES, F=NO","dqto8cv093","2","66","63","70","","","","","","","","","","","","","","","",""
"null","audio/beep-329314.mp3","null","audio-keyboard-response","285","2.1.0","488426","J=YES, F=NO","dqto8cv093","2","66","63","70","","","","","","","","","","","","","","","",""
"null","audio/battle1.wav","null","audio-keyboard-response","286","2.1.0","489046","J=YES, F=NO","dqto8cv093","2","66","63","70","","","","","","","","","","","","","","","",""
"423","
          <p id=""word"" style=""font-size: 40px;"">fight</p>
          <p style=""font-size: 16px;"">J = YES &nbsp;&nbsp;&nbsp; F = NO</p>
        ","j","html-keyboard-response","287","2.1.0","489470","J=YES, F=NO","dqto8cv093","2","66","63","70","","","","","","","","","fight","battle1","literal","experimental","j","true","",""
"null","<p style=""font-size: 50px;"">+</p>","null","html-keyboard-response","288","2.1.0","489783","J=YES, F=NO","dqto8cv093","2","66","63","70","","","","","","","","","","","","","","","",""
"null","audio/beep-329314.mp3","null","audio-keyboard-response","289","2.1.0","491306","J=YES, F=NO","dqto8cv093","2","66","63","70","","","","","","","","","","","","","","","",""
"null","audio/handle.wav","null","audio-keyboard-response","290","2.1.0","491946","J=YES, F=NO","dqto8cv093","2","66","63","70","","","","","","","","","","","","","","","",""
"695","
          <p id=""word"" style=""font-size: 40px;"">moutes</p>
          <p style=""font-size: 16px;"">J = YES &nbsp;&nbsp;&nbsp; F = NO</p>
        ","f","html-keyboard-response","291","2.1.0","492642","J=YES, F=NO","dqto8cv093","2","66","63","70","","","","","","","","","moutes","handle","pseudoword","pseudoword","f","true","",""
"null","<p style=""font-size: 50px;"">+</p>","null","html-keyboard-response","292","2.1.0","492949","J=YES, F=NO","dqto8cv093","2","66","63","70","","","","","","","","","","","","","","","",""
"null","audio/beep-329314.mp3","null","audio-keyboard-response","293","2.1.0","494486","J=YES, F=NO","dqto8cv093","2","66","63","70","","","","","","","","","","","","","","","",""
"null","audio/voice.wav","null","audio-keyboard-response","294","2.1.0","495146","J=YES, F=NO","dqto8cv093","2","66","63","70","","","","","","","","","","","","","","","",""
"707","
          <p id=""word"" style=""font-size: 40px;"">grintle</p>
          <p style=""font-size: 16px;"">J = YES &nbsp;&nbsp;&nbsp; F = NO</p>
        ","j","html-keyboard-response","295","2.1.0","495854","J=YES, F=NO","dqto8cv093","2","66","63","70","","","","","","","","","grintle","voice","pseudoword","pseudoword","f","false","",""
"27375","<p>Excellent! You have finished block 2 of 8.</p>
                     <p>Feel free to take a 30 second break.</p>
                     <p>Press any key when you're ready to continue.</p>"," ","html-keyboard-response","296","2.1.0","523230","J=YES, F=NO","dqto8cv093","2","66","63","70","","","","","","","","","","","","","","","",""
"1271","<p>Starting main block 3 of 8. Press any key to continue.</p>"," ","html-keyboard-response","297","2.1.0","524502","J=YES, F=NO","dqto8cv093","2","66","63","70","","","","","","","","","","","","","","","",""
"null","<p style=""font-size: 50px;"">+</p>","null","html-keyboard-response","298","2.1.0","524811","J=YES, F=NO","dqto8cv093","2","66","63","70","","","","","","","","","","","","","","","",""
"null","audio/beep-329314.mp3","null","audio-keyboard-response","299","2.1.0","526346","J=YES, F=NO","dqto8cv093","2","66","63","70","","","","","","","","","","","","","","","",""
"null","audio/belief.wav","null","audio-keyboard-response","300","2.1.0","526996","J=YES, F=NO","dqto8cv093","2","66","63","70","","","","","","","","","","","","","","","",""
"523","
          <p id=""word"" style=""font-size: 40px;"">share</p>
          <p style=""font-size: 16px;"">J = YES &nbsp;&nbsp;&nbsp; F = NO</p>
        ","j","html-keyboard-response","301","2.1.0","527520","J=YES, F=NO","dqto8cv093","2","66","63","70","","","","","","","","","share","belief","metaphor","experimental","j","true","",""
"null","<p style=""font-size: 50px;"">+</p>","null","html-keyboard-response","302","2.1.0","527834","J=YES, F=NO","dqto8cv093","2","66","63","70","","","","","","","","","","","","","","","",""
"null","audio/beep-329314.mp3","null","audio-keyboard-response","303","2.1.0","529366","J=YES, F=NO","dqto8cv093","2","66","63","70","","","","","","","","","","","","","","","",""
"null","audio/strength.wav","null","audio-keyboard-response","304","2.1.0","530136","J=YES, F=NO","dqto8cv093","2","66","63","70","","","","","","","","","","","","","","","",""
"646","
          <p id=""word"" style=""font-size: 40px;"">plabet</p>
          <p style=""font-size: 16px;"">J = YES &nbsp;&nbsp;&nbsp; F = NO</p>
        ","j","html-keyboard-response","305","2.1.0","530783","J=YES, F=NO","dqto8cv093","2","66","63","70","","","","","","","","","plabet","strength","pseudoword","pseudoword","f","false","",""
"null","<p style=""font-size: 50px;"">+</p>","null","html-keyboard-response","306","2.1.0","531097","J=YES, F=NO","dqto8cv093","2","66","63","70","","","","","","","","","","","","","","","",""
"null","audio/beep-329314.mp3","null","audio-keyboard-response","307","2.1.0","532626","J=YES, F=NO","dqto8cv093","2","66","63","70","","","","","","","","","","","","","","","",""
"null","audio/cottage1.wav","null","audio-keyboard-response","308","2.1.0","533417","J=YES, F=NO","dqto8cv093","2","66","63","70","","","","","","","","","","","","","","","",""
"544","
          <p id=""word"" style=""font-size: 40px;"">release</p>
          <p style=""font-size: 16px;"">J = YES &nbsp;&nbsp;&nbsp; F = NO</p>
        ","j","html-keyboard-response","309","2.1.0","533961","J=YES, F=NO","dqto8cv093","2","66","63","70","","","","","","","","","release","cottage1","unrelated","experimental","j","true","",""
"null","<p style=""font-size: 50px;"">+</p>","null","html-keyboard-response","310","2.1.0","534273","J=YES, F=NO","dqto8cv093","2","66","63","70","","","","","","","","","","","","","","","",""
"null","audio/beep-329314.mp3","null","audio-keyboard-response","311","2.1.0","535806","J=YES, F=NO","dqto8cv093","2","66","63","70","","","","","","","","","","","","","","","",""
"null","audio/life1.wav","null","audio-keyboard-response","312","2.1.0","536417","J=YES, F=NO","dqto8cv093","2","66","63","70","","","","","","","","","","","","","","","",""
"624","
          <p id=""word"" style=""font-size: 40px;"">give</p>
          <p style=""font-size: 16px;"">J = YES &nbsp;&nbsp;&nbsp; F = NO</p>
        ","j","html-keyboard-response","313","2.1.0","537041","J=YES, F=NO","dqto8cv093","2","66","63","70","","","","","","","","","give","life1","metaphor","experimental","j","true","",""
"null","<p style=""font-size: 50px;"">+</p>","null","html-keyboard-response","314","2.1.0","537353","J=YES, F=NO","dqto8cv093","2","66","63","70","","","","","","","","","","","","","","","",""
"null","audio/beep-329314.mp3","null","audio-keyboard-response","315","2.1.0","538886","J=YES, F=NO","dqto8cv093","2","66","63","70","","","","","","","","","","","","","","","",""
"null","audio/effort.wav","null","audio-keyboard-response","316","2.1.0","539456","J=YES, F=NO","dqto8cv093","2","66","63","70","","","","","","","","","","","","","","","",""
"528","
          <p id=""word"" style=""font-size: 40px;"">invest</p>
          <p style=""font-size: 16px;"">J = YES &nbsp;&nbsp;&nbsp; F = NO</p>
        ","j","html-keyboard-response","317","2.1.0","539985","J=YES, F=NO","dqto8cv093","2","66","63","70","","","","","","","","","invest","effort","metaphor","experimental","j","true","",""
"null","<p style=""font-size: 50px;"">+</p>","null","html-keyboard-response","318","2.1.0","540291","J=YES, F=NO","dqto8cv093","2","66","63","70","","","","","","","","","","","","","","","",""
"null","audio/beep-329314.mp3","null","audio-keyboard-response","319","2.1.0","541826","J=YES, F=NO","dqto8cv093","2","66","63","70","","","","","","","","","","","","","","","",""
"null","audio/handle.wav","null","audio-keyboard-response","320","2.1.0","542436","J=YES, F=NO","dqto8cv093","2","66","63","70","","","","","","","","","","","","","","","",""
"452","
          <p id=""word"" style=""font-size: 40px;"">grasp</p>
          <p style=""font-size: 16px;"">J = YES &nbsp;&nbsp;&nbsp; F = NO</p>
        ","j","html-keyboard-response","321","2.1.0","542889","J=YES, F=NO","dqto8cv093","2","66","63","70","","","","","","","","","grasp","handle","literal","experimental","j","true","",""
"null","<p style=""font-size: 50px;"">+</p>","null","html-keyboard-response","322","2.1.0","543195","J=YES, F=NO","dqto8cv093","2","66","63","70","","","","","","","","","","","","","","","",""
"null","audio/beep-329314.mp3","null","audio-keyboard-response","323","2.1.0","544726","J=YES, F=NO","dqto8cv093","2","66","63","70","","","","","","","","","","","","","","","",""
"null","audio/news.wav","null","audio-keyboard-response","324","2.1.0","545537","J=YES, F=NO","dqto8cv093","2","66","63","70","","","","","","","","","","","","","","","",""
"746","
          <p id=""word"" style=""font-size: 40px;"">digest</p>
          <p style=""font-size: 16px;"">J = YES &nbsp;&nbsp;&nbsp; F = NO</p>
        ","f","html-keyboard-response","325","2.1.0","546283","J=YES, F=NO","dqto8cv093","2","66","63","70","","","","","","","","","digest","news","metaphor","experimental","j","false","",""
"null","<p style=""font-size: 50px;"">+</p>","null","html-keyboard-response","326","2.1.0","546597","J=YES, F=NO","dqto8cv093","2","66","63","70","","","","","","","","","","","","","","","",""
"null","audio/beep-329314.mp3","null","audio-keyboard-response","327","2.1.0","548126","J=YES, F=NO","dqto8cv093","2","66","63","70","","","","","","","","","","","","","","","",""
"null","audio/topic.wav","null","audio-keyboard-response","328","2.1.0","548736","J=YES, F=NO","dqto8cv093","2","66","63","70","","","","","","","","","","","","","","","",""
"655","
          <p id=""word"" style=""font-size: 40px;"">infortuitist</p>
          <p style=""font-size: 16px;"">J = YES &nbsp;&nbsp;&nbsp; F = NO</p>
        ","f","html-keyboard-response","329","2.1.0","549392","J=YES, F=NO","dqto8cv093","2","66","63","70","","","","","","","","","infortuitist","topic","pseudoword","pseudoword","f","true","",""
"null","<p style=""font-size: 50px;"">+</p>","null","html-keyboard-response","330","2.1.0","549700","J=YES, F=NO","dqto8cv093","2","66","63","70","","","","","","","","","","","","","","","",""
"null","audio/beep-329314.mp3","null","audio-keyboard-response","331","2.1.0","551226","J=YES, F=NO","dqto8cv093","2","66","63","70","","","","","","","","","","","","","","","",""
"null","audio/devil1.wav","null","audio-keyboard-response","332","2.1.0","551636","J=YES, F=NO","dqto8cv093","2","66","63","70","","","","","","","","","","","","","","","",""
"465","
          <p id=""word"" style=""font-size: 40px;"">carry</p>
          <p style=""font-size: 16px;"">J = YES &nbsp;&nbsp;&nbsp; F = NO</p>
        ","j","html-keyboard-response","333","2.1.0","552102","J=YES, F=NO","dqto8cv093","2","66","63","70","","","","","","","","","carry","devil1","unrelated","experimental","j","true","",""
"null","<p style=""font-size: 50px;"">+</p>","null","html-keyboard-response","334","2.1.0","552418","J=YES, F=NO","dqto8cv093","2","66","63","70","","","","","","","","","","","","","","","",""
"null","audio/beep-329314.mp3","null","audio-keyboard-response","335","2.1.0","553946","J=YES, F=NO","dqto8cv093","2","66","63","70","","","","","","","","","","","","","","","",""
"null","audio/neck.wav","null","audio-keyboard-response","336","2.1.0","554537","J=YES, F=NO","dqto8cv093","2","66","63","70","","","","","","","","","","","","","","","",""
"652","
          <p id=""word"" style=""font-size: 40px;"">werling</p>
          <p style=""font-size: 16px;"">J = YES &nbsp;&nbsp;&nbsp; F = NO</p>
        ","j","html-keyboard-response","337","2.1.0","555189","J=YES, F=NO","dqto8cv093","2","66","63","70","","","","","","","","","werling","neck","pseudoword","pseudoword","f","false","",""
"null","<p style=""font-size: 50px;"">+</p>","null","html-keyboard-response","338","2.1.0","555500","J=YES, F=NO","dqto8cv093","2","66","63","70","","","","","","","","","","","","","","","",""
"null","audio/beep-329314.mp3","null","audio-keyboard-response","339","2.1.0","557026","J=YES, F=NO","dqto8cv093","2","66","63","70","","","","","","","","","","","","","","","",""
"null","audio/flaw.wav","null","audio-keyboard-response","340","2.1.0","557696","J=YES, F=NO","dqto8cv093","2","66","63","70","","","","","","","","","","","","","","","",""
"595","
          <p id=""word"" style=""font-size: 40px;"">thwool</p>
          <p style=""font-size: 16px;"">J = YES &nbsp;&nbsp;&nbsp; F = NO</p>
        ","f","html-keyboard-response","341","2.1.0","558292","J=YES, F=NO","dqto8cv093","2","66","63","70","","","","","","","","","thwool","flaw","pseudoword","pseudoword","f","true","",""
"null","<p style=""font-size: 50px;"">+</p>","null","html-keyboard-response","342","2.1.0","558596","J=YES, F=NO","dqto8cv093","2","66","63","70","","","","","","","","","","","","","","","",""
"null","audio/beep-329314.mp3","null","audio-keyboard-response","343","2.1.0","560126","J=YES, F=NO","dqto8cv093","2","66","63","70","","","","","","","","","","","","","","","",""
"null","audio/pride1.wav","null","audio-keyboard-response","344","2.1.0","560836","J=YES, F=NO","dqto8cv093","2","66","63","70","","","","","","","","","","","","","","","",""
"399","
          <p id=""word"" style=""font-size: 40px;"">hurt</p>
          <p style=""font-size: 16px;"">J = YES &nbsp;&nbsp;&nbsp; F = NO</p>
        ","j","html-keyboard-response","345","2.1.0","561236","J=YES, F=NO","dqto8cv093","2","66","63","70","","","","","","","","","hurt","pride1","metaphor","experimental","j","true","",""
"null","<p style=""font-size: 50px;"">+</p>","null","html-keyboard-response","346","2.1.0","561537","J=YES, F=NO","dqto8cv093","2","66","63","70","","","","","","","","","","","","","","","",""
"null","audio/beep-329314.mp3","null","audio-keyboard-response","347","2.1.0","563067","J=YES, F=NO","dqto8cv093","2","66","63","70","","","","","","","","","","","","","","","",""
"null","audio/belief.wav","null","audio-keyboard-response","348","2.1.0","563676","J=YES, F=NO","dqto8cv093","2","66","63","70","","","","","","","","","","","","","","","",""
"446","
          <p id=""word"" style=""font-size: 40px;"">read</p>
          <p style=""font-size: 16px;"">J = YES &nbsp;&nbsp;&nbsp; F = NO</p>
        ","j","html-keyboard-response","349","2.1.0","564123","J=YES, F=NO","dqto8cv093","2","66","63","70","","","","","","","","","read","belief","filler","filler","j","true","",""
"null","<p style=""font-size: 50px;"">+</p>","null","html-keyboard-response","350","2.1.0","564424","J=YES, F=NO","dqto8cv093","2","66","63","70","","","","","","","","","","","","","","","",""
"null","audio/beep-329314.mp3","null","audio-keyboard-response","351","2.1.0","565946","J=YES, F=NO","dqto8cv093","2","66","63","70","","","","","","","","","","","","","","","",""
"null","audio/sugar1.wav","null","audio-keyboard-response","352","2.1.0","566576","J=YES, F=NO","dqto8cv093","2","66","63","70","","","","","","","","","","","","","","","",""
"649","
          <p id=""word"" style=""font-size: 40px;"">glung</p>
          <p style=""font-size: 16px;"">J = YES &nbsp;&nbsp;&nbsp; F = NO</p>
        ","f","html-keyboard-response","353","2.1.0","567226","J=YES, F=NO","dqto8cv093","2","66","63","70","","","","","","","","","glung","sugar1","pseudoword","pseudoword","f","true","",""
"null","<p style=""font-size: 50px;"">+</p>","null","html-keyboard-response","354","2.1.0","567538","J=YES, F=NO","dqto8cv093","2","66","63","70","","","","","","","","","","","","","","","",""
"null","audio/beep-329314.mp3","null","audio-keyboard-response","355","2.1.0","569066","J=YES, F=NO","dqto8cv093","2","66","63","70","","","","","","","","","","","","","","","",""
"null","audio/bishop1.wav","null","audio-keyboard-response","356","2.1.0","569636","J=YES, F=NO","dqto8cv093","2","66","63","70","","","","","","","","","","","","","","","",""
"641","
          <p id=""word"" style=""font-size: 40px;"">devour</p>
          <p style=""font-size: 16px;"">J = YES &nbsp;&nbsp;&nbsp; F = NO</p>
        ","j","html-keyboard-response","357","2.1.0","570278","J=YES, F=NO","dqto8cv093","2","66","63","70","","","","","","","","","devour","bishop1","unrelated","experimental","j","true","",""
"null","<p style=""font-size: 50px;"">+</p>","null","html-keyboard-response","358","2.1.0","570587","J=YES, F=NO","dqto8cv093","2","66","63","70","","","","","","","","","","","","","","","",""
"null","audio/beep-329314.mp3","null","audio-keyboard-response","359","2.1.0","572126","J=YES, F=NO","dqto8cv093","2","66","63","70","","","","","","","","","","","","","","","",""
"null","audio/breath.wav","null","audio-keyboard-response","360","2.1.0","572676","J=YES, F=NO","dqto8cv093","2","66","63","70","","","","","","","","","","","","","","","",""
"448","
          <p id=""word"" style=""font-size: 40px;"">twets</p>
          <p style=""font-size: 16px;"">J = YES &nbsp;&nbsp;&nbsp; F = NO</p>
        ","j","html-keyboard-response","361","2.1.0","573124","J=YES, F=NO","dqto8cv093","2","66","63","70","","","","","","","","","twets","breath","pseudoword","pseudoword","f","false","",""
"38239","<p>Excellent! You have finished block 3 of 8.</p>
                     <p>Feel free to take a 30 second break.</p>
                     <p>Press any key when you're ready to continue.</p>"," ","html-keyboard-response","362","2.1.0","611363","J=YES, F=NO","dqto8cv093","2","66","63","70","","","","","","","","","","","","","","","",""
"814","<p>Starting main block 4 of 8. Press any key to continue.</p>"," ","html-keyboard-response","363","2.1.0","612179","J=YES, F=NO","dqto8cv093","2","66","63","70","","","","","","","","","","","","","","","",""
"null","<p style=""font-size: 50px;"">+</p>","null","html-keyboard-response","364","2.1.0","612481","J=YES, F=NO","dqto8cv093","2","66","63","70","","","","","","","","","","","","","","","",""
"null","audio/beep-329314.mp3","null","audio-keyboard-response","365","2.1.0","614011","J=YES, F=NO","dqto8cv093","2","66","63","70","","","","","","","","","","","","","","","",""
"null","audio/life1.wav","null","audio-keyboard-response","366","2.1.0","614541","J=YES, F=NO","dqto8cv093","2","66","63","70","","","","","","","","","","","","","","","",""
"593","
          <p id=""word"" style=""font-size: 40px;"">flimch</p>
          <p style=""font-size: 16px;"">J = YES &nbsp;&nbsp;&nbsp; F = NO</p>
        ","j","html-keyboard-response","367","2.1.0","615134","J=YES, F=NO","dqto8cv093","2","66","63","70","","","","","","","","","flimch","life1","pseudoword","pseudoword","f","false","",""
"null","<p style=""font-size: 50px;"">+</p>","null","html-keyboard-response","368","2.1.0","615440","J=YES, F=NO","dqto8cv093","2","66","63","70","","","","","","","","","","","","","","","",""
"null","audio/beep-329314.mp3","null","audio-keyboard-response","369","2.1.0","616971","J=YES, F=NO","dqto8cv093","2","66","63","70","","","","","","","","","","","","","","","",""
"null","audio/fortune1.wav","null","audio-keyboard-response","370","2.1.0","617881","J=YES, F=NO","dqto8cv093","2","66","63","70","","","","","","","","","","","","","","","",""
"447","
          <p id=""word"" style=""font-size: 40px;"">spend</p>
          <p style=""font-size: 16px;"">J = YES &nbsp;&nbsp;&nbsp; F = NO</p>
        ","j","html-keyboard-response","371","2.1.0","618329","J=YES, F=NO","dqto8cv093","2","66","63","70","","","","","","","","","spend","fortune1","literal","experimental","j","true","",""
"null","<p style=""font-size: 50px;"">+</p>","null","html-keyboard-response","372","2.1.0","618640","J=YES, F=NO","dqto8cv093","2","66","63","70","","","","","","","","","","","","","","","",""
"null","audio/beep-329314.mp3","null","audio-keyboard-response","373","2.1.0","620171","J=YES, F=NO","dqto8cv093","2","66","63","70","","","","","","","","","","","","","","","",""
"null","audio/plot1.wav","null","audio-keyboard-response","374","2.1.0","620761","J=YES, F=NO","dqto8cv093","2","66","63","70","","","","","","","","","","","","","","","",""
"573","
          <p id=""word"" style=""font-size: 40px;"">weave</p>
          <p style=""font-size: 16px;"">J = YES &nbsp;&nbsp;&nbsp; F = NO</p>
        ","j","html-keyboard-response","375","2.1.0","621335","J=YES, F=NO","dqto8cv093","2","66","63","70","","","","","","","","","weave","plot1","metaphor","experimental","j","true","",""
"null","<p style=""font-size: 50px;"">+</p>","null","html-keyboard-response","376","2.1.0","621643","J=YES, F=NO","dqto8cv093","2","66","63","70","","","","","","","","","","","","","","","",""
"null","audio/beep-329314.mp3","null","audio-keyboard-response","377","2.1.0","623171","J=YES, F=NO","dqto8cv093","2","66","63","70","","","","","","","","","","","","","","","",""
"null","audio/desire.wav","null","audio-keyboard-response","378","2.1.0","623842","J=YES, F=NO","dqto8cv093","2","66","63","70","","","","","","","","","","","","","","","",""
"597","
          <p id=""word"" style=""font-size: 40px;"">nophed</p>
          <p style=""font-size: 16px;"">J = YES &nbsp;&nbsp;&nbsp; F = NO</p>
        ","f","html-keyboard-response","379","2.1.0","624439","J=YES, F=NO","dqto8cv093","2","66","63","70","","","","","","","","","nophed","desire","pseudoword","pseudoword","f","true","",""
"null","<p style=""font-size: 50px;"">+</p>","null","html-keyboard-response","380","2.1.0","624751","J=YES, F=NO","dqto8cv093","2","66","63","70","","","","","","","","","","","","","","","",""
"null","audio/beep-329314.mp3","null","audio-keyboard-response","381","2.1.0","626291","J=YES, F=NO","dqto8cv093","2","66","63","70","","","","","","","","","","","","","","","",""
"null","audio/budget1.wav","null","audio-keyboard-response","382","2.1.0","626881","J=YES, F=NO","dqto8cv093","2","66","63","70","","","","","","","","","","","","","","","",""
"443","
          <p id=""word"" style=""font-size: 40px;"">cut</p>
          <p style=""font-size: 16px;"">J = YES &nbsp;&nbsp;&nbsp; F = NO</p>
        ","j","html-keyboard-response","383","2.1.0","627325","J=YES, F=NO","dqto8cv093","2","66","63","70","","","","","","","","","cut","budget1","metaphor","experimental","j","true","",""
"null","<p style=""font-size: 50px;"">+</p>","null","html-keyboard-response","384","2.1.0","627628","J=YES, F=NO","dqto8cv093","2","66","63","70","","","","","","","","","","","","","","","",""
"null","audio/beep-329314.mp3","null","audio-keyboard-response","385","2.1.0","629151","J=YES, F=NO","dqto8cv093","2","66","63","70","","","","","","","","","","","","","","","",""
"null","audio/emotion.wav","null","audio-keyboard-response","386","2.1.0","629842","J=YES, F=NO","dqto8cv093","2","66","63","70","","","","","","","","","","","","","","","",""
"598","
          <p id=""word"" style=""font-size: 40px;"">devering</p>
          <p style=""font-size: 16px;"">J = YES &nbsp;&nbsp;&nbsp; F = NO</p>
        ","f","html-keyboard-response","387","2.1.0","630440","J=YES, F=NO","dqto8cv093","2","66","63","70","","","","","","","","","devering","emotion","pseudoword","pseudoword","f","true","",""
"null","<p style=""font-size: 50px;"">+</p>","null","html-keyboard-response","388","2.1.0","630753","J=YES, F=NO","dqto8cv093","2","66","63","70","","","","","","","","","","","","","","","",""
"null","audio/beep-329314.mp3","null","audio-keyboard-response","389","2.1.0","632291","J=YES, F=NO","dqto8cv093","2","66","63","70","","","","","","","","","","","","","","","",""
"null","audio/trust.wav","null","audio-keyboard-response","390","2.1.0","632962","J=YES, F=NO","dqto8cv093","2","66","63","70","","","","","","","","","","","","","","","",""
"490","
          <p id=""word"" style=""font-size: 40px;"">swint</p>
          <p style=""font-size: 16px;"">J = YES &nbsp;&nbsp;&nbsp; F = NO</p>
