"rt","stimulus","response","trial_type","trial_index","plugin_version","time_elapsed","response_mapping","subject_id","list_index","lextale_score","lextale_word_score","lextale_nonword_score","success","timeout","failed_images","failed_audio","failed_video","task","isWord","isDummy","target","prime","prime_type","stimulus_type","correct_response","correct","section","question_order"
"9599","
    <div style=""max-width: 800px; margin: auto; text-align: left;"">
      <h2>STANFORD UNIVERSITY</h2>
      <h3>Research Information Sheet</h3>
      <p><strong>Protocol Director:</strong> Robert Hawkins<br>
      <strong>Protocol Title:</strong> Communication and social cognition in natural audiovisual contexts<br>
      <strong>IRB#:</strong> 77226</p>

      <p><strong>DESCRIPTION:</strong> You are invited to participate in a research study about language and communication. The purpose of the research is to understand how you interact and communicate with other people in naturalistic settings as a fluent English speaker. This research will be conducted through the Prolific platform, including participants from the US, UK, and Canada. If you decide to participate in this research, you will play a communication game in a group with one or more partners.</p>

      <p><strong>TIME INVOLVEMENT:</strong> The task will last the amount of time advertised on Prolific. You are free to withdraw from the study at any time.</p>

      <p><strong>RISKS AND BENEFITS:</strong> You may become frustrated if your partner gets distracted, or experience discomfort if other participants in your group send text that is inappropriate for the task. We ask you to please be respectful of other participants you might be interacting with to mitigate these risks. You may also experience discomfort when being asked to discuss or challenge emotionally salient political beliefs. Study data will be stored securely, in compliance with Stanford University standards, minimizing the risk of confidentiality breach. This study advances our scientific understanding of how people communicate and collaborate in naturalistic settings. This study may lead to further insights about what can go wrong in teamwork, suggest potential interventions to overcome these barriers, and help to develop assistive technologies that collaborate with human partners. We cannot and do not guarantee or promise that you will receive any benefits from this study.</p>

      <p><strong>PAYMENTS:</strong> You will receive payment in the amount advertised on Prolific. If you do not complete this study, you will receive prorated payment based on the time that you have spent. Additionally, you may be eligible for bonus payments as described in the instructions.</p>

      <p><strong>PARTICIPANT’S RIGHTS:</strong> If you have read this form and have decided to participate in this project, please understand your participation is voluntary and you have the right to withdraw your consent or discontinue participation at any time without penalty or loss of benefits to which you are otherwise entitled. The alternative is not to participate. You have the right to refuse to answer particular questions. The results of this research study may be presented at scientific or professional meetings or published in scientific journals. Your individual privacy will be maintained in all published and written data resulting from the study. In accordance with scientific norms, the data from this study may be used or shared with other researchers for future research (after removing personally identifying information) without additional consent from you.</p>

      <p><strong>CONTACT INFORMATION:</strong><br>
      Questions: If you have any questions, concerns or complaints about this research, its procedures, risks and benefits, contact the Protocol Director, Robert Hawkins (<a href=""mailto:rdhawkins@stanford.edu"">rdhawkins@stanford.edu</a>, 217-549-6923).<br>
      Independent Contact: If you are not satisfied with how this study is being conducted, or if you have any concerns, complaints, or general questions about the research or your rights as a participant, please contact the Stanford Institutional Review Board (IRB) to speak to someone independent of the research team at 650-723-2480 or toll free at 1-866-680-2906, or email at <a href=""mailto:irbnon-med@stanford.edu"">irbnon-med@stanford.edu</a>. You can also write to the Stanford IRB, Stanford University, 1705 El Camino Real, Palo Alto, CA 94306.</p>

      <p><strong>Please save or print a copy of this page for your records.</strong></p>
      <p>If you agree to participate in this research, click ""Continue"" below.</p>
    </div>
  ","0","html-button-response","0","2.1.0","9623","F=YES, J=NO","drhz74xv56","0","65","70","60","","","","","","","","","","","","","","","",""
"19966","
    <div style=""max-width: 800px; margin: auto; text-align: left;"">
      <h2>Welcome!</h2>
      <p>Thank you for participating in this study. The experiment consists of three parts:</p>
      <ol>
        <li>An English vocabulary test</li>
        <li>A main task in which you will hear and see words, and decide whether the written word is a real English word</li>
        <li>A brief survey about your background</li>
      </ol>
      <p>Each part will be introduced before it begins.</p>
      <p>Please make sure you are in a quiet environment and can hear audio clearly for the final task.</p>
      <p style=""margin-top: 2em;"">Press any key to begin.</p>
    </div>
  "," ","html-keyboard-response","1","2.1.0","29593","F=YES, J=NO","drhz74xv56","0","65","70","60","","","","","","","","","","","","","","","",""
"","","","preload","2","2.1.0","35032","F=YES, J=NO","drhz74xv56","0","65","70","60","true","false","[]","[]","[]","","","","","","","","","","",""
"10647","
    <div style=""max-width: 800px; margin: auto; text-align: left;"">
      <h2>Part 1: Vocabulary Test</h2>
      <p>You will now complete the first part of the study: a short English vocabulary test.</p>
      <p>This test is called <strong>LexTALE</strong> and helps us get a general sense of your English proficiency.</p>
      <p style=""margin-top: 2em;"">Press any key to continue.</p>
    </div>
  "," ","html-keyboard-response","3","2.1.0","45681","F=YES, J=NO","drhz74xv56","0","65","70","60","","","","","","","","","","","","","","","",""
"41578","
    <div style=""max-width: 800px; margin: auto; text-align: left;"">
      <h2>LexTALE Vocabulary Test</h2>
      <p>In this test, you will see a series of letter strings—one at a time.</p>
      <p>Your task is to decide whether each string is a real English word.</p>
      <p><strong>Key responses:</strong></p>
      <ul>
        <li><strong>F</strong> = YES (real English word)</li>
        <li><strong>J</strong> = NO (not a real English word)</li>
      </ul>
      <p>There is no time limit, but please try to be accurate.</p>
      <p style=""margin-top: 2em;"">Press any key to begin.</p>
    </div>
  "," ","html-keyboard-response","4","2.1.0","87263","F=YES, J=NO","drhz74xv56","0","65","70","60","","","","","","","","","","","","","","","",""
"2538","
  <p style=""font-size: 40px;"">platery</p>
  <p style=""font-size: 16px;"">F = YES &nbsp;&nbsp;&nbsp; J = NO</p>
","f","html-keyboard-response","5","2.1.0","89807","F=YES, J=NO","drhz74xv56","0","65","70","60","","","","","","lextale","false","true","","","","","","","",""
"2860","
  <p style=""font-size: 40px;"">denial</p>
  <p style=""font-size: 16px;"">F = YES &nbsp;&nbsp;&nbsp; J = NO</p>
","f","html-keyboard-response","6","2.1.0","92668","F=YES, J=NO","drhz74xv56","0","65","70","60","","","","","","lextale","true","true","","","","","","","",""
"2441","
  <p style=""font-size: 40px;"">marrit</p>
  <p style=""font-size: 16px;"">F = YES &nbsp;&nbsp;&nbsp; J = NO</p>
","j","html-keyboard-response","7","2.1.0","95111","F=YES, J=NO","drhz74xv56","0","65","70","60","","","","","","lextale","false","true","","","","","","","",""
"2729","
  <p style=""font-size: 40px;"">bottle</p>
  <p style=""font-size: 16px;"">F = YES &nbsp;&nbsp;&nbsp; J = NO</p>
","f","html-keyboard-response","8","2.1.0","97842","F=YES, J=NO","drhz74xv56","0","65","70","60","","","","","","lextale","true","false","","","","","","","",""
"2843","
  <p style=""font-size: 40px;"">birst</p>
  <p style=""font-size: 16px;"">F = YES &nbsp;&nbsp;&nbsp; J = NO</p>
","j","html-keyboard-response","9","2.1.0","100688","F=YES, J=NO","drhz74xv56","0","65","70","60","","","","","","lextale","false","false","","","","","","","",""
"1660","
  <p style=""font-size: 40px;"">envy</p>
  <p style=""font-size: 16px;"">F = YES &nbsp;&nbsp;&nbsp; J = NO</p>
","f","html-keyboard-response","10","2.1.0","102352","F=YES, J=NO","drhz74xv56","0","65","70","60","","","","","","lextale","true","false","","","","","","","",""
"3128","
  <p style=""font-size: 40px;"">brang</p>
  <p style=""font-size: 16px;"">F = YES &nbsp;&nbsp;&nbsp; J = NO</p>
","j","html-keyboard-response","11","2.1.0","105482","F=YES, J=NO","drhz74xv56","0","65","70","60","","","","","","lextale","false","false","","","","","","","",""
"1367","
  <p style=""font-size: 40px;"">huge</p>
  <p style=""font-size: 16px;"">F = YES &nbsp;&nbsp;&nbsp; J = NO</p>
","f","html-keyboard-response","12","2.1.0","106851","F=YES, J=NO","drhz74xv56","0","65","70","60","","","","","","lextale","true","false","","","","","","","",""
"3906","
  <p style=""font-size: 40px;"">plove</p>
  <p style=""font-size: 16px;"">F = YES &nbsp;&nbsp;&nbsp; J = NO</p>
","j","html-keyboard-response","13","2.1.0","110759","F=YES, J=NO","drhz74xv56","0","65","70","60","","","","","","lextale","false","false","","","","","","","",""
"1179","
  <p style=""font-size: 40px;"">border</p>
  <p style=""font-size: 16px;"">F = YES &nbsp;&nbsp;&nbsp; J = NO</p>
","f","html-keyboard-response","14","2.1.0","111939","F=YES, J=NO","drhz74xv56","0","65","70","60","","","","","","lextale","true","false","","","","","","","",""
"3315","
  <p style=""font-size: 40px;"">flimsy</p>
  <p style=""font-size: 16px;"">F = YES &nbsp;&nbsp;&nbsp; J = NO</p>
","j","html-keyboard-response","15","2.1.0","115256","F=YES, J=NO","drhz74xv56","0","65","70","60","","","","","","lextale","true","false","","","","","","","",""
"953","
  <p style=""font-size: 40px;"">drain</p>
  <p style=""font-size: 16px;"">F = YES &nbsp;&nbsp;&nbsp; J = NO</p>
","f","html-keyboard-response","16","2.1.0","116211","F=YES, J=NO","drhz74xv56","0","65","70","60","","","","","","lextale","true","false","","","","","","","",""
"2305","
  <p style=""font-size: 40px;"">twindle</p>
  <p style=""font-size: 16px;"">F = YES &nbsp;&nbsp;&nbsp; J = NO</p>
","j","html-keyboard-response","17","2.1.0","118518","F=YES, J=NO","drhz74xv56","0","65","70","60","","","","","","lextale","false","false","","","","","","","",""
"2130","
  <p style=""font-size: 40px;"">propose</p>
  <p style=""font-size: 16px;"">F = YES &nbsp;&nbsp;&nbsp; J = NO</p>
","f","html-keyboard-response","18","2.1.0","120650","F=YES, J=NO","drhz74xv56","0","65","70","60","","","","","","lextale","true","false","","","","","","","",""
"3916","
  <p style=""font-size: 40px;"">forlay</p>
  <p style=""font-size: 16px;"">F = YES &nbsp;&nbsp;&nbsp; J = NO</p>
","j","html-keyboard-response","19","2.1.0","124567","F=YES, J=NO","drhz74xv56","0","65","70","60","","","","","","lextale","false","false","","","","","","","",""
"6230","
  <p style=""font-size: 40px;"">tenant</p>
  <p style=""font-size: 16px;"">F = YES &nbsp;&nbsp;&nbsp; J = NO</p>
","j","html-keyboard-response","20","2.1.0","130799","F=YES, J=NO","drhz74xv56","0","65","70","60","","","","","","lextale","true","false","","","","","","","",""
"1373","
  <p style=""font-size: 40px;"">strain</p>
  <p style=""font-size: 16px;"">F = YES &nbsp;&nbsp;&nbsp; J = NO</p>
","f","html-keyboard-response","21","2.1.0","132173","F=YES, J=NO","drhz74xv56","0","65","70","60","","","","","","lextale","true","false","","","","","","","",""
"3202","
  <p style=""font-size: 40px;"">holster</p>
  <p style=""font-size: 16px;"">F = YES &nbsp;&nbsp;&nbsp; J = NO</p>
","f","html-keyboard-response","22","2.1.0","135376","F=YES, J=NO","drhz74xv56","0","65","70","60","","","","","","lextale","true","false","","","","","","","",""
"2590","
  <p style=""font-size: 40px;"">hinder</p>
  <p style=""font-size: 16px;"">F = YES &nbsp;&nbsp;&nbsp; J = NO</p>
","j","html-keyboard-response","23","2.1.0","137967","F=YES, J=NO","drhz74xv56","0","65","70","60","","","","","","lextale","true","false","","","","","","","",""
"3061","
  <p style=""font-size: 40px;"">swindle</p>
  <p style=""font-size: 16px;"">F = YES &nbsp;&nbsp;&nbsp; J = NO</p>
","j","html-keyboard-response","24","2.1.0","141029","F=YES, J=NO","drhz74xv56","0","65","70","60","","","","","","lextale","true","false","","","","","","","",""
"3011","
  <p style=""font-size: 40px;"">nuder</p>
  <p style=""font-size: 16px;"">F = YES &nbsp;&nbsp;&nbsp; J = NO</p>
","f","html-keyboard-response","25","2.1.0","144041","F=YES, J=NO","drhz74xv56","0","65","70","60","","","","","","lextale","false","false","","","","","","","",""
"1054","
  <p style=""font-size: 40px;"">pillow</p>
  <p style=""font-size: 16px;"">F = YES &nbsp;&nbsp;&nbsp; J = NO</p>
","f","html-keyboard-response","26","2.1.0","145097","F=YES, J=NO","drhz74xv56","0","65","70","60","","","","","","lextale","true","false","","","","","","","",""
"4110","
  <p style=""font-size: 40px;"">shumble</p>
  <p style=""font-size: 16px;"">F = YES &nbsp;&nbsp;&nbsp; J = NO</p>
","j","html-keyboard-response","27","2.1.0","149208","F=YES, J=NO","drhz74xv56","0","65","70","60","","","","","","lextale","false","false","","","","","","","",""
"1044","
  <p style=""font-size: 40px;"">thirst</p>
  <p style=""font-size: 16px;"">F = YES &nbsp;&nbsp;&nbsp; J = NO</p>
","f","html-keyboard-response","28","2.1.0","150254","F=YES, J=NO","drhz74xv56","0","65","70","60","","","","","","lextale","true","false","","","","","","","",""
"2834","
  <p style=""font-size: 40px;"">unsail</p>
  <p style=""font-size: 16px;"">F = YES &nbsp;&nbsp;&nbsp; J = NO</p>
","f","html-keyboard-response","29","2.1.0","153089","F=YES, J=NO","drhz74xv56","0","65","70","60","","","","","","lextale","false","false","","","","","","","",""
"2341","
  <p style=""font-size: 40px;"">rifle</p>
  <p style=""font-size: 16px;"">F = YES &nbsp;&nbsp;&nbsp; J = NO</p>
","f","html-keyboard-response","30","2.1.0","155431","F=YES, J=NO","drhz74xv56","0","65","70","60","","","","","","lextale","true","false","","","","","","","",""
"2035","
  <p style=""font-size: 40px;"">mush</p>
  <p style=""font-size: 16px;"">F = YES &nbsp;&nbsp;&nbsp; J = NO</p>
","j","html-keyboard-response","31","2.1.0","157468","F=YES, J=NO","drhz74xv56","0","65","70","60","","","","","","lextale","false","false","","","","","","","",""
"11316","
  <p style=""font-size: 40px;"">drench</p>
  <p style=""font-size: 16px;"">F = YES &nbsp;&nbsp;&nbsp; J = NO</p>
","j","html-keyboard-response","32","2.1.0","168785","F=YES, J=NO","drhz74xv56","0","65","70","60","","","","","","lextale","true","false","","","","","","","",""
"2612","
  <p style=""font-size: 40px;"">snirt</p>
  <p style=""font-size: 16px;"">F = YES &nbsp;&nbsp;&nbsp; J = NO</p>
","j","html-keyboard-response","33","2.1.0","171398","F=YES, J=NO","drhz74xv56","0","65","70","60","","","","","","lextale","false","false","","","","","","","",""
"1003","
  <p style=""font-size: 40px;"">bitter</p>
  <p style=""font-size: 16px;"">F = YES &nbsp;&nbsp;&nbsp; J = NO</p>
","f","html-keyboard-response","34","2.1.0","172402","F=YES, J=NO","drhz74xv56","0","65","70","60","","","","","","lextale","true","false","","","","","","","",""
"14355","
  <p style=""font-size: 40px;"">pliff</p>
  <p style=""font-size: 16px;"">F = YES &nbsp;&nbsp;&nbsp; J = NO</p>
","j","html-keyboard-response","35","2.1.0","186759","F=YES, J=NO","drhz74xv56","0","65","70","60","","","","","","lextale","false","false","","","","","","","",""
"2730","
  <p style=""font-size: 40px;"">tablet</p>
  <p style=""font-size: 16px;"">F = YES &nbsp;&nbsp;&nbsp; J = NO</p>
","f","html-keyboard-response","36","2.1.0","189491","F=YES, J=NO","drhz74xv56","0","65","70","60","","","","","","lextale","true","false","","","","","","","",""
"22793","
  <p style=""font-size: 40px;"">glimmer</p>
  <p style=""font-size: 16px;"">F = YES &nbsp;&nbsp;&nbsp; J = NO</p>
","f","html-keyboard-response","37","2.1.0","212286","F=YES, J=NO","drhz74xv56","0","65","70","60","","","","","","lextale","true","false","","","","","","","",""
"23188","
  <p style=""font-size: 40px;"">slink</p>
  <p style=""font-size: 16px;"">F = YES &nbsp;&nbsp;&nbsp; J = NO</p>
","f","html-keyboard-response","38","2.1.0","235475","F=YES, J=NO","drhz74xv56","0","65","70","60","","","","","","lextale","true","false","","","","","","","",""
"1059","
  <p style=""font-size: 40px;"">clever</p>
  <p style=""font-size: 16px;"">F = YES &nbsp;&nbsp;&nbsp; J = NO</p>
","f","html-keyboard-response","39","2.1.0","236535","F=YES, J=NO","drhz74xv56","0","65","70","60","","","","","","lextale","true","false","","","","","","","",""
"4063","
  <p style=""font-size: 40px;"">grum</p>
  <p style=""font-size: 16px;"">F = YES &nbsp;&nbsp;&nbsp; J = NO</p>
","j","html-keyboard-response","40","2.1.0","240600","F=YES, J=NO","drhz74xv56","0","65","70","60","","","","","","lextale","false","false","","","","","","","",""
"858","
  <p style=""font-size: 40px;"">string</p>
  <p style=""font-size: 16px;"">F = YES &nbsp;&nbsp;&nbsp; J = NO</p>
","f","html-keyboard-response","41","2.1.0","241460","F=YES, J=NO","drhz74xv56","0","65","70","60","","","","","","lextale","true","false","","","","","","","",""
"1549","
  <p style=""font-size: 40px;"">plim</p>
  <p style=""font-size: 16px;"">F = YES &nbsp;&nbsp;&nbsp; J = NO</p>
","f","html-keyboard-response","42","2.1.0","243010","F=YES, J=NO","drhz74xv56","0","65","70","60","","","","","","lextale","false","false","","","","","","","",""
"1212","
  <p style=""font-size: 40px;"">cable</p>
  <p style=""font-size: 16px;"">F = YES &nbsp;&nbsp;&nbsp; J = NO</p>
","f","html-keyboard-response","43","2.1.0","244224","F=YES, J=NO","drhz74xv56","0","65","70","60","","","","","","lextale","true","false","","","","","","","",""
"21232","
  <p style=""font-size: 40px;"">shrivel</p>
  <p style=""font-size: 16px;"">F = YES &nbsp;&nbsp;&nbsp; J = NO</p>
","f","html-keyboard-response","44","2.1.0","265458","F=YES, J=NO","drhz74xv56","0","65","70","60","","","","","","lextale","true","false","","","","","","","",""
"3454","
  <p style=""font-size: 40px;"">tarnish</p>
  <p style=""font-size: 16px;"">F = YES &nbsp;&nbsp;&nbsp; J = NO</p>
","f","html-keyboard-response","45","2.1.0","268914","F=YES, J=NO","drhz74xv56","0","65","70","60","","","","","","lextale","true","false","","","","","","","",""
"13861","
  <p style=""font-size: 40px;"">blim</p>
  <p style=""font-size: 16px;"">F = YES &nbsp;&nbsp;&nbsp; J = NO</p>
","j","html-keyboard-response","46","2.1.0","282777","F=YES, J=NO","drhz74xv56","0","65","70","60","","","","","","lextale","false","false","","","","","","","",""
"16032","
  <p style=""font-size: 40px;"">stifle</p>
  <p style=""font-size: 16px;"">F = YES &nbsp;&nbsp;&nbsp; J = NO</p>
","f","html-keyboard-response","47","2.1.0","298810","F=YES, J=NO","drhz74xv56","0","65","70","60","","","","","","lextale","true","false","","","","","","","",""
"6628","
  <p style=""font-size: 40px;"">bint</p>
  <p style=""font-size: 16px;"">F = YES &nbsp;&nbsp;&nbsp; J = NO</p>
","j","html-keyboard-response","48","2.1.0","305440","F=YES, J=NO","drhz74xv56","0","65","70","60","","","","","","lextale","false","false","","","","","","","",""
"2532","
  <p style=""font-size: 40px;"">purple</p>
  <p style=""font-size: 16px;"">F = YES &nbsp;&nbsp;&nbsp; J = NO</p>
","f","html-keyboard-response","49","2.1.0","307974","F=YES, J=NO","drhz74xv56","0","65","70","60","","","","","","lextale","true","false","","","","","","","",""
"1742","
  <p style=""font-size: 40px;"">wriggle</p>
  <p style=""font-size: 16px;"">F = YES &nbsp;&nbsp;&nbsp; J = NO</p>
","f","html-keyboard-response","50","2.1.0","309717","F=YES, J=NO","drhz74xv56","0","65","70","60","","","","","","lextale","true","false","","","","","","","",""
"2492","
  <p style=""font-size: 40px;"">mangle</p>
  <p style=""font-size: 16px;"">F = YES &nbsp;&nbsp;&nbsp; J = NO</p>
","j","html-keyboard-response","51","2.1.0","312210","F=YES, J=NO","drhz74xv56","0","65","70","60","","","","","","lextale","true","false","","","","","","","",""
"2486","
  <p style=""font-size: 40px;"">shramp</p>
  <p style=""font-size: 16px;"">F = YES &nbsp;&nbsp;&nbsp; J = NO</p>
","f","html-keyboard-response","52","2.1.0","314698","F=YES, J=NO","drhz74xv56","0","65","70","60","","","","","","lextale","false","false","","","","","","","",""
"19181","
  <p style=""font-size: 40px;"">flirt</p>
  <p style=""font-size: 16px;"">F = YES &nbsp;&nbsp;&nbsp; J = NO</p>
","f","html-keyboard-response","53","2.1.0","333880","F=YES, J=NO","drhz74xv56","0","65","70","60","","","","","","lextale","true","false","","","","","","","",""
"1864","
  <p style=""font-size: 40px;"">frip</p>
  <p style=""font-size: 16px;"">F = YES &nbsp;&nbsp;&nbsp; J = NO</p>
","f","html-keyboard-response","54","2.1.0","335746","F=YES, J=NO","drhz74xv56","0","65","70","60","","","","","","lextale","false","false","","","","","","","",""
"10552","
  <p style=""font-size: 40px;"">tangle</p>
  <p style=""font-size: 16px;"">F = YES &nbsp;&nbsp;&nbsp; J = NO</p>
","f","html-keyboard-response","55","2.1.0","346299","F=YES, J=NO","drhz74xv56","0","65","70","60","","","","","","lextale","true","false","","","","","","","",""
"996","
  <p style=""font-size: 40px;"">crumble</p>
  <p style=""font-size: 16px;"">F = YES &nbsp;&nbsp;&nbsp; J = NO</p>
","f","html-keyboard-response","56","2.1.0","347296","F=YES, J=NO","drhz74xv56","0","65","70","60","","","","","","lextale","true","false","","","","","","","",""
"1033","
  <p style=""font-size: 40px;"">wrinkle</p>
  <p style=""font-size: 16px;"">F = YES &nbsp;&nbsp;&nbsp; J = NO</p>
","f","html-keyboard-response","57","2.1.0","348331","F=YES, J=NO","drhz74xv56","0","65","70","60","","","","","","lextale","true","false","","","","","","","",""
"1755","
  <p style=""font-size: 40px;"">slumb</p>
  <p style=""font-size: 16px;"">F = YES &nbsp;&nbsp;&nbsp; J = NO</p>
","f","html-keyboard-response","58","2.1.0","350086","F=YES, J=NO","drhz74xv56","0","65","70","60","","","","","","lextale","false","false","","","","","","","",""
"708","
  <p style=""font-size: 40px;"">jungle</p>
  <p style=""font-size: 16px;"">F = YES &nbsp;&nbsp;&nbsp; J = NO</p>
","f","html-keyboard-response","59","2.1.0","350796","F=YES, J=NO","drhz74xv56","0","65","70","60","","","","","","lextale","true","false","","","","","","","",""
"17145","
  <p style=""font-size: 40px;"">frolick</p>
  <p style=""font-size: 16px;"">F = YES &nbsp;&nbsp;&nbsp; J = NO</p>
","f","html-keyboard-response","60","2.1.0","367942","F=YES, J=NO","drhz74xv56","0","65","70","60","","","","","","lextale","false","false","","","","","","","",""
"6886","
      <h2>LexTALE Test Completed</h2>
      <p>Your LexTALE vocabulary score is: <strong>65%</strong></p>
      <p>Press any key to continue.</p>
    "," ","html-keyboard-response","61","2.1.0","374832","F=YES, J=NO","drhz74xv56","0","65","70","60","","","","","","","","","","","","","","","",""
"33275","
    <div style=""max-width: 800px; margin: auto; text-align: left;"">
      <h2>Break Time</h2>
      <p>You have completed the first part of the study.</p>
      <p>You may take a short <strong>30-second break</strong> before continuing.</p>
      <p>When you’re ready, press any key to continue to the final task.</p>
    </div>
  "," ","html-keyboard-response","62","2.1.0","408108","F=YES, J=NO","drhz74xv56","0","65","70","60","","","","","","","","","","","","","","","",""
"33028","
    <div style=""max-width: 800px; margin: auto; text-align: left;"">
      <h2>Part 2: Lexical Decision Task</h2>
      <p>You will now begin the second part of the study.</p>
      <p>Each trial will follow this sequence:</p>
      <ul>
        <li>A fixation cross (+) appears at the center of the screen.</li>
        <li>You will hear a short beep followed by a spoken word.</li>
        <li>A written word will appear briefly on the screen.</li>
      </ul>
      <p>Your task is to judge whether the <strong>written word</strong> is a real English word.</p>
      <p style=""margin-top: 1em;""><strong>Key responses:</strong></p>
      <ul>
        <li><strong>F</strong> = YES (real English word)</li>
        <li><strong>J</strong> = NO (not a real English word)</li>
      </ul>
      <p>Please respond as quickly and accurately as you can.</p>
      <p style=""margin-top: 2em;"">Press any key to continue.</p>
    </div>
  "," ","html-keyboard-response","63","2.1.0","441139","F=YES, J=NO","drhz74xv56","0","65","70","60","","","","","","","","","","","","","","","",""
"24143","
    <div style=""max-width: 800px; margin: auto; text-align: left;"">
      <h2>Before You Begin</h2>
      <p>Make sure your sound is turned on.</p>
      <p>You will hear audio during each trial, but your decision should be based only on the <strong>written word</strong> you see on the screen.</p>
      <p><strong>Reminder:</strong></p>
      <ul>
        <li><strong>F</strong> = YES (real English word)</li>
        <li><strong>J</strong> = NO (not a real English word)</li>
      </ul>
      <p style=""margin-top: 2em;"">Press any key when you are ready to begin.</p>
    </div>
  "," ","html-keyboard-response","64","2.1.0","465284","F=YES, J=NO","drhz74xv56","0","65","70","60","","","","","","","","","","","","","","","",""
"3416","
    <div style=""max-width: 800px; margin: auto; text-align: left;"">
      <h2>Part 2: Practice Trials</h2>
      <p>You will now complete a few <strong>practice trials</strong> to get familiar with the task.</p>
      <p>These trials are <strong>not scored</strong> and are only to help you get used to the format.</p>
      <p style=""margin-top: 2em;"">Press any key to begin.</p>
    </div>
  "," ","html-keyboard-response","65","2.1.0","468701","F=YES, J=NO","drhz74xv56","0","65","70","60","","","","","","","","","","","","","","","",""
"3628","<p>Starting practice block 1 of 2. Press any key to continue.</p>"," ","html-keyboard-response","66","2.1.0","472331","F=YES, J=NO","drhz74xv56","0","65","70","60","","","","","","","","","","","","","","","",""
"null","<p style=""font-size: 50px;"">+</p>","null","html-keyboard-response","67","2.1.0","472642","F=YES, J=NO","drhz74xv56","0","65","70","60","","","","","","","","","","","","","","","",""
"null","audio/beep-329314.mp3","null","audio-keyboard-response","68","2.1.0","474845","F=YES, J=NO","drhz74xv56","0","65","70","60","","","","","","","","","","","","","","","",""
"null","audio/beach1.wav","null","audio-keyboard-response","69","2.1.0","475475","F=YES, J=NO","drhz74xv56","0","65","70","60","","","","","","","","","","","","","","","",""
"null","
          <p id=""word"" style=""font-size: 40px;"">drive</p>
          <p style=""font-size: 16px;"">F = YES &nbsp;&nbsp;&nbsp; J = NO</p>
        ","null","html-keyboard-response","70","2.1.0","476983","F=YES, J=NO","drhz74xv56","0","65","70","60","","","","","","","","","drive","beach1","filler","filler","f","false","",""
"null","<p style=""font-size: 50px;"">+</p>","null","html-keyboard-response","71","2.1.0","477303","F=YES, J=NO","drhz74xv56","0","65","70","60","","","","","","","","","","","","","","","",""
"null","audio/beep-329314.mp3","null","audio-keyboard-response","72","2.1.0","478844","F=YES, J=NO","drhz74xv56","0","65","70","60","","","","","","","","","","","","","","","",""
"null","audio/alarm1.wav","null","audio-keyboard-response","73","2.1.0","479475","F=YES, J=NO","drhz74xv56","0","65","70","60","","","","","","","","","","","","","","","",""
"null","
          <p id=""word"" style=""font-size: 40px;"">lock</p>
          <p style=""font-size: 16px;"">F = YES &nbsp;&nbsp;&nbsp; J = NO</p>
        ","null","html-keyboard-response","74","2.1.0","480993","F=YES, J=NO","drhz74xv56","0","65","70","60","","","","","","","","","lock","alarm1","filler","filler","f","false","",""
"null","<p style=""font-size: 50px;"">+</p>","null","html-keyboard-response","75","2.1.0","481303","F=YES, J=NO","drhz74xv56","0","65","70","60","","","","","","","","","","","","","","","",""
"null","audio/beep-329314.mp3","null","audio-keyboard-response","76","2.1.0","482845","F=YES, J=NO","drhz74xv56","0","65","70","60","","","","","","","","","","","","","","","",""
"null","audio/butter1.wav","null","audio-keyboard-response","77","2.1.0","483334","F=YES, J=NO","drhz74xv56","0","65","70","60","","","","","","","","","","","","","","","",""
"null","
          <p id=""word"" style=""font-size: 40px;"">chew</p>
          <p style=""font-size: 16px;"">F = YES &nbsp;&nbsp;&nbsp; J = NO</p>
        ","null","html-keyboard-response","78","2.1.0","484843","F=YES, J=NO","drhz74xv56","0","65","70","60","","","","","","","","","chew","butter1","filler","filler","f","false","",""
"null","<p style=""font-size: 50px;"">+</p>","null","html-keyboard-response","79","2.1.0","485152","F=YES, J=NO","drhz74xv56","0","65","70","60","","","","","","","","","","","","","","","",""
"null","audio/beep-329314.mp3","null","audio-keyboard-response","80","2.1.0","486684","F=YES, J=NO","drhz74xv56","0","65","70","60","","","","","","","","","","","","","","","",""
"null","audio/kettle1.wav","null","audio-keyboard-response","81","2.1.0","487272","F=YES, J=NO","drhz74xv56","0","65","70","60","","","","","","","","","","","","","","","",""
"1169","
          <p id=""word"" style=""font-size: 40px;"">wrap</p>
          <p style=""font-size: 16px;"">F = YES &nbsp;&nbsp;&nbsp; J = NO</p>
        ","j","html-keyboard-response","82","2.1.0","488443","F=YES, J=NO","drhz74xv56","0","65","70","60","","","","","","","","","wrap","kettle1","filler","filler","f","false","",""
"null","<p style=""font-size: 50px;"">+</p>","null","html-keyboard-response","83","2.1.0","488753","F=YES, J=NO","drhz74xv56","0","65","70","60","","","","","","","","","","","","","","","",""
"null","audio/beep-329314.mp3","null","audio-keyboard-response","84","2.1.0","490284","F=YES, J=NO","drhz74xv56","0","65","70","60","","","","","","","","","","","","","","","",""
"null","audio/arm.wav","null","audio-keyboard-response","85","2.1.0","490855","F=YES, J=NO","drhz74xv56","0","65","70","60","","","","","","","","","","","","","","","",""
"966","
          <p id=""word"" style=""font-size: 40px;"">pigne</p>
          <p style=""font-size: 16px;"">F = YES &nbsp;&nbsp;&nbsp; J = NO</p>
        ","j","html-keyboard-response","86","2.1.0","491823","F=YES, J=NO","drhz74xv56","0","65","70","60","","","","","","","","","pigne","arm","pseudoword","pseudoword","j","true","",""
"null","<p style=""font-size: 50px;"">+</p>","null","html-keyboard-response","87","2.1.0","492134","F=YES, J=NO","drhz74xv56","0","65","70","60","","","","","","","","","","","","","","","",""
"null","audio/beep-329314.mp3","null","audio-keyboard-response","88","2.1.0","493664","F=YES, J=NO","drhz74xv56","0","65","70","60","","","","","","","","","","","","","","","",""
"null","audio/planet1.wav","null","audio-keyboard-response","89","2.1.0","494594","F=YES, J=NO","drhz74xv56","0","65","70","60","","","","","","","","","","","","","","","",""
"1476","
          <p id=""word"" style=""font-size: 40px;"">cratched</p>
          <p style=""font-size: 16px;"">F = YES &nbsp;&nbsp;&nbsp; J = NO</p>
        ","f","html-keyboard-response","90","2.1.0","496071","F=YES, J=NO","drhz74xv56","0","65","70","60","","","","","","","","","cratched","planet1","pseudoword","pseudoword","j","false","",""
"null","<p style=""font-size: 50px;"">+</p>","null","html-keyboard-response","91","2.1.0","496393","F=YES, J=NO","drhz74xv56","0","65","70","60","","","","","","","","","","","","","","","",""
"null","audio/beep-329314.mp3","null","audio-keyboard-response","92","2.1.0","497924","F=YES, J=NO","drhz74xv56","0","65","70","60","","","","","","","","","","","","","","","",""
"null","audio/bottle.wav","null","audio-keyboard-response","93","2.1.0","498654","F=YES, J=NO","drhz74xv56","0","65","70","60","","","","","","","","","","","","","","","",""
"null","
          <p id=""word"" style=""font-size: 40px;"">watch</p>
          <p style=""font-size: 16px;"">F = YES &nbsp;&nbsp;&nbsp; J = NO</p>
        ","null","html-keyboard-response","94","2.1.0","500163","F=YES, J=NO","drhz74xv56","0","65","70","60","","","","","","","","","watch","bottle","filler","filler","f","false","",""
"null","<p style=""font-size: 50px;"">+</p>","null","html-keyboard-response","95","2.1.0","500483","F=YES, J=NO","drhz74xv56","0","65","70","60","","","","","","","","","","","","","","","",""
"null","audio/beep-329314.mp3","null","audio-keyboard-response","96","2.1.0","502024","F=YES, J=NO","drhz74xv56","0","65","70","60","","","","","","","","","","","","","","","",""
"null","audio/trust.wav","null","audio-keyboard-response","97","2.1.0","503094","F=YES, J=NO","drhz74xv56","0","65","70","60","","","","","","","","","","","","","","","",""
"1151","
          <p id=""word"" style=""font-size: 40px;"">swint</p>
          <p style=""font-size: 16px;"">F = YES &nbsp;&nbsp;&nbsp; J = NO</p>
        ","j","html-keyboard-response","98","2.1.0","504247","F=YES, J=NO","drhz74xv56","0","65","70","60","","","","","","","","","swint","trust","pseudoword","pseudoword","j","true","",""
"null","<p style=""font-size: 50px;"">+</p>","null","html-keyboard-response","99","2.1.0","504564","F=YES, J=NO","drhz74xv56","0","65","70","60","","","","","","","","","","","","","","","",""
"null","audio/beep-329314.mp3","null","audio-keyboard-response","100","2.1.0","506104","F=YES, J=NO","drhz74xv56","0","65","70","60","","","","","","","","","","","","","","","",""
"null","audio/foe1.wav","null","audio-keyboard-response","101","2.1.0","507414","F=YES, J=NO","drhz74xv56","0","65","70","60","","","","","","","","","","","","","","","",""
"1142","
          <p id=""word"" style=""font-size: 40px;"">creth</p>
          <p style=""font-size: 16px;"">F = YES &nbsp;&nbsp;&nbsp; J = NO</p>
        ","j","html-keyboard-response","102","2.1.0","508558","F=YES, J=NO","drhz74xv56","0","65","70","60","","","","","","","","","creth","foe1","pseudoword","pseudoword","j","true","",""
"null","<p style=""font-size: 50px;"">+</p>","null","html-keyboard-response","103","2.1.0","508874","F=YES, J=NO","drhz74xv56","0","65","70","60","","","","","","","","","","","","","","","",""
"null","audio/beep-329314.mp3","null","audio-keyboard-response","104","2.1.0","510404","F=YES, J=NO","drhz74xv56","0","65","70","60","","","","","","","","","","","","","","","",""
"null","audio/battle1.wav","null","audio-keyboard-response","105","2.1.0","511894","F=YES, J=NO","drhz74xv56","0","65","70","60","","","","","","","","","","","","","","","",""
"1496","
          <p id=""word"" style=""font-size: 40px;"">boil</p>
          <p style=""font-size: 16px;"">F = YES &nbsp;&nbsp;&nbsp; J = NO</p>
        ","f","html-keyboard-response","106","2.1.0","513392","F=YES, J=NO","drhz74xv56","0","65","70","60","","","","","","","","","boil","battle1","filler","filler","f","true","",""
"null","<p style=""font-size: 50px;"">+</p>","null","html-keyboard-response","107","2.1.0","513703","F=YES, J=NO","drhz74xv56","0","65","70","60","","","","","","","","","","","","","","","",""
"null","audio/beep-329314.mp3","null","audio-keyboard-response","108","2.1.0","515244","F=YES, J=NO","drhz74xv56","0","65","70","60","","","","","","","","","","","","","","","",""
"null","audio/strength.wav","null","audio-keyboard-response","109","2.1.0","516434","F=YES, J=NO","drhz74xv56","0","65","70","60","","","","","","","","","","","","","","","",""
"1233","
          <p id=""word"" style=""font-size: 40px;"">plabet</p>
          <p style=""font-size: 16px;"">F = YES &nbsp;&nbsp;&nbsp; J = NO</p>
        ","j","html-keyboard-response","110","2.1.0","517669","F=YES, J=NO","drhz74xv56","0","65","70","60","","","","","","","","","plabet","strength","pseudoword","pseudoword","j","true","",""
"null","<p style=""font-size: 50px;"">+</p>","null","html-keyboard-response","111","2.1.0","517982","F=YES, J=NO","drhz74xv56","0","65","70","60","","","","","","","","","","","","","","","",""
"null","audio/beep-329314.mp3","null","audio-keyboard-response","112","2.1.0","519524","F=YES, J=NO","drhz74xv56","0","65","70","60","","","","","","","","","","","","","","","",""
"null","audio/road.wav","null","audio-keyboard-response","113","2.1.0","520494","F=YES, J=NO","drhz74xv56","0","65","70","60","","","","","","","","","","","","","","","",""
"1317","
          <p id=""word"" style=""font-size: 40px;"">wappings</p>
          <p style=""font-size: 16px;"">F = YES &nbsp;&nbsp;&nbsp; J = NO</p>
        ","f","html-keyboard-response","114","2.1.0","521813","F=YES, J=NO","drhz74xv56","0","65","70","60","","","","","","","","","wappings","road","pseudoword","pseudoword","j","false","",""
"54043","<p>Starting practice block 2 of 2. Press any key to continue.</p>"," ","html-keyboard-response","115","2.1.0","575858","F=YES, J=NO","drhz74xv56","0","65","70","60","","","","","","","","","","","","","","","",""
"null","<p style=""font-size: 50px;"">+</p>","null","html-keyboard-response","116","2.1.0","576161","F=YES, J=NO","drhz74xv56","0","65","70","60","","","","","","","","","","","","","","","",""
"null","audio/beep-329314.mp3","null","audio-keyboard-response","117","2.1.0","578579","F=YES, J=NO","drhz74xv56","0","65","70","60","","","","","","","","","","","","","","","",""
"null","audio/cash1.wav","null","audio-keyboard-response","118","2.1.0","579389","F=YES, J=NO","drhz74xv56","0","65","70","60","","","","","","","","","","","","","","","",""
"1092","
          <p id=""word"" style=""font-size: 40px;"">splear</p>
          <p style=""font-size: 16px;"">F = YES &nbsp;&nbsp;&nbsp; J = NO</p>
        ","j","html-keyboard-response","119","2.1.0","580483","F=YES, J=NO","drhz74xv56","0","65","70","60","","","","","","","","","splear","cash1","pseudoword","pseudoword","j","true","",""
"null","<p style=""font-size: 50px;"">+</p>","null","html-keyboard-response","120","2.1.0","580798","F=YES, J=NO","drhz74xv56","0","65","70","60","","","","","","","","","","","","","","","",""
"null","audio/beep-329314.mp3","null","audio-keyboard-response","121","2.1.0","582339","F=YES, J=NO","drhz74xv56","0","65","70","60","","","","","","","","","","","","","","","",""
"null","audio/bridge.wav","null","audio-keyboard-response","122","2.1.0","583109","F=YES, J=NO","drhz74xv56","0","65","70","60","","","","","","","","","","","","","","","",""
"1007","
          <p id=""word"" style=""font-size: 40px;"">crack</p>
          <p style=""font-size: 16px;"">F = YES &nbsp;&nbsp;&nbsp; J = NO</p>
        ","f","html-keyboard-response","123","2.1.0","584117","F=YES, J=NO","drhz74xv56","0","65","70","60","","","","","","","","","crack","bridge","filler","filler","f","true","",""
"null","<p style=""font-size: 50px;"">+</p>","null","html-keyboard-response","124","2.1.0","584419","F=YES, J=NO","drhz74xv56","0","65","70","60","","","","","","","","","","","","","","","",""
"null","audio/beep-329314.mp3","null","audio-keyboard-response","125","2.1.0","585959","F=YES, J=NO","drhz74xv56","0","65","70","60","","","","","","","","","","","","","","","",""
"null","audio/weight1.wav","null","audio-keyboard-response","126","2.1.0","586549","F=YES, J=NO","drhz74xv56","0","65","70","60","","","","","","","","","","","","","","","",""
"null","
          <p id=""word"" style=""font-size: 40px;"">crimsh</p>
          <p style=""font-size: 16px;"">F = YES &nbsp;&nbsp;&nbsp; J = NO</p>
        ","null","html-keyboard-response","127","2.1.0","588063","F=YES, J=NO","drhz74xv56","0","65","70","60","","","","","","","","","crimsh","weight1","pseudoword","pseudoword","j","false","",""
"null","<p style=""font-size: 50px;"">+</p>","null","html-keyboard-response","128","2.1.0","588379","F=YES, J=NO","drhz74xv56","0","65","70","60","","","","","","","","","","","","","","","",""
"null","audio/beep-329314.mp3","null","audio-keyboard-response","129","2.1.0","589919","F=YES, J=NO","drhz74xv56","0","65","70","60","","","","","","","","","","","","","","","",""
"null","audio/effort.wav","null","audio-keyboard-response","130","2.1.0","590889","F=YES, J=NO","drhz74xv56","0","65","70","60","","","","","","","","","","","","","","","",""
"929","
          <p id=""word"" style=""font-size: 40px;"">whonk</p>
          <p style=""font-size: 16px;"">F = YES &nbsp;&nbsp;&nbsp; J = NO</p>
        ","j","html-keyboard-response","131","2.1.0","591820","F=YES, J=NO","drhz74xv56","0","65","70","60","","","","","","","","","whonk","effort","pseudoword","pseudoword","j","true","",""
"null","<p style=""font-size: 50px;"">+</p>","null","html-keyboard-response","132","2.1.0","592133","F=YES, J=NO","drhz74xv56","0","65","70","60","","","","","","","","","","","","","","","",""
"null","audio/beep-329314.mp3","null","audio-keyboard-response","133","2.1.0","593659","F=YES, J=NO","drhz74xv56","0","65","70","60","","","","","","","","","","","","","","","",""
"null","audio/account1.wav","null","audio-keyboard-response","134","2.1.0","594869","F=YES, J=NO","drhz74xv56","0","65","70","60","","","","","","","","","","","","","","","",""
"777","
          <p id=""word"" style=""font-size: 40px;"">paint</p>
          <p style=""font-size: 16px;"">F = YES &nbsp;&nbsp;&nbsp; J = NO</p>
        ","f","html-keyboard-response","135","2.1.0","595647","F=YES, J=NO","drhz74xv56","0","65","70","60","","","","","","","","","paint","account1","filler","filler","f","true","",""
"null","<p style=""font-size: 50px;"">+</p>","null","html-keyboard-response","136","2.1.0","595966","F=YES, J=NO","drhz74xv56","0","65","70","60","","","","","","","","","","","","","","","",""
"null","audio/beep-329314.mp3","null","audio-keyboard-response","137","2.1.0","597500","F=YES, J=NO","drhz74xv56","0","65","70","60","","","","","","","","","","","","","","","",""
"null","audio/flaw.wav","null","audio-keyboard-response","138","2.1.0","598429","F=YES, J=NO","drhz74xv56","0","65","70","60","","","","","","","","","","","","","","","",""
"955","
          <p id=""word"" style=""font-size: 40px;"">thwool</p>
          <p style=""font-size: 16px;"">F = YES &nbsp;&nbsp;&nbsp; J = NO</p>
        ","j","html-keyboard-response","139","2.1.0","599385","F=YES, J=NO","drhz74xv56","0","65","70","60","","","","","","","","","thwool","flaw","pseudoword","pseudoword","j","true","",""
"null","<p style=""font-size: 50px;"">+</p>","null","html-keyboard-response","140","2.1.0","599698","F=YES, J=NO","drhz74xv56","0","65","70","60","","","","","","","","","","","","","","","",""
"null","audio/beep-329314.mp3","null","audio-keyboard-response","141","2.1.0","601239","F=YES, J=NO","drhz74xv56","0","65","70","60","","","","","","","","","","","","","","","",""
"null","audio/handle.wav","null","audio-keyboard-response","142","2.1.0","602489","F=YES, J=NO","drhz74xv56","0","65","70","60","","","","","","","","","","","","","","","",""
"1379","
          <p id=""word"" style=""font-size: 40px;"">moutes</p>
          <p style=""font-size: 16px;"">F = YES &nbsp;&nbsp;&nbsp; J = NO</p>
        ","j","html-keyboard-response","143","2.1.0","603869","F=YES, J=NO","drhz74xv56","0","65","70","60","","","","","","","","","moutes","handle","pseudoword","pseudoword","j","true","",""
"null","<p style=""font-size: 50px;"">+</p>","null","html-keyboard-response","144","2.1.0","604178","F=YES, J=NO","drhz74xv56","0","65","70","60","","","","","","","","","","","","","","","",""
"null","audio/beep-329314.mp3","null","audio-keyboard-response","145","2.1.0","605719","F=YES, J=NO","drhz74xv56","0","65","70","60","","","","","","","","","","","","","","","",""
"null","audio/belief.wav","null","audio-keyboard-response","146","2.1.0","606369","F=YES, J=NO","drhz74xv56","0","65","70","60","","","","","","","","","","","","","","","",""
"1008","
          <p id=""word"" style=""font-size: 40px;"">read</p>
          <p style=""font-size: 16px;"">F = YES &nbsp;&nbsp;&nbsp; J = NO</p>
        ","f","html-keyboard-response","147","2.1.0","607379","F=YES, J=NO","drhz74xv56","0","65","70","60","","","","","","","","","read","belief","filler","filler","f","true","",""
"null","<p style=""font-size: 50px;"">+</p>","null","html-keyboard-response","148","2.1.0","607688","F=YES, J=NO","drhz74xv56","0","65","70","60","","","","","","","","","","","","","","","",""
"null","audio/beep-329314.mp3","null","audio-keyboard-response","149","2.1.0","609219","F=YES, J=NO","drhz74xv56","0","65","70","60","","","","","","","","","","","","","","","",""
"null","audio/baby.wav","null","audio-keyboard-response","150","2.1.0","609709","F=YES, J=NO","drhz74xv56","0","65","70","60","","","","","","","","","","","","","","","",""
"1368","
          <p id=""word"" style=""font-size: 40px;"">lift</p>
          <p style=""font-size: 16px;"">F = YES &nbsp;&nbsp;&nbsp; J = NO</p>
        ","f","html-keyboard-response","151","2.1.0","611079","F=YES, J=NO","drhz74xv56","0","65","70","60","","","","","","","","","lift","baby","filler","filler","f","true","",""
"null","<p style=""font-size: 50px;"">+</p>","null","html-keyboard-response","152","2.1.0","611395","F=YES, J=NO","drhz74xv56","0","65","70","60","","","","","","","","","","","","","","","",""
"null","audio/beep-329314.mp3","null","audio-keyboard-response","153","2.1.0","612919","F=YES, J=NO","drhz74xv56","0","65","70","60","","","","","","","","","","","","","","","",""
"null","audio/pig.wav","null","audio-keyboard-response","154","2.1.0","613408","F=YES, J=NO","drhz74xv56","0","65","70","60","","","","","","","","","","","","","","","",""
"1137","
          <p id=""word"" style=""font-size: 40px;"">tirlike</p>
          <p style=""font-size: 16px;"">F = YES &nbsp;&nbsp;&nbsp; J = NO</p>
        ","f","html-keyboard-response","155","2.1.0","614546","F=YES, J=NO","drhz74xv56","0","65","70","60","","","","","","","","","tirlike","pig","pseudoword","pseudoword","j","false","",""
"null","<p style=""font-size: 50px;"">+</p>","null","html-keyboard-response","156","2.1.0","614854","F=YES, J=NO","drhz74xv56","0","65","70","60","","","","","","","","","","","","","","","",""
"null","audio/beep-329314.mp3","null","audio-keyboard-response","157","2.1.0","616379","F=YES, J=NO","drhz74xv56","0","65","70","60","","","","","","","","","","","","","","","",""
"null","audio/ankle1.wav","null","audio-keyboard-response","158","2.1.0","616930","F=YES, J=NO","drhz74xv56","0","65","70","60","","","","","","","","","","","","","","","",""
"798","
          <p id=""word"" style=""font-size: 40px;"">kick</p>
          <p style=""font-size: 16px;"">F = YES &nbsp;&nbsp;&nbsp; J = NO</p>
        ","f","html-keyboard-response","159","2.1.0","617730","F=YES, J=NO","drhz74xv56","0","65","70","60","","","","","","","","","kick","ankle1","filler","filler","f","true","",""
"null","<p style=""font-size: 50px;"">+</p>","null","html-keyboard-response","160","2.1.0","618035","F=YES, J=NO","drhz74xv56","0","65","70","60","","","","","","","","","","","","","","","",""
"null","audio/beep-329314.mp3","null","audio-keyboard-response","161","2.1.0","619559","F=YES, J=NO","drhz74xv56","0","65","70","60","","","","","","","","","","","","","","","",""
"null","audio/floor.wav","null","audio-keyboard-response","162","2.1.0","620409","F=YES, J=NO","drhz74xv56","0","65","70","60","","","","","","","","","","","","","","","",""
"1415","
          <p id=""word"" style=""font-size: 40px;"">mop</p>
          <p style=""font-size: 16px;"">F = YES &nbsp;&nbsp;&nbsp; J = NO</p>
        ","f","html-keyboard-response","163","2.1.0","621826","F=YES, J=NO","drhz74xv56","0","65","70","60","","","","","","","","","mop","floor","filler","filler","f","true","",""
"68949","
    <div style=""max-width: 800px; margin: auto; text-align: left;"">
      <h2>Part 2: Main Trials</h2>
      <p>Great job on the practice trials!</p>
      <p>You will now begin the <strong>main set of trials</strong>.</p>
      <p>Remember your key assignments:</p>
      <ul>
        <li><strong>F</strong> = YES (real English word)</li>
        <li><strong>J</strong> = NO (not a real English word)</li>
      </ul>
      <p>Try to respond as <strong>quickly and accurately</strong> as possible.</p>
      <p style=""margin-top: 2em;"">Press any key to begin the main trials.</p>
    </div>
  "," ","html-keyboard-response","164","2.1.0","690777","F=YES, J=NO","drhz74xv56","0","65","70","60","","","","","","","","","","","","","","","",""
"2267","<p>Starting main block 1 of 8. Press any key to continue.</p>"," ","html-keyboard-response","165","2.1.0","693045","F=YES, J=NO","drhz74xv56","0","65","70","60","","","","","","","","","","","","","","","",""
"null","<p style=""font-size: 50px;"">+</p>","null","html-keyboard-response","166","2.1.0","693347","F=YES, J=NO","drhz74xv56","0","65","70","60","","","","","","","","","","","","","","","",""
"null","audio/beep-329314.mp3","null","audio-keyboard-response","167","2.1.0","695007","F=YES, J=NO","drhz74xv56","0","65","70","60","","","","","","","","","","","","","","","",""
"null","audio/wool1.wav","null","audio-keyboard-response","168","2.1.0","695406","F=YES, J=NO","drhz74xv56","0","65","70","60","","","","","","","","","","","","","","","",""
"1476","
          <p id=""word"" style=""font-size: 40px;"">weave</p>
          <p style=""font-size: 16px;"">F = YES &nbsp;&nbsp;&nbsp; J = NO</p>
        ","f","html-keyboard-response","169","2.1.0","696885","F=YES, J=NO","drhz74xv56","0","65","70","60","","","","","","","","","weave","wool1","literal","experimental","f","true","",""
"null","<p style=""font-size: 50px;"">+</p>","null","html-keyboard-response","170","2.1.0","697205","F=YES, J=NO","drhz74xv56","0","65","70","60","","","","","","","","","","","","","","","",""
"null","audio/beep-329314.mp3","null","audio-keyboard-response","171","2.1.0","698746","F=YES, J=NO","drhz74xv56","0","65","70","60","","","","","","","","","","","","","","","",""
"null","audio/cloud1.wav","null","audio-keyboard-response","172","2.1.0","699606","F=YES, J=NO","drhz74xv56","0","65","70","60","","","","","","","","","","","","","","","",""
"1203","
          <p id=""word"" style=""font-size: 40px;"">brotant</p>
          <p style=""font-size: 16px;"">F = YES &nbsp;&nbsp;&nbsp; J = NO</p>
        ","j","html-keyboard-response","173","2.1.0","700811","F=YES, J=NO","drhz74xv56","0","65","70","60","","","","","","","","","brotant","cloud1","pseudoword","pseudoword","j","true","",""
"null","<p style=""font-size: 50px;"">+</p>","null","html-keyboard-response","174","2.1.0","701124","F=YES, J=NO","drhz74xv56","0","65","70","60","","","","","","","","","","","","","","","",""
"null","audio/beep-329314.mp3","null","audio-keyboard-response","175","2.1.0","702666","F=YES, J=NO","drhz74xv56","0","65","70","60","","","","","","","","","","","","","","","",""
"null","audio/gossip1.wav","null","audio-keyboard-response","176","2.1.0","703586","F=YES, J=NO","drhz74xv56","0","65","70","60","","","","","","","","","","","","","","","",""
"null","
          <p id=""word"" style=""font-size: 40px;"">camerish</p>
          <p style=""font-size: 16px;"">F = YES &nbsp;&nbsp;&nbsp; J = NO</p>
        ","null","html-keyboard-response","177","2.1.0","705101","F=YES, J=NO","drhz74xv56","0","65","70","60","","","","","","","","","camerish","gossip1","pseudoword","pseudoword","j","false","",""
"null","<p style=""font-size: 50px;"">+</p>","null","html-keyboard-response","178","2.1.0","705404","F=YES, J=NO","drhz74xv56","0","65","70","60","","","","","","","","","","","","","","","",""
"null","audio/beep-329314.mp3","null","audio-keyboard-response","179","2.1.0","706946","F=YES, J=NO","drhz74xv56","0","65","70","60","","","","","","","","","","","","","","","",""
"null","audio/novel.wav","null","audio-keyboard-response","180","2.1.0","707767","F=YES, J=NO","drhz74xv56","0","65","70","60","","","","","","","","","","","","","","","",""
"601","
          <p id=""word"" style=""font-size: 40px;"">type</p>
          <p style=""font-size: 16px;"">F = YES &nbsp;&nbsp;&nbsp; J = NO</p>
        ","f","html-keyboard-response","181","2.1.0","708370","F=YES, J=NO","drhz74xv56","0","65","70","60","","","","","","","","","type","novel","filler","filler","f","true","",""
"null","<p style=""font-size: 50px;"">+</p>","null","html-keyboard-response","182","2.1.0","708684","F=YES, J=NO","drhz74xv56","0","65","70","60","","","","","","","","","","","","","","","",""
"null","audio/beep-329314.mp3","null","audio-keyboard-response","183","2.1.0","710226","F=YES, J=NO","drhz74xv56","0","65","70","60","","","","","","","","","","","","","","","",""
"null","audio/demon1.wav","null","audio-keyboard-response","184","2.1.0","710926","F=YES, J=NO","drhz74xv56","0","65","70","60","","","","","","","","","","","","","","","",""
"1161","
          <p id=""word"" style=""font-size: 40px;"">wrestle</p>
          <p style=""font-size: 16px;"">F = YES &nbsp;&nbsp;&nbsp; J = NO</p>
        ","f","html-keyboard-response","185","2.1.0","712088","F=YES, J=NO","drhz74xv56","0","65","70","60","","","","","","","","","wrestle","demon1","metaphor","experimental","f","true","",""
"null","<p style=""font-size: 50px;"">+</p>","null","html-keyboard-response","186","2.1.0","712395","F=YES, J=NO","drhz74xv56","0","65","70","60","","","","","","","","","","","","","","","",""
"null","audio/beep-329314.mp3","null","audio-keyboard-response","187","2.1.0","713926","F=YES, J=NO","drhz74xv56","0","65","70","60","","","","","","","","","","","","","","","",""
"null","audio/tomato.wav","null","audio-keyboard-response","188","2.1.0","715006","F=YES, J=NO","drhz74xv56","0","65","70","60","","","","","","","","","","","","","","","",""
"558","
          <p id=""word"" style=""font-size: 40px;"">grow</p>
          <p style=""font-size: 16px;"">F = YES &nbsp;&nbsp;&nbsp; J = NO</p>
        ","f","html-keyboard-response","189","2.1.0","715566","F=YES, J=NO","drhz74xv56","0","65","70","60","","","","","","","","","grow","tomato","literal","experimental","f","true","",""
"null","<p style=""font-size: 50px;"">+</p>","null","html-keyboard-response","190","2.1.0","715875","F=YES, J=NO","drhz74xv56","0","65","70","60","","","","","","","","","","","","","","","",""
"null","audio/beep-329314.mp3","null","audio-keyboard-response","191","2.1.0","717406","F=YES, J=NO","drhz74xv56","0","65","70","60","","","","","","","","","","","","","","","",""
"null","audio/tunnel.wav","null","audio-keyboard-response","192","2.1.0","717866","F=YES, J=NO","drhz74xv56","0","65","70","60","","","","","","","","","","","","","","","",""
"1248","
          <p id=""word"" style=""font-size: 40px;"">gred</p>
          <p style=""font-size: 16px;"">F = YES &nbsp;&nbsp;&nbsp; J = NO</p>
        ","j","html-keyboard-response","193","2.1.0","719116","F=YES, J=NO","drhz74xv56","0","65","70","60","","","","","","","","","gred","tunnel","pseudoword","pseudoword","j","true","",""
"null","<p style=""font-size: 50px;"">+</p>","null","html-keyboard-response","194","2.1.0","719424","F=YES, J=NO","drhz74xv56","0","65","70","60","","","","","","","","","","","","","","","",""
"null","audio/beep-329314.mp3","null","audio-keyboard-response","195","2.1.0","720967","F=YES, J=NO","drhz74xv56","0","65","70","60","","","","","","","","","","","","","","","",""
"null","audio/sand.wav","null","audio-keyboard-response","196","2.1.0","721926","F=YES, J=NO","drhz74xv56","0","65","70","60","","","","","","","","","","","","","","","",""
"1246","
          <p id=""word"" style=""font-size: 40px;"">proted</p>
          <p style=""font-size: 16px;"">F = YES &nbsp;&nbsp;&nbsp; J = NO</p>
        ","f","html-keyboard-response","197","2.1.0","723174","F=YES, J=NO","drhz74xv56","0","65","70","60","","","","","","","","","proted","sand","pseudoword","pseudoword","j","false","",""
"null","<p style=""font-size: 50px;"">+</p>","null","html-keyboard-response","198","2.1.0","723540","F=YES, J=NO","drhz74xv56","0","65","70","60","","","","","","","","","","","","","","","",""
"null","audio/beep-329314.mp3","null","audio-keyboard-response","199","2.1.0","725066","F=YES, J=NO","drhz74xv56","0","65","70","60","","","","","","","","","","","","","","","",""
"null","audio/uncle1.wav","null","audio-keyboard-response","200","2.1.0","725766","F=YES, J=NO","drhz74xv56","0","65","70","60","","","","","","","","","","","","","","","",""
"1010","
          <p id=""word"" style=""font-size: 40px;"">dramble</p>
          <p style=""font-size: 16px;"">F = YES &nbsp;&nbsp;&nbsp; J = NO</p>
        ","f","html-keyboard-response","201","2.1.0","726778","F=YES, J=NO","drhz74xv56","0","65","70","60","","","","","","","","","dramble","uncle1","pseudoword","pseudoword","j","false","",""
"null","<p style=""font-size: 50px;"">+</p>","null","html-keyboard-response","202","2.1.0","727094","F=YES, J=NO","drhz74xv56","0","65","70","60","","","","","","","","","","","","","","","",""
"null","audio/beep-329314.mp3","null","audio-keyboard-response","203","2.1.0","728626","F=YES, J=NO","drhz74xv56","0","65","70","60","","","","","","","","","","","","","","","",""
"null","audio/beach1.wav","null","audio-keyboard-response","204","2.1.0","729226","F=YES, J=NO","drhz74xv56","0","65","70","60","","","","","","","","","","","","","","","",""
"535","
          <p id=""word"" style=""font-size: 40px;"">cut</p>
          <p style=""font-size: 16px;"">F = YES &nbsp;&nbsp;&nbsp; J = NO</p>
        ","f","html-keyboard-response","205","2.1.0","729763","F=YES, J=NO","drhz74xv56","0","65","70","60","","","","","","","","","cut","beach1","unrelated","experimental","f","true","",""
"null","<p style=""font-size: 50px;"">+</p>","null","html-keyboard-response","206","2.1.0","730075","F=YES, J=NO","drhz74xv56","0","65","70","60","","","","","","","","","","","","","","","",""
"null","audio/beep-329314.mp3","null","audio-keyboard-response","207","2.1.0","731606","F=YES, J=NO","drhz74xv56","0","65","70","60","","","","","","","","","","","","","","","",""
"null","audio/survey1.wav","null","audio-keyboard-response","208","2.1.0","732566","F=YES, J=NO","drhz74xv56","0","65","70","60","","","","","","","","","","","","","","","",""
"1300","
          <p id=""word"" style=""font-size: 40px;"">imploth</p>
          <p style=""font-size: 16px;"">F = YES &nbsp;&nbsp;&nbsp; J = NO</p>
        ","j","html-keyboard-response","209","2.1.0","733868","F=YES, J=NO","drhz74xv56","0","65","70","60","","","","","","","","","imploth","survey1","pseudoword","pseudoword","j","true","",""
"null","<p style=""font-size: 50px;"">+</p>","null","html-keyboard-response","210","2.1.0","734184","F=YES, J=NO","drhz74xv56","0","65","70","60","","","","","","","","","","","","","","","",""
"null","audio/beep-329314.mp3","null","audio-keyboard-response","211","2.1.0","735726","F=YES, J=NO","drhz74xv56","0","65","70","60","","","","","","","","","","","","","","","",""
"null","audio/farm1.wav","null","audio-keyboard-response","212","2.1.0","736706","F=YES, J=NO","drhz74xv56","0","65","70","60","","","","","","","","","","","","","","","",""
"497","
          <p id=""word"" style=""font-size: 40px;"">catch</p>
          <p style=""font-size: 16px;"">F = YES &nbsp;&nbsp;&nbsp; J = NO</p>
        ","f","html-keyboard-response","213","2.1.0","737205","F=YES, J=NO","drhz74xv56","0","65","70","60","","","","","","","","","catch","farm1","unrelated","experimental","f","true","",""
"null","<p style=""font-size: 50px;"">+</p>","null","html-keyboard-response","214","2.1.0","737525","F=YES, J=NO","drhz74xv56","0","65","70","60","","","","","","","","","","","","","","","",""
"null","audio/beep-329314.mp3","null","audio-keyboard-response","215","2.1.0","739173","F=YES, J=NO","drhz74xv56","0","65","70","60","","","","","","","","","","","","","","","",""
"null","audio/mile1.wav","null","audio-keyboard-response","216","2.1.0","739986","F=YES, J=NO","drhz74xv56","0","65","70","60","","","","","","","","","","","","","","","",""
"599","
          <p id=""word"" style=""font-size: 40px;"">run</p>
          <p style=""font-size: 16px;"">F = YES &nbsp;&nbsp;&nbsp; J = NO</p>
        ","f","html-keyboard-response","217","2.1.0","740587","F=YES, J=NO","drhz74xv56","0","65","70","60","","","","","","","","","run","mile1","literal","experimental","f","true","",""
"null","<p style=""font-size: 50px;"">+</p>","null","html-keyboard-response","218","2.1.0","740895","F=YES, J=NO","drhz74xv56","0","65","70","60","","","","","","","","","","","","","","","",""
"null","audio/beep-329314.mp3","null","audio-keyboard-response","219","2.1.0","742426","F=YES, J=NO","drhz74xv56","0","65","70","60","","","","","","","","","","","","","","","",""
"null","audio/corpse1.wav","null","audio-keyboard-response","220","2.1.0","743446","F=YES, J=NO","drhz74xv56","0","65","70","60","","","","","","","","","","","","","","","",""
"1295","
          <p id=""word"" style=""font-size: 40px;"">glonet</p>
          <p style=""font-size: 16px;"">F = YES &nbsp;&nbsp;&nbsp; J = NO</p>
        ","j","html-keyboard-response","221","2.1.0","744743","F=YES, J=NO","drhz74xv56","0","65","70","60","","","","","","","","","glonet","corpse1","pseudoword","pseudoword","j","true","",""
"null","<p style=""font-size: 50px;"">+</p>","null","html-keyboard-response","222","2.1.0","745044","F=YES, J=NO","drhz74xv56","0","65","70","60","","","","","","","","","","","","","","","",""
"null","audio/beep-329314.mp3","null","audio-keyboard-response","223","2.1.0","746586","F=YES, J=NO","drhz74xv56","0","65","70","60","","","","","","","","","","","","","","","",""
"null","audio/stain.wav","null","audio-keyboard-response","224","2.1.0","747446","F=YES, J=NO","drhz74xv56","0","65","70","60","","","","","","","","","","","","","","","",""
"1377","
          <p id=""word"" style=""font-size: 40px;"">rumpsied</p>
          <p style=""font-size: 16px;"">F = YES &nbsp;&nbsp;&nbsp; J = NO</p>
        ","j","html-keyboard-response","225","2.1.0","748824","F=YES, J=NO","drhz74xv56","0","65","70","60","","","","","","","","","rumpsied","stain","pseudoword","pseudoword","j","true","",""
"null","<p style=""font-size: 50px;"">+</p>","null","html-keyboard-response","226","2.1.0","749144","F=YES, J=NO","drhz74xv56","0","65","70","60","","","","","","","","","","","","","","","",""
"null","audio/beep-329314.mp3","null","audio-keyboard-response","227","2.1.0","750686","F=YES, J=NO","drhz74xv56","0","65","70","60","","","","","","","","","","","","","","","",""
"null","audio/window1.wav","null","audio-keyboard-response","228","2.1.0","751506","F=YES, J=NO","drhz74xv56","0","65","70","60","","","","","","","","","","","","","","","",""
"1104","
          <p id=""word"" style=""font-size: 40px;"">toss</p>
          <p style=""font-size: 16px;"">F = YES &nbsp;&nbsp;&nbsp; J = NO</p>
        ","j","html-keyboard-response","229","2.1.0","752611","F=YES, J=NO","drhz74xv56","0","65","70","60","","","","","","","","","toss","window1","filler","filler","f","false","",""
"2802","<p>Excellent! You have finished block 1 of 8.</p>
                     <p>Feel free to take a 30 second break.</p>
                     <p>Press any key when you're ready to continue.</p>"," ","html-keyboard-response","230","2.1.0","755415","F=YES, J=NO","drhz74xv56","0","65","70","60","","","","","","","","","","","","","","","",""
"1340","<p>Starting main block 2 of 8. Press any key to continue.</p>"," ","html-keyboard-response","231","2.1.0","756756","F=YES, J=NO","drhz74xv56","0","65","70","60","","","","","","","","","","","","","","","",""
"null","<p style=""font-size: 50px;"">+</p>","null","html-keyboard-response","232","2.1.0","757074","F=YES, J=NO","drhz74xv56","0","65","70","60","","","","","","","","","","","","","","","",""
"null","audio/beep-329314.mp3","null","audio-keyboard-response","233","2.1.0","758606","F=YES, J=NO","drhz74xv56","0","65","70","60","","","","","","","","","","","","","","","",""
"null","audio/price.wav","null","audio-keyboard-response","234","2.1.0","759607","F=YES, J=NO","drhz74xv56","0","65","70","60","","","","","","","","","","","","","","","",""
"527","
          <p id=""word"" style=""font-size: 40px;"">drop</p>
          <p style=""font-size: 16px;"">F = YES &nbsp;&nbsp;&nbsp; J = NO</p>
        ","f","html-keyboard-response","235","2.1.0","760135","F=YES, J=NO","drhz74xv56","0","65","70","60","","","","","","","","","drop","price","metaphor","experimental","f","true","",""
"null","<p style=""font-size: 50px;"">+</p>","null","html-keyboard-response","236","2.1.0","760453","F=YES, J=NO","drhz74xv56","0","65","70","60","","","","","","","","","","","","","","","",""
"null","audio/beep-329314.mp3","null","audio-keyboard-response","237","2.1.0","761986","F=YES, J=NO","drhz74xv56","0","65","70","60","","","","","","","","","","","","","","","",""
"null","audio/vehicle1.wav","null","audio-keyboard-response","238","2.1.0","762906","F=YES, J=NO","drhz74xv56","0","65","70","60","","","","","","","","","","","","","","","",""
"559","
          <p id=""word"" style=""font-size: 40px;"">approach</p>
          <p style=""font-size: 16px;"">F = YES &nbsp;&nbsp;&nbsp; J = NO</p>
        ","f","html-keyboard-response","239","2.1.0","763467","F=YES, J=NO","drhz74xv56","0","65","70","60","","","","","","","","","approach","vehicle1","literal","experimental","f","true","",""
"null","<p style=""font-size: 50px;"">+</p>","null","html-keyboard-response","240","2.1.0","763775","F=YES, J=NO","drhz74xv56","0","65","70","60","","","","","","","","","","","","","","","",""
"null","audio/beep-329314.mp3","null","audio-keyboard-response","241","2.1.0","765306","F=YES, J=NO","drhz74xv56","0","65","70","60","","","","","","","","","","","","","","","",""
"null","audio/mind.wav","null","audio-keyboard-response","242","2.1.0","766105","F=YES, J=NO","drhz74xv56","0","65","70","60","","","","","","","","","","","","","","","",""
"502","
          <p id=""word"" style=""font-size: 40px;"">clear</p>
          <p style=""font-size: 16px;"">F = YES &nbsp;&nbsp;&nbsp; J = NO</p>
        ","f","html-keyboard-response","243","2.1.0","766609","F=YES, J=NO","drhz74xv56","0","65","70","60","","","","","","","","","clear","mind","metaphor","experimental","f","true","",""
"null","<p style=""font-size: 50px;"">+</p>","null","html-keyboard-response","244","2.1.0","766925","F=YES, J=NO","drhz74xv56","0","65","70","60","","","","","","","","","","","","","","","",""
"null","audio/beep-329314.mp3","null","audio-keyboard-response","245","2.1.0","768466","F=YES, J=NO","drhz74xv56","0","65","70","60","","","","","","","","","","","","","","","",""
"null","audio/scar.wav","null","audio-keyboard-response","246","2.1.0","769286","F=YES, J=NO","drhz74xv56","0","65","70","60","","","","","","","","","","","","","","","",""
"1091","
          <p id=""word"" style=""font-size: 40px;"">adelineate</p>
          <p style=""font-size: 16px;"">F = YES &nbsp;&nbsp;&nbsp; J = NO</p>
        ","j","html-keyboard-response","247","2.1.0","770379","F=YES, J=NO","drhz74xv56","0","65","70","60","","","","","","","","","adelineate","scar","pseudoword","pseudoword","j","true","",""
"null","<p style=""font-size: 50px;"">+</p>","null","html-keyboard-response","248","2.1.0","770802","F=YES, J=NO","drhz74xv56","0","65","70","60","","","","","","","","","","","","","","","",""
"null","audio/beep-329314.mp3","null","audio-keyboard-response","249","2.1.0","772326","F=YES, J=NO","drhz74xv56","0","65","70","60","","","","","","","","","","","","","","","",""
"null","audio/meal.wav","null","audio-keyboard-response","250","2.1.0","773046","F=YES, J=NO","drhz74xv56","0","65","70","60","","","","","","","","","","","","","","","",""
"1148","
          <p id=""word"" style=""font-size: 40px;"">gallite</p>
          <p style=""font-size: 16px;"">F = YES &nbsp;&nbsp;&nbsp; J = NO</p>
        ","j","html-keyboard-response","251","2.1.0","774196","F=YES, J=NO","drhz74xv56","0","65","70","60","","","","","","","","","gallite","meal","pseudoword","pseudoword","j","true","",""
"null","<p style=""font-size: 50px;"">+</p>","null","html-keyboard-response","252","2.1.0","774505","F=YES, J=NO","drhz74xv56","0","65","70","60","","","","","","","","","","","","","","","",""
"null","audio/beep-329314.mp3","null","audio-keyboard-response","253","2.1.0","776046","F=YES, J=NO","drhz74xv56","0","65","70","60","","","","","","","","","","","","","","","",""
"null","audio/emotion.wav","null","audio-keyboard-response","254","2.1.0","776886","F=YES, J=NO","drhz74xv56","0","65","70","60","","","","","","","","","","","","","","","",""
"1062","
          <p id=""word"" style=""font-size: 40px;"">devering</p>
          <p style=""font-size: 16px;"">F = YES &nbsp;&nbsp;&nbsp; J = NO</p>
        ","f","html-keyboard-response","255","2.1.0","777950","F=YES, J=NO","drhz74xv56","0","65","70","60","","","","","","","","","devering","emotion","pseudoword","pseudoword","j","false","",""
"null","<p style=""font-size: 50px;"">+</p>","null","html-keyboard-response","256","2.1.0","778254","F=YES, J=NO","drhz74xv56","0","65","70","60","","","","","","","","","","","","","","","",""
"null","audio/beep-329314.mp3","null","audio-keyboard-response","257","2.1.0","779786","F=YES, J=NO","drhz74xv56","0","65","70","60","","","","","","","","","","","","","","","",""
"null","audio/prisoner.wav","null","audio-keyboard-response","258","2.1.0","780506","F=YES, J=NO","drhz74xv56","0","65","70","60","","","","","","","","","","","","","","","",""
"550","
          <p id=""word"" style=""font-size: 40px;"">release</p>
          <p style=""font-size: 16px;"">F = YES &nbsp;&nbsp;&nbsp; J = NO</p>
        ","f","html-keyboard-response","259","2.1.0","781057","F=YES, J=NO","drhz74xv56","0","65","70","60","","","","","","","","","release","prisoner","literal","experimental","f","true","",""
"null","<p style=""font-size: 50px;"">+</p>","null","html-keyboard-response","260","2.1.0","781365","F=YES, J=NO","drhz74xv56","0","65","70","60","","","","","","","","","","","","","","","",""
"null","audio/beep-329314.mp3","null","audio-keyboard-response","261","2.1.0","782906","F=YES, J=NO","drhz74xv56","0","65","70","60","","","","","","","","","","","","","","","",""
"null","audio/age1.wav","null","audio-keyboard-response","262","2.1.0","783686","F=YES, J=NO","drhz74xv56","0","65","70","60","","","","","","","","","","","","","","","",""
"592","
          <p id=""word"" style=""font-size: 40px;"">bake</p>
          <p style=""font-size: 16px;"">F = YES &nbsp;&nbsp;&nbsp; J = NO</p>
        ","f","html-keyboard-response","263","2.1.0","784280","F=YES, J=NO","drhz74xv56","0","65","70","60","","","","","","","","","bake","age1","filler","filler","f","true","",""
"null","<p style=""font-size: 50px;"">+</p>","null","html-keyboard-response","264","2.1.0","784594","F=YES, J=NO","drhz74xv56","0","65","70","60","","","","","","","","","","","","","","","",""
"null","audio/beep-329314.mp3","null","audio-keyboard-response","265","2.1.0","786126","F=YES, J=NO","drhz74xv56","0","65","70","60","","","","","","","","","","","","","","","",""
"null","audio/cinema1.wav","null","audio-keyboard-response","266","2.1.0","787166","F=YES, J=NO","drhz74xv56","0","65","70","60","","","","","","","","","","","","","","","",""
"1033","
          <p id=""word"" style=""font-size: 40px;"">murple</p>
          <p style=""font-size: 16px;"">F = YES &nbsp;&nbsp;&nbsp; J = NO</p>
        ","f","html-keyboard-response","267","2.1.0","788201","F=YES, J=NO","drhz74xv56","0","65","70","60","","","","","","","","","murple","cinema1","pseudoword","pseudoword","j","false","",""
"null","<p style=""font-size: 50px;"">+</p>","null","html-keyboard-response","268","2.1.0","788505","F=YES, J=NO","drhz74xv56","0","65","70","60","","","","","","","","","","","","","","","",""
"null","audio/beep-329314.mp3","null","audio-keyboard-response","269","2.1.0","790046","F=YES, J=NO","drhz74xv56","0","65","70","60","","","","","","","","","","","","","","","",""
"null","audio/radio1.wav","null","audio-keyboard-response","270","2.1.0","790886","F=YES, J=NO","drhz74xv56","0","65","70","60","","","","","","","","","","","","","","","",""
"687","
          <p id=""word"" style=""font-size: 40px;"">spend</p>
          <p style=""font-size: 16px;"">F = YES &nbsp;&nbsp;&nbsp; J = NO</p>
        ","f","html-keyboard-response","271","2.1.0","791576","F=YES, J=NO","drhz74xv56","0","65","70","60","","","","","","","","","spend","radio1","unrelated","experimental","f","true","",""
"null","<p style=""font-size: 50px;"">+</p>","null","html-keyboard-response","272","2.1.0","791884","F=YES, J=NO","drhz74xv56","0","65","70","60","","","","","","","","","","","","","","","",""
"null","audio/beep-329314.mp3","null","audio-keyboard-response","273","2.1.0","793426","F=YES, J=NO","drhz74xv56","0","65","70","60","","","","","","","","","","","","","","","",""
"null","audio/pizza1.wav","null","audio-keyboard-response","274","2.1.0","794245","F=YES, J=NO","drhz74xv56","0","65","70","60","","","","","","","","","","","","","","","",""
"1096","
          <p id=""word"" style=""font-size: 40px;"">devour</p>
          <p style=""font-size: 16px;"">F = YES &nbsp;&nbsp;&nbsp; J = NO</p>
        ","j","html-keyboard-response","275","2.1.0","795343","F=YES, J=NO","drhz74xv56","0","65","70","60","","","","","","","","","devour","pizza1","literal","experimental","f","false","",""
"null","<p style=""font-size: 50px;"">+</p>","null","html-keyboard-response","276","2.1.0","795660","F=YES, J=NO","drhz74xv56","0","65","70","60","","","","","","","","","","","","","","","",""
"null","audio/beep-329314.mp3","null","audio-keyboard-response","277","2.1.0","797187","F=YES, J=NO","drhz74xv56","0","65","70","60","","","","","","","","","","","","","","","",""
"null","audio/birth1.wav","null","audio-keyboard-response","278","2.1.0","798286","F=YES, J=NO","drhz74xv56","0","65","70","60","","","","","","","","","","","","","","","",""
"603","
          <p id=""word"" style=""font-size: 40px;"">peel</p>
          <p style=""font-size: 16px;"">F = YES &nbsp;&nbsp;&nbsp; J = NO</p>
        ","f","html-keyboard-response","279","2.1.0","798891","F=YES, J=NO","drhz74xv56","0","65","70","60","","","","","","","","","peel","birth1","filler","filler","f","true","",""
"null","<p style=""font-size: 50px;"">+</p>","null","html-keyboard-response","280","2.1.0","799195","F=YES, J=NO","drhz74xv56","0","65","70","60","","","","","","","","","","","","","","","",""
"null","audio/beep-329314.mp3","null","audio-keyboard-response","281","2.1.0","800726","F=YES, J=NO","drhz74xv56","0","65","70","60","","","","","","","","","","","","","","","",""
"null","audio/vehicle1.wav","null","audio-keyboard-response","282","2.1.0","801386","F=YES, J=NO","drhz74xv56","0","65","70","60","","","","","","","","","","","","","","","",""
"1327","
          <p id=""word"" style=""font-size: 40px;"">dropt</p>
          <p style=""font-size: 16px;"">F = YES &nbsp;&nbsp;&nbsp; J = NO</p>
        ","f","html-keyboard-response","283","2.1.0","802715","F=YES, J=NO","drhz74xv56","0","65","70","60","","","","","","","","","dropt","vehicle1","pseudoword","pseudoword","j","false","",""
"null","<p style=""font-size: 50px;"">+</p>","null","html-keyboard-response","284","2.1.0","803024","F=YES, J=NO","drhz74xv56","0","65","70","60","","","","","","","","","","","","","","","",""
"null","audio/beep-329314.mp3","null","audio-keyboard-response","285","2.1.0","804566","F=YES, J=NO","drhz74xv56","0","65","70","60","","","","","","","","","","","","","","","",""
"null","audio/death1.wav","null","audio-keyboard-response","286","2.1.0","805346","F=YES, J=NO","drhz74xv56","0","65","70","60","","","","","","","","","","","","","","","",""
"614","
          <p id=""word"" style=""font-size: 40px;"">conquer</p>
          <p style=""font-size: 16px;"">F = YES &nbsp;&nbsp;&nbsp; J = NO</p>
        ","f","html-keyboard-response","287","2.1.0","805962","F=YES, J=NO","drhz74xv56","0","65","70","60","","","","","","","","","conquer","death1","metaphor","experimental","f","true","",""
"null","<p style=""font-size: 50px;"">+</p>","null","html-keyboard-response","288","2.1.0","806275","F=YES, J=NO","drhz74xv56","0","65","70","60","","","","","","","","","","","","","","","",""
"null","audio/beep-329314.mp3","null","audio-keyboard-response","289","2.1.0","807805","F=YES, J=NO","drhz74xv56","0","65","70","60","","","","","","","","","","","","","","","",""
"null","audio/voice.wav","null","audio-keyboard-response","290","2.1.0","808645","F=YES, J=NO","drhz74xv56","0","65","70","60","","","","","","","","","","","","","","","",""
"675","
          <p id=""word"" style=""font-size: 40px;"">grintle</p>
          <p style=""font-size: 16px;"">F = YES &nbsp;&nbsp;&nbsp; J = NO</p>
        ","f","html-keyboard-response","291","2.1.0","809322","F=YES, J=NO","drhz74xv56","0","65","70","60","","","","","","","","","grintle","voice","pseudoword","pseudoword","j","false","",""
"null","<p style=""font-size: 50px;"">+</p>","null","html-keyboard-response","292","2.1.0","809634","F=YES, J=NO","drhz74xv56","0","65","70","60","","","","","","","","","","","","","","","",""
"null","audio/beep-329314.mp3","null","audio-keyboard-response","293","2.1.0","811166","F=YES, J=NO","drhz74xv56","0","65","70","60","","","","","","","","","","","","","","","",""
"null","audio/holiday1.wav","null","audio-keyboard-response","294","2.1.0","812006","F=YES, J=NO","drhz74xv56","0","65","70","60","","","","","","","","","","","","","","","",""
"1109","
          <p id=""word"" style=""font-size: 40px;"">drivets</p>
          <p style=""font-size: 16px;"">F = YES &nbsp;&nbsp;&nbsp; J = NO</p>
        ","j","html-keyboard-response","295","2.1.0","813116","F=YES, J=NO","drhz74xv56","0","65","70","60","","","","","","","","","drivets","holiday1","pseudoword","pseudoword","j","true","",""
"2402","<p>Excellent! You have finished block 2 of 8.</p>
                     <p>Feel free to take a 30 second break.</p>
                     <p>Press any key when you're ready to continue.</p>"," ","html-keyboard-response","296","2.1.0","815520","F=YES, J=NO","drhz74xv56","0","65","70","60","","","","","","","","","","","","","","","",""
"1349","<p>Starting main block 3 of 8. Press any key to continue.</p>"," ","html-keyboard-response","297","2.1.0","816870","F=YES, J=NO","drhz74xv56","0","65","70","60","","","","","","","","","","","","","","","",""
"null","<p style=""font-size: 50px;"">+</p>","null","html-keyboard-response","298","2.1.0","817176","F=YES, J=NO","drhz74xv56","0","65","70","60","","","","","","","","","","","","","","","",""
"null","audio/beep-329314.mp3","null","audio-keyboard-response","299","2.1.0","818706","F=YES, J=NO","drhz74xv56","0","65","70","60","","","","","","","","","","","","","","","",""
"null","audio/pig.wav","null","audio-keyboard-response","300","2.1.0","819106","F=YES, J=NO","drhz74xv56","0","65","70","60","","","","","","","","","","","","","","","",""
"572","
          <p id=""word"" style=""font-size: 40px;"">feed</p>
          <p style=""font-size: 16px;"">F = YES &nbsp;&nbsp;&nbsp; J = NO</p>
        ","f","html-keyboard-response","301","2.1.0","819679","F=YES, J=NO","drhz74xv56","0","65","70","60","","","","","","","","","feed","pig","literal","experimental","f","true","",""
"null","<p style=""font-size: 50px;"">+</p>","null","html-keyboard-response","302","2.1.0","819985","F=YES, J=NO","drhz74xv56","0","65","70","60","","","","","","","","","","","","","","","",""
"null","audio/beep-329314.mp3","null","audio-keyboard-response","303","2.1.0","821526","F=YES, J=NO","drhz74xv56","0","65","70","60","","","","","","","","","","","","","","","",""
"null","audio/plot1.wav","null","audio-keyboard-response","304","2.1.0","822266","F=YES, J=NO","drhz74xv56","0","65","70","60","","","","","","","","","","","","","","","",""
"1101","
          <p id=""word"" style=""font-size: 40px;"">glenter</p>
          <p style=""font-size: 16px;"">F = YES &nbsp;&nbsp;&nbsp; J = NO</p>
        ","f","html-keyboard-response","305","2.1.0","823369","F=YES, J=NO","drhz74xv56","0","65","70","60","","","","","","","","","glenter","plot1","pseudoword","pseudoword","j","false","",""
"null","<p style=""font-size: 50px;"">+</p>","null","html-keyboard-response","306","2.1.0","823684","F=YES, J=NO","drhz74xv56","0","65","70","60","","","","","","","","","","","","","","","",""
"null","audio/beep-329314.mp3","null","audio-keyboard-response","307","2.1.0","825226","F=YES, J=NO","drhz74xv56","0","65","70","60","","","","","","","","","","","","","","","",""
"null","audio/foot1.wav","null","audio-keyboard-response","308","2.1.0","826387","F=YES, J=NO","drhz74xv56","0","65","70","60","","","","","","","","","","","","","","","",""
"1308","
          <p id=""word"" style=""font-size: 40px;"">thrutt</p>
          <p style=""font-size: 16px;"">F = YES &nbsp;&nbsp;&nbsp; J = NO</p>
        ","j","html-keyboard-response","309","2.1.0","827697","F=YES, J=NO","drhz74xv56","0","65","70","60","","","","","","","","","thrutt","foot1","pseudoword","pseudoword","j","true","",""
"null","<p style=""font-size: 50px;"">+</p>","null","html-keyboard-response","310","2.1.0","828005","F=YES, J=NO","drhz74xv56","0","65","70","60","","","","","","","","","","","","","","","",""
"null","audio/beep-329314.mp3","null","audio-keyboard-response","311","2.1.0","829546","F=YES, J=NO","drhz74xv56","0","65","70","60","","","","","","","","","","","","","","","",""
"null","audio/hawk1.wav","null","audio-keyboard-response","312","2.1.0","830426","F=YES, J=NO","drhz74xv56","0","65","70","60","","","","","","","","","","","","","","","",""
"1243","
          <p id=""word"" style=""font-size: 40px;"">ostach</p>
          <p style=""font-size: 16px;"">F = YES &nbsp;&nbsp;&nbsp; J = NO</p>
        ","j","html-keyboard-response","313","2.1.0","831670","F=YES, J=NO","drhz74xv56","0","65","70","60","","","","","","","","","ostach","hawk1","pseudoword","pseudoword","j","true","",""
"null","<p style=""font-size: 50px;"">+</p>","null","html-keyboard-response","314","2.1.0","831985","F=YES, J=NO","drhz74xv56","0","65","70","60","","","","","","","","","","","","","","","",""
"null","audio/beep-329314.mp3","null","audio-keyboard-response","315","2.1.0","833526","F=YES, J=NO","drhz74xv56","0","65","70","60","","","","","","","","","","","","","","","",""
"null","audio/garden1.wav","null","audio-keyboard-response","316","2.1.0","834446","F=YES, J=NO","drhz74xv56","0","65","70","60","","","","","","","","","","","","","","","",""
"613","
          <p id=""word"" style=""font-size: 40px;"">invest</p>
          <p style=""font-size: 16px;"">F = YES &nbsp;&nbsp;&nbsp; J = NO</p>
        ","f","html-keyboard-response","317","2.1.0","835061","F=YES, J=NO","drhz74xv56","0","65","70","60","","","","","","","","","invest","garden1","unrelated","experimental","f","true","",""
"null","<p style=""font-size: 50px;"">+</p>","null","html-keyboard-response","318","2.1.0","835365","F=YES, J=NO","drhz74xv56","0","65","70","60","","","","","","","","","","","","","","","",""
"null","audio/beep-329314.mp3","null","audio-keyboard-response","319","2.1.0","836906","F=YES, J=NO","drhz74xv56","0","65","70","60","","","","","","","","","","","","","","","",""
"null","audio/cancer1.wav","null","audio-keyboard-response","320","2.1.0","837766","F=YES, J=NO","drhz74xv56","0","65","70","60","","","","","","","","","","","","","","","",""
"594","
          <p id=""word"" style=""font-size: 40px;"">fight</p>
          <p style=""font-size: 16px;"">F = YES &nbsp;&nbsp;&nbsp; J = NO</p>
        ","f","html-keyboard-response","321","2.1.0","838362","F=YES, J=NO","drhz74xv56","0","65","70","60","","","","","","","","","fight","cancer1","metaphor","experimental","f","true","",""
"null","<p style=""font-size: 50px;"">+</p>","null","html-keyboard-response","322","2.1.0","838675","F=YES, J=NO","drhz74xv56","0","65","70","60","","","","","","","","","","","","","","","",""
"null","audio/beep-329314.mp3","null","audio-keyboard-response","323","2.1.0","840206","F=YES, J=NO","drhz74xv56","0","65","70","60","","","","","","","","","","","","","","","",""
"null","audio/noise1.wav","null","audio-keyboard-response","324","2.1.0","841086","F=YES, J=NO","drhz74xv56","0","65","70","60","","","","","","","","","","","","","","","",""
"534","
          <p id=""word"" style=""font-size: 40px;"">build</p>
          <p style=""font-size: 16px;"">F = YES &nbsp;&nbsp;&nbsp; J = NO</p>
        ","f","html-keyboard-response","325","2.1.0","841622","F=YES, J=NO","drhz74xv56","0","65","70","60","","","","","","","","","build","noise1","unrelated","experimental","f","true","",""
"null","<p style=""font-size: 50px;"">+</p>","null","html-keyboard-response","326","2.1.0","841934","F=YES, J=NO","drhz74xv56","0","65","70","60","","","","","","","","","","","","","","","",""
"null","audio/beep-329314.mp3","null","audio-keyboard-response","327","2.1.0","843467","F=YES, J=NO","drhz74xv56","0","65","70","60","","","","","","","","","","","","","","","",""
"null","audio/breath.wav","null","audio-keyboard-response","328","2.1.0","844566","F=YES, J=NO","drhz74xv56","0","65","70","60","","","","","","","","","","","","","","","",""
"529","
          <p id=""word"" style=""font-size: 40px;"">pack</p>
          <p style=""font-size: 16px;"">F = YES &nbsp;&nbsp;&nbsp; J = NO</p>
        ","f","html-keyboard-response","329","2.1.0","845096","F=YES, J=NO","drhz74xv56","0","65","70","60","","","","","","","","","pack","breath","filler","filler","f","true","",""
"null","<p style=""font-size: 50px;"">+</p>","null","html-keyboard-response","330","2.1.0","845405","F=YES, J=NO","drhz74xv56","0","65","70","60","","","","","","","","","","","","","","","",""
"null","audio/beep-329314.mp3","null","audio-keyboard-response","331","2.1.0","846946","F=YES, J=NO","drhz74xv56","0","65","70","60","","","","","","","","","","","","","","","",""
"null","audio/corpse1.wav","null","audio-keyboard-response","332","2.1.0","847587","F=YES, J=NO","drhz74xv56","0","65","70","60","","","","","","","","","","","","","","","",""
"658","
          <p id=""word"" style=""font-size: 40px;"">bury</p>
          <p style=""font-size: 16px;"">F = YES &nbsp;&nbsp;&nbsp; J = NO</p>
        ","f","html-keyboard-response","333","2.1.0","848246","F=YES, J=NO","drhz74xv56","0","65","70","60","","","","","","","","","bury","corpse1","literal","experimental","f","true","",""
"null","<p style=""font-size: 50px;"">+</p>","null","html-keyboard-response","334","2.1.0","848555","F=YES, J=NO","drhz74xv56","0","65","70","60","","","","","","","","","","","","","","","",""
"null","audio/beep-329314.mp3","null","audio-keyboard-response","335","2.1.0","850086","F=YES, J=NO","drhz74xv56","0","65","70","60","","","","","","","","","","","","","","","",""
"null","audio/card1.wav","null","audio-keyboard-response","336","2.1.0","850866","F=YES, J=NO","drhz74xv56","0","65","70","60","","","","","","","","","","","","","","","",""
"638","
          <p id=""word"" style=""font-size: 40px;"">land</p>
          <p style=""font-size: 16px;"">F = YES &nbsp;&nbsp;&nbsp; J = NO</p>
        ","f","html-keyboard-response","337","2.1.0","851506","F=YES, J=NO","drhz74xv56","0","65","70","60","","","","","","","","","land","card1","unrelated","experimental","f","true","",""
"null","<p style=""font-size: 50px;"">+</p>","null","html-keyboard-response","338","2.1.0","851815","F=YES, J=NO","drhz74xv56","0","65","70","60","","","","","","","","","","","","","","","",""
"null","audio/beep-329314.mp3","null","audio-keyboard-response","339","2.1.0","853346","F=YES, J=NO","drhz74xv56","0","65","70","60","","","","","","","","","","","","","","","",""
"null","audio/heart1.wav","null","audio-keyboard-response","340","2.1.0","854225","F=YES, J=NO","drhz74xv56","0","65","70","60","","","","","","","","","","","","","","","",""
"1182","
          <p id=""word"" style=""font-size: 40px;"">dralm</p>
          <p style=""font-size: 16px;"">F = YES &nbsp;&nbsp;&nbsp; J = NO</p>
        ","f","html-keyboard-response","341","2.1.0","855409","F=YES, J=NO","drhz74xv56","0","65","70","60","","","","","","","","","dralm","heart1","pseudoword","pseudoword","j","false","",""
"null","<p style=""font-size: 50px;"">+</p>","null","html-keyboard-response","342","2.1.0","855716","F=YES, J=NO","drhz74xv56","0","65","70","60","","","","","","","","","","","","","","","",""
"null","audio/beep-329314.mp3","null","audio-keyboard-response","343","2.1.0","857246","F=YES, J=NO","drhz74xv56","0","65","70","60","","","","","","","","","","","","","","","",""
"null","audio/scar.wav","null","audio-keyboard-response","344","2.1.0","857846","F=YES, J=NO","drhz74xv56","0","65","70","60","","","","","","","","","","","","","","","",""
"495","
          <p id=""word"" style=""font-size: 40px;"">hide</p>
          <p style=""font-size: 16px;"">F = YES &nbsp;&nbsp;&nbsp; J = NO</p>
        ","f","html-keyboard-response","345","2.1.0","858343","F=YES, J=NO","drhz74xv56","0","65","70","60","","","","","","","","","hide","scar","literal","experimental","f","true","",""
"null","<p style=""font-size: 50px;"">+</p>","null","html-keyboard-response","346","2.1.0","858665","F=YES, J=NO","drhz74xv56","0","65","70","60","","","","","","","","","","","","","","","",""
"null","audio/beep-329314.mp3","null","audio-keyboard-response","347","2.1.0","860206","F=YES, J=NO","drhz74xv56","0","65","70","60","","","","","","","","","","","","","","","",""
"null","audio/trout1.wav","null","audio-keyboard-response","348","2.1.0","861046","F=YES, J=NO","drhz74xv56","0","65","70","60","","","","","","","","","","","","","","","",""
"886","
          <p id=""word"" style=""font-size: 40px;"">spimt</p>
          <p style=""font-size: 16px;"">F = YES &nbsp;&nbsp;&nbsp; J = NO</p>
        ","f","html-keyboard-response","349","2.1.0","861934","F=YES, J=NO","drhz74xv56","0","65","70","60","","","","","","","","","spimt","trout1","pseudoword","pseudoword","j","false","",""
"null","<p style=""font-size: 50px;"">+</p>","null","html-keyboard-response","350","2.1.0","862245","F=YES, J=NO","drhz74xv56","0","65","70","60","","","","","","","","","","","","","","","",""
"null","audio/beep-329314.mp3","null","audio-keyboard-response","351","2.1.0","863786","F=YES, J=NO","drhz74xv56","0","65","70","60","","","","","","","","","","","","","","","",""
"null","audio/baby.wav","null","audio-keyboard-response","352","2.1.0","864266","F=YES, J=NO","drhz74xv56","0","65","70","60","","","","","","","","","","","","","","","",""
"509","
          <p id=""word"" style=""font-size: 40px;"">hold</p>
          <p style=""font-size: 16px;"">F = YES &nbsp;&nbsp;&nbsp; J = NO</p>
        ","f","html-keyboard-response","353","2.1.0","864777","F=YES, J=NO","drhz74xv56","0","65","70","60","","","","","","","","","hold","baby","literal","experimental","f","true","",""
"null","<p style=""font-size: 50px;"">+</p>","null","html-keyboard-response","354","2.1.0","865236","F=YES, J=NO","drhz74xv56","0","65","70","60","","","","","","","","","","","","","","","",""
"null","audio/beep-329314.mp3","null","audio-keyboard-response","355","2.1.0","866766","F=YES, J=NO","drhz74xv56","0","65","70","60","","","","","","","","","","","","","","","",""
"null","audio/table1.wav","null","audio-keyboard-response","356","2.1.0","867606","F=YES, J=NO","drhz74xv56","0","65","70","60","","","","","","","","","","","","","","","",""
"1126","
          <p id=""word"" style=""font-size: 40px;"">stimb</p>
          <p style=""font-size: 16px;"">F = YES &nbsp;&nbsp;&nbsp; J = NO</p>
        ","j","html-keyboard-response","357","2.1.0","868733","F=YES, J=NO","drhz74xv56","0","65","70","60","","","","","","","","","stimb","table1","pseudoword","pseudoword","j","true","",""
"null","<p style=""font-size: 50px;"">+</p>","null","html-keyboard-response","358","2.1.0","869037","F=YES, J=NO","drhz74xv56","0","65","70","60","","","","","","","","","","","","","","","",""
"null","audio/beep-329314.mp3","null","audio-keyboard-response","359","2.1.0","870566","F=YES, J=NO","drhz74xv56","0","65","70","60","","","","","","","","","","","","","","","",""
"null","audio/camp.wav","null","audio-keyboard-response","360","2.1.0","871325","F=YES, J=NO","drhz74xv56","0","65","70","60","","","","","","","","","","","","","","","",""
"494","
          <p id=""word"" style=""font-size: 40px;"">touch</p>
          <p style=""font-size: 16px;"">F = YES &nbsp;&nbsp;&nbsp; J = NO</p>
        ","f","html-keyboard-response","361","2.1.0","871821","F=YES, J=NO","drhz74xv56","0","65","70","60","","","","","","","","","touch","camp","unrelated","experimental","f","true","",""
"1828","<p>Excellent! You have finished block 3 of 8.</p>
                     <p>Feel free to take a 30 second break.</p>
                     <p>Press any key when you're ready to continue.</p>"," ","html-keyboard-response","362","2.1.0","873650","F=YES, J=NO","drhz74xv56","0","65","70","60","","","","","","","","","","","","","","","",""
"887","<p>Starting main block 4 of 8. Press any key to continue.</p>"," ","html-keyboard-response","363","2.1.0","874539","F=YES, J=NO","drhz74xv56","0","65","70","60","","","","","","","","","","","","","","","",""
"null","<p style=""font-size: 50px;"">+</p>","null","html-keyboard-response","364","2.1.0","874845","F=YES, J=NO","drhz74xv56","0","65","70","60","","","","","","","","","","","","","","","",""
"null","audio/beep-329314.mp3","null","audio-keyboard-response","365","2.1.0","876386","F=YES, J=NO","drhz74xv56","0","65","70","60","","","","","","","","","","","","","","","",""
"null","audio/soul.wav","null","audio-keyboard-response","366","2.1.0","877226","F=YES, J=NO","drhz74xv56","0","65","70","60","","","","","","","","","","","","","","","",""
"420","
          <p id=""word"" style=""font-size: 40px;"">sell</p>
          <p style=""font-size: 16px;"">F = YES &nbsp;&nbsp;&nbsp; J = NO</p>
        ","f","html-keyboard-response","367","2.1.0","877647","F=YES, J=NO","drhz74xv56","0","65","70","60","","","","","","","","","sell","soul","metaphor","experimental","f","true","",""
"null","<p style=""font-size: 50px;"">+</p>","null","html-keyboard-response","368","2.1.0","877954","F=YES, J=NO","drhz74xv56","0","65","70","60","","","","","","","","","","","","","","","",""
"null","audio/beep-329314.mp3","null","audio-keyboard-response","369","2.1.0","879486","F=YES, J=NO","drhz74xv56","0","65","70","60","","","","","","","","","","","","","","","",""
"null","audio/purpose.wav","null","audio-keyboard-response","370","2.1.0","880365","F=YES, J=NO","drhz74xv56","0","65","70","60","","","","","","","","","","","","","","","",""
"980","
          <p id=""word"" style=""font-size: 40px;"">whigm</p>
          <p style=""font-size: 16px;"">F = YES &nbsp;&nbsp;&nbsp; J = NO</p>
        ","j","html-keyboard-response","371","2.1.0","881347","F=YES, J=NO","drhz74xv56","0","65","70","60","","","","","","","","","whigm","purpose","pseudoword","pseudoword","j","true","",""
"null","<p style=""font-size: 50px;"">+</p>","null","html-keyboard-response","372","2.1.0","881664","F=YES, J=NO","drhz74xv56","0","65","70","60","","","","","","","","","","","","","","","",""
"null","audio/beep-329314.mp3","null","audio-keyboard-response","373","2.1.0","883206","F=YES, J=NO","drhz74xv56","0","65","70","60","","","","","","","","","","","","","","","",""
"null","audio/life1.wav","null","audio-keyboard-response","374","2.1.0","884046","F=YES, J=NO","drhz74xv56","0","65","70","60","","","","","","","","","","","","","","","",""
"1479","
          <p id=""word"" style=""font-size: 40px;"">flimch</p>
          <p style=""font-size: 16px;"">F = YES &nbsp;&nbsp;&nbsp; J = NO</p>
        ","f","html-keyboard-response","375","2.1.0","885527","F=YES, J=NO","drhz74xv56","0","65","70","60","","","","","","","","","flimch","life1","pseudoword","pseudoword","j","false","",""
"null","<p style=""font-size: 50px;"">+</p>","null","html-keyboard-response","376","2.1.0","885840","F=YES, J=NO","drhz74xv56","0","65","70","60","","","","","","","","","","","","","","","",""
"null","audio/beep-329314.mp3","null","audio-keyboard-response","377","2.1.0","887366","F=YES, J=NO","drhz74xv56","0","65","70","60","","","","","","","","","","","","","","","",""
"null","audio/arm.wav","null","audio-keyboard-response","378","2.1.0","887906","F=YES, J=NO","drhz74xv56","0","65","70","60","","","","","","","","","","","","","","","",""
"null","
          <p id=""word"" style=""font-size: 40px;"">seize</p>
          <p style=""font-size: 16px;"">F = YES &nbsp;&nbsp;&nbsp; J = NO</p>
        ","null","html-keyboard-response","379","2.1.0","889415","F=YES, J=NO","drhz74xv56","0","65","70","60","","","","","","","","","seize","arm","literal","experimental","f","false","",""
"null","<p style=""font-size: 50px;"">+</p>","null","html-keyboard-response","380","2.1.0","889734","F=YES, J=NO","drhz74xv56","0","65","70","60","","","","","","","","","","","","","","","",""
"null","audio/beep-329314.mp3","null","audio-keyboard-response","381","2.1.0","891266","F=YES, J=NO","drhz74xv56","0","65","70","60","","","","","","","","","","","","","","","",""
"null","audio/tax1.wav","null","audio-keyboard-response","382","2.1.0","892186","F=YES, J=NO","drhz74xv56","0","65","70","60","","","","","","","","","","","","","","","",""
"1138","
          <p id=""word"" style=""font-size: 40px;"">snate</p>
          <p style=""font-size: 16px;"">F = YES &nbsp;&nbsp;&nbsp; J = NO</p>
        ","f","html-keyboard-response","383","2.1.0","893326","F=YES, J=NO","drhz74xv56","0","65","70","60","","","","","","","","","snate","tax1","pseudoword","pseudoword","j","false","",""
"null","<p style=""font-size: 50px;"">+</p>","null","html-keyboard-response","384","2.1.0","893645","F=YES, J=NO","drhz74xv56","0","65","70","60","","","","","","","","","","","","","","","",""
"null","audio/beep-329314.mp3","null","audio-keyboard-response","385","2.1.0","895186","F=YES, J=NO","drhz74xv56","0","65","70","60","","","","","","","","","","","","","","","",""
"null","audio/show.wav","null","audio-keyboard-response","386","2.1.0","896006","F=YES, J=NO","drhz74xv56","0","65","70","60","","","","","","","","","","","","","","","",""
"1288","
          <p id=""word"" style=""font-size: 40px;"">smark</p>
          <p style=""font-size: 16px;"">F = YES &nbsp;&nbsp;&nbsp; J = NO</p>
        ","j","html-keyboard-response","387","2.1.0","897296","F=YES, J=NO","drhz74xv56","0","65","70","60","","","","","","","","","smark","show","pseudoword","pseudoword","j","true","",""
"null","<p style=""font-size: 50px;"">+</p>","null","html-keyboard-response","388","2.1.0","897614","F=YES, J=NO","drhz74xv56","0","65","70","60","","","","","","","","","","","","","","","",""
"null","audio/beep-329314.mp3","null","audio-keyboard-response","389","2.1.0","899146","F=YES, J=NO","drhz74xv56","0","65","70","60","","","","","","","","","","","","","","","",""
"null","audio/belief.wav","null","audio-keyboard-response","390","2.1.0","899786","F=YES, J=NO","drhz74xv56","0","65","70","60","","","","","","","","","","","","","","","",""
"531","
          <p id=""word"" style=""font-size: 40px;"">share</p>
          <p style=""font-size: 16px;"">F = YES &nbsp;&nbsp;&nbsp; J = NO</p>
