"rt","stimulus","response","trial_type","trial_index","plugin_version","time_elapsed","response_mapping","subject_id","list_index","lextale_score","lextale_word_score","lextale_nonword_score","success","timeout","failed_images","failed_audio","failed_video","task","isWord","isDummy","target","prime","prime_type","stimulus_type","correct_response","correct","section","question_order"
"35127","
    <div style=""max-width: 800px; margin: auto; text-align: left;"">
      <h2>STANFORD UNIVERSITY</h2>
      <h3>Research Information Sheet</h3>
      <p><strong>Protocol Director:</strong> Robert Hawkins<br>
      <strong>Protocol Title:</strong> Communication and social cognition in natural audiovisual contexts<br>
      <strong>IRB#:</strong> 77226</p>

      <p><strong>DESCRIPTION:</strong> You are invited to participate in a research study about language and communication. The purpose of the research is to understand how you interact and communicate with other people in naturalistic settings as a fluent English speaker. This research will be conducted through the Prolific platform, including participants from the US, UK, and Canada. If you decide to participate in this research, you will play a communication game in a group with one or more partners.</p>

      <p><strong>TIME INVOLVEMENT:</strong> The task will last the amount of time advertised on Prolific. You are free to withdraw from the study at any time.</p>

      <p><strong>RISKS AND BENEFITS:</strong> You may become frustrated if your partner gets distracted, or experience discomfort if other participants in your group send text that is inappropriate for the task. We ask you to please be respectful of other participants you might be interacting with to mitigate these risks. You may also experience discomfort when being asked to discuss or challenge emotionally salient political beliefs. Study data will be stored securely, in compliance with Stanford University standards, minimizing the risk of confidentiality breach. This study advances our scientific understanding of how people communicate and collaborate in naturalistic settings. This study may lead to further insights about what can go wrong in teamwork, suggest potential interventions to overcome these barriers, and help to develop assistive technologies that collaborate with human partners. We cannot and do not guarantee or promise that you will receive any benefits from this study.</p>

      <p><strong>PAYMENTS:</strong> You will receive payment in the amount advertised on Prolific. If you do not complete this study, you will receive prorated payment based on the time that you have spent. Additionally, you may be eligible for bonus payments as described in the instructions.</p>

      <p><strong>PARTICIPANT’S RIGHTS:</strong> If you have read this form and have decided to participate in this project, please understand your participation is voluntary and you have the right to withdraw your consent or discontinue participation at any time without penalty or loss of benefits to which you are otherwise entitled. The alternative is not to participate. You have the right to refuse to answer particular questions. The results of this research study may be presented at scientific or professional meetings or published in scientific journals. Your individual privacy will be maintained in all published and written data resulting from the study. In accordance with scientific norms, the data from this study may be used or shared with other researchers for future research (after removing personally identifying information) without additional consent from you.</p>

      <p><strong>CONTACT INFORMATION:</strong><br>
      Questions: If you have any questions, concerns or complaints about this research, its procedures, risks and benefits, contact the Protocol Director, Robert Hawkins (<a href=""mailto:rdhawkins@stanford.edu"">rdhawkins@stanford.edu</a>, 217-549-6923).<br>
      Independent Contact: If you are not satisfied with how this study is being conducted, or if you have any concerns, complaints, or general questions about the research or your rights as a participant, please contact the Stanford Institutional Review Board (IRB) to speak to someone independent of the research team at 650-723-2480 or toll free at 1-866-680-2906, or email at <a href=""mailto:irbnon-med@stanford.edu"">irbnon-med@stanford.edu</a>. You can also write to the Stanford IRB, Stanford University, 1705 El Camino Real, Palo Alto, CA 94306.</p>

      <p><strong>Please save or print a copy of this page for your records.</strong></p>
      <p>If you agree to participate in this research, click ""Continue"" below.</p>
    </div>
  ","0","html-button-response","0","2.1.0","35133","F=YES, J=NO","drwdy3aksd","1","74","73","75","","","","","","","","","","","","","","","",""
"12466","
    <div style=""max-width: 800px; margin: auto; text-align: left;"">
      <h2>Welcome!</h2>
      <p>Thank you for participating in this study. The experiment consists of three parts:</p>
      <ol>
        <li>An English vocabulary test</li>
        <li>A main task in which you will hear and see words, and decide whether the written word is a real English word</li>
        <li>A brief survey about your background</li>
      </ol>
      <p>Each part will be introduced before it begins.</p>
      <p>Please make sure you are in a quiet environment and can hear audio clearly for the final task.</p>
      <p style=""margin-top: 2em;"">Press any key to begin.</p>
    </div>
  "," ","html-keyboard-response","1","2.1.0","47602","F=YES, J=NO","drwdy3aksd","1","74","73","75","","","","","","","","","","","","","","","",""
"","","","preload","2","2.1.0","48895","F=YES, J=NO","drwdy3aksd","1","74","73","75","true","false","[]","[]","[]","","","","","","","","","","",""
"21008","
    <div style=""max-width: 800px; margin: auto; text-align: left;"">
      <h2>Part 1: Vocabulary Test</h2>
      <p>You will now complete the first part of the study: a short English vocabulary test.</p>
      <p>This test is called <strong>LexTALE</strong> and helps us get a general sense of your English proficiency.</p>
      <p style=""margin-top: 2em;"">Press any key to continue.</p>
    </div>
  "," ","html-keyboard-response","3","2.1.0","69904","F=YES, J=NO","drwdy3aksd","1","74","73","75","","","","","","","","","","","","","","","",""
"11375","
    <div style=""max-width: 800px; margin: auto; text-align: left;"">
      <h2>LexTALE Vocabulary Test</h2>
      <p>In this test, you will see a series of letter strings—one at a time.</p>
      <p>Your task is to decide whether each string is a real English word.</p>
      <p><strong>Key responses:</strong></p>
      <ul>
        <li><strong>F</strong> = YES (real English word)</li>
        <li><strong>J</strong> = NO (not a real English word)</li>
      </ul>
      <p>There is no time limit, but please try to be accurate.</p>
      <p style=""margin-top: 2em;"">Press any key to begin.</p>
    </div>
  "," ","html-keyboard-response","4","2.1.0","81282","F=YES, J=NO","drwdy3aksd","1","74","73","75","","","","","","","","","","","","","","","",""
"3930","
  <p style=""font-size: 40px;"">platery</p>
  <p style=""font-size: 16px;"">F = YES &nbsp;&nbsp;&nbsp; J = NO</p>
","f","html-keyboard-response","5","2.1.0","85213","F=YES, J=NO","drwdy3aksd","1","74","73","75","","","","","","lextale","false","true","","","","","","","",""
"1186","
  <p style=""font-size: 40px;"">denial</p>
  <p style=""font-size: 16px;"">F = YES &nbsp;&nbsp;&nbsp; J = NO</p>
","f","html-keyboard-response","6","2.1.0","86400","F=YES, J=NO","drwdy3aksd","1","74","73","75","","","","","","lextale","true","true","","","","","","","",""
"2686","
  <p style=""font-size: 40px;"">marrit</p>
  <p style=""font-size: 16px;"">F = YES &nbsp;&nbsp;&nbsp; J = NO</p>
","j","html-keyboard-response","7","2.1.0","89089","F=YES, J=NO","drwdy3aksd","1","74","73","75","","","","","","lextale","false","true","","","","","","","",""
"1205","
  <p style=""font-size: 40px;"">bottle</p>
  <p style=""font-size: 16px;"">F = YES &nbsp;&nbsp;&nbsp; J = NO</p>
","f","html-keyboard-response","8","2.1.0","90297","F=YES, J=NO","drwdy3aksd","1","74","73","75","","","","","","lextale","true","false","","","","","","","",""
"1448","
  <p style=""font-size: 40px;"">birst</p>
  <p style=""font-size: 16px;"">F = YES &nbsp;&nbsp;&nbsp; J = NO</p>
","j","html-keyboard-response","9","2.1.0","91747","F=YES, J=NO","drwdy3aksd","1","74","73","75","","","","","","lextale","false","false","","","","","","","",""
"1020","
  <p style=""font-size: 40px;"">envy</p>
  <p style=""font-size: 16px;"">F = YES &nbsp;&nbsp;&nbsp; J = NO</p>
","f","html-keyboard-response","10","2.1.0","92768","F=YES, J=NO","drwdy3aksd","1","74","73","75","","","","","","lextale","true","false","","","","","","","",""
"1464","
  <p style=""font-size: 40px;"">brang</p>
  <p style=""font-size: 16px;"">F = YES &nbsp;&nbsp;&nbsp; J = NO</p>
","j","html-keyboard-response","11","2.1.0","94233","F=YES, J=NO","drwdy3aksd","1","74","73","75","","","","","","lextale","false","false","","","","","","","",""
"1230","
  <p style=""font-size: 40px;"">huge</p>
  <p style=""font-size: 16px;"">F = YES &nbsp;&nbsp;&nbsp; J = NO</p>
","f","html-keyboard-response","12","2.1.0","95464","F=YES, J=NO","drwdy3aksd","1","74","73","75","","","","","","lextale","true","false","","","","","","","",""
"2867","
  <p style=""font-size: 40px;"">plove</p>
  <p style=""font-size: 16px;"">F = YES &nbsp;&nbsp;&nbsp; J = NO</p>
","j","html-keyboard-response","13","2.1.0","98333","F=YES, J=NO","drwdy3aksd","1","74","73","75","","","","","","lextale","false","false","","","","","","","",""
"834","
  <p style=""font-size: 40px;"">border</p>
  <p style=""font-size: 16px;"">F = YES &nbsp;&nbsp;&nbsp; J = NO</p>
","f","html-keyboard-response","14","2.1.0","99168","F=YES, J=NO","drwdy3aksd","1","74","73","75","","","","","","lextale","true","false","","","","","","","",""
"2513","
  <p style=""font-size: 40px;"">flimsy</p>
  <p style=""font-size: 16px;"">F = YES &nbsp;&nbsp;&nbsp; J = NO</p>
","j","html-keyboard-response","15","2.1.0","101685","F=YES, J=NO","drwdy3aksd","1","74","73","75","","","","","","lextale","true","false","","","","","","","",""
"934","
  <p style=""font-size: 40px;"">drain</p>
  <p style=""font-size: 16px;"">F = YES &nbsp;&nbsp;&nbsp; J = NO</p>
","f","html-keyboard-response","16","2.1.0","102619","F=YES, J=NO","drwdy3aksd","1","74","73","75","","","","","","lextale","true","false","","","","","","","",""
"1594","
  <p style=""font-size: 40px;"">twindle</p>
  <p style=""font-size: 16px;"">F = YES &nbsp;&nbsp;&nbsp; J = NO</p>
","j","html-keyboard-response","17","2.1.0","104214","F=YES, J=NO","drwdy3aksd","1","74","73","75","","","","","","lextale","false","false","","","","","","","",""
"888","
  <p style=""font-size: 40px;"">propose</p>
  <p style=""font-size: 16px;"">F = YES &nbsp;&nbsp;&nbsp; J = NO</p>
","f","html-keyboard-response","18","2.1.0","105104","F=YES, J=NO","drwdy3aksd","1","74","73","75","","","","","","lextale","true","false","","","","","","","",""
"1485","
  <p style=""font-size: 40px;"">forlay</p>
  <p style=""font-size: 16px;"">F = YES &nbsp;&nbsp;&nbsp; J = NO</p>
","j","html-keyboard-response","19","2.1.0","106592","F=YES, J=NO","drwdy3aksd","1","74","73","75","","","","","","lextale","false","false","","","","","","","",""
"1014","
  <p style=""font-size: 40px;"">tenant</p>
  <p style=""font-size: 16px;"">F = YES &nbsp;&nbsp;&nbsp; J = NO</p>
","f","html-keyboard-response","20","2.1.0","107609","F=YES, J=NO","drwdy3aksd","1","74","73","75","","","","","","lextale","true","false","","","","","","","",""
"1630","
  <p style=""font-size: 40px;"">strain</p>
  <p style=""font-size: 16px;"">F = YES &nbsp;&nbsp;&nbsp; J = NO</p>
","f","html-keyboard-response","21","2.1.0","109241","F=YES, J=NO","drwdy3aksd","1","74","73","75","","","","","","lextale","true","false","","","","","","","",""
"1746","
  <p style=""font-size: 40px;"">holster</p>
  <p style=""font-size: 16px;"">F = YES &nbsp;&nbsp;&nbsp; J = NO</p>
","f","html-keyboard-response","22","2.1.0","110989","F=YES, J=NO","drwdy3aksd","1","74","73","75","","","","","","lextale","true","false","","","","","","","",""
"1274","
  <p style=""font-size: 40px;"">hinder</p>
  <p style=""font-size: 16px;"">F = YES &nbsp;&nbsp;&nbsp; J = NO</p>
","f","html-keyboard-response","23","2.1.0","112264","F=YES, J=NO","drwdy3aksd","1","74","73","75","","","","","","lextale","true","false","","","","","","","",""
"1031","
  <p style=""font-size: 40px;"">swindle</p>
  <p style=""font-size: 16px;"">F = YES &nbsp;&nbsp;&nbsp; J = NO</p>
","f","html-keyboard-response","24","2.1.0","113296","F=YES, J=NO","drwdy3aksd","1","74","73","75","","","","","","lextale","true","false","","","","","","","",""
"2303","
  <p style=""font-size: 40px;"">nuder</p>
  <p style=""font-size: 16px;"">F = YES &nbsp;&nbsp;&nbsp; J = NO</p>
","j","html-keyboard-response","25","2.1.0","115600","F=YES, J=NO","drwdy3aksd","1","74","73","75","","","","","","lextale","false","false","","","","","","","",""
"830","
  <p style=""font-size: 40px;"">pillow</p>
  <p style=""font-size: 16px;"">F = YES &nbsp;&nbsp;&nbsp; J = NO</p>
","f","html-keyboard-response","26","2.1.0","116433","F=YES, J=NO","drwdy3aksd","1","74","73","75","","","","","","lextale","true","false","","","","","","","",""
"1652","
  <p style=""font-size: 40px;"">shumble</p>
  <p style=""font-size: 16px;"">F = YES &nbsp;&nbsp;&nbsp; J = NO</p>
","f","html-keyboard-response","27","2.1.0","118086","F=YES, J=NO","drwdy3aksd","1","74","73","75","","","","","","lextale","false","false","","","","","","","",""
"880","
  <p style=""font-size: 40px;"">thirst</p>
  <p style=""font-size: 16px;"">F = YES &nbsp;&nbsp;&nbsp; J = NO</p>
","f","html-keyboard-response","28","2.1.0","118967","F=YES, J=NO","drwdy3aksd","1","74","73","75","","","","","","lextale","true","false","","","","","","","",""
"1807","
  <p style=""font-size: 40px;"">unsail</p>
  <p style=""font-size: 16px;"">F = YES &nbsp;&nbsp;&nbsp; J = NO</p>
","j","html-keyboard-response","29","2.1.0","120776","F=YES, J=NO","drwdy3aksd","1","74","73","75","","","","","","lextale","false","false","","","","","","","",""
"1634","
  <p style=""font-size: 40px;"">rifle</p>
  <p style=""font-size: 16px;"">F = YES &nbsp;&nbsp;&nbsp; J = NO</p>
","f","html-keyboard-response","30","2.1.0","122413","F=YES, J=NO","drwdy3aksd","1","74","73","75","","","","","","lextale","true","false","","","","","","","",""
"2038","
  <p style=""font-size: 40px;"">mush</p>
  <p style=""font-size: 16px;"">F = YES &nbsp;&nbsp;&nbsp; J = NO</p>
","f","html-keyboard-response","31","2.1.0","124451","F=YES, J=NO","drwdy3aksd","1","74","73","75","","","","","","lextale","false","false","","","","","","","",""
"1131","
  <p style=""font-size: 40px;"">drench</p>
  <p style=""font-size: 16px;"">F = YES &nbsp;&nbsp;&nbsp; J = NO</p>
","f","html-keyboard-response","32","2.1.0","125582","F=YES, J=NO","drwdy3aksd","1","74","73","75","","","","","","lextale","true","false","","","","","","","",""
"1351","
  <p style=""font-size: 40px;"">snirt</p>
  <p style=""font-size: 16px;"">F = YES &nbsp;&nbsp;&nbsp; J = NO</p>
","f","html-keyboard-response","33","2.1.0","126936","F=YES, J=NO","drwdy3aksd","1","74","73","75","","","","","","lextale","false","false","","","","","","","",""
"758","
  <p style=""font-size: 40px;"">bitter</p>
  <p style=""font-size: 16px;"">F = YES &nbsp;&nbsp;&nbsp; J = NO</p>
","f","html-keyboard-response","34","2.1.0","127696","F=YES, J=NO","drwdy3aksd","1","74","73","75","","","","","","lextale","true","false","","","","","","","",""
"1158","
  <p style=""font-size: 40px;"">pliff</p>
  <p style=""font-size: 16px;"">F = YES &nbsp;&nbsp;&nbsp; J = NO</p>
","j","html-keyboard-response","35","2.1.0","128857","F=YES, J=NO","drwdy3aksd","1","74","73","75","","","","","","lextale","false","false","","","","","","","",""
"813","
  <p style=""font-size: 40px;"">tablet</p>
  <p style=""font-size: 16px;"">F = YES &nbsp;&nbsp;&nbsp; J = NO</p>
","f","html-keyboard-response","36","2.1.0","129672","F=YES, J=NO","drwdy3aksd","1","74","73","75","","","","","","lextale","true","false","","","","","","","",""
"1079","
  <p style=""font-size: 40px;"">glimmer</p>
  <p style=""font-size: 16px;"">F = YES &nbsp;&nbsp;&nbsp; J = NO</p>
","f","html-keyboard-response","37","2.1.0","130753","F=YES, J=NO","drwdy3aksd","1","74","73","75","","","","","","lextale","true","false","","","","","","","",""
"2286","
  <p style=""font-size: 40px;"">slink</p>
  <p style=""font-size: 16px;"">F = YES &nbsp;&nbsp;&nbsp; J = NO</p>
","j","html-keyboard-response","38","2.1.0","133040","F=YES, J=NO","drwdy3aksd","1","74","73","75","","","","","","lextale","true","false","","","","","","","",""
"711","
  <p style=""font-size: 40px;"">clever</p>
  <p style=""font-size: 16px;"">F = YES &nbsp;&nbsp;&nbsp; J = NO</p>
","f","html-keyboard-response","39","2.1.0","133753","F=YES, J=NO","drwdy3aksd","1","74","73","75","","","","","","lextale","true","false","","","","","","","",""
"1155","
  <p style=""font-size: 40px;"">grum</p>
  <p style=""font-size: 16px;"">F = YES &nbsp;&nbsp;&nbsp; J = NO</p>
","j","html-keyboard-response","40","2.1.0","134909","F=YES, J=NO","drwdy3aksd","1","74","73","75","","","","","","lextale","false","false","","","","","","","",""
"763","
  <p style=""font-size: 40px;"">string</p>
  <p style=""font-size: 16px;"">F = YES &nbsp;&nbsp;&nbsp; J = NO</p>
","f","html-keyboard-response","41","2.1.0","135673","F=YES, J=NO","drwdy3aksd","1","74","73","75","","","","","","lextale","true","false","","","","","","","",""
"2468","
  <p style=""font-size: 40px;"">plim</p>
  <p style=""font-size: 16px;"">F = YES &nbsp;&nbsp;&nbsp; J = NO</p>
","j","html-keyboard-response","42","2.1.0","138142","F=YES, J=NO","drwdy3aksd","1","74","73","75","","","","","","lextale","false","false","","","","","","","",""
"890","
  <p style=""font-size: 40px;"">cable</p>
  <p style=""font-size: 16px;"">F = YES &nbsp;&nbsp;&nbsp; J = NO</p>
","f","html-keyboard-response","43","2.1.0","139032","F=YES, J=NO","drwdy3aksd","1","74","73","75","","","","","","lextale","true","false","","","","","","","",""
"1822","
  <p style=""font-size: 40px;"">shrivel</p>
  <p style=""font-size: 16px;"">F = YES &nbsp;&nbsp;&nbsp; J = NO</p>
","j","html-keyboard-response","44","2.1.0","140856","F=YES, J=NO","drwdy3aksd","1","74","73","75","","","","","","lextale","true","false","","","","","","","",""
"1126","
  <p style=""font-size: 40px;"">tarnish</p>
  <p style=""font-size: 16px;"">F = YES &nbsp;&nbsp;&nbsp; J = NO</p>
","f","html-keyboard-response","45","2.1.0","141984","F=YES, J=NO","drwdy3aksd","1","74","73","75","","","","","","lextale","true","false","","","","","","","",""
"1234","
  <p style=""font-size: 40px;"">blim</p>
  <p style=""font-size: 16px;"">F = YES &nbsp;&nbsp;&nbsp; J = NO</p>
","j","html-keyboard-response","46","2.1.0","143220","F=YES, J=NO","drwdy3aksd","1","74","73","75","","","","","","lextale","false","false","","","","","","","",""
"2894","
  <p style=""font-size: 40px;"">stifle</p>
  <p style=""font-size: 16px;"">F = YES &nbsp;&nbsp;&nbsp; J = NO</p>
","j","html-keyboard-response","47","2.1.0","146114","F=YES, J=NO","drwdy3aksd","1","74","73","75","","","","","","lextale","true","false","","","","","","","",""
"1194","
  <p style=""font-size: 40px;"">bint</p>
  <p style=""font-size: 16px;"">F = YES &nbsp;&nbsp;&nbsp; J = NO</p>
","j","html-keyboard-response","48","2.1.0","147309","F=YES, J=NO","drwdy3aksd","1","74","73","75","","","","","","lextale","false","false","","","","","","","",""
"803","
  <p style=""font-size: 40px;"">purple</p>
  <p style=""font-size: 16px;"">F = YES &nbsp;&nbsp;&nbsp; J = NO</p>
","f","html-keyboard-response","49","2.1.0","148112","F=YES, J=NO","drwdy3aksd","1","74","73","75","","","","","","lextale","true","false","","","","","","","",""
"2269","
  <p style=""font-size: 40px;"">wriggle</p>
  <p style=""font-size: 16px;"">F = YES &nbsp;&nbsp;&nbsp; J = NO</p>
","f","html-keyboard-response","50","2.1.0","150383","F=YES, J=NO","drwdy3aksd","1","74","73","75","","","","","","lextale","true","false","","","","","","","",""
"2255","
  <p style=""font-size: 40px;"">mangle</p>
  <p style=""font-size: 16px;"">F = YES &nbsp;&nbsp;&nbsp; J = NO</p>
","j","html-keyboard-response","51","2.1.0","152640","F=YES, J=NO","drwdy3aksd","1","74","73","75","","","","","","lextale","true","false","","","","","","","",""
"1278","
  <p style=""font-size: 40px;"">shramp</p>
  <p style=""font-size: 16px;"">F = YES &nbsp;&nbsp;&nbsp; J = NO</p>
","j","html-keyboard-response","52","2.1.0","153920","F=YES, J=NO","drwdy3aksd","1","74","73","75","","","","","","lextale","false","false","","","","","","","",""
"948","
  <p style=""font-size: 40px;"">flirt</p>
  <p style=""font-size: 16px;"">F = YES &nbsp;&nbsp;&nbsp; J = NO</p>
","f","html-keyboard-response","53","2.1.0","154870","F=YES, J=NO","drwdy3aksd","1","74","73","75","","","","","","lextale","true","false","","","","","","","",""
"1209","
  <p style=""font-size: 40px;"">frip</p>
  <p style=""font-size: 16px;"">F = YES &nbsp;&nbsp;&nbsp; J = NO</p>
","j","html-keyboard-response","54","2.1.0","156081","F=YES, J=NO","drwdy3aksd","1","74","73","75","","","","","","lextale","false","false","","","","","","","",""
"2706","
  <p style=""font-size: 40px;"">tangle</p>
  <p style=""font-size: 16px;"">F = YES &nbsp;&nbsp;&nbsp; J = NO</p>
","f","html-keyboard-response","55","2.1.0","158788","F=YES, J=NO","drwdy3aksd","1","74","73","75","","","","","","lextale","true","false","","","","","","","",""
"1123","
  <p style=""font-size: 40px;"">crumble</p>
  <p style=""font-size: 16px;"">F = YES &nbsp;&nbsp;&nbsp; J = NO</p>
","f","html-keyboard-response","56","2.1.0","159912","F=YES, J=NO","drwdy3aksd","1","74","73","75","","","","","","lextale","true","false","","","","","","","",""
"1419","
  <p style=""font-size: 40px;"">wrinkle</p>
  <p style=""font-size: 16px;"">F = YES &nbsp;&nbsp;&nbsp; J = NO</p>
","f","html-keyboard-response","57","2.1.0","161333","F=YES, J=NO","drwdy3aksd","1","74","73","75","","","","","","lextale","true","false","","","","","","","",""
"1538","
  <p style=""font-size: 40px;"">slumb</p>
  <p style=""font-size: 16px;"">F = YES &nbsp;&nbsp;&nbsp; J = NO</p>
","f","html-keyboard-response","58","2.1.0","162872","F=YES, J=NO","drwdy3aksd","1","74","73","75","","","","","","lextale","false","false","","","","","","","",""
"974","
  <p style=""font-size: 40px;"">jungle</p>
  <p style=""font-size: 16px;"">F = YES &nbsp;&nbsp;&nbsp; J = NO</p>
","f","html-keyboard-response","59","2.1.0","163848","F=YES, J=NO","drwdy3aksd","1","74","73","75","","","","","","lextale","true","false","","","","","","","",""
"2814","
  <p style=""font-size: 40px;"">frolick</p>
  <p style=""font-size: 16px;"">F = YES &nbsp;&nbsp;&nbsp; J = NO</p>
","j","html-keyboard-response","60","2.1.0","166665","F=YES, J=NO","drwdy3aksd","1","74","73","75","","","","","","lextale","false","false","","","","","","","",""
"4823","
      <h2>LexTALE Test Completed</h2>
      <p>Your LexTALE vocabulary score is: <strong>74%</strong></p>
      <p>Press any key to continue.</p>
    "," ","html-keyboard-response","61","2.1.0","171489","F=YES, J=NO","drwdy3aksd","1","74","73","75","","","","","","","","","","","","","","","",""
"7205","
    <div style=""max-width: 800px; margin: auto; text-align: left;"">
      <h2>Break Time</h2>
      <p>You have completed the first part of the study.</p>
      <p>You may take a short <strong>30-second break</strong> before continuing.</p>
      <p>When you’re ready, press any key to continue to the final task.</p>
    </div>
  "," ","html-keyboard-response","62","2.1.0","178695","F=YES, J=NO","drwdy3aksd","1","74","73","75","","","","","","","","","","","","","","","",""
"14711","
    <div style=""max-width: 800px; margin: auto; text-align: left;"">
      <h2>Part 2: Lexical Decision Task</h2>
      <p>You will now begin the second part of the study.</p>
      <p>Each trial will follow this sequence:</p>
      <ul>
        <li>A fixation cross (+) appears at the center of the screen.</li>
        <li>You will hear a short beep followed by a spoken word.</li>
        <li>A written word will appear briefly on the screen.</li>
      </ul>
      <p>Your task is to judge whether the <strong>written word</strong> is a real English word.</p>
      <p style=""margin-top: 1em;""><strong>Key responses:</strong></p>
      <ul>
        <li><strong>F</strong> = YES (real English word)</li>
        <li><strong>J</strong> = NO (not a real English word)</li>
      </ul>
      <p>Please respond as quickly and accurately as you can.</p>
      <p style=""margin-top: 2em;"">Press any key to continue.</p>
    </div>
  "," ","html-keyboard-response","63","2.1.0","193406","F=YES, J=NO","drwdy3aksd","1","74","73","75","","","","","","","","","","","","","","","",""
"7010","
    <div style=""max-width: 800px; margin: auto; text-align: left;"">
      <h2>Before You Begin</h2>
      <p>Make sure your sound is turned on.</p>
      <p>You will hear audio during each trial, but your decision should be based only on the <strong>written word</strong> you see on the screen.</p>
      <p><strong>Reminder:</strong></p>
      <ul>
        <li><strong>F</strong> = YES (real English word)</li>
        <li><strong>J</strong> = NO (not a real English word)</li>
      </ul>
      <p style=""margin-top: 2em;"">Press any key when you are ready to begin.</p>
    </div>
  "," ","html-keyboard-response","64","2.1.0","200417","F=YES, J=NO","drwdy3aksd","1","74","73","75","","","","","","","","","","","","","","","",""
"4895","
    <div style=""max-width: 800px; margin: auto; text-align: left;"">
      <h2>Part 2: Practice Trials</h2>
      <p>You will now complete a few <strong>practice trials</strong> to get familiar with the task.</p>
      <p>These trials are <strong>not scored</strong> and are only to help you get used to the format.</p>
      <p style=""margin-top: 2em;"">Press any key to begin.</p>
    </div>
  "," ","html-keyboard-response","65","2.1.0","205312","F=YES, J=NO","drwdy3aksd","1","74","73","75","","","","","","","","","","","","","","","",""
"1847","<p>Starting practice block 1 of 2. Press any key to continue.</p>"," ","html-keyboard-response","66","2.1.0","207161","F=YES, J=NO","drwdy3aksd","1","74","73","75","","","","","","","","","","","","","","","",""
"null","<p style=""font-size: 50px;"">+</p>","null","html-keyboard-response","67","2.1.0","207476","F=YES, J=NO","drwdy3aksd","1","74","73","75","","","","","","","","","","","","","","","",""
"null","audio/beep-329314.mp3","null","audio-keyboard-response","68","2.1.0","209018","F=YES, J=NO","drwdy3aksd","1","74","73","75","","","","","","","","","","","","","","","",""
"null","audio/burden.wav","null","audio-keyboard-response","69","2.1.0","209507","F=YES, J=NO","drwdy3aksd","1","74","73","75","","","","","","","","","","","","","","","",""
"null","
          <p id=""word"" style=""font-size: 40px;"">whotth</p>
          <p style=""font-size: 16px;"">F = YES &nbsp;&nbsp;&nbsp; J = NO</p>
        ","null","html-keyboard-response","70","2.1.0","211008","F=YES, J=NO","drwdy3aksd","1","74","73","75","","","","","","","","","whotth","burden","pseudoword","pseudoword","j","false","",""
"null","<p style=""font-size: 50px;"">+</p>","null","html-keyboard-response","71","2.1.0","211317","F=YES, J=NO","drwdy3aksd","1","74","73","75","","","","","","","","","","","","","","","",""
"null","audio/beep-329314.mp3","null","audio-keyboard-response","72","2.1.0","212858","F=YES, J=NO","drwdy3aksd","1","74","73","75","","","","","","","","","","","","","","","",""
"null","audio/mind.wav","null","audio-keyboard-response","73","2.1.0","213429","F=YES, J=NO","drwdy3aksd","1","74","73","75","","","","","","","","","","","","","","","",""
"697","
          <p id=""word"" style=""font-size: 40px;"">crainate</p>
          <p style=""font-size: 16px;"">F = YES &nbsp;&nbsp;&nbsp; J = NO</p>
        ","f","html-keyboard-response","74","2.1.0","214128","F=YES, J=NO","drwdy3aksd","1","74","73","75","","","","","","","","","crainate","mind","pseudoword","pseudoword","j","false","",""
"null","<p style=""font-size: 50px;"">+</p>","null","html-keyboard-response","75","2.1.0","214441","F=YES, J=NO","drwdy3aksd","1","74","73","75","","","","","","","","","","","","","","","",""
"null","audio/beep-329314.mp3","null","audio-keyboard-response","76","2.1.0","215980","F=YES, J=NO","drwdy3aksd","1","74","73","75","","","","","","","","","","","","","","","",""
"null","audio/pattern.wav","null","audio-keyboard-response","77","2.1.0","216669","F=YES, J=NO","drwdy3aksd","1","74","73","75","","","","","","","","","","","","","","","",""
"920","
          <p id=""word"" style=""font-size: 40px;"">tug</p>
          <p style=""font-size: 16px;"">F = YES &nbsp;&nbsp;&nbsp; J = NO</p>
        ","j","html-keyboard-response","78","2.1.0","217590","F=YES, J=NO","drwdy3aksd","1","74","73","75","","","","","","","","","tug","pattern","filler","filler","f","false","",""
"null","<p style=""font-size: 50px;"">+</p>","null","html-keyboard-response","79","2.1.0","217907","F=YES, J=NO","drwdy3aksd","1","74","73","75","","","","","","","","","","","","","","","",""
"null","audio/beep-329314.mp3","null","audio-keyboard-response","80","2.1.0","219440","F=YES, J=NO","drwdy3aksd","1","74","73","75","","","","","","","","","","","","","","","",""
"null","audio/kettle1.wav","null","audio-keyboard-response","81","2.1.0","220189","F=YES, J=NO","drwdy3aksd","1","74","73","75","","","","","","","","","","","","","","","",""
"792","
          <p id=""word"" style=""font-size: 40px;"">wrap</p>
          <p style=""font-size: 16px;"">F = YES &nbsp;&nbsp;&nbsp; J = NO</p>
        ","f","html-keyboard-response","82","2.1.0","220984","F=YES, J=NO","drwdy3aksd","1","74","73","75","","","","","","","","","wrap","kettle1","filler","filler","f","true","",""
"null","<p style=""font-size: 50px;"">+</p>","null","html-keyboard-response","83","2.1.0","221299","F=YES, J=NO","drwdy3aksd","1","74","73","75","","","","","","","","","","","","","","","",""
"null","audio/beep-329314.mp3","null","audio-keyboard-response","84","2.1.0","222839","F=YES, J=NO","drwdy3aksd","1","74","73","75","","","","","","","","","","","","","","","",""
"null","audio/bishop1.wav","null","audio-keyboard-response","85","2.1.0","223729","F=YES, J=NO","drwdy3aksd","1","74","73","75","","","","","","","","","","","","","","","",""
"700","
          <p id=""word"" style=""font-size: 40px;"">play</p>
          <p style=""font-size: 16px;"">F = YES &nbsp;&nbsp;&nbsp; J = NO</p>
        ","f","html-keyboard-response","86","2.1.0","224432","F=YES, J=NO","drwdy3aksd","1","74","73","75","","","","","","","","","play","bishop1","filler","filler","f","true","",""
"null","<p style=""font-size: 50px;"">+</p>","null","html-keyboard-response","87","2.1.0","224749","F=YES, J=NO","drwdy3aksd","1","74","73","75","","","","","","","","","","","","","","","",""
"null","audio/beep-329314.mp3","null","audio-keyboard-response","88","2.1.0","226279","F=YES, J=NO","drwdy3aksd","1","74","73","75","","","","","","","","","","","","","","","",""
"null","audio/road.wav","null","audio-keyboard-response","89","2.1.0","227068","F=YES, J=NO","drwdy3aksd","1","74","73","75","","","","","","","","","","","","","","","",""
"730","
          <p id=""word"" style=""font-size: 40px;"">wappings</p>
          <p style=""font-size: 16px;"">F = YES &nbsp;&nbsp;&nbsp; J = NO</p>
        ","j","html-keyboard-response","90","2.1.0","227800","F=YES, J=NO","drwdy3aksd","1","74","73","75","","","","","","","","","wappings","road","pseudoword","pseudoword","j","true","",""
"null","<p style=""font-size: 50px;"">+</p>","null","html-keyboard-response","91","2.1.0","228118","F=YES, J=NO","drwdy3aksd","1","74","73","75","","","","","","","","","","","","","","","",""
"null","audio/beep-329314.mp3","null","audio-keyboard-response","92","2.1.0","229657","F=YES, J=NO","drwdy3aksd","1","74","73","75","","","","","","","","","","","","","","","",""
"null","audio/handle.wav","null","audio-keyboard-response","93","2.1.0","230289","F=YES, J=NO","drwdy3aksd","1","74","73","75","","","","","","","","","","","","","","","",""
"779","
          <p id=""word"" style=""font-size: 40px;"">moutes</p>
          <p style=""font-size: 16px;"">F = YES &nbsp;&nbsp;&nbsp; J = NO</p>
        ","j","html-keyboard-response","94","2.1.0","231070","F=YES, J=NO","drwdy3aksd","1","74","73","75","","","","","","","","","moutes","handle","pseudoword","pseudoword","j","true","",""
"null","<p style=""font-size: 50px;"">+</p>","null","html-keyboard-response","95","2.1.0","231382","F=YES, J=NO","drwdy3aksd","1","74","73","75","","","","","","","","","","","","","","","",""
"null","audio/beep-329314.mp3","null","audio-keyboard-response","96","2.1.0","232919","F=YES, J=NO","drwdy3aksd","1","74","73","75","","","","","","","","","","","","","","","",""
"null","audio/battle1.wav","null","audio-keyboard-response","97","2.1.0","233770","F=YES, J=NO","drwdy3aksd","1","74","73","75","","","","","","","","","","","","","","","",""
"804","
          <p id=""word"" style=""font-size: 40px;"">boil</p>
          <p style=""font-size: 16px;"">F = YES &nbsp;&nbsp;&nbsp; J = NO</p>
        ","f","html-keyboard-response","98","2.1.0","234576","F=YES, J=NO","drwdy3aksd","1","74","73","75","","","","","","","","","boil","battle1","filler","filler","f","true","",""
"null","<p style=""font-size: 50px;"">+</p>","null","html-keyboard-response","99","2.1.0","234889","F=YES, J=NO","drwdy3aksd","1","74","73","75","","","","","","","","","","","","","","","",""
"null","audio/beep-329314.mp3","null","audio-keyboard-response","100","2.1.0","236419","F=YES, J=NO","drwdy3aksd","1","74","73","75","","","","","","","","","","","","","","","",""
"null","audio/cancer1.wav","null","audio-keyboard-response","101","2.1.0","236969","F=YES, J=NO","drwdy3aksd","1","74","73","75","","","","","","","","","","","","","","","",""
"700","
          <p id=""word"" style=""font-size: 40px;"">draw</p>
          <p style=""font-size: 16px;"">F = YES &nbsp;&nbsp;&nbsp; J = NO</p>
        ","f","html-keyboard-response","102","2.1.0","237672","F=YES, J=NO","drwdy3aksd","1","74","73","75","","","","","","","","","draw","cancer1","filler","filler","f","true","",""
"null","<p style=""font-size: 50px;"">+</p>","null","html-keyboard-response","103","2.1.0","237980","F=YES, J=NO","drwdy3aksd","1","74","73","75","","","","","","","","","","","","","","","",""
"null","audio/beep-329314.mp3","null","audio-keyboard-response","104","2.1.0","239519","F=YES, J=NO","drwdy3aksd","1","74","73","75","","","","","","","","","","","","","","","",""
"null","audio/survey1.wav","null","audio-keyboard-response","105","2.1.0","240589","F=YES, J=NO","drwdy3aksd","1","74","73","75","","","","","","","","","","","","","","","",""
"916","
          <p id=""word"" style=""font-size: 40px;"">imploth</p>
          <p style=""font-size: 16px;"">F = YES &nbsp;&nbsp;&nbsp; J = NO</p>
        ","j","html-keyboard-response","106","2.1.0","241507","F=YES, J=NO","drwdy3aksd","1","74","73","75","","","","","","","","","imploth","survey1","pseudoword","pseudoword","j","true","",""
"null","<p style=""font-size: 50px;"">+</p>","null","html-keyboard-response","107","2.1.0","241812","F=YES, J=NO","drwdy3aksd","1","74","73","75","","","","","","","","","","","","","","","",""
"null","audio/beep-329314.mp3","null","audio-keyboard-response","108","2.1.0","243337","F=YES, J=NO","drwdy3aksd","1","74","73","75","","","","","","","","","","","","","","","",""
"null","audio/mile1.wav","null","audio-keyboard-response","109","2.1.0","243828","F=YES, J=NO","drwdy3aksd","1","74","73","75","","","","","","","","","","","","","","","",""
"833","
          <p id=""word"" style=""font-size: 40px;"">writch</p>
          <p style=""font-size: 16px;"">F = YES &nbsp;&nbsp;&nbsp; J = NO</p>
        ","j","html-keyboard-response","110","2.1.0","244663","F=YES, J=NO","drwdy3aksd","1","74","73","75","","","","","","","","","writch","mile1","pseudoword","pseudoword","j","true","",""
"null","<p style=""font-size: 50px;"">+</p>","null","html-keyboard-response","111","2.1.0","244972","F=YES, J=NO","drwdy3aksd","1","74","73","75","","","","","","","","","","","","","","","",""
"null","audio/beep-329314.mp3","null","audio-keyboard-response","112","2.1.0","246497","F=YES, J=NO","drwdy3aksd","1","74","73","75","","","","","","","","","","","","","","","",""
"null","audio/novel.wav","null","audio-keyboard-response","113","2.1.0","247347","F=YES, J=NO","drwdy3aksd","1","74","73","75","","","","","","","","","","","","","","","",""
"587","
          <p id=""word"" style=""font-size: 40px;"">type</p>
          <p style=""font-size: 16px;"">F = YES &nbsp;&nbsp;&nbsp; J = NO</p>
        ","f","html-keyboard-response","114","2.1.0","247935","F=YES, J=NO","drwdy3aksd","1","74","73","75","","","","","","","","","type","novel","filler","filler","f","true","",""
"9765","<p>Starting practice block 2 of 2. Press any key to continue.</p>"," ","html-keyboard-response","115","2.1.0","257701","F=YES, J=NO","drwdy3aksd","1","74","73","75","","","","","","","","","","","","","","","",""
"null","<p style=""font-size: 50px;"">+</p>","null","html-keyboard-response","116","2.1.0","258009","F=YES, J=NO","drwdy3aksd","1","74","73","75","","","","","","","","","","","","","","","",""
"null","audio/beep-329314.mp3","null","audio-keyboard-response","117","2.1.0","259512","F=YES, J=NO","drwdy3aksd","1","74","73","75","","","","","","","","","","","","","","","",""
"null","audio/noise1.wav","null","audio-keyboard-response","118","2.1.0","261262","F=YES, J=NO","drwdy3aksd","1","74","73","75","","","","","","","","","","","","","","","",""
"984","
          <p id=""word"" style=""font-size: 40px;"">slintered</p>
          <p style=""font-size: 16px;"">F = YES &nbsp;&nbsp;&nbsp; J = NO</p>
        ","f","html-keyboard-response","119","2.1.0","262246","F=YES, J=NO","drwdy3aksd","1","74","73","75","","","","","","","","","slintered","noise1","pseudoword","pseudoword","j","false","",""
"null","<p style=""font-size: 50px;"">+</p>","null","html-keyboard-response","120","2.1.0","262557","F=YES, J=NO","drwdy3aksd","1","74","73","75","","","","","","","","","","","","","","","",""
"null","audio/beep-329314.mp3","null","audio-keyboard-response","121","2.1.0","264093","F=YES, J=NO","drwdy3aksd","1","74","73","75","","","","","","","","","","","","","","","",""
"null","audio/birth1.wav","null","audio-keyboard-response","122","2.1.0","265801","F=YES, J=NO","drwdy3aksd","1","74","73","75","","","","","","","","","","","","","","","",""
"881","
          <p id=""word"" style=""font-size: 40px;"">peel</p>
          <p style=""font-size: 16px;"">F = YES &nbsp;&nbsp;&nbsp; J = NO</p>
        ","f","html-keyboard-response","123","2.1.0","266682","F=YES, J=NO","drwdy3aksd","1","74","73","75","","","","","","","","","peel","birth1","filler","filler","f","true","",""
"null","<p style=""font-size: 50px;"">+</p>","null","html-keyboard-response","124","2.1.0","266991","F=YES, J=NO","drwdy3aksd","1","74","73","75","","","","","","","","","","","","","","","",""
"null","audio/beep-329314.mp3","null","audio-keyboard-response","125","2.1.0","268531","F=YES, J=NO","drwdy3aksd","1","74","73","75","","","","","","","","","","","","","","","",""
"null","audio/arm.wav","null","audio-keyboard-response","126","2.1.0","269083","F=YES, J=NO","drwdy3aksd","1","74","73","75","","","","","","","","","","","","","","","",""
"667","
          <p id=""word"" style=""font-size: 40px;"">fold</p>
          <p style=""font-size: 16px;"">F = YES &nbsp;&nbsp;&nbsp; J = NO</p>
        ","f","html-keyboard-response","127","2.1.0","269753","F=YES, J=NO","drwdy3aksd","1","74","73","75","","","","","","","","","fold","arm","filler","filler","f","true","",""
"null","<p style=""font-size: 50px;"">+</p>","null","html-keyboard-response","128","2.1.0","270067","F=YES, J=NO","drwdy3aksd","1","74","73","75","","","","","","","","","","","","","","","",""
"null","audio/beep-329314.mp3","null","audio-keyboard-response","129","2.1.0","271594","F=YES, J=NO","drwdy3aksd","1","74","73","75","","","","","","","","","","","","","","","",""
"null","audio/meal.wav","null","audio-keyboard-response","130","2.1.0","272043","F=YES, J=NO","drwdy3aksd","1","74","73","75","","","","","","","","","","","","","","","",""
"752","
          <p id=""word"" style=""font-size: 40px;"">gallite</p>
          <p style=""font-size: 16px;"">F = YES &nbsp;&nbsp;&nbsp; J = NO</p>
        ","j","html-keyboard-response","131","2.1.0","272797","F=YES, J=NO","drwdy3aksd","1","74","73","75","","","","","","","","","gallite","meal","pseudoword","pseudoword","j","true","",""
"null","<p style=""font-size: 50px;"">+</p>","null","html-keyboard-response","132","2.1.0","273101","F=YES, J=NO","drwdy3aksd","1","74","73","75","","","","","","","","","","","","","","","",""
"null","audio/beep-329314.mp3","null","audio-keyboard-response","133","2.1.0","274632","F=YES, J=NO","drwdy3aksd","1","74","73","75","","","","","","","","","","","","","","","",""
"null","audio/cash1.wav","null","audio-keyboard-response","134","2.1.0","276623","F=YES, J=NO","drwdy3aksd","1","74","73","75","","","","","","","","","","","","","","","",""
"807","
          <p id=""word"" style=""font-size: 40px;"">splear</p>
          <p style=""font-size: 16px;"">F = YES &nbsp;&nbsp;&nbsp; J = NO</p>
        ","j","html-keyboard-response","135","2.1.0","277432","F=YES, J=NO","drwdy3aksd","1","74","73","75","","","","","","","","","splear","cash1","pseudoword","pseudoword","j","true","",""
"null","<p style=""font-size: 50px;"">+</p>","null","html-keyboard-response","136","2.1.0","277733","F=YES, J=NO","drwdy3aksd","1","74","73","75","","","","","","","","","","","","","","","",""
"null","audio/beep-329314.mp3","null","audio-keyboard-response","137","2.1.0","279273","F=YES, J=NO","drwdy3aksd","1","74","73","75","","","","","","","","","","","","","","","",""
"null","audio/pine.wav","null","audio-keyboard-response","138","2.1.0","280543","F=YES, J=NO","drwdy3aksd","1","74","73","75","","","","","","","","","","","","","","","",""
"940","
          <p id=""word"" style=""font-size: 40px;"">crebble</p>
          <p style=""font-size: 16px;"">F = YES &nbsp;&nbsp;&nbsp; J = NO</p>
        ","j","html-keyboard-response","139","2.1.0","281485","F=YES, J=NO","drwdy3aksd","1","74","73","75","","","","","","","","","crebble","pine","pseudoword","pseudoword","j","true","",""
"null","<p style=""font-size: 50px;"">+</p>","null","html-keyboard-response","140","2.1.0","281788","F=YES, J=NO","drwdy3aksd","1","74","73","75","","","","","","","","","","","","","","","",""
"null","audio/beep-329314.mp3","null","audio-keyboard-response","141","2.1.0","283314","F=YES, J=NO","drwdy3aksd","1","74","73","75","","","","","","","","","","","","","","","",""
"null","audio/corpse1.wav","null","audio-keyboard-response","142","2.1.0","285104","F=YES, J=NO","drwdy3aksd","1","74","73","75","","","","","","","","","","","","","","","",""
"740","
          <p id=""word"" style=""font-size: 40px;"">glonet</p>
          <p style=""font-size: 16px;"">F = YES &nbsp;&nbsp;&nbsp; J = NO</p>
        ","j","html-keyboard-response","143","2.1.0","285846","F=YES, J=NO","drwdy3aksd","1","74","73","75","","","","","","","","","glonet","corpse1","pseudoword","pseudoword","j","true","",""
"null","<p style=""font-size: 50px;"">+</p>","null","html-keyboard-response","144","2.1.0","286159","F=YES, J=NO","drwdy3aksd","1","74","73","75","","","","","","","","","","","","","","","",""
"null","audio/beep-329314.mp3","null","audio-keyboard-response","145","2.1.0","287694","F=YES, J=NO","drwdy3aksd","1","74","73","75","","","","","","","","","","","","","","","",""
"null","audio/belief.wav","null","audio-keyboard-response","146","2.1.0","289263","F=YES, J=NO","drwdy3aksd","1","74","73","75","","","","","","","","","","","","","","","",""
"694","
          <p id=""word"" style=""font-size: 40px;"">read</p>
          <p style=""font-size: 16px;"">F = YES &nbsp;&nbsp;&nbsp; J = NO</p>
        ","f","html-keyboard-response","147","2.1.0","289961","F=YES, J=NO","drwdy3aksd","1","74","73","75","","","","","","","","","read","belief","filler","filler","f","true","",""
"null","<p style=""font-size: 50px;"">+</p>","null","html-keyboard-response","148","2.1.0","290277","F=YES, J=NO","drwdy3aksd","1","74","73","75","","","","","","","","","","","","","","","",""
"null","audio/beep-329314.mp3","null","audio-keyboard-response","149","2.1.0","291814","F=YES, J=NO","drwdy3aksd","1","74","73","75","","","","","","","","","","","","","","","",""
"null","audio/ankle1.wav","null","audio-keyboard-response","150","2.1.0","292343","F=YES, J=NO","drwdy3aksd","1","74","73","75","","","","","","","","","","","","","","","",""
"700","
          <p id=""word"" style=""font-size: 40px;"">kick</p>
          <p style=""font-size: 16px;"">F = YES &nbsp;&nbsp;&nbsp; J = NO</p>
        ","f","html-keyboard-response","151","2.1.0","293045","F=YES, J=NO","drwdy3aksd","1","74","73","75","","","","","","","","","kick","ankle1","filler","filler","f","true","",""
"null","<p style=""font-size: 50px;"">+</p>","null","html-keyboard-response","152","2.1.0","293354","F=YES, J=NO","drwdy3aksd","1","74","73","75","","","","","","","","","","","","","","","",""
"null","audio/beep-329314.mp3","null","audio-keyboard-response","153","2.1.0","294894","F=YES, J=NO","drwdy3aksd","1","74","73","75","","","","","","","","","","","","","","","",""
"null","audio/stain.wav","null","audio-keyboard-response","154","2.1.0","296544","F=YES, J=NO","drwdy3aksd","1","74","73","75","","","","","","","","","","","","","","","",""
"822","
          <p id=""word"" style=""font-size: 40px;"">rumpsied</p>
          <p style=""font-size: 16px;"">F = YES &nbsp;&nbsp;&nbsp; J = NO</p>
        ","j","html-keyboard-response","155","2.1.0","297369","F=YES, J=NO","drwdy3aksd","1","74","73","75","","","","","","","","","rumpsied","stain","pseudoword","pseudoword","j","true","",""
"null","<p style=""font-size: 50px;"">+</p>","null","html-keyboard-response","156","2.1.0","297682","F=YES, J=NO","drwdy3aksd","1","74","73","75","","","","","","","","","","","","","","","",""
"null","audio/beep-329314.mp3","null","audio-keyboard-response","157","2.1.0","299213","F=YES, J=NO","drwdy3aksd","1","74","73","75","","","","","","","","","","","","","","","",""
"null","audio/camera1.wav","null","audio-keyboard-response","158","2.1.0","299903","F=YES, J=NO","drwdy3aksd","1","74","73","75","","","","","","","","","","","","","","","",""
"857","
          <p id=""word"" style=""font-size: 40px;"">stir</p>
          <p style=""font-size: 16px;"">F = YES &nbsp;&nbsp;&nbsp; J = NO</p>
        ","f","html-keyboard-response","159","2.1.0","300763","F=YES, J=NO","drwdy3aksd","1","74","73","75","","","","","","","","","stir","camera1","filler","filler","f","true","",""
"null","<p style=""font-size: 50px;"">+</p>","null","html-keyboard-response","160","2.1.0","301074","F=YES, J=NO","drwdy3aksd","1","74","73","75","","","","","","","","","","","","","","","",""
"null","audio/beep-329314.mp3","null","audio-keyboard-response","161","2.1.0","302614","F=YES, J=NO","drwdy3aksd","1","74","73","75","","","","","","","","","","","","","","","",""
"null","audio/bomb1.wav","null","audio-keyboard-response","162","2.1.0","303001","F=YES, J=NO","drwdy3aksd","1","74","73","75","","","","","","","","","","","","","","","",""
"630","
          <p id=""word"" style=""font-size: 40px;"">clean</p>
          <p style=""font-size: 16px;"">F = YES &nbsp;&nbsp;&nbsp; J = NO</p>
        ","f","html-keyboard-response","163","2.1.0","303632","F=YES, J=NO","drwdy3aksd","1","74","73","75","","","","","","","","","clean","bomb1","filler","filler","f","true","",""
"11513","
    <div style=""max-width: 800px; margin: auto; text-align: left;"">
      <h2>Part 2: Main Trials</h2>
      <p>Great job on the practice trials!</p>
      <p>You will now begin the <strong>main set of trials</strong>.</p>
      <p>Remember your key assignments:</p>
      <ul>
        <li><strong>F</strong> = YES (real English word)</li>
        <li><strong>J</strong> = NO (not a real English word)</li>
      </ul>
      <p>Try to respond as <strong>quickly and accurately</strong> as possible.</p>
      <p style=""margin-top: 2em;"">Press any key to begin the main trials.</p>
    </div>
  "," ","html-keyboard-response","164","2.1.0","315147","F=YES, J=NO","drwdy3aksd","1","74","73","75","","","","","","","","","","","","","","","",""
"1483","<p>Starting main block 1 of 8. Press any key to continue.</p>"," ","html-keyboard-response","165","2.1.0","316630","F=YES, J=NO","drwdy3aksd","1","74","73","75","","","","","","","","","","","","","","","",""
"null","<p style=""font-size: 50px;"">+</p>","null","html-keyboard-response","166","2.1.0","316933","F=YES, J=NO","drwdy3aksd","1","74","73","75","","","","","","","","","","","","","","","",""
"null","audio/beep-329314.mp3","null","audio-keyboard-response","167","2.1.0","318436","F=YES, J=NO","drwdy3aksd","1","74","73","75","","","","","","","","","","","","","","","",""
"null","audio/pig.wav","null","audio-keyboard-response","168","2.1.0","318814","F=YES, J=NO","drwdy3aksd","1","74","73","75","","","","","","","","","","","","","","","",""
"729","
          <p id=""word"" style=""font-size: 40px;"">tirlike</p>
          <p style=""font-size: 16px;"">F = YES &nbsp;&nbsp;&nbsp; J = NO</p>
        ","j","html-keyboard-response","169","2.1.0","319544","F=YES, J=NO","drwdy3aksd","1","74","73","75","","","","","","","","","tirlike","pig","pseudoword","pseudoword","j","true","",""
"null","<p style=""font-size: 50px;"">+</p>","null","html-keyboard-response","170","2.1.0","319859","F=YES, J=NO","drwdy3aksd","1","74","73","75","","","","","","","","","","","","","","","",""
"null","audio/beep-329314.mp3","null","audio-keyboard-response","171","2.1.0","321396","F=YES, J=NO","drwdy3aksd","1","74","73","75","","","","","","","","","","","","","","","",""
"null","audio/emotion.wav","null","audio-keyboard-response","172","2.1.0","322236","F=YES, J=NO","drwdy3aksd","1","74","73","75","","","","","","","","","","","","","","","",""
"983","
          <p id=""word"" style=""font-size: 40px;"">devering</p>
          <p style=""font-size: 16px;"">F = YES &nbsp;&nbsp;&nbsp; J = NO</p>
        ","j","html-keyboard-response","173","2.1.0","323222","F=YES, J=NO","drwdy3aksd","1","74","73","75","","","","","","","","","devering","emotion","pseudoword","pseudoword","j","true","",""
"null","<p style=""font-size: 50px;"">+</p>","null","html-keyboard-response","174","2.1.0","323538","F=YES, J=NO","drwdy3aksd","1","74","73","75","","","","","","","","","","","","","","","",""
"null","audio/beep-329314.mp3","null","audio-keyboard-response","175","2.1.0","325075","F=YES, J=NO","drwdy3aksd","1","74","73","75","","","","","","","","","","","","","","","",""
"null","audio/cloud1.wav","null","audio-keyboard-response","176","2.1.0","325816","F=YES, J=NO","drwdy3aksd","1","74","73","75","","","","","","","","","","","","","","","",""
"663","
          <p id=""word"" style=""font-size: 40px;"">scrap</p>
          <p style=""font-size: 16px;"">F = YES &nbsp;&nbsp;&nbsp; J = NO</p>
        ","f","html-keyboard-response","177","2.1.0","326481","F=YES, J=NO","drwdy3aksd","1","74","73","75","","","","","","","","","scrap","cloud1","unrelated","experimental","f","true","",""
"null","<p style=""font-size: 50px;"">+</p>","null","html-keyboard-response","178","2.1.0","326791","F=YES, J=NO","drwdy3aksd","1","74","73","75","","","","","","","","","","","","","","","",""
"null","audio/beep-329314.mp3","null","audio-keyboard-response","179","2.1.0","328317","F=YES, J=NO","drwdy3aksd","1","74","73","75","","","","","","","","","","","","","","","",""
"null","audio/flaw.wav","null","audio-keyboard-response","180","2.1.0","328937","F=YES, J=NO","drwdy3aksd","1","74","73","75","","","","","","","","","","","","","","","",""
"780","
          <p id=""word"" style=""font-size: 40px;"">thwool</p>
          <p style=""font-size: 16px;"">F = YES &nbsp;&nbsp;&nbsp; J = NO</p>
        ","j","html-keyboard-response","181","2.1.0","329720","F=YES, J=NO","drwdy3aksd","1","74","73","75","","","","","","","","","thwool","flaw","pseudoword","pseudoword","j","true","",""
"null","<p style=""font-size: 50px;"">+</p>","null","html-keyboard-response","182","2.1.0","330033","F=YES, J=NO","drwdy3aksd","1","74","73","75","","","","","","","","","","","","","","","",""
"null","audio/beep-329314.mp3","null","audio-keyboard-response","183","2.1.0","331577","F=YES, J=NO","drwdy3aksd","1","74","73","75","","","","","","","","","","","","","","","",""
"null","audio/heart1.wav","null","audio-keyboard-response","184","2.1.0","332197","F=YES, J=NO","drwdy3aksd","1","74","73","75","","","","","","","","","","","","","","","",""
"718","
          <p id=""word"" style=""font-size: 40px;"">dralm</p>
          <p style=""font-size: 16px;"">F = YES &nbsp;&nbsp;&nbsp; J = NO</p>
        ","j","html-keyboard-response","185","2.1.0","332917","F=YES, J=NO","drwdy3aksd","1","74","73","75","","","","","","","","","dralm","heart1","pseudoword","pseudoword","j","true","",""
"null","<p style=""font-size: 50px;"">+</p>","null","html-keyboard-response","186","2.1.0","333233","F=YES, J=NO","drwdy3aksd","1","74","73","75","","","","","","","","","","","","","","","",""
"null","audio/beep-329314.mp3","null","audio-keyboard-response","187","2.1.0","334778","F=YES, J=NO","drwdy3aksd","1","74","73","75","","","","","","","","","","","","","","","",""
"null","audio/foot1.wav","null","audio-keyboard-response","188","2.1.0","335338","F=YES, J=NO","drwdy3aksd","1","74","73","75","","","","","","","","","","","","","","","",""
"635","
          <p id=""word"" style=""font-size: 40px;"">close</p>
          <p style=""font-size: 16px;"">F = YES &nbsp;&nbsp;&nbsp; J = NO</p>
        ","f","html-keyboard-response","189","2.1.0","335975","F=YES, J=NO","drwdy3aksd","1","74","73","75","","","","","","","","","close","foot1","unrelated","experimental","f","true","",""
"null","<p style=""font-size: 50px;"">+</p>","null","html-keyboard-response","190","2.1.0","336289","F=YES, J=NO","drwdy3aksd","1","74","73","75","","","","","","","","","","","","","","","",""
"null","audio/beep-329314.mp3","null","audio-keyboard-response","191","2.1.0","337817","F=YES, J=NO","drwdy3aksd","1","74","73","75","","","","","","","","","","","","","","","",""
"null","audio/plot1.wav","null","audio-keyboard-response","192","2.1.0","338377","F=YES, J=NO","drwdy3aksd","1","74","73","75","","","","","","","","","","","","","","","",""
"677","
          <p id=""word"" style=""font-size: 40px;"">glenter</p>
          <p style=""font-size: 16px;"">F = YES &nbsp;&nbsp;&nbsp; J = NO</p>
        ","j","html-keyboard-response","193","2.1.0","339056","F=YES, J=NO","drwdy3aksd","1","74","73","75","","","","","","","","","glenter","plot1","pseudoword","pseudoword","j","true","",""
"null","<p style=""font-size: 50px;"">+</p>","null","html-keyboard-response","194","2.1.0","339368","F=YES, J=NO","drwdy3aksd","1","74","73","75","","","","","","","","","","","","","","","",""
"null","audio/beep-329314.mp3","null","audio-keyboard-response","195","2.1.0","340897","F=YES, J=NO","drwdy3aksd","1","74","73","75","","","","","","","","","","","","","","","",""
"null","audio/butter1.wav","null","audio-keyboard-response","196","2.1.0","341337","F=YES, J=NO","drwdy3aksd","1","74","73","75","","","","","","","","","","","","","","","",""
"637","
          <p id=""word"" style=""font-size: 40px;"">chew</p>
          <p style=""font-size: 16px;"">F = YES &nbsp;&nbsp;&nbsp; J = NO</p>
        ","f","html-keyboard-response","197","2.1.0","341976","F=YES, J=NO","drwdy3aksd","1","74","73","75","","","","","","","","","chew","butter1","filler","filler","f","true","",""
"null","<p style=""font-size: 50px;"">+</p>","null","html-keyboard-response","198","2.1.0","342282","F=YES, J=NO","drwdy3aksd","1","74","73","75","","","","","","","","","","","","","","","",""
"null","audio/beep-329314.mp3","null","audio-keyboard-response","199","2.1.0","343816","F=YES, J=NO","drwdy3aksd","1","74","73","75","","","","","","","","","","","","","","","",""
"null","audio/cinema1.wav","null","audio-keyboard-response","200","2.1.0","344417","F=YES, J=NO","drwdy3aksd","1","74","73","75","","","","","","","","","","","","","","","",""
"753","
          <p id=""word"" style=""font-size: 40px;"">murple</p>
          <p style=""font-size: 16px;"">F = YES &nbsp;&nbsp;&nbsp; J = NO</p>
        ","j","html-keyboard-response","201","2.1.0","345172","F=YES, J=NO","drwdy3aksd","1","74","73","75","","","","","","","","","murple","cinema1","pseudoword","pseudoword","j","true","",""
"null","<p style=""font-size: 50px;"">+</p>","null","html-keyboard-response","202","2.1.0","345479","F=YES, J=NO","drwdy3aksd","1","74","73","75","","","","","","","","","","","","","","","",""
"null","audio/beep-329314.mp3","null","audio-keyboard-response","203","2.1.0","347017","F=YES, J=NO","drwdy3aksd","1","74","73","75","","","","","","","","","","","","","","","",""
"null","audio/mind.wav","null","audio-keyboard-response","204","2.1.0","347577","F=YES, J=NO","drwdy3aksd","1","74","73","75","","","","","","","","","","","","","","","",""
"561","
          <p id=""word"" style=""font-size: 40px;"">clear</p>
          <p style=""font-size: 16px;"">F = YES &nbsp;&nbsp;&nbsp; J = NO</p>
        ","f","html-keyboard-response","205","2.1.0","348141","F=YES, J=NO","drwdy3aksd","1","74","73","75","","","","","","","","","clear","mind","metaphor","experimental","f","true","",""
"null","<p style=""font-size: 50px;"">+</p>","null","html-keyboard-response","206","2.1.0","348457","F=YES, J=NO","drwdy3aksd","1","74","73","75","","","","","","","","","","","","","","","",""
"null","audio/beep-329314.mp3","null","audio-keyboard-response","207","2.1.0","349997","F=YES, J=NO","drwdy3aksd","1","74","73","75","","","","","","","","","","","","","","","",""
"null","audio/breath.wav","null","audio-keyboard-response","208","2.1.0","350577","F=YES, J=NO","drwdy3aksd","1","74","73","75","","","","","","","","","","","","","","","",""
"579","
          <p id=""word"" style=""font-size: 40px;"">pack</p>
          <p style=""font-size: 16px;"">F = YES &nbsp;&nbsp;&nbsp; J = NO</p>
        ","f","html-keyboard-response","209","2.1.0","351157","F=YES, J=NO","drwdy3aksd","1","74","73","75","","","","","","","","","pack","breath","filler","filler","f","true","",""
"null","<p style=""font-size: 50px;"">+</p>","null","html-keyboard-response","210","2.1.0","351469","F=YES, J=NO","drwdy3aksd","1","74","73","75","","","","","","","","","","","","","","","",""
"null","audio/beep-329314.mp3","null","audio-keyboard-response","211","2.1.0","352997","F=YES, J=NO","drwdy3aksd","1","74","73","75","","","","","","","","","","","","","","","",""
"null","audio/holiday1.wav","null","audio-keyboard-response","212","2.1.0","353637","F=YES, J=NO","drwdy3aksd","1","74","73","75","","","","","","","","","","","","","","","",""
"680","
          <p id=""word"" style=""font-size: 40px;"">drivets</p>
          <p style=""font-size: 16px;"">F = YES &nbsp;&nbsp;&nbsp; J = NO</p>
        ","j","html-keyboard-response","213","2.1.0","354319","F=YES, J=NO","drwdy3aksd","1","74","73","75","","","","","","","","","drivets","holiday1","pseudoword","pseudoword","j","true","",""
"null","<p style=""font-size: 50px;"">+</p>","null","html-keyboard-response","214","2.1.0","354629","F=YES, J=NO","drwdy3aksd","1","74","73","75","","","","","","","","","","","","","","","",""
"null","audio/beep-329314.mp3","null","audio-keyboard-response","215","2.1.0","356157","F=YES, J=NO","drwdy3aksd","1","74","73","75","","","","","","","","","","","","","","","",""
"null","audio/budget1.wav","null","audio-keyboard-response","216","2.1.0","356756","F=YES, J=NO","drwdy3aksd","1","74","73","75","","","","","","","","","","","","","","","",""
"608","
          <p id=""word"" style=""font-size: 40px;"">cut</p>
          <p style=""font-size: 16px;"">F = YES &nbsp;&nbsp;&nbsp; J = NO</p>
        ","f","html-keyboard-response","217","2.1.0","357365","F=YES, J=NO","drwdy3aksd","1","74","73","75","","","","","","","","","cut","budget1","metaphor","experimental","f","true","",""
"null","<p style=""font-size: 50px;"">+</p>","null","html-keyboard-response","218","2.1.0","357668","F=YES, J=NO","drwdy3aksd","1","74","73","75","","","","","","","","","","","","","","","",""
"null","audio/beep-329314.mp3","null","audio-keyboard-response","219","2.1.0","359194","F=YES, J=NO","drwdy3aksd","1","74","73","75","","","","","","","","","","","","","","","",""
"null","audio/terrain.wav","null","audio-keyboard-response","220","2.1.0","359777","F=YES, J=NO","drwdy3aksd","1","74","73","75","","","","","","","","","","","","","","","",""
"741","
          <p id=""word"" style=""font-size: 40px;"">twist</p>
          <p style=""font-size: 16px;"">F = YES &nbsp;&nbsp;&nbsp; J = NO</p>
        ","f","html-keyboard-response","221","2.1.0","360520","F=YES, J=NO","drwdy3aksd","1","74","73","75","","","","","","","","","twist","terrain","filler","filler","f","true","",""
"null","<p style=""font-size: 50px;"">+</p>","null","html-keyboard-response","222","2.1.0","360828","F=YES, J=NO","drwdy3aksd","1","74","73","75","","","","","","","","","","","","","","","",""
"null","audio/beep-329314.mp3","null","audio-keyboard-response","223","2.1.0","362356","F=YES, J=NO","drwdy3aksd","1","74","73","75","","","","","","","","","","","","","","","",""
"null","audio/pig.wav","null","audio-keyboard-response","224","2.1.0","362737","F=YES, J=NO","drwdy3aksd","1","74","73","75","","","","","","","","","","","","","","","",""
"597","
          <p id=""word"" style=""font-size: 40px;"">feed</p>
          <p style=""font-size: 16px;"">F = YES &nbsp;&nbsp;&nbsp; J = NO</p>
        ","f","html-keyboard-response","225","2.1.0","363336","F=YES, J=NO","drwdy3aksd","1","74","73","75","","","","","","","","","feed","pig","literal","experimental","f","true","",""
"null","<p style=""font-size: 50px;"">+</p>","null","html-keyboard-response","226","2.1.0","363643","F=YES, J=NO","drwdy3aksd","1","74","73","75","","","","","","","","","","","","","","","",""
"null","audio/beep-329314.mp3","null","audio-keyboard-response","227","2.1.0","365177","F=YES, J=NO","drwdy3aksd","1","74","73","75","","","","","","","","","","","","","","","",""
"null","audio/effort.wav","null","audio-keyboard-response","228","2.1.0","365956","F=YES, J=NO","drwdy3aksd","1","74","73","75","","","","","","","","","","","","","","","",""
"650","
          <p id=""word"" style=""font-size: 40px;"">invest</p>
          <p style=""font-size: 16px;"">F = YES &nbsp;&nbsp;&nbsp; J = NO</p>
        ","f","html-keyboard-response","229","2.1.0","366608","F=YES, J=NO","drwdy3aksd","1","74","73","75","","","","","","","","","invest","effort","metaphor","experimental","f","true","",""
"6969","<p>Excellent! You have finished block 1 of 8.</p>
                     <p>Feel free to take a 30 second break.</p>
                     <p>Press any key when you're ready to continue.</p>","f","html-keyboard-response","230","2.1.0","373580","F=YES, J=NO","drwdy3aksd","1","74","73","75","","","","","","","","","","","","","","","",""
"2396","<p>Starting main block 2 of 8. Press any key to continue.</p>","f","html-keyboard-response","231","2.1.0","375976","F=YES, J=NO","drwdy3aksd","1","74","73","75","","","","","","","","","","","","","","","",""
"null","<p style=""font-size: 50px;"">+</p>","null","html-keyboard-response","232","2.1.0","376280","F=YES, J=NO","drwdy3aksd","1","74","73","75","","","","","","","","","","","","","","","",""
"null","audio/beep-329314.mp3","null","audio-keyboard-response","233","2.1.0","377788","F=YES, J=NO","drwdy3aksd","1","74","73","75","","","","","","","","","","","","","","","",""
"null","audio/camp.wav","null","audio-keyboard-response","234","2.1.0","378304","F=YES, J=NO","drwdy3aksd","1","74","73","75","","","","","","","","","","","","","","","",""
"567","
          <p id=""word"" style=""font-size: 40px;"">touch</p>
          <p style=""font-size: 16px;"">F = YES &nbsp;&nbsp;&nbsp; J = NO</p>
        ","f","html-keyboard-response","235","2.1.0","378872","F=YES, J=NO","drwdy3aksd","1","74","73","75","","","","","","","","","touch","camp","unrelated","experimental","f","true","",""
"null","<p style=""font-size: 50px;"">+</p>","null","html-keyboard-response","236","2.1.0","379187","F=YES, J=NO","drwdy3aksd","1","74","73","75","","","","","","","","","","","","","","","",""
"null","audio/beep-329314.mp3","null","audio-keyboard-response","237","2.1.0","380727","F=YES, J=NO","drwdy3aksd","1","74","73","75","","","","","","","","","","","","","","","",""
"null","audio/alarm1.wav","null","audio-keyboard-response","238","2.1.0","381305","F=YES, J=NO","drwdy3aksd","1","74","73","75","","","","","","","","","","","","","","","",""
"518","
          <p id=""word"" style=""font-size: 40px;"">save</p>
          <p style=""font-size: 16px;"">F = YES &nbsp;&nbsp;&nbsp; J = NO</p>
        ","f","html-keyboard-response","239","2.1.0","381824","F=YES, J=NO","drwdy3aksd","1","74","73","75","","","","","","","","","save","alarm1","unrelated","experimental","f","true","",""
"null","<p style=""font-size: 50px;"">+</p>","null","html-keyboard-response","240","2.1.0","382137","F=YES, J=NO","drwdy3aksd","1","74","73","75","","","","","","","","","","","","","","","",""
"null","audio/beep-329314.mp3","null","audio-keyboard-response","241","2.1.0","383667","F=YES, J=NO","drwdy3aksd","1","74","73","75","","","","","","","","","","","","","","","",""
"null","audio/cancer1.wav","null","audio-keyboard-response","242","2.1.0","384207","F=YES, J=NO","drwdy3aksd","1","74","73","75","","","","","","","","","","","","","","","",""
"681","
          <p id=""word"" style=""font-size: 40px;"">fight</p>
          <p style=""font-size: 16px;"">F = YES &nbsp;&nbsp;&nbsp; J = NO</p>
        ","f","html-keyboard-response","243","2.1.0","384891","F=YES, J=NO","drwdy3aksd","1","74","73","75","","","","","","","","","fight","cancer1","metaphor","experimental","f","true","",""
"null","<p style=""font-size: 50px;"">+</p>","null","html-keyboard-response","244","2.1.0","385200","F=YES, J=NO","drwdy3aksd","1","74","73","75","","","","","","","","","","","","","","","",""
"null","audio/beep-329314.mp3","null","audio-keyboard-response","245","2.1.0","386727","F=YES, J=NO","drwdy3aksd","1","74","73","75","","","","","","","","","","","","","","","",""
"null","audio/table1.wav","null","audio-keyboard-response","246","2.1.0","387226","F=YES, J=NO","drwdy3aksd","1","74","73","75","","","","","","","","","","","","","","","",""
"739","
          <p id=""word"" style=""font-size: 40px;"">stimb</p>
          <p style=""font-size: 16px;"">F = YES &nbsp;&nbsp;&nbsp; J = NO</p>
        ","j","html-keyboard-response","247","2.1.0","387968","F=YES, J=NO","drwdy3aksd","1","74","73","75","","","","","","","","","stimb","table1","pseudoword","pseudoword","j","true","",""
"null","<p style=""font-size: 50px;"">+</p>","null","html-keyboard-response","248","2.1.0","388279","F=YES, J=NO","drwdy3aksd","1","74","73","75","","","","","","","","","","","","","","","",""
"null","audio/beep-329314.mp3","null","audio-keyboard-response","249","2.1.0","389808","F=YES, J=NO","drwdy3aksd","1","74","73","75","","","","","","","","","","","","","","","",""
"null","audio/planet1.wav","null","audio-keyboard-response","250","2.1.0","390404","F=YES, J=NO","drwdy3aksd","1","74","73","75","","","","","","","","","","","","","","","",""
"874","
          <p id=""word"" style=""font-size: 40px;"">cratched</p>
          <p style=""font-size: 16px;"">F = YES &nbsp;&nbsp;&nbsp; J = NO</p>
        ","j","html-keyboard-response","251","2.1.0","391278","F=YES, J=NO","drwdy3aksd","1","74","73","75","","","","","","","","","cratched","planet1","pseudoword","pseudoword","j","true","",""
"null","<p style=""font-size: 50px;"">+</p>","null","html-keyboard-response","252","2.1.0","391588","F=YES, J=NO","drwdy3aksd","1","74","73","75","","","","","","","","","","","","","","","",""
"null","audio/beep-329314.mp3","null","audio-keyboard-response","253","2.1.0","393127","F=YES, J=NO","drwdy3aksd","1","74","73","75","","","","","","","","","","","","","","","",""
"null","audio/cottage1.wav","null","audio-keyboard-response","254","2.1.0","393787","F=YES, J=NO","drwdy3aksd","1","74","73","75","","","","","","","","","","","","","","","",""
"705","
          <p id=""word"" style=""font-size: 40px;"">release</p>
          <p style=""font-size: 16px;"">F = YES &nbsp;&nbsp;&nbsp; J = NO</p>
        ","f","html-keyboard-response","255","2.1.0","394495","F=YES, J=NO","drwdy3aksd","1","74","73","75","","","","","","","","","release","cottage1","unrelated","experimental","f","true","",""
"null","<p style=""font-size: 50px;"">+</p>","null","html-keyboard-response","256","2.1.0","394813","F=YES, J=NO","drwdy3aksd","1","74","73","75","","","","","","","","","","","","","","","",""
"null","audio/beep-329314.mp3","null","audio-keyboard-response","257","2.1.0","396347","F=YES, J=NO","drwdy3aksd","1","74","73","75","","","","","","","","","","","","","","","",""
"null","audio/gossip1.wav","null","audio-keyboard-response","258","2.1.0","396987","F=YES, J=NO","drwdy3aksd","1","74","73","75","","","","","","","","","","","","","","","",""
"758","
          <p id=""word"" style=""font-size: 40px;"">camerish</p>
          <p style=""font-size: 16px;"">F = YES &nbsp;&nbsp;&nbsp; J = NO</p>
        ","j","html-keyboard-response","259","2.1.0","397747","F=YES, J=NO","drwdy3aksd","1","74","73","75","","","","","","","","","camerish","gossip1","pseudoword","pseudoword","j","true","",""
"null","<p style=""font-size: 50px;"">+</p>","null","html-keyboard-response","260","2.1.0","398052","F=YES, J=NO","drwdy3aksd","1","74","73","75","","","","","","","","","","","","","","","",""
"null","audio/beep-329314.mp3","null","audio-keyboard-response","261","2.1.0","399587","F=YES, J=NO","drwdy3aksd","1","74","73","75","","","","","","","","","","","","","","","",""
"null","audio/client1.wav","null","audio-keyboard-response","262","2.1.0","400266","F=YES, J=NO","drwdy3aksd","1","74","73","75","","","","","","","","","","","","","","","",""
"707","
          <p id=""word"" style=""font-size: 40px;"">droothe</p>
          <p style=""font-size: 16px;"">F = YES &nbsp;&nbsp;&nbsp; J = NO</p>
        ","j","html-keyboard-response","263","2.1.0","400976","F=YES, J=NO","drwdy3aksd","1","74","73","75","","","","","","","","","droothe","client1","pseudoword","pseudoword","j","true","",""
"null","<p style=""font-size: 50px;"">+</p>","null","html-keyboard-response","264","2.1.0","401286","F=YES, J=NO","drwdy3aksd","1","74","73","75","","","","","","","","","","","","","","","",""
"null","audio/beep-329314.mp3","null","audio-keyboard-response","265","2.1.0","402827","F=YES, J=NO","drwdy3aksd","1","74","73","75","","","","","","","","","","","","","","","",""
"null","audio/show.wav","null","audio-keyboard-response","266","2.1.0","403565","F=YES, J=NO","drwdy3aksd","1","74","73","75","","","","","","","","","","","","","","","",""
"878","
          <p id=""word"" style=""font-size: 40px;"">smark</p>
          <p style=""font-size: 16px;"">F = YES &nbsp;&nbsp;&nbsp; J = NO</p>
        ","f","html-keyboard-response","267","2.1.0","404445","F=YES, J=NO","drwdy3aksd","1","74","73","75","","","","","","","","","smark","show","pseudoword","pseudoword","j","false","",""
"null","<p style=""font-size: 50px;"">+</p>","null","html-keyboard-response","268","2.1.0","404751","F=YES, J=NO","drwdy3aksd","1","74","73","75","","","","","","","","","","","","","","","",""
"null","audio/beep-329314.mp3","null","audio-keyboard-response","269","2.1.0","406287","F=YES, J=NO","drwdy3aksd","1","74","73","75","","","","","","","","","","","","","","","",""
"null","audio/bush1.wav","null","audio-keyboard-response","270","2.1.0","406766","F=YES, J=NO","drwdy3aksd","1","74","73","75","","","","","","","","","","","","","","","",""
"877","
          <p id=""word"" style=""font-size: 40px;"">platined</p>
          <p style=""font-size: 16px;"">F = YES &nbsp;&nbsp;&nbsp; J = NO</p>
        ","f","html-keyboard-response","271","2.1.0","407645","F=YES, J=NO","drwdy3aksd","1","74","73","75","","","","","","","","","platined","bush1","pseudoword","pseudoword","j","false","",""
"null","<p style=""font-size: 50px;"">+</p>","null","html-keyboard-response","272","2.1.0","407955","F=YES, J=NO","drwdy3aksd","1","74","73","75","","","","","","","","","","","","","","","",""
"null","audio/beep-329314.mp3","null","audio-keyboard-response","273","2.1.0","409485","F=YES, J=NO","drwdy3aksd","1","74","73","75","","","","","","","","","","","","","","","",""
"null","audio/rank1.wav","null","audio-keyboard-response","274","2.1.0","410046","F=YES, J=NO","drwdy3aksd","1","74","73","75","","","","","","","","","","","","","","","",""
"610","
          <p id=""word"" style=""font-size: 40px;"">climb</p>
          <p style=""font-size: 16px;"">F = YES &nbsp;&nbsp;&nbsp; J = NO</p>
        ","f","html-keyboard-response","275","2.1.0","410658","F=YES, J=NO","drwdy3aksd","1","74","73","75","","","","","","","","","climb","rank1","metaphor","experimental","f","true","",""
"null","<p style=""font-size: 50px;"">+</p>","null","html-keyboard-response","276","2.1.0","410968","F=YES, J=NO","drwdy3aksd","1","74","73","75","","","","","","","","","","","","","","","",""
"null","audio/beep-329314.mp3","null","audio-keyboard-response","277","2.1.0","412505","F=YES, J=NO","drwdy3aksd","1","74","73","75","","","","","","","","","","","","","","","",""
"null","audio/life1.wav","null","audio-keyboard-response","278","2.1.0","413066","F=YES, J=NO","drwdy3aksd","1","74","73","75","","","","","","","","","","","","","","","",""
"684","
          <p id=""word"" style=""font-size: 40px;"">flimch</p>
          <p style=""font-size: 16px;"">F = YES &nbsp;&nbsp;&nbsp; J = NO</p>
        ","j","html-keyboard-response","279","2.1.0","413752","F=YES, J=NO","drwdy3aksd","1","74","73","75","","","","","","","","","flimch","life1","pseudoword","pseudoword","j","true","",""
"null","<p style=""font-size: 50px;"">+</p>","null","html-keyboard-response","280","2.1.0","414065","F=YES, J=NO","drwdy3aksd","1","74","73","75","","","","","","","","","","","","","","","",""
"null","audio/beep-329314.mp3","null","audio-keyboard-response","281","2.1.0","415606","F=YES, J=NO","drwdy3aksd","1","74","73","75","","","","","","","","","","","","","","","",""
"null","audio/cave1.wav","null","audio-keyboard-response","282","2.1.0","416327","F=YES, J=NO","drwdy3aksd","1","74","73","75","","","","","","","","","","","","","","","",""
"702","
          <p id=""word"" style=""font-size: 40px;"">hurt</p>
          <p style=""font-size: 16px;"">F = YES &nbsp;&nbsp;&nbsp; J = NO</p>
        ","f","html-keyboard-response","283","2.1.0","417032","F=YES, J=NO","drwdy3aksd","1","74","73","75","","","","","","","","","hurt","cave1","unrelated","experimental","f","true","",""
"null","<p style=""font-size: 50px;"">+</p>","null","html-keyboard-response","284","2.1.0","417355","F=YES, J=NO","drwdy3aksd","1","74","73","75","","","","","","","","","","","","","","","",""
"null","audio/beep-329314.mp3","null","audio-keyboard-response","285","2.1.0","418887","F=YES, J=NO","drwdy3aksd","1","74","73","75","","","","","","","","","","","","","","","",""
"null","audio/breath.wav","null","audio-keyboard-response","286","2.1.0","419447","F=YES, J=NO","drwdy3aksd","1","74","73","75","","","","","","","","","","","","","","","",""
"702","
          <p id=""word"" style=""font-size: 40px;"">twets</p>
          <p style=""font-size: 16px;"">F = YES &nbsp;&nbsp;&nbsp; J = NO</p>
        ","j","html-keyboard-response","287","2.1.0","420152","F=YES, J=NO","drwdy3aksd","1","74","73","75","","","","","","","","","twets","breath","pseudoword","pseudoword","j","true","",""
"null","<p style=""font-size: 50px;"">+</p>","null","html-keyboard-response","288","2.1.0","420460","F=YES, J=NO","drwdy3aksd","1","74","73","75","","","","","","","","","","","","","","","",""
"null","audio/beep-329314.mp3","null","audio-keyboard-response","289","2.1.0","421986","F=YES, J=NO","drwdy3aksd","1","74","73","75","","","","","","","","","","","","","","","",""
"null","audio/brain.wav","null","audio-keyboard-response","290","2.1.0","422467","F=YES, J=NO","drwdy3aksd","1","74","73","75","","","","","","","","","","","","","","","",""
"578","
          <p id=""word"" style=""font-size: 40px;"">throw</p>
          <p style=""font-size: 16px;"">F = YES &nbsp;&nbsp;&nbsp; J = NO</p>
        ","f","html-keyboard-response","291","2.1.0","423047","F=YES, J=NO","drwdy3aksd","1","74","73","75","","","","","","","","","throw","brain","filler","filler","f","true","",""
"null","<p style=""font-size: 50px;"">+</p>","null","html-keyboard-response","292","2.1.0","423363","F=YES, J=NO","drwdy3aksd","1","74","73","75","","","","","","","","","","","","","","","",""
"null","audio/beep-329314.mp3","null","audio-keyboard-response","293","2.1.0","424885","F=YES, J=NO","drwdy3aksd","1","74","73","75","","","","","","","","","","","","","","","",""
"null","audio/baby.wav","null","audio-keyboard-response","294","2.1.0","425347","F=YES, J=NO","drwdy3aksd","1","74","73","75","","","","","","","","","","","","","","","",""
"762","
          <p id=""word"" style=""font-size: 40px;"">lift</p>
          <p style=""font-size: 16px;"">F = YES &nbsp;&nbsp;&nbsp; J = NO</p>
        ","f","html-keyboard-response","295","2.1.0","426111","F=YES, J=NO","drwdy3aksd","1","74","73","75","","","","","","","","","lift","baby","filler","filler","f","true","",""
"8905","<p>Excellent! You have finished block 2 of 8.</p>
                     <p>Feel free to take a 30 second break.</p>
                     <p>Press any key when you're ready to continue.</p>","f","html-keyboard-response","296","2.1.0","435018","F=YES, J=NO","drwdy3aksd","1","74","73","75","","","","","","","","","","","","","","","",""
"1451","<p>Starting main block 3 of 8. Press any key to continue.</p>","f","html-keyboard-response","297","2.1.0","436470","F=YES, J=NO","drwdy3aksd","1","74","73","75","","","","","","","","","","","","","","","",""
"null","<p style=""font-size: 50px;"">+</p>","null","html-keyboard-response","298","2.1.0","436785","F=YES, J=NO","drwdy3aksd","1","74","73","75","","","","","","","","","","","","","","","",""
"null","audio/beep-329314.mp3","null","audio-keyboard-response","299","2.1.0","438292","F=YES, J=NO","drwdy3aksd","1","74","73","75","","","","","","","","","","","","","","","",""
"null","audio/window1.wav","null","audio-keyboard-response","300","2.1.0","438871","F=YES, J=NO","drwdy3aksd","1","74","73","75","","","","","","","","","","","","","","","",""
"622","
          <p id=""word"" style=""font-size: 40px;"">toss</p>
          <p style=""font-size: 16px;"">F = YES &nbsp;&nbsp;&nbsp; J = NO</p>
        ","f","html-keyboard-response","301","2.1.0","439495","F=YES, J=NO","drwdy3aksd","1","74","73","75","","","","","","","","","toss","window1","filler","filler","f","true","",""
"null","<p style=""font-size: 50px;"">+</p>","null","html-keyboard-response","302","2.1.0","439804","F=YES, J=NO","drwdy3aksd","1","74","73","75","","","","","","","","","","","","","","","",""
"null","audio/beep-329314.mp3","null","audio-keyboard-response","303","2.1.0","441333","F=YES, J=NO","drwdy3aksd","1","74","73","75","","","","","","","","","","","","","","","",""
"null","audio/van1.wav","null","audio-keyboard-response","304","2.1.0","441831","F=YES, J=NO","drwdy3aksd","1","74","73","75","","","","","","","","","","","","","","","",""
"599","
          <p id=""word"" style=""font-size: 40px;"">push</p>
          <p style=""font-size: 16px;"">F = YES &nbsp;&nbsp;&nbsp; J = NO</p>
        ","f","html-keyboard-response","305","2.1.0","442433","F=YES, J=NO","drwdy3aksd","1","74","73","75","","","","","","","","","push","van1","filler","filler","f","true","",""
"null","<p style=""font-size: 50px;"">+</p>","null","html-keyboard-response","306","2.1.0","442743","F=YES, J=NO","drwdy3aksd","1","74","73","75","","","","","","","","","","","","","","","",""
"null","audio/beep-329314.mp3","null","audio-keyboard-response","307","2.1.0","444271","F=YES, J=NO","drwdy3aksd","1","74","73","75","","","","","","","","","","","","","","","",""
"null","audio/trout1.wav","null","audio-keyboard-response","308","2.1.0","444871","F=YES, J=NO","drwdy3aksd","1","74","73","75","","","","","","","","","","","","","","","",""
"665","
          <p id=""word"" style=""font-size: 40px;"">spimt</p>
          <p style=""font-size: 16px;"">F = YES &nbsp;&nbsp;&nbsp; J = NO</p>
        ","j","html-keyboard-response","309","2.1.0","445538","F=YES, J=NO","drwdy3aksd","1","74","73","75","","","","","","","","","spimt","trout1","pseudoword","pseudoword","j","true","",""
"null","<p style=""font-size: 50px;"">+</p>","null","html-keyboard-response","310","2.1.0","445845","F=YES, J=NO","drwdy3aksd","1","74","73","75","","","","","","","","","","","","","","","",""
"null","audio/beep-329314.mp3","null","audio-keyboard-response","311","2.1.0","447371","F=YES, J=NO","drwdy3aksd","1","74","73","75","","","","","","","","","","","","","","","",""
"null","audio/flaw.wav","null","audio-keyboard-response","312","2.1.0","447991","F=YES, J=NO","drwdy3aksd","1","74","73","75","","","","","","","","","","","","","","","",""
"661","
          <p id=""word"" style=""font-size: 40px;"">hide</p>
          <p style=""font-size: 16px;"">F = YES &nbsp;&nbsp;&nbsp; J = NO</p>
        ","f","html-keyboard-response","313","2.1.0","448653","F=YES, J=NO","drwdy3aksd","1","74","73","75","","","","","","","","","hide","flaw","metaphor","experimental","f","true","",""
"null","<p style=""font-size: 50px;"">+</p>","null","html-keyboard-response","314","2.1.0","448963","F=YES, J=NO","drwdy3aksd","1","74","73","75","","","","","","","","","","","","","","","",""
"null","audio/beep-329314.mp3","null","audio-keyboard-response","315","2.1.0","450491","F=YES, J=NO","drwdy3aksd","1","74","73","75","","","","","","","","","","","","","","","",""
"null","audio/emotion.wav","null","audio-keyboard-response","316","2.1.0","451130","F=YES, J=NO","drwdy3aksd","1","74","73","75","","","","","","","","","","","","","","","",""
"684","
          <p id=""word"" style=""font-size: 40px;"">bury</p>
          <p style=""font-size: 16px;"">F = YES &nbsp;&nbsp;&nbsp; J = NO</p>
        ","f","html-keyboard-response","317","2.1.0","451816","F=YES, J=NO","drwdy3aksd","1","74","73","75","","","","","","","","","bury","emotion","metaphor","experimental","f","true","",""
"null","<p style=""font-size: 50px;"">+</p>","null","html-keyboard-response","318","2.1.0","452124","F=YES, J=NO","drwdy3aksd","1","74","73","75","","","","","","","","","","","","","","","",""
"null","audio/beep-329314.mp3","null","audio-keyboard-response","319","2.1.0","453649","F=YES, J=NO","drwdy3aksd","1","74","73","75","","","","","","","","","","","","","","","",""
"null","audio/roof1.wav","null","audio-keyboard-response","320","2.1.0","454191","F=YES, J=NO","drwdy3aksd","1","74","73","75","","","","","","","","","","","","","","","",""
"868","
          <p id=""word"" style=""font-size: 40px;"">wronb</p>
          <p style=""font-size: 16px;"">F = YES &nbsp;&nbsp;&nbsp; J = NO</p>
        ","j","html-keyboard-response","321","2.1.0","455061","F=YES, J=NO","drwdy3aksd","1","74","73","75","","","","","","","","","wronb","roof1","pseudoword","pseudoword","j","true","",""
"null","<p style=""font-size: 50px;"">+</p>","null","html-keyboard-response","322","2.1.0","455370","F=YES, J=NO","drwdy3aksd","1","74","73","75","","","","","","","","","","","","","","","",""
"null","audio/beep-329314.mp3","null","audio-keyboard-response","323","2.1.0","456912","F=YES, J=NO","drwdy3aksd","1","74","73","75","","","","","","","","","","","","","","","",""
"null","audio/age1.wav","null","audio-keyboard-response","324","2.1.0","457472","F=YES, J=NO","drwdy3aksd","1","74","73","75","","","","","","","","","","","","","","","",""
"727","
          <p id=""word"" style=""font-size: 40px;"">bake</p>
          <p style=""font-size: 16px;"">F = YES &nbsp;&nbsp;&nbsp; J = NO</p>
        ","f","html-keyboard-response","325","2.1.0","458201","F=YES, J=NO","drwdy3aksd","1","74","73","75","","","","","","","","","bake","age1","filler","filler","f","true","",""
"null","<p style=""font-size: 50px;"">+</p>","null","html-keyboard-response","326","2.1.0","458509","F=YES, J=NO","drwdy3aksd","1","74","73","75","","","","","","","","","","","","","","","",""
"null","audio/beep-329314.mp3","null","audio-keyboard-response","327","2.1.0","460050","F=YES, J=NO","drwdy3aksd","1","74","73","75","","","","","","","","","","","","","","","",""
"null","audio/camera1.wav","null","audio-keyboard-response","328","2.1.0","460531","F=YES, J=NO","drwdy3aksd","1","74","73","75","","","","","","","","","","","","","","","",""
"947","
          <p id=""word"" style=""font-size: 40px;"">bring</p>
          <p style=""font-size: 16px;"">F = YES &nbsp;&nbsp;&nbsp; J = NO</p>
        ","j","html-keyboard-response","329","2.1.0","461481","F=YES, J=NO","drwdy3aksd","1","74","73","75","","","","","","","","","bring","camera1","literal","experimental","f","false","",""
"null","<p style=""font-size: 50px;"">+</p>","null","html-keyboard-response","330","2.1.0","461797","F=YES, J=NO","drwdy3aksd","1","74","73","75","","","","","","","","","","","","","","","",""
"null","audio/beep-329314.mp3","null","audio-keyboard-response","331","2.1.0","463330","F=YES, J=NO","drwdy3aksd","1","74","73","75","","","","","","","","","","","","","","","",""
"null","audio/dollar.wav","null","audio-keyboard-response","332","2.1.0","463711","F=YES, J=NO","drwdy3aksd","1","74","73","75","","","","","","","","","","","","","","","",""
"819","
          <p id=""word"" style=""font-size: 40px;"">gliptism</p>
          <p style=""font-size: 16px;"">F = YES &nbsp;&nbsp;&nbsp; J = NO</p>
        ","j","html-keyboard-response","333","2.1.0","464533","F=YES, J=NO","drwdy3aksd","1","74","73","75","","","","","","","","","gliptism","dollar","pseudoword","pseudoword","j","true","",""
"null","<p style=""font-size: 50px;"">+</p>","null","html-keyboard-response","334","2.1.0","464839","F=YES, J=NO","drwdy3aksd","1","74","73","75","","","","","","","","","","","","","","","",""
"null","audio/beep-329314.mp3","null","audio-keyboard-response","335","2.1.0","466369","F=YES, J=NO","drwdy3aksd","1","74","73","75","","","","","","","","","","","","","","","",""
"null","audio/strength.wav","null","audio-keyboard-response","336","2.1.0","467089","F=YES, J=NO","drwdy3aksd","1","74","73","75","","","","","","","","","","","","","","","",""
"683","
          <p id=""word"" style=""font-size: 40px;"">plabet</p>
          <p style=""font-size: 16px;"">F = YES &nbsp;&nbsp;&nbsp; J = NO</p>
        ","j","html-keyboard-response","337","2.1.0","467773","F=YES, J=NO","drwdy3aksd","1","74","73","75","","","","","","","","","plabet","strength","pseudoword","pseudoword","j","true","",""
"null","<p style=""font-size: 50px;"">+</p>","null","html-keyboard-response","338","2.1.0","468082","F=YES, J=NO","drwdy3aksd","1","74","73","75","","","","","","","","","","","","","","","",""
"null","audio/beep-329314.mp3","null","audio-keyboard-response","339","2.1.0","469609","F=YES, J=NO","drwdy3aksd","1","74","73","75","","","","","","","","","","","","","","","",""
"null","audio/neck.wav","null","audio-keyboard-response","340","2.1.0","470351","F=YES, J=NO","drwdy3aksd","1","74","73","75","","","","","","","","","","","","","","","",""
"771","
          <p id=""word"" style=""font-size: 40px;"">werling</p>
          <p style=""font-size: 16px;"">F = YES &nbsp;&nbsp;&nbsp; J = NO</p>
        ","j","html-keyboard-response","341","2.1.0","471123","F=YES, J=NO","drwdy3aksd","1","74","73","75","","","","","","","","","werling","neck","pseudoword","pseudoword","j","true","",""
"null","<p style=""font-size: 50px;"">+</p>","null","html-keyboard-response","342","2.1.0","471431","F=YES, J=NO","drwdy3aksd","1","74","73","75","","","","","","","","","","","","","","","",""
"null","audio/beep-329314.mp3","null","audio-keyboard-response","343","2.1.0","472971","F=YES, J=NO","drwdy3aksd","1","74","73","75","","","","","","","","","","","","","","","",""
"null","audio/farm1.wav","null","audio-keyboard-response","344","2.1.0","473531","F=YES, J=NO","drwdy3aksd","1","74","73","75","","","","","","","","","","","","","","","",""
"610","
          <p id=""word"" style=""font-size: 40px;"">catch</p>
          <p style=""font-size: 16px;"">F = YES &nbsp;&nbsp;&nbsp; J = NO</p>
        ","f","html-keyboard-response","345","2.1.0","474143","F=YES, J=NO","drwdy3aksd","1","74","73","75","","","","","","","","","catch","farm1","unrelated","experimental","f","true","",""
"null","<p style=""font-size: 50px;"">+</p>","null","html-keyboard-response","346","2.1.0","474453","F=YES, J=NO","drwdy3aksd","1","74","73","75","","","","","","","","","","","","","","","",""
"null","audio/beep-329314.mp3","null","audio-keyboard-response","347","2.1.0","475989","F=YES, J=NO","drwdy3aksd","1","74","73","75","","","","","","","","","","","","","","","",""
"null","audio/hawk1.wav","null","audio-keyboard-response","348","2.1.0","476771","F=YES, J=NO","drwdy3aksd","1","74","73","75","","","","","","","","","","","","","","","",""
"890","
          <p id=""word"" style=""font-size: 40px;"">wipe</p>
          <p style=""font-size: 16px;"">F = YES &nbsp;&nbsp;&nbsp; J = NO</p>
        ","f","html-keyboard-response","349","2.1.0","477662","F=YES, J=NO","drwdy3aksd","1","74","73","75","","","","","","","","","wipe","hawk1","unrelated","experimental","f","true","",""
"null","<p style=""font-size: 50px;"">+</p>","null","html-keyboard-response","350","2.1.0","477965","F=YES, J=NO","drwdy3aksd","1","74","73","75","","","","","","","","","","","","","","","",""
"null","audio/beep-329314.mp3","null","audio-keyboard-response","351","2.1.0","479489","F=YES, J=NO","drwdy3aksd","1","74","73","75","","","","","","","","","","","","","","","",""
"null","audio/sand.wav","null","audio-keyboard-response","352","2.1.0","480309","F=YES, J=NO","drwdy3aksd","1","74","73","75","","","","","","","","","","","","","","","",""
"776","
          <p id=""word"" style=""font-size: 40px;"">proted</p>
          <p style=""font-size: 16px;"">F = YES &nbsp;&nbsp;&nbsp; J = NO</p>
        ","j","html-keyboard-response","353","2.1.0","481085","F=YES, J=NO","drwdy3aksd","1","74","73","75","","","","","","","","","proted","sand","pseudoword","pseudoword","j","true","",""
"null","<p style=""font-size: 50px;"">+</p>","null","html-keyboard-response","354","2.1.0","481390","F=YES, J=NO","drwdy3aksd","1","74","73","75","","","","","","","","","","","","","","","",""
"null","audio/beep-329314.mp3","null","audio-keyboard-response","355","2.1.0","482929","F=YES, J=NO","drwdy3aksd","1","74","73","75","","","","","","","","","","","","","","","",""
"null","audio/ego.wav","null","audio-keyboard-response","356","2.1.0","483670","F=YES, J=NO","drwdy3aksd","1","74","73","75","","","","","","","","","","","","","","","",""
"1008","
          <p id=""word"" style=""font-size: 40px;"">bruite</p>
          <p style=""font-size: 16px;"">F = YES &nbsp;&nbsp;&nbsp; J = NO</p>
        ","j","html-keyboard-response","357","2.1.0","484678","F=YES, J=NO","drwdy3aksd","1","74","73","75","","","","","","","","","bruite","ego","pseudoword","pseudoword","j","true","",""
"null","<p style=""font-size: 50px;"">+</p>","null","html-keyboard-response","358","2.1.0","484980","F=YES, J=NO","drwdy3aksd","1","74","73","75","","","","","","","","","","","","","","","",""
"null","audio/beep-329314.mp3","null","audio-keyboard-response","359","2.1.0","486509","F=YES, J=NO","drwdy3aksd","1","74","73","75","","","","","","","","","","","","","","","",""
"null","audio/gossip1.wav","null","audio-keyboard-response","360","2.1.0","487129","F=YES, J=NO","drwdy3aksd","1","74","73","75","","","","","","","","","","","","","","","",""
"803","
          <p id=""word"" style=""font-size: 40px;"">wrestle</p>
          <p style=""font-size: 16px;"">F = YES &nbsp;&nbsp;&nbsp; J = NO</p>
        ","f","html-keyboard-response","361","2.1.0","487933","F=YES, J=NO","drwdy3aksd","1","74","73","75","","","","","","","","","wrestle","gossip1","unrelated","experimental","f","true","",""
"2247","<p>Excellent! You have finished block 3 of 8.</p>
                     <p>Feel free to take a 30 second break.</p>
                     <p>Press any key when you're ready to continue.</p>"," ","html-keyboard-response","362","2.1.0","490181","F=YES, J=NO","drwdy3aksd","1","74","73","75","","","","","","","","","","","","","","","",""
"880","<p>Starting main block 4 of 8. Press any key to continue.</p>"," ","html-keyboard-response","363","2.1.0","491061","F=YES, J=NO","drwdy3aksd","1","74","73","75","","","","","","","","","","","","","","","",""
"null","<p style=""font-size: 50px;"">+</p>","null","html-keyboard-response","364","2.1.0","491366","F=YES, J=NO","drwdy3aksd","1","74","73","75","","","","","","","","","","","","","","","",""
"null","audio/beep-329314.mp3","null","audio-keyboard-response","365","2.1.0","492889","F=YES, J=NO","drwdy3aksd","1","74","73","75","","","","","","","","","","","","","","","",""
"null","audio/alarm1.wav","null","audio-keyboard-response","366","2.1.0","493469","F=YES, J=NO","drwdy3aksd","1","74","73","75","","","","","","","","","","","","","","","",""
"711","
          <p id=""word"" style=""font-size: 40px;"">lock</p>
          <p style=""font-size: 16px;"">F = YES &nbsp;&nbsp;&nbsp; J = NO</p>
        ","f","html-keyboard-response","367","2.1.0","494181","F=YES, J=NO","drwdy3aksd","1","74","73","75","","","","","","","","","lock","alarm1","filler","filler","f","true","",""
"null","<p style=""font-size: 50px;"">+</p>","null","html-keyboard-response","368","2.1.0","494496","F=YES, J=NO","drwdy3aksd","1","74","73","75","","","","","","","","","","","","","","","",""
"null","audio/beep-329314.mp3","null","audio-keyboard-response","369","2.1.0","496029","F=YES, J=NO","drwdy3aksd","1","74","73","75","","","","","","","","","","","","","","","",""
"null","audio/hawk1.wav","null","audio-keyboard-response","370","2.1.0","496609","F=YES, J=NO","drwdy3aksd","1","74","73","75","","","","","","","","","","","","","","","",""
"812","
          <p id=""word"" style=""font-size: 40px;"">ostach</p>
          <p style=""font-size: 16px;"">F = YES &nbsp;&nbsp;&nbsp; J = NO</p>
        ","j","html-keyboard-response","371","2.1.0","497421","F=YES, J=NO","drwdy3aksd","1","74","73","75","","","","","","","","","ostach","hawk1","pseudoword","pseudoword","j","true","",""
"null","<p style=""font-size: 50px;"">+</p>","null","html-keyboard-response","372","2.1.0","497731","F=YES, J=NO","drwdy3aksd","1","74","73","75","","","","","","","","","","","","","","","",""
"null","audio/beep-329314.mp3","null","audio-keyboard-response","373","2.1.0","499269","F=YES, J=NO","drwdy3aksd","1","74","73","75","","","","","","","","","","","","","","","",""
"null","audio/beach1.wav","null","audio-keyboard-response","374","2.1.0","499849","F=YES, J=NO","drwdy3aksd","1","74","73","75","","","","","","","","","","","","","","","",""
"731","
          <p id=""word"" style=""font-size: 40px;"">drive</p>
          <p style=""font-size: 16px;"">F = YES &nbsp;&nbsp;&nbsp; J = NO</p>
        ","f","html-keyboard-response","375","2.1.0","500581","F=YES, J=NO","drwdy3aksd","1","74","73","75","","","","","","","","","drive","beach1","filler","filler","f","true","",""
"null","<p style=""font-size: 50px;"">+</p>","null","html-keyboard-response","376","2.1.0","500890","F=YES, J=NO","drwdy3aksd","1","74","73","75","","","","","","","","","","","","","","","",""
"null","audio/beep-329314.mp3","null","audio-keyboard-response","377","2.1.0","502432","F=YES, J=NO","drwdy3aksd","1","74","73","75","","","","","","","","","","","","","","","",""
"null","audio/voice.wav","null","audio-keyboard-response","378","2.1.0","503049","F=YES, J=NO","drwdy3aksd","1","74","73","75","","","","","","","","","","","","","","","",""
"614","
          <p id=""word"" style=""font-size: 40px;"">flood</p>
          <p style=""font-size: 16px;"">F = YES &nbsp;&nbsp;&nbsp; J = NO</p>
        ","f","html-keyboard-response","379","2.1.0","503664","F=YES, J=NO","drwdy3aksd","1","74","73","75","","","","","","","","","flood","voice","unrelated","experimental","f","true","",""
"null","<p style=""font-size: 50px;"">+</p>","null","html-keyboard-response","380","2.1.0","503970","F=YES, J=NO","drwdy3aksd","1","74","73","75","","","","","","","","","","","","","","","",""
"null","audio/beep-329314.mp3","null","audio-keyboard-response","381","2.1.0","505512","F=YES, J=NO","drwdy3aksd","1","74","73","75","","","","","","","","","","","","","","","",""
"null","audio/mood1.wav","null","audio-keyboard-response","382","2.1.0","505990","F=YES, J=NO","drwdy3aksd","1","74","73","75","","","","","","","","","","","","","","","",""
"760","
          <p id=""word"" style=""font-size: 40px;"">give</p>
          <p style=""font-size: 16px;"">F = YES &nbsp;&nbsp;&nbsp; J = NO</p>
        ","f","html-keyboard-response","383","2.1.0","506752","F=YES, J=NO","drwdy3aksd","1","74","73","75","","","","","","","","","give","mood1","unrelated","experimental","f","true","",""
"null","<p style=""font-size: 50px;"">+</p>","null","html-keyboard-response","384","2.1.0","507056","F=YES, J=NO","drwdy3aksd","1","74","73","75","","","","","","","","","","","","","","","",""
"null","audio/beep-329314.mp3","null","audio-keyboard-response","385","2.1.0","508590","F=YES, J=NO","drwdy3aksd","1","74","73","75","","","","","","","","","","","","","","","",""
"null","audio/haste1.wav","null","audio-keyboard-response","386","2.1.0","509332","F=YES, J=NO","drwdy3aksd","1","74","73","75","","","","","","","","","","","","","","","",""
"785","
          <p id=""word"" style=""font-size: 40px;"">coraconate</p>
          <p style=""font-size: 16px;"">F = YES &nbsp;&nbsp;&nbsp; J = NO</p>
        ","j","html-keyboard-response","387","2.1.0","510120","F=YES, J=NO","drwdy3aksd","1","74","73","75","","","","","","","","","coraconate","haste1","pseudoword","pseudoword","j","true","",""
"null","<p style=""font-size: 50px;"">+</p>","null","html-keyboard-response","388","2.1.0","510421","F=YES, J=NO","drwdy3aksd","1","74","73","75","","","","","","","","","","","","","","","",""
"null","audio/beep-329314.mp3","null","audio-keyboard-response","389","2.1.0","511951","F=YES, J=NO","drwdy3aksd","1","74","73","75","","","","","","","","","","","","","","","",""
"null","audio/bridge.wav","null","audio-keyboard-response","390","2.1.0","512712","F=YES, J=NO","drwdy3aksd","1","74","73","75","","","","","","","","","","","","","","","",""
"647","
          <p id=""word"" style=""font-size: 40px;"">crack</p>
          <p style=""font-size: 16px;"">F = YES &nbsp;&nbsp;&nbsp; J = NO</p>
        ","f","html-keyboard-response","391","2.1.0","513360","F=YES, J=NO","drwdy3aksd","1","74","73","75","","","","","","","","","crack","bridge","filler","filler","f","true","",""
