"rt","stimulus","response","trial_type","trial_index","plugin_version","time_elapsed","response_mapping","subject_id","list_index","lextale_score","lextale_word_score","lextale_nonword_score","success","timeout","failed_images","failed_audio","failed_video","task","isWord","isDummy","target","prime","prime_type","stimulus_type","correct_response","correct","section","question_order"
"77192","
    <div style=""max-width: 800px; margin: auto; text-align: left;"">
      <h2>STANFORD UNIVERSITY</h2>
      <h3>Research Information Sheet</h3>
      <p><strong>Protocol Director:</strong> Robert Hawkins<br>
      <strong>Protocol Title:</strong> Communication and social cognition in natural audiovisual contexts<br>
      <strong>IRB#:</strong> 77226</p>

      <p><strong>DESCRIPTION:</strong> You are invited to participate in a research study about language and communication. The purpose of the research is to understand how you interact and communicate with other people in naturalistic settings as a fluent English speaker. This research will be conducted through the Prolific platform, including participants from the US, UK, and Canada. If you decide to participate in this research, you will play a communication game in a group with one or more partners.</p>

      <p><strong>TIME INVOLVEMENT:</strong> The task will last the amount of time advertised on Prolific. You are free to withdraw from the study at any time.</p>

      <p><strong>RISKS AND BENEFITS:</strong> You may become frustrated if your partner gets distracted, or experience discomfort if other participants in your group send text that is inappropriate for the task. We ask you to please be respectful of other participants you might be interacting with to mitigate these risks. You may also experience discomfort when being asked to discuss or challenge emotionally salient political beliefs. Study data will be stored securely, in compliance with Stanford University standards, minimizing the risk of confidentiality breach. This study advances our scientific understanding of how people communicate and collaborate in naturalistic settings. This study may lead to further insights about what can go wrong in teamwork, suggest potential interventions to overcome these barriers, and help to develop assistive technologies that collaborate with human partners. We cannot and do not guarantee or promise that you will receive any benefits from this study.</p>

      <p><strong>PAYMENTS:</strong> You will receive payment in the amount advertised on Prolific. If you do not complete this study, you will receive prorated payment based on the time that you have spent. Additionally, you may be eligible for bonus payments as described in the instructions.</p>

      <p><strong>PARTICIPANT’S RIGHTS:</strong> If you have read this form and have decided to participate in this project, please understand your participation is voluntary and you have the right to withdraw your consent or discontinue participation at any time without penalty or loss of benefits to which you are otherwise entitled. The alternative is not to participate. You have the right to refuse to answer particular questions. The results of this research study may be presented at scientific or professional meetings or published in scientific journals. Your individual privacy will be maintained in all published and written data resulting from the study. In accordance with scientific norms, the data from this study may be used or shared with other researchers for future research (after removing personally identifying information) without additional consent from you.</p>

      <p><strong>CONTACT INFORMATION:</strong><br>
      Questions: If you have any questions, concerns or complaints about this research, its procedures, risks and benefits, contact the Protocol Director, Robert Hawkins (<a href=""mailto:rdhawkins@stanford.edu"">rdhawkins@stanford.edu</a>, 217-549-6923).<br>
      Independent Contact: If you are not satisfied with how this study is being conducted, or if you have any concerns, complaints, or general questions about the research or your rights as a participant, please contact the Stanford Institutional Review Board (IRB) to speak to someone independent of the research team at 650-723-2480 or toll free at 1-866-680-2906, or email at <a href=""mailto:irbnon-med@stanford.edu"">irbnon-med@stanford.edu</a>. You can also write to the Stanford IRB, Stanford University, 1705 El Camino Real, Palo Alto, CA 94306.</p>

      <p><strong>Please save or print a copy of this page for your records.</strong></p>
      <p>If you agree to participate in this research, click ""Continue"" below.</p>
    </div>
  ","0","html-button-response","0","2.1.0","77210","J=YES, F=NO","en865mp60k","2","78","70","85","","","","","","","","","","","","","","","",""
"15423","
    <div style=""max-width: 800px; margin: auto; text-align: left;"">
      <h2>Welcome!</h2>
      <p>Thank you for participating in this study. The experiment consists of three parts:</p>
      <ol>
        <li>An English vocabulary test</li>
        <li>A main task in which you will hear and see words, and decide whether the written word is a real English word</li>
        <li>A brief survey about your background</li>
      </ol>
      <p>Each part will be introduced before it begins.</p>
      <p>Please make sure you are in a quiet environment and can hear audio clearly for the final task.</p>
      <p style=""margin-top: 2em;"">Press any key to begin.</p>
    </div>
  "," ","html-keyboard-response","1","2.1.0","92639","J=YES, F=NO","en865mp60k","2","78","70","85","","","","","","","","","","","","","","","",""
"","","","preload","2","2.1.0","96916","J=YES, F=NO","en865mp60k","2","78","70","85","true","false","[]","[]","[]","","","","","","","","","","",""
"8759","
    <div style=""max-width: 800px; margin: auto; text-align: left;"">
      <h2>Part 1: Vocabulary Test</h2>
      <p>You will now complete the first part of the study: a short English vocabulary test.</p>
      <p>This test is called <strong>LexTALE</strong> and helps us get a general sense of your English proficiency.</p>
      <p style=""margin-top: 2em;"">Press any key to continue.</p>
    </div>
  "," ","html-keyboard-response","3","2.1.0","105677","J=YES, F=NO","en865mp60k","2","78","70","85","","","","","","","","","","","","","","","",""
"17777","
    <div style=""max-width: 800px; margin: auto; text-align: left;"">
      <h2>LexTALE Vocabulary Test</h2>
      <p>In this test, you will see a series of letter strings—one at a time.</p>
      <p>Your task is to decide whether each string is a real English word.</p>
      <p><strong>Key responses:</strong></p>
      <ul>
        <li><strong>J</strong> = YES (real English word)</li>
        <li><strong>F</strong> = NO (not a real English word)</li>
      </ul>
      <p>There is no time limit, but please try to be accurate.</p>
      <p style=""margin-top: 2em;"">Press any key to begin.</p>
    </div>
  "," ","html-keyboard-response","4","2.1.0","123457","J=YES, F=NO","en865mp60k","2","78","70","85","","","","","","","","","","","","","","","",""
"4436","
  <p style=""font-size: 40px;"">platery</p>
  <p style=""font-size: 16px;"">J = YES &nbsp;&nbsp;&nbsp; F = NO</p>
","j","html-keyboard-response","5","2.1.0","127897","J=YES, F=NO","en865mp60k","2","78","70","85","","","","","","lextale","false","true","","","","","","","",""
"1239","
  <p style=""font-size: 40px;"">denial</p>
  <p style=""font-size: 16px;"">J = YES &nbsp;&nbsp;&nbsp; F = NO</p>
","j","html-keyboard-response","6","2.1.0","129138","J=YES, F=NO","en865mp60k","2","78","70","85","","","","","","lextale","true","true","","","","","","","",""
"1487","
  <p style=""font-size: 40px;"">marrit</p>
  <p style=""font-size: 16px;"">J = YES &nbsp;&nbsp;&nbsp; F = NO</p>
","f","html-keyboard-response","7","2.1.0","130627","J=YES, F=NO","en865mp60k","2","78","70","85","","","","","","lextale","false","true","","","","","","","",""
"1299","
  <p style=""font-size: 40px;"">bottle</p>
  <p style=""font-size: 16px;"">J = YES &nbsp;&nbsp;&nbsp; F = NO</p>
","j","html-keyboard-response","8","2.1.0","131928","J=YES, F=NO","en865mp60k","2","78","70","85","","","","","","lextale","true","false","","","","","","","",""
"1387","
  <p style=""font-size: 40px;"">birst</p>
  <p style=""font-size: 16px;"">J = YES &nbsp;&nbsp;&nbsp; F = NO</p>
","f","html-keyboard-response","9","2.1.0","133318","J=YES, F=NO","en865mp60k","2","78","70","85","","","","","","lextale","false","false","","","","","","","",""
"2138","
  <p style=""font-size: 40px;"">envy</p>
  <p style=""font-size: 16px;"">J = YES &nbsp;&nbsp;&nbsp; F = NO</p>
","j","html-keyboard-response","10","2.1.0","135458","J=YES, F=NO","en865mp60k","2","78","70","85","","","","","","lextale","true","false","","","","","","","",""
"1398","
  <p style=""font-size: 40px;"">brang</p>
  <p style=""font-size: 16px;"">J = YES &nbsp;&nbsp;&nbsp; F = NO</p>
","f","html-keyboard-response","11","2.1.0","136858","J=YES, F=NO","en865mp60k","2","78","70","85","","","","","","lextale","false","false","","","","","","","",""
"1478","
  <p style=""font-size: 40px;"">huge</p>
  <p style=""font-size: 16px;"">J = YES &nbsp;&nbsp;&nbsp; F = NO</p>
","j","html-keyboard-response","12","2.1.0","138338","J=YES, F=NO","en865mp60k","2","78","70","85","","","","","","lextale","true","false","","","","","","","",""
"1527","
  <p style=""font-size: 40px;"">plove</p>
  <p style=""font-size: 16px;"">J = YES &nbsp;&nbsp;&nbsp; F = NO</p>
","f","html-keyboard-response","13","2.1.0","139868","J=YES, F=NO","en865mp60k","2","78","70","85","","","","","","lextale","false","false","","","","","","","",""
"1208","
  <p style=""font-size: 40px;"">border</p>
  <p style=""font-size: 16px;"">J = YES &nbsp;&nbsp;&nbsp; F = NO</p>
","j","html-keyboard-response","14","2.1.0","141078","J=YES, F=NO","en865mp60k","2","78","70","85","","","","","","lextale","true","false","","","","","","","",""
"2448","
  <p style=""font-size: 40px;"">flimsy</p>
  <p style=""font-size: 16px;"">J = YES &nbsp;&nbsp;&nbsp; F = NO</p>
","f","html-keyboard-response","15","2.1.0","143528","J=YES, F=NO","en865mp60k","2","78","70","85","","","","","","lextale","true","false","","","","","","","",""
"1288","
  <p style=""font-size: 40px;"">drain</p>
  <p style=""font-size: 16px;"">J = YES &nbsp;&nbsp;&nbsp; F = NO</p>
","j","html-keyboard-response","16","2.1.0","144818","J=YES, F=NO","en865mp60k","2","78","70","85","","","","","","lextale","true","false","","","","","","","",""
"3629","
  <p style=""font-size: 40px;"">twindle</p>
  <p style=""font-size: 16px;"">J = YES &nbsp;&nbsp;&nbsp; F = NO</p>
","j","html-keyboard-response","17","2.1.0","148448","J=YES, F=NO","en865mp60k","2","78","70","85","","","","","","lextale","false","false","","","","","","","",""
"1438","
  <p style=""font-size: 40px;"">propose</p>
  <p style=""font-size: 16px;"">J = YES &nbsp;&nbsp;&nbsp; F = NO</p>
","j","html-keyboard-response","18","2.1.0","149888","J=YES, F=NO","en865mp60k","2","78","70","85","","","","","","lextale","true","false","","","","","","","",""
"1758","
  <p style=""font-size: 40px;"">forlay</p>
  <p style=""font-size: 16px;"">J = YES &nbsp;&nbsp;&nbsp; F = NO</p>
","f","html-keyboard-response","19","2.1.0","151648","J=YES, F=NO","en865mp60k","2","78","70","85","","","","","","lextale","false","false","","","","","","","",""
"1268","
  <p style=""font-size: 40px;"">tenant</p>
  <p style=""font-size: 16px;"">J = YES &nbsp;&nbsp;&nbsp; F = NO</p>
","j","html-keyboard-response","20","2.1.0","152918","J=YES, F=NO","en865mp60k","2","78","70","85","","","","","","lextale","true","false","","","","","","","",""
"1718","
  <p style=""font-size: 40px;"">strain</p>
  <p style=""font-size: 16px;"">J = YES &nbsp;&nbsp;&nbsp; F = NO</p>
","j","html-keyboard-response","21","2.1.0","154637","J=YES, F=NO","en865mp60k","2","78","70","85","","","","","","lextale","true","false","","","","","","","",""
"2679","
  <p style=""font-size: 40px;"">holster</p>
  <p style=""font-size: 16px;"">J = YES &nbsp;&nbsp;&nbsp; F = NO</p>
","j","html-keyboard-response","22","2.1.0","157318","J=YES, F=NO","en865mp60k","2","78","70","85","","","","","","lextale","true","false","","","","","","","",""
"1538","
  <p style=""font-size: 40px;"">hinder</p>
  <p style=""font-size: 16px;"">J = YES &nbsp;&nbsp;&nbsp; F = NO</p>
","j","html-keyboard-response","23","2.1.0","158858","J=YES, F=NO","en865mp60k","2","78","70","85","","","","","","lextale","true","false","","","","","","","",""
"1088","
  <p style=""font-size: 40px;"">swindle</p>
  <p style=""font-size: 16px;"">J = YES &nbsp;&nbsp;&nbsp; F = NO</p>
","j","html-keyboard-response","24","2.1.0","159947","J=YES, F=NO","en865mp60k","2","78","70","85","","","","","","lextale","true","false","","","","","","","",""
"1148","
  <p style=""font-size: 40px;"">nuder</p>
  <p style=""font-size: 16px;"">J = YES &nbsp;&nbsp;&nbsp; F = NO</p>
","f","html-keyboard-response","25","2.1.0","161097","J=YES, F=NO","en865mp60k","2","78","70","85","","","","","","lextale","false","false","","","","","","","",""
"1119","
  <p style=""font-size: 40px;"">pillow</p>
  <p style=""font-size: 16px;"">J = YES &nbsp;&nbsp;&nbsp; F = NO</p>
","j","html-keyboard-response","26","2.1.0","162218","J=YES, F=NO","en865mp60k","2","78","70","85","","","","","","lextale","true","false","","","","","","","",""
"3768","
  <p style=""font-size: 40px;"">shumble</p>
  <p style=""font-size: 16px;"">J = YES &nbsp;&nbsp;&nbsp; F = NO</p>
","f","html-keyboard-response","27","2.1.0","165988","J=YES, F=NO","en865mp60k","2","78","70","85","","","","","","lextale","false","false","","","","","","","",""
"1238","
  <p style=""font-size: 40px;"">thirst</p>
  <p style=""font-size: 16px;"">J = YES &nbsp;&nbsp;&nbsp; F = NO</p>
","j","html-keyboard-response","28","2.1.0","167228","J=YES, F=NO","en865mp60k","2","78","70","85","","","","","","lextale","true","false","","","","","","","",""
"2308","
  <p style=""font-size: 40px;"">unsail</p>
  <p style=""font-size: 16px;"">J = YES &nbsp;&nbsp;&nbsp; F = NO</p>
","f","html-keyboard-response","29","2.1.0","169538","J=YES, F=NO","en865mp60k","2","78","70","85","","","","","","lextale","false","false","","","","","","","",""
"1459","
  <p style=""font-size: 40px;"">rifle</p>
  <p style=""font-size: 16px;"">J = YES &nbsp;&nbsp;&nbsp; F = NO</p>
","j","html-keyboard-response","30","2.1.0","170999","J=YES, F=NO","en865mp60k","2","78","70","85","","","","","","lextale","true","false","","","","","","","",""
"3558","
  <p style=""font-size: 40px;"">mush</p>
  <p style=""font-size: 16px;"">J = YES &nbsp;&nbsp;&nbsp; F = NO</p>
","j","html-keyboard-response","31","2.1.0","174559","J=YES, F=NO","en865mp60k","2","78","70","85","","","","","","lextale","false","false","","","","","","","",""
"1168","
  <p style=""font-size: 40px;"">drench</p>
  <p style=""font-size: 16px;"">J = YES &nbsp;&nbsp;&nbsp; F = NO</p>
","j","html-keyboard-response","32","2.1.0","175729","J=YES, F=NO","en865mp60k","2","78","70","85","","","","","","lextale","true","false","","","","","","","",""
"1028","
  <p style=""font-size: 40px;"">snirt</p>
  <p style=""font-size: 16px;"">J = YES &nbsp;&nbsp;&nbsp; F = NO</p>
","f","html-keyboard-response","33","2.1.0","176759","J=YES, F=NO","en865mp60k","2","78","70","85","","","","","","lextale","false","false","","","","","","","",""
"1308","
  <p style=""font-size: 40px;"">bitter</p>
  <p style=""font-size: 16px;"">J = YES &nbsp;&nbsp;&nbsp; F = NO</p>
","j","html-keyboard-response","34","2.1.0","178069","J=YES, F=NO","en865mp60k","2","78","70","85","","","","","","lextale","true","false","","","","","","","",""
"1399","
  <p style=""font-size: 40px;"">pliff</p>
  <p style=""font-size: 16px;"">J = YES &nbsp;&nbsp;&nbsp; F = NO</p>
","f","html-keyboard-response","35","2.1.0","179468","J=YES, F=NO","en865mp60k","2","78","70","85","","","","","","lextale","false","false","","","","","","","",""
"939","
  <p style=""font-size: 40px;"">tablet</p>
  <p style=""font-size: 16px;"">J = YES &nbsp;&nbsp;&nbsp; F = NO</p>
","j","html-keyboard-response","36","2.1.0","180409","J=YES, F=NO","en865mp60k","2","78","70","85","","","","","","lextale","true","false","","","","","","","",""
"1438","
  <p style=""font-size: 40px;"">glimmer</p>
  <p style=""font-size: 16px;"">J = YES &nbsp;&nbsp;&nbsp; F = NO</p>
","j","html-keyboard-response","37","2.1.0","181849","J=YES, F=NO","en865mp60k","2","78","70","85","","","","","","lextale","true","false","","","","","","","",""
"1358","
  <p style=""font-size: 40px;"">slink</p>
  <p style=""font-size: 16px;"">J = YES &nbsp;&nbsp;&nbsp; F = NO</p>
","f","html-keyboard-response","38","2.1.0","183208","J=YES, F=NO","en865mp60k","2","78","70","85","","","","","","lextale","true","false","","","","","","","",""
"1178","
  <p style=""font-size: 40px;"">clever</p>
  <p style=""font-size: 16px;"">J = YES &nbsp;&nbsp;&nbsp; F = NO</p>
","j","html-keyboard-response","39","2.1.0","184389","J=YES, F=NO","en865mp60k","2","78","70","85","","","","","","lextale","true","false","","","","","","","",""
"1318","
  <p style=""font-size: 40px;"">grum</p>
  <p style=""font-size: 16px;"">J = YES &nbsp;&nbsp;&nbsp; F = NO</p>
","f","html-keyboard-response","40","2.1.0","185709","J=YES, F=NO","en865mp60k","2","78","70","85","","","","","","lextale","false","false","","","","","","","",""
"1148","
  <p style=""font-size: 40px;"">string</p>
  <p style=""font-size: 16px;"">J = YES &nbsp;&nbsp;&nbsp; F = NO</p>
","j","html-keyboard-response","41","2.1.0","186858","J=YES, F=NO","en865mp60k","2","78","70","85","","","","","","lextale","true","false","","","","","","","",""
"1038","
  <p style=""font-size: 40px;"">plim</p>
  <p style=""font-size: 16px;"">J = YES &nbsp;&nbsp;&nbsp; F = NO</p>
","f","html-keyboard-response","42","2.1.0","187898","J=YES, F=NO","en865mp60k","2","78","70","85","","","","","","lextale","false","false","","","","","","","",""
"1100","
  <p style=""font-size: 40px;"">cable</p>
  <p style=""font-size: 16px;"">J = YES &nbsp;&nbsp;&nbsp; F = NO</p>
","j","html-keyboard-response","43","2.1.0","188999","J=YES, F=NO","en865mp60k","2","78","70","85","","","","","","lextale","true","false","","","","","","","",""
"2468","
  <p style=""font-size: 40px;"">shrivel</p>
  <p style=""font-size: 16px;"">J = YES &nbsp;&nbsp;&nbsp; F = NO</p>
","f","html-keyboard-response","44","2.1.0","191469","J=YES, F=NO","en865mp60k","2","78","70","85","","","","","","lextale","true","false","","","","","","","",""
"1258","
  <p style=""font-size: 40px;"">tarnish</p>
  <p style=""font-size: 16px;"">J = YES &nbsp;&nbsp;&nbsp; F = NO</p>
","j","html-keyboard-response","45","2.1.0","192728","J=YES, F=NO","en865mp60k","2","78","70","85","","","","","","lextale","true","false","","","","","","","",""
"2818","
  <p style=""font-size: 40px;"">blim</p>
  <p style=""font-size: 16px;"">J = YES &nbsp;&nbsp;&nbsp; F = NO</p>
","f","html-keyboard-response","46","2.1.0","195548","J=YES, F=NO","en865mp60k","2","78","70","85","","","","","","lextale","false","false","","","","","","","",""
"2669","
  <p style=""font-size: 40px;"">stifle</p>
  <p style=""font-size: 16px;"">J = YES &nbsp;&nbsp;&nbsp; F = NO</p>
","f","html-keyboard-response","47","2.1.0","198218","J=YES, F=NO","en865mp60k","2","78","70","85","","","","","","lextale","true","false","","","","","","","",""
"1119","
  <p style=""font-size: 40px;"">bint</p>
  <p style=""font-size: 16px;"">J = YES &nbsp;&nbsp;&nbsp; F = NO</p>
","f","html-keyboard-response","48","2.1.0","199339","J=YES, F=NO","en865mp60k","2","78","70","85","","","","","","lextale","false","false","","","","","","","",""
"868","
  <p style=""font-size: 40px;"">purple</p>
  <p style=""font-size: 16px;"">J = YES &nbsp;&nbsp;&nbsp; F = NO</p>
","j","html-keyboard-response","49","2.1.0","200209","J=YES, F=NO","en865mp60k","2","78","70","85","","","","","","lextale","true","false","","","","","","","",""
"1188","
  <p style=""font-size: 40px;"">wriggle</p>
  <p style=""font-size: 16px;"">J = YES &nbsp;&nbsp;&nbsp; F = NO</p>
","f","html-keyboard-response","50","2.1.0","201398","J=YES, F=NO","en865mp60k","2","78","70","85","","","","","","lextale","true","false","","","","","","","",""
"1819","
  <p style=""font-size: 40px;"">mangle</p>
  <p style=""font-size: 16px;"">J = YES &nbsp;&nbsp;&nbsp; F = NO</p>
","f","html-keyboard-response","51","2.1.0","203219","J=YES, F=NO","en865mp60k","2","78","70","85","","","","","","lextale","true","false","","","","","","","",""
"1478","
  <p style=""font-size: 40px;"">shramp</p>
  <p style=""font-size: 16px;"">J = YES &nbsp;&nbsp;&nbsp; F = NO</p>
","f","html-keyboard-response","52","2.1.0","204699","J=YES, F=NO","en865mp60k","2","78","70","85","","","","","","lextale","false","false","","","","","","","",""
"1228","
  <p style=""font-size: 40px;"">flirt</p>
  <p style=""font-size: 16px;"">J = YES &nbsp;&nbsp;&nbsp; F = NO</p>
","j","html-keyboard-response","53","2.1.0","205928","J=YES, F=NO","en865mp60k","2","78","70","85","","","","","","lextale","true","false","","","","","","","",""
"1519","
  <p style=""font-size: 40px;"">frip</p>
  <p style=""font-size: 16px;"">J = YES &nbsp;&nbsp;&nbsp; F = NO</p>
","f","html-keyboard-response","54","2.1.0","207449","J=YES, F=NO","en865mp60k","2","78","70","85","","","","","","lextale","false","false","","","","","","","",""
"1268","
  <p style=""font-size: 40px;"">tangle</p>
  <p style=""font-size: 16px;"">J = YES &nbsp;&nbsp;&nbsp; F = NO</p>
","j","html-keyboard-response","55","2.1.0","208718","J=YES, F=NO","en865mp60k","2","78","70","85","","","","","","lextale","true","false","","","","","","","",""
"1179","
  <p style=""font-size: 40px;"">crumble</p>
  <p style=""font-size: 16px;"">J = YES &nbsp;&nbsp;&nbsp; F = NO</p>
","j","html-keyboard-response","56","2.1.0","209899","J=YES, F=NO","en865mp60k","2","78","70","85","","","","","","lextale","true","false","","","","","","","",""
"1087","
  <p style=""font-size: 40px;"">wrinkle</p>
  <p style=""font-size: 16px;"">J = YES &nbsp;&nbsp;&nbsp; F = NO</p>
","j","html-keyboard-response","57","2.1.0","210988","J=YES, F=NO","en865mp60k","2","78","70","85","","","","","","lextale","true","false","","","","","","","",""
"1450","
  <p style=""font-size: 40px;"">slumb</p>
  <p style=""font-size: 16px;"">J = YES &nbsp;&nbsp;&nbsp; F = NO</p>
","f","html-keyboard-response","58","2.1.0","212439","J=YES, F=NO","en865mp60k","2","78","70","85","","","","","","lextale","false","false","","","","","","","",""
"948","
  <p style=""font-size: 40px;"">jungle</p>
  <p style=""font-size: 16px;"">J = YES &nbsp;&nbsp;&nbsp; F = NO</p>
","j","html-keyboard-response","59","2.1.0","213389","J=YES, F=NO","en865mp60k","2","78","70","85","","","","","","lextale","true","false","","","","","","","",""
"3079","
  <p style=""font-size: 40px;"">frolick</p>
  <p style=""font-size: 16px;"">J = YES &nbsp;&nbsp;&nbsp; F = NO</p>
","f","html-keyboard-response","60","2.1.0","216469","J=YES, F=NO","en865mp60k","2","78","70","85","","","","","","lextale","false","false","","","","","","","",""
"3397","
      <h2>LexTALE Test Completed</h2>
      <p>Your LexTALE vocabulary score is: <strong>78%</strong></p>
      <p>Press any key to continue.</p>
    "," ","html-keyboard-response","61","2.1.0","219869","J=YES, F=NO","en865mp60k","2","78","70","85","","","","","","","","","","","","","","","",""
"6439","
    <div style=""max-width: 800px; margin: auto; text-align: left;"">
      <h2>Break Time</h2>
      <p>You have completed the first part of the study.</p>
      <p>You may take a short <strong>30-second break</strong> before continuing.</p>
      <p>When you’re ready, press any key to continue to the final task.</p>
    </div>
  "," ","html-keyboard-response","62","2.1.0","226309","J=YES, F=NO","en865mp60k","2","78","70","85","","","","","","","","","","","","","","","",""
"35891","
    <div style=""max-width: 800px; margin: auto; text-align: left;"">
      <h2>Part 2: Lexical Decision Task</h2>
      <p>You will now begin the second part of the study.</p>
      <p>Each trial will follow this sequence:</p>
      <ul>
        <li>A fixation cross (+) appears at the center of the screen.</li>
        <li>You will hear a short beep followed by a spoken word.</li>
        <li>A written word will appear briefly on the screen.</li>
      </ul>
      <p>Your task is to judge whether the <strong>written word</strong> is a real English word.</p>
      <p style=""margin-top: 1em;""><strong>Key responses:</strong></p>
      <ul>
        <li><strong>J</strong> = YES (real English word)</li>
        <li><strong>F</strong> = NO (not a real English word)</li>
      </ul>
      <p>Please respond as quickly and accurately as you can.</p>
      <p style=""margin-top: 2em;"">Press any key to continue.</p>
    </div>
  "," ","html-keyboard-response","63","2.1.0","262201","J=YES, F=NO","en865mp60k","2","78","70","85","","","","","","","","","","","","","","","",""
"14376","
    <div style=""max-width: 800px; margin: auto; text-align: left;"">
      <h2>Before You Begin</h2>
      <p>Make sure your sound is turned on.</p>
      <p>You will hear audio during each trial, but your decision should be based only on the <strong>written word</strong> you see on the screen.</p>
      <p><strong>Reminder:</strong></p>
      <ul>
        <li><strong>J</strong> = YES (real English word)</li>
        <li><strong>F</strong> = NO (not a real English word)</li>
      </ul>
      <p style=""margin-top: 2em;"">Press any key when you are ready to begin.</p>
    </div>
  "," ","html-keyboard-response","64","2.1.0","276579","J=YES, F=NO","en865mp60k","2","78","70","85","","","","","","","","","","","","","","","",""
"3879","
    <div style=""max-width: 800px; margin: auto; text-align: left;"">
      <h2>Part 2: Practice Trials</h2>
      <p>You will now complete a few <strong>practice trials</strong> to get familiar with the task.</p>
      <p>These trials are <strong>not scored</strong> and are only to help you get used to the format.</p>
      <p style=""margin-top: 2em;"">Press any key to begin.</p>
    </div>
  "," ","html-keyboard-response","65","2.1.0","280459","J=YES, F=NO","en865mp60k","2","78","70","85","","","","","","","","","","","","","","","",""
"1879","<p>Starting practice block 1 of 2. Press any key to continue.</p>"," ","html-keyboard-response","66","2.1.0","282339","J=YES, F=NO","en865mp60k","2","78","70","85","","","","","","","","","","","","","","","",""
"null","<p style=""font-size: 50px;"">+</p>","null","html-keyboard-response","67","2.1.0","282647","J=YES, F=NO","en865mp60k","2","78","70","85","","","","","","","","","","","","","","","",""
"null","audio/beep-329314.mp3","null","audio-keyboard-response","68","2.1.0","284647","J=YES, F=NO","en865mp60k","2","78","70","85","","","","","","","","","","","","","","","",""
"null","audio/age1.wav","null","audio-keyboard-response","69","2.1.0","285442","J=YES, F=NO","en865mp60k","2","78","70","85","","","","","","","","","","","","","","","",""
"null","
          <p id=""word"" style=""font-size: 40px;"">bake</p>
          <p style=""font-size: 16px;"">J = YES &nbsp;&nbsp;&nbsp; F = NO</p>
        ","null","html-keyboard-response","70","2.1.0","286953","J=YES, F=NO","en865mp60k","2","78","70","85","","","","","","","","","bake","age1","filler","filler","j","false","",""
"null","<p style=""font-size: 50px;"">+</p>","null","html-keyboard-response","71","2.1.0","287263","J=YES, F=NO","en865mp60k","2","78","70","85","","","","","","","","","","","","","","","",""
"null","audio/beep-329314.mp3","null","audio-keyboard-response","72","2.1.0","288802","J=YES, F=NO","en865mp60k","2","78","70","85","","","","","","","","","","","","","","","",""
"null","audio/mind.wav","null","audio-keyboard-response","73","2.1.0","289522","J=YES, F=NO","en865mp60k","2","78","70","85","","","","","","","","","","","","","","","",""
"636","
          <p id=""word"" style=""font-size: 40px;"">crainate</p>
          <p style=""font-size: 16px;"">J = YES &nbsp;&nbsp;&nbsp; F = NO</p>
        ","j","html-keyboard-response","74","2.1.0","290159","J=YES, F=NO","en865mp60k","2","78","70","85","","","","","","","","","crainate","mind","pseudoword","pseudoword","f","false","",""
"null","<p style=""font-size: 50px;"">+</p>","null","html-keyboard-response","75","2.1.0","290467","J=YES, F=NO","en865mp60k","2","78","70","85","","","","","","","","","","","","","","","",""
"null","audio/beep-329314.mp3","null","audio-keyboard-response","76","2.1.0","292002","J=YES, F=NO","en865mp60k","2","78","70","85","","","","","","","","","","","","","","","",""
"null","audio/mile1.wav","null","audio-keyboard-response","77","2.1.0","292602","J=YES, F=NO","en865mp60k","2","78","70","85","","","","","","","","","","","","","","","",""
"776","
          <p id=""word"" style=""font-size: 40px;"">writch</p>
          <p style=""font-size: 16px;"">J = YES &nbsp;&nbsp;&nbsp; F = NO</p>
        ","j","html-keyboard-response","78","2.1.0","293380","J=YES, F=NO","en865mp60k","2","78","70","85","","","","","","","","","writch","mile1","pseudoword","pseudoword","f","false","",""
"null","<p style=""font-size: 50px;"">+</p>","null","html-keyboard-response","79","2.1.0","293695","J=YES, F=NO","en865mp60k","2","78","70","85","","","","","","","","","","","","","","","",""
"null","audio/beep-329314.mp3","null","audio-keyboard-response","80","2.1.0","295222","J=YES, F=NO","en865mp60k","2","78","70","85","","","","","","","","","","","","","","","",""
"null","audio/menu.wav","null","audio-keyboard-response","81","2.1.0","296101","J=YES, F=NO","en865mp60k","2","78","70","85","","","","","","","","","","","","","","","",""
"666","
          <p id=""word"" style=""font-size: 40px;"">slice</p>
          <p style=""font-size: 16px;"">J = YES &nbsp;&nbsp;&nbsp; F = NO</p>
        ","j","html-keyboard-response","82","2.1.0","296768","J=YES, F=NO","en865mp60k","2","78","70","85","","","","","","","","","slice","menu","filler","filler","j","true","",""
"null","<p style=""font-size: 50px;"">+</p>","null","html-keyboard-response","83","2.1.0","297075","J=YES, F=NO","en865mp60k","2","78","70","85","","","","","","","","","","","","","","","",""
"null","audio/beep-329314.mp3","null","audio-keyboard-response","84","2.1.0","298602","J=YES, F=NO","en865mp60k","2","78","70","85","","","","","","","","","","","","","","","",""
"null","audio/terrain.wav","null","audio-keyboard-response","85","2.1.0","299482","J=YES, F=NO","en865mp60k","2","78","70","85","","","","","","","","","","","","","","","",""
"null","
          <p id=""word"" style=""font-size: 40px;"">twist</p>
          <p style=""font-size: 16px;"">J = YES &nbsp;&nbsp;&nbsp; F = NO</p>
        ","null","html-keyboard-response","86","2.1.0","300994","J=YES, F=NO","en865mp60k","2","78","70","85","","","","","","","","","twist","terrain","filler","filler","j","false","",""
"null","<p style=""font-size: 50px;"">+</p>","null","html-keyboard-response","87","2.1.0","301307","J=YES, F=NO","en865mp60k","2","78","70","85","","","","","","","","","","","","","","","",""
"null","audio/beep-329314.mp3","null","audio-keyboard-response","88","2.1.0","302841","J=YES, F=NO","en865mp60k","2","78","70","85","","","","","","","","","","","","","","","",""
"null","audio/fence.wav","null","audio-keyboard-response","89","2.1.0","304261","J=YES, F=NO","en865mp60k","2","78","70","85","","","","","","","","","","","","","","","",""
"1406","
          <p id=""word"" style=""font-size: 40px;"">trim</p>
          <p style=""font-size: 16px;"">J = YES &nbsp;&nbsp;&nbsp; F = NO</p>
        ","j","html-keyboard-response","90","2.1.0","305669","J=YES, F=NO","en865mp60k","2","78","70","85","","","","","","","","","trim","fence","filler","filler","j","true","",""
"null","<p style=""font-size: 50px;"">+</p>","null","html-keyboard-response","91","2.1.0","305977","J=YES, F=NO","en865mp60k","2","78","70","85","","","","","","","","","","","","","","","",""
"null","audio/beep-329314.mp3","null","audio-keyboard-response","92","2.1.0","307501","J=YES, F=NO","en865mp60k","2","78","70","85","","","","","","","","","","","","","","","",""
"null","audio/battle1.wav","null","audio-keyboard-response","93","2.1.0","308142","J=YES, F=NO","en865mp60k","2","78","70","85","","","","","","","","","","","","","","","",""
"1096","
          <p id=""word"" style=""font-size: 40px;"">boil</p>
          <p style=""font-size: 16px;"">J = YES &nbsp;&nbsp;&nbsp; F = NO</p>
        ","j","html-keyboard-response","94","2.1.0","309239","J=YES, F=NO","en865mp60k","2","78","70","85","","","","","","","","","boil","battle1","filler","filler","j","true","",""
"null","<p style=""font-size: 50px;"">+</p>","null","html-keyboard-response","95","2.1.0","309542","J=YES, F=NO","en865mp60k","2","78","70","85","","","","","","","","","","","","","","","",""
"null","audio/beep-329314.mp3","null","audio-keyboard-response","96","2.1.0","311082","J=YES, F=NO","en865mp60k","2","78","70","85","","","","","","","","","","","","","","","",""
"null","audio/cash1.wav","null","audio-keyboard-response","97","2.1.0","311761","J=YES, F=NO","en865mp60k","2","78","70","85","","","","","","","","","","","","","","","",""
"998","
          <p id=""word"" style=""font-size: 40px;"">splear</p>
          <p style=""font-size: 16px;"">J = YES &nbsp;&nbsp;&nbsp; F = NO</p>
        ","j","html-keyboard-response","98","2.1.0","312760","J=YES, F=NO","en865mp60k","2","78","70","85","","","","","","","","","splear","cash1","pseudoword","pseudoword","f","false","",""
"null","<p style=""font-size: 50px;"">+</p>","null","html-keyboard-response","99","2.1.0","313076","J=YES, F=NO","en865mp60k","2","78","70","85","","","","","","","","","","","","","","","",""
"null","audio/beep-329314.mp3","null","audio-keyboard-response","100","2.1.0","314602","J=YES, F=NO","en865mp60k","2","78","70","85","","","","","","","","","","","","","","","",""
"null","audio/age1.wav","null","audio-keyboard-response","101","2.1.0","315142","J=YES, F=NO","en865mp60k","2","78","70","85","","","","","","","","","","","","","","","",""
"null","
          <p id=""word"" style=""font-size: 40px;"">lachry</p>
          <p style=""font-size: 16px;"">J = YES &nbsp;&nbsp;&nbsp; F = NO</p>
        ","null","html-keyboard-response","102","2.1.0","316659","J=YES, F=NO","en865mp60k","2","78","70","85","","","","","","","","","lachry","age1","pseudoword","pseudoword","f","false","",""
"null","<p style=""font-size: 50px;"">+</p>","null","html-keyboard-response","103","2.1.0","316971","J=YES, F=NO","en865mp60k","2","78","70","85","","","","","","","","","","","","","","","",""
"null","audio/beep-329314.mp3","null","audio-keyboard-response","104","2.1.0","318501","J=YES, F=NO","en865mp60k","2","78","70","85","","","","","","","","","","","","","","","",""
"null","audio/tomato.wav","null","audio-keyboard-response","105","2.1.0","319421","J=YES, F=NO","en865mp60k","2","78","70","85","","","","","","","","","","","","","","","",""
"767","
          <p id=""word"" style=""font-size: 40px;"">gladies</p>
          <p style=""font-size: 16px;"">J = YES &nbsp;&nbsp;&nbsp; F = NO</p>
        ","f","html-keyboard-response","106","2.1.0","320190","J=YES, F=NO","en865mp60k","2","78","70","85","","","","","","","","","gladies","tomato","pseudoword","pseudoword","f","true","",""
"null","<p style=""font-size: 50px;"">+</p>","null","html-keyboard-response","107","2.1.0","320492","J=YES, F=NO","en865mp60k","2","78","70","85","","","","","","","","","","","","","","","",""
"null","audio/beep-329314.mp3","null","audio-keyboard-response","108","2.1.0","322022","J=YES, F=NO","en865mp60k","2","78","70","85","","","","","","","","","","","","","","","",""
"null","audio/haste1.wav","null","audio-keyboard-response","109","2.1.0","322841","J=YES, F=NO","en865mp60k","2","78","70","85","","","","","","","","","","","","","","","",""
"807","
          <p id=""word"" style=""font-size: 40px;"">coraconate</p>
          <p style=""font-size: 16px;"">J = YES &nbsp;&nbsp;&nbsp; F = NO</p>
        ","f","html-keyboard-response","110","2.1.0","323649","J=YES, F=NO","en865mp60k","2","78","70","85","","","","","","","","","coraconate","haste1","pseudoword","pseudoword","f","true","",""
"null","<p style=""font-size: 50px;"">+</p>","null","html-keyboard-response","111","2.1.0","323955","J=YES, F=NO","en865mp60k","2","78","70","85","","","","","","","","","","","","","","","",""
"null","audio/beep-329314.mp3","null","audio-keyboard-response","112","2.1.0","325481","J=YES, F=NO","en865mp60k","2","78","70","85","","","","","","","","","","","","","","","",""
"null","audio/pain1.wav","null","audio-keyboard-response","113","2.1.0","326141","J=YES, F=NO","en865mp60k","2","78","70","85","","","","","","","","","","","","","","","",""
"747","
          <p id=""word"" style=""font-size: 40px;"">tritted</p>
          <p style=""font-size: 16px;"">J = YES &nbsp;&nbsp;&nbsp; F = NO</p>
        ","j","html-keyboard-response","114","2.1.0","326890","J=YES, F=NO","en865mp60k","2","78","70","85","","","","","","","","","tritted","pain1","pseudoword","pseudoword","f","false","",""
"1878","<p>Starting practice block 2 of 2. Press any key to continue.</p>"," ","html-keyboard-response","115","2.1.0","328769","J=YES, F=NO","en865mp60k","2","78","70","85","","","","","","","","","","","","","","","",""
"null","<p style=""font-size: 50px;"">+</p>","null","html-keyboard-response","116","2.1.0","329085","J=YES, F=NO","en865mp60k","2","78","70","85","","","","","","","","","","","","","","","",""
"null","audio/beep-329314.mp3","null","audio-keyboard-response","117","2.1.0","330622","J=YES, F=NO","en865mp60k","2","78","70","85","","","","","","","","","","","","","","","",""
"null","audio/foe1.wav","null","audio-keyboard-response","118","2.1.0","331361","J=YES, F=NO","en865mp60k","2","78","70","85","","","","","","","","","","","","","","","",""
"817","
          <p id=""word"" style=""font-size: 40px;"">creth</p>
          <p style=""font-size: 16px;"">J = YES &nbsp;&nbsp;&nbsp; F = NO</p>
        ","j","html-keyboard-response","119","2.1.0","332180","J=YES, F=NO","en865mp60k","2","78","70","85","","","","","","","","","creth","foe1","pseudoword","pseudoword","f","false","",""
"null","<p style=""font-size: 50px;"">+</p>","null","html-keyboard-response","120","2.1.0","332491","J=YES, F=NO","en865mp60k","2","78","70","85","","","","","","","","","","","","","","","",""
"null","audio/beep-329314.mp3","null","audio-keyboard-response","121","2.1.0","334021","J=YES, F=NO","en865mp60k","2","78","70","85","","","","","","","","","","","","","","","",""
"null","audio/pattern.wav","null","audio-keyboard-response","122","2.1.0","334601","J=YES, F=NO","en865mp60k","2","78","70","85","","","","","","","","","","","","","","","",""
"757","
          <p id=""word"" style=""font-size: 40px;"">tug</p>
          <p style=""font-size: 16px;"">J = YES &nbsp;&nbsp;&nbsp; F = NO</p>
        ","j","html-keyboard-response","123","2.1.0","335360","J=YES, F=NO","en865mp60k","2","78","70","85","","","","","","","","","tug","pattern","filler","filler","j","true","",""
"null","<p style=""font-size: 50px;"">+</p>","null","html-keyboard-response","124","2.1.0","335666","J=YES, F=NO","en865mp60k","2","78","70","85","","","","","","","","","","","","","","","",""
"null","audio/beep-329314.mp3","null","audio-keyboard-response","125","2.1.0","337202","J=YES, F=NO","en865mp60k","2","78","70","85","","","","","","","","","","","","","","","",""
"null","audio/bomb1.wav","null","audio-keyboard-response","126","2.1.0","337602","J=YES, F=NO","en865mp60k","2","78","70","85","","","","","","","","","","","","","","","",""
"537","
          <p id=""word"" style=""font-size: 40px;"">clean</p>
          <p style=""font-size: 16px;"">J = YES &nbsp;&nbsp;&nbsp; F = NO</p>
        ","j","html-keyboard-response","127","2.1.0","338140","J=YES, F=NO","en865mp60k","2","78","70","85","","","","","","","","","clean","bomb1","filler","filler","j","true","",""
"null","<p style=""font-size: 50px;"">+</p>","null","html-keyboard-response","128","2.1.0","338451","J=YES, F=NO","en865mp60k","2","78","70","85","","","","","","","","","","","","","","","",""
"null","audio/beep-329314.mp3","null","audio-keyboard-response","129","2.1.0","339982","J=YES, F=NO","en865mp60k","2","78","70","85","","","","","","","","","","","","","","","",""
"null","audio/alarm1.wav","null","audio-keyboard-response","130","2.1.0","340662","J=YES, F=NO","en865mp60k","2","78","70","85","","","","","","","","","","","","","","","",""
"636","
          <p id=""word"" style=""font-size: 40px;"">lock</p>
          <p style=""font-size: 16px;"">J = YES &nbsp;&nbsp;&nbsp; F = NO</p>
        ","j","html-keyboard-response","131","2.1.0","341300","J=YES, F=NO","en865mp60k","2","78","70","85","","","","","","","","","lock","alarm1","filler","filler","j","true","",""
"null","<p style=""font-size: 50px;"">+</p>","null","html-keyboard-response","132","2.1.0","341616","J=YES, F=NO","en865mp60k","2","78","70","85","","","","","","","","","","","","","","","",""
"null","audio/beep-329314.mp3","null","audio-keyboard-response","133","2.1.0","343142","J=YES, F=NO","en865mp60k","2","78","70","85","","","","","","","","","","","","","","","",""
"null","audio/ankle1.wav","null","audio-keyboard-response","134","2.1.0","343681","J=YES, F=NO","en865mp60k","2","78","70","85","","","","","","","","","","","","","","","",""
"718","
          <p id=""word"" style=""font-size: 40px;"">kick</p>
          <p style=""font-size: 16px;"">J = YES &nbsp;&nbsp;&nbsp; F = NO</p>
        ","j","html-keyboard-response","135","2.1.0","344401","J=YES, F=NO","en865mp60k","2","78","70","85","","","","","","","","","kick","ankle1","filler","filler","j","true","",""
"null","<p style=""font-size: 50px;"">+</p>","null","html-keyboard-response","136","2.1.0","344712","J=YES, F=NO","en865mp60k","2","78","70","85","","","","","","","","","","","","","","","",""
"null","audio/beep-329314.mp3","null","audio-keyboard-response","137","2.1.0","346242","J=YES, F=NO","en865mp60k","2","78","70","85","","","","","","","","","","","","","","","",""
"null","audio/account1.wav","null","audio-keyboard-response","138","2.1.0","347222","J=YES, F=NO","en865mp60k","2","78","70","85","","","","","","","","","","","","","","","",""
"596","
          <p id=""word"" style=""font-size: 40px;"">paint</p>
          <p style=""font-size: 16px;"">J = YES &nbsp;&nbsp;&nbsp; F = NO</p>
        ","j","html-keyboard-response","139","2.1.0","347820","J=YES, F=NO","en865mp60k","2","78","70","85","","","","","","","","","paint","account1","filler","filler","j","true","",""
"null","<p style=""font-size: 50px;"">+</p>","null","html-keyboard-response","140","2.1.0","348131","J=YES, F=NO","en865mp60k","2","78","70","85","","","","","","","","","","","","","","","",""
"null","audio/beep-329314.mp3","null","audio-keyboard-response","141","2.1.0","349661","J=YES, F=NO","en865mp60k","2","78","70","85","","","","","","","","","","","","","","","",""
"null","audio/heart1.wav","null","audio-keyboard-response","142","2.1.0","350421","J=YES, F=NO","en865mp60k","2","78","70","85","","","","","","","","","","","","","","","",""
"797","
          <p id=""word"" style=""font-size: 40px;"">dralm</p>
          <p style=""font-size: 16px;"">J = YES &nbsp;&nbsp;&nbsp; F = NO</p>
        ","f","html-keyboard-response","143","2.1.0","351220","J=YES, F=NO","en865mp60k","2","78","70","85","","","","","","","","","dralm","heart1","pseudoword","pseudoword","f","true","",""
"null","<p style=""font-size: 50px;"">+</p>","null","html-keyboard-response","144","2.1.0","351524","J=YES, F=NO","en865mp60k","2","78","70","85","","","","","","","","","","","","","","","",""
"null","audio/beep-329314.mp3","null","audio-keyboard-response","145","2.1.0","353062","J=YES, F=NO","en865mp60k","2","78","70","85","","","","","","","","","","","","","","","",""
"null","audio/breath.wav","null","audio-keyboard-response","146","2.1.0","353862","J=YES, F=NO","en865mp60k","2","78","70","85","","","","","","","","","","","","","","","",""
"626","
          <p id=""word"" style=""font-size: 40px;"">pack</p>
          <p style=""font-size: 16px;"">J = YES &nbsp;&nbsp;&nbsp; F = NO</p>
        ","j","html-keyboard-response","147","2.1.0","354490","J=YES, F=NO","en865mp60k","2","78","70","85","","","","","","","","","pack","breath","filler","filler","j","true","",""
"null","<p style=""font-size: 50px;"">+</p>","null","html-keyboard-response","148","2.1.0","354796","J=YES, F=NO","en865mp60k","2","78","70","85","","","","","","","","","","","","","","","",""
"null","audio/beep-329314.mp3","null","audio-keyboard-response","149","2.1.0","356322","J=YES, F=NO","en865mp60k","2","78","70","85","","","","","","","","","","","","","","","",""
"null","audio/mouth1.wav","null","audio-keyboard-response","150","2.1.0","357041","J=YES, F=NO","en865mp60k","2","78","70","85","","","","","","","","","","","","","","","",""
"619","
          <p id=""word"" style=""font-size: 40px;"">spolial</p>
          <p style=""font-size: 16px;"">J = YES &nbsp;&nbsp;&nbsp; F = NO</p>
        ","f","html-keyboard-response","151","2.1.0","357662","J=YES, F=NO","en865mp60k","2","78","70","85","","","","","","","","","spolial","mouth1","pseudoword","pseudoword","f","true","",""
"null","<p style=""font-size: 50px;"">+</p>","null","html-keyboard-response","152","2.1.0","357967","J=YES, F=NO","en865mp60k","2","78","70","85","","","","","","","","","","","","","","","",""
"null","audio/beep-329314.mp3","null","audio-keyboard-response","153","2.1.0","359502","J=YES, F=NO","en865mp60k","2","78","70","85","","","","","","","","","","","","","","","",""
"null","audio/survey1.wav","null","audio-keyboard-response","154","2.1.0","360502","J=YES, F=NO","en865mp60k","2","78","70","85","","","","","","","","","","","","","","","",""
"717","
          <p id=""word"" style=""font-size: 40px;"">imploth</p>
          <p style=""font-size: 16px;"">J = YES &nbsp;&nbsp;&nbsp; F = NO</p>
        ","f","html-keyboard-response","155","2.1.0","361221","J=YES, F=NO","en865mp60k","2","78","70","85","","","","","","","","","imploth","survey1","pseudoword","pseudoword","f","true","",""
"null","<p style=""font-size: 50px;"">+</p>","null","html-keyboard-response","156","2.1.0","361533","J=YES, F=NO","en865mp60k","2","78","70","85","","","","","","","","","","","","","","","",""
"null","audio/beep-329314.mp3","null","audio-keyboard-response","157","2.1.0","363062","J=YES, F=NO","en865mp60k","2","78","70","85","","","","","","","","","","","","","","","",""
"null","audio/window1.wav","null","audio-keyboard-response","158","2.1.0","363941","J=YES, F=NO","en865mp60k","2","78","70","85","","","","","","","","","","","","","","","",""
"668","
          <p id=""word"" style=""font-size: 40px;"">toss</p>
          <p style=""font-size: 16px;"">J = YES &nbsp;&nbsp;&nbsp; F = NO</p>
        ","j","html-keyboard-response","159","2.1.0","364611","J=YES, F=NO","en865mp60k","2","78","70","85","","","","","","","","","toss","window1","filler","filler","j","true","",""
"null","<p style=""font-size: 50px;"">+</p>","null","html-keyboard-response","160","2.1.0","364914","J=YES, F=NO","en865mp60k","2","78","70","85","","","","","","","","","","","","","","","",""
"null","audio/beep-329314.mp3","null","audio-keyboard-response","161","2.1.0","366442","J=YES, F=NO","en865mp60k","2","78","70","85","","","","","","","","","","","","","","","",""
"null","audio/voice.wav","null","audio-keyboard-response","162","2.1.0","367062","J=YES, F=NO","en865mp60k","2","78","70","85","","","","","","","","","","","","","","","",""
"706","
          <p id=""word"" style=""font-size: 40px;"">grintle</p>
          <p style=""font-size: 16px;"">J = YES &nbsp;&nbsp;&nbsp; F = NO</p>
        ","f","html-keyboard-response","163","2.1.0","367771","J=YES, F=NO","en865mp60k","2","78","70","85","","","","","","","","","grintle","voice","pseudoword","pseudoword","f","true","",""
"2879","
    <div style=""max-width: 800px; margin: auto; text-align: left;"">
      <h2>Part 2: Main Trials</h2>
      <p>Great job on the practice trials!</p>
      <p>You will now begin the <strong>main set of trials</strong>.</p>
      <p>Remember your key assignments:</p>
      <ul>
        <li><strong>J</strong> = YES (real English word)</li>
        <li><strong>F</strong> = NO (not a real English word)</li>
      </ul>
      <p>Try to respond as <strong>quickly and accurately</strong> as possible.</p>
      <p style=""margin-top: 2em;"">Press any key to begin the main trials.</p>
    </div>
  "," ","html-keyboard-response","164","2.1.0","370651","J=YES, F=NO","en865mp60k","2","78","70","85","","","","","","","","","","","","","","","",""
"1961","<p>Starting main block 1 of 8. Press any key to continue.</p>"," ","html-keyboard-response","165","2.1.0","372614","J=YES, F=NO","en865mp60k","2","78","70","85","","","","","","","","","","","","","","","",""
"null","<p style=""font-size: 50px;"">+</p>","null","html-keyboard-response","166","2.1.0","372929","J=YES, F=NO","en865mp60k","2","78","70","85","","","","","","","","","","","","","","","",""
"null","audio/beep-329314.mp3","null","audio-keyboard-response","167","2.1.0","374462","J=YES, F=NO","en865mp60k","2","78","70","85","","","","","","","","","","","","","","","",""
"null","audio/voice.wav","null","audio-keyboard-response","168","2.1.0","375061","J=YES, F=NO","en865mp60k","2","78","70","85","","","","","","","","","","","","","","","",""
"408","
          <p id=""word"" style=""font-size: 40px;"">flood</p>
          <p style=""font-size: 16px;"">J = YES &nbsp;&nbsp;&nbsp; F = NO</p>
        ","j","html-keyboard-response","169","2.1.0","375471","J=YES, F=NO","en865mp60k","2","78","70","85","","","","","","","","","flood","voice","unrelated","experimental","j","true","",""
"null","<p style=""font-size: 50px;"">+</p>","null","html-keyboard-response","170","2.1.0","375780","J=YES, F=NO","en865mp60k","2","78","70","85","","","","","","","","","","","","","","","",""
"null","audio/beep-329314.mp3","null","audio-keyboard-response","171","2.1.0","377322","J=YES, F=NO","en865mp60k","2","78","70","85","","","","","","","","","","","","","","","",""
"null","audio/baby.wav","null","audio-keyboard-response","172","2.1.0","378121","J=YES, F=NO","en865mp60k","2","78","70","85","","","","","","","","","","","","","","","",""
"528","
          <p id=""word"" style=""font-size: 40px;"">lift</p>
          <p style=""font-size: 16px;"">J = YES &nbsp;&nbsp;&nbsp; F = NO</p>
        ","j","html-keyboard-response","173","2.1.0","378650","J=YES, F=NO","en865mp60k","2","78","70","85","","","","","","","","","lift","baby","filler","filler","j","true","",""
"null","<p style=""font-size: 50px;"">+</p>","null","html-keyboard-response","174","2.1.0","378953","J=YES, F=NO","en865mp60k","2","78","70","85","","","","","","","","","","","","","","","",""
"null","audio/beep-329314.mp3","null","audio-keyboard-response","175","2.1.0","380481","J=YES, F=NO","en865mp60k","2","78","70","85","","","","","","","","","","","","","","","",""
"null","audio/smirk1.wav","null","audio-keyboard-response","176","2.1.0","381222","J=YES, F=NO","en865mp60k","2","78","70","85","","","","","","","","","","","","","","","",""
"537","
          <p id=""word"" style=""font-size: 40px;"">snopt</p>
          <p style=""font-size: 16px;"">J = YES &nbsp;&nbsp;&nbsp; F = NO</p>
        ","f","html-keyboard-response","177","2.1.0","381761","J=YES, F=NO","en865mp60k","2","78","70","85","","","","","","","","","snopt","smirk1","pseudoword","pseudoword","f","true","",""
"null","<p style=""font-size: 50px;"">+</p>","null","html-keyboard-response","178","2.1.0","382076","J=YES, F=NO","en865mp60k","2","78","70","85","","","","","","","","","","","","","","","",""
"null","audio/beep-329314.mp3","null","audio-keyboard-response","179","2.1.0","383602","J=YES, F=NO","en865mp60k","2","78","70","85","","","","","","","","","","","","","","","",""
"null","audio/empire.wav","null","audio-keyboard-response","180","2.1.0","384502","J=YES, F=NO","en865mp60k","2","78","70","85","","","","","","","","","","","","","","","",""
"657","
          <p id=""word"" style=""font-size: 40px;"">bring</p>
          <p style=""font-size: 16px;"">J = YES &nbsp;&nbsp;&nbsp; F = NO</p>
        ","j","html-keyboard-response","181","2.1.0","385161","J=YES, F=NO","en865mp60k","2","78","70","85","","","","","","","","","bring","empire","unrelated","experimental","j","true","",""
"null","<p style=""font-size: 50px;"">+</p>","null","html-keyboard-response","182","2.1.0","385474","J=YES, F=NO","en865mp60k","2","78","70","85","","","","","","","","","","","","","","","",""
"null","audio/beep-329314.mp3","null","audio-keyboard-response","183","2.1.0","387001","J=YES, F=NO","en865mp60k","2","78","70","85","","","","","","","","","","","","","","","",""
"null","audio/cave1.wav","null","audio-keyboard-response","184","2.1.0","387802","J=YES, F=NO","en865mp60k","2","78","70","85","","","","","","","","","","","","","","","",""
"867","
          <p id=""word"" style=""font-size: 40px;"">blacket</p>
          <p style=""font-size: 16px;"">J = YES &nbsp;&nbsp;&nbsp; F = NO</p>
        ","f","html-keyboard-response","185","2.1.0","388671","J=YES, F=NO","en865mp60k","2","78","70","85","","","","","","","","","blacket","cave1","pseudoword","pseudoword","f","true","",""
"null","<p style=""font-size: 50px;"">+</p>","null","html-keyboard-response","186","2.1.0","388979","J=YES, F=NO","en865mp60k","2","78","70","85","","","","","","","","","","","","","","","",""
"null","audio/beep-329314.mp3","null","audio-keyboard-response","187","2.1.0","390502","J=YES, F=NO","en865mp60k","2","78","70","85","","","","","","","","","","","","","","","",""
"null","audio/roof1.wav","null","audio-keyboard-response","188","2.1.0","391301","J=YES, F=NO","en865mp60k","2","78","70","85","","","","","","","","","","","","","","","",""
"548","
          <p id=""word"" style=""font-size: 40px;"">construct</p>
          <p style=""font-size: 16px;"">J = YES &nbsp;&nbsp;&nbsp; F = NO</p>
        ","j","html-keyboard-response","189","2.1.0","391850","J=YES, F=NO","en865mp60k","2","78","70","85","","","","","","","","","construct","roof1","literal","experimental","j","true","",""
"null","<p style=""font-size: 50px;"">+</p>","null","html-keyboard-response","190","2.1.0","392166","J=YES, F=NO","en865mp60k","2","78","70","85","","","","","","","","","","","","","","","",""
"null","audio/beep-329314.mp3","null","audio-keyboard-response","191","2.1.0","393702","J=YES, F=NO","en865mp60k","2","78","70","85","","","","","","","","","","","","","","","",""
"null","audio/client1.wav","null","audio-keyboard-response","192","2.1.0","394622","J=YES, F=NO","en865mp60k","2","78","70","85","","","","","","","","","","","","","","","",""
"587","
          <p id=""word"" style=""font-size: 40px;"">droothe</p>
          <p style=""font-size: 16px;"">J = YES &nbsp;&nbsp;&nbsp; F = NO</p>
        ","f","html-keyboard-response","193","2.1.0","395211","J=YES, F=NO","en865mp60k","2","78","70","85","","","","","","","","","droothe","client1","pseudoword","pseudoword","f","true","",""
"null","<p style=""font-size: 50px;"">+</p>","null","html-keyboard-response","194","2.1.0","395528","J=YES, F=NO","en865mp60k","2","78","70","85","","","","","","","","","","","","","","","",""
"null","audio/beep-329314.mp3","null","audio-keyboard-response","195","2.1.0","397062","J=YES, F=NO","en865mp60k","2","78","70","85","","","","","","","","","","","","","","","",""
"null","audio/gold1.wav","null","audio-keyboard-response","196","2.1.0","397962","J=YES, F=NO","en865mp60k","2","78","70","85","","","","","","","","","","","","","","","",""
"648","
          <p id=""word"" style=""font-size: 40px;"">sell</p>
          <p style=""font-size: 16px;"">J = YES &nbsp;&nbsp;&nbsp; F = NO</p>
        ","j","html-keyboard-response","197","2.1.0","398612","J=YES, F=NO","en865mp60k","2","78","70","85","","","","","","","","","sell","gold1","literal","experimental","j","true","",""
"null","<p style=""font-size: 50px;"">+</p>","null","html-keyboard-response","198","2.1.0","398917","J=YES, F=NO","en865mp60k","2","78","70","85","","","","","","","","","","","","","","","",""
"null","audio/beep-329314.mp3","null","audio-keyboard-response","199","2.1.0","400442","J=YES, F=NO","en865mp60k","2","78","70","85","","","","","","","","","","","","","","","",""
"null","audio/ego.wav","null","audio-keyboard-response","200","2.1.0","401021","J=YES, F=NO","en865mp60k","2","78","70","85","","","","","","","","","","","","","","","",""
"560","
          <p id=""word"" style=""font-size: 40px;"">bruite</p>
          <p style=""font-size: 16px;"">J = YES &nbsp;&nbsp;&nbsp; F = NO</p>
        ","f","html-keyboard-response","201","2.1.0","401582","J=YES, F=NO","en865mp60k","2","78","70","85","","","","","","","","","bruite","ego","pseudoword","pseudoword","f","true","",""
"null","<p style=""font-size: 50px;"">+</p>","null","html-keyboard-response","202","2.1.0","401896","J=YES, F=NO","en865mp60k","2","78","70","85","","","","","","","","","","","","","","","",""
"null","audio/beep-329314.mp3","null","audio-keyboard-response","203","2.1.0","403421","J=YES, F=NO","en865mp60k","2","78","70","85","","","","","","","","","","","","","","","",""
"null","audio/plot1.wav","null","audio-keyboard-response","204","2.1.0","404162","J=YES, F=NO","en865mp60k","2","78","70","85","","","","","","","","","","","","","","","",""
"649","
          <p id=""word"" style=""font-size: 40px;"">glenter</p>
          <p style=""font-size: 16px;"">J = YES &nbsp;&nbsp;&nbsp; F = NO</p>
        ","f","html-keyboard-response","205","2.1.0","404812","J=YES, F=NO","en865mp60k","2","78","70","85","","","","","","","","","glenter","plot1","pseudoword","pseudoword","f","true","",""
"null","<p style=""font-size: 50px;"">+</p>","null","html-keyboard-response","206","2.1.0","405117","J=YES, F=NO","en865mp60k","2","78","70","85","","","","","","","","","","","","","","","",""
"null","audio/beep-329314.mp3","null","audio-keyboard-response","207","2.1.0","406642","J=YES, F=NO","en865mp60k","2","78","70","85","","","","","","","","","","","","","","","",""
"null","audio/pattern.wav","null","audio-keyboard-response","208","2.1.0","407142","J=YES, F=NO","en865mp60k","2","78","70","85","","","","","","","","","","","","","","","",""
"689","
          <p id=""word"" style=""font-size: 40px;"">defeat</p>
          <p style=""font-size: 16px;"">J = YES &nbsp;&nbsp;&nbsp; F = NO</p>
        ","j","html-keyboard-response","209","2.1.0","407832","J=YES, F=NO","en865mp60k","2","78","70","85","","","","","","","","","defeat","pattern","unrelated","experimental","j","true","",""
"null","<p style=""font-size: 50px;"">+</p>","null","html-keyboard-response","210","2.1.0","408141","J=YES, F=NO","en865mp60k","2","78","70","85","","","","","","","","","","","","","","","",""
"null","audio/beep-329314.mp3","null","audio-keyboard-response","211","2.1.0","409681","J=YES, F=NO","en865mp60k","2","78","70","85","","","","","","","","","","","","","","","",""
"null","audio/pine.wav","null","audio-keyboard-response","212","2.1.0","410481","J=YES, F=NO","en865mp60k","2","78","70","85","","","","","","","","","","","","","","","",""
"709","
          <p id=""word"" style=""font-size: 40px;"">crebble</p>
          <p style=""font-size: 16px;"">J = YES &nbsp;&nbsp;&nbsp; F = NO</p>
        ","f","html-keyboard-response","213","2.1.0","411191","J=YES, F=NO","en865mp60k","2","78","70","85","","","","","","","","","crebble","pine","pseudoword","pseudoword","f","true","",""
"null","<p style=""font-size: 50px;"">+</p>","null","html-keyboard-response","214","2.1.0","411504","J=YES, F=NO","en865mp60k","2","78","70","85","","","","","","","","","","","","","","","",""
"null","audio/beep-329314.mp3","null","audio-keyboard-response","215","2.1.0","413041","J=YES, F=NO","en865mp60k","2","78","70","85","","","","","","","","","","","","","","","",""
"null","audio/purpose.wav","null","audio-keyboard-response","216","2.1.0","413941","J=YES, F=NO","en865mp60k","2","78","70","85","","","","","","","","","","","","","","","",""
"549","
          <p id=""word"" style=""font-size: 40px;"">whigm</p>
          <p style=""font-size: 16px;"">J = YES &nbsp;&nbsp;&nbsp; F = NO</p>
        ","f","html-keyboard-response","217","2.1.0","414491","J=YES, F=NO","en865mp60k","2","78","70","85","","","","","","","","","whigm","purpose","pseudoword","pseudoword","f","true","",""
"null","<p style=""font-size: 50px;"">+</p>","null","html-keyboard-response","218","2.1.0","414805","J=YES, F=NO","en865mp60k","2","78","70","85","","","","","","","","","","","","","","","",""
"null","audio/beep-329314.mp3","null","audio-keyboard-response","219","2.1.0","416342","J=YES, F=NO","en865mp60k","2","78","70","85","","","","","","","","","","","","","","","",""
"null","audio/van1.wav","null","audio-keyboard-response","220","2.1.0","417141","J=YES, F=NO","en865mp60k","2","78","70","85","","","","","","","","","","","","","","","",""
"639","
          <p id=""word"" style=""font-size: 40px;"">support</p>
          <p style=""font-size: 16px;"">J = YES &nbsp;&nbsp;&nbsp; F = NO</p>
        ","j","html-keyboard-response","221","2.1.0","417781","J=YES, F=NO","en865mp60k","2","78","70","85","","","","","","","","","support","van1","unrelated","experimental","j","true","",""
"null","<p style=""font-size: 50px;"">+</p>","null","html-keyboard-response","222","2.1.0","418090","J=YES, F=NO","en865mp60k","2","78","70","85","","","","","","","","","","","","","","","",""
"null","audio/beep-329314.mp3","null","audio-keyboard-response","223","2.1.0","419621","J=YES, F=NO","en865mp60k","2","78","70","85","","","","","","","","","","","","","","","",""
"null","audio/effort.wav","null","audio-keyboard-response","224","2.1.0","420401","J=YES, F=NO","en865mp60k","2","78","70","85","","","","","","","","","","","","","","","",""
"539","
          <p id=""word"" style=""font-size: 40px;"">whonk</p>
          <p style=""font-size: 16px;"">J = YES &nbsp;&nbsp;&nbsp; F = NO</p>
        ","f","html-keyboard-response","225","2.1.0","420941","J=YES, F=NO","en865mp60k","2","78","70","85","","","","","","","","","whonk","effort","pseudoword","pseudoword","f","true","",""
"null","<p style=""font-size: 50px;"">+</p>","null","html-keyboard-response","226","2.1.0","421253","J=YES, F=NO","en865mp60k","2","78","70","85","","","","","","","","","","","","","","","",""
"null","audio/beep-329314.mp3","null","audio-keyboard-response","227","2.1.0","422781","J=YES, F=NO","en865mp60k","2","78","70","85","","","","","","","","","","","","","","","",""
"null","audio/burden.wav","null","audio-keyboard-response","228","2.1.0","423301","J=YES, F=NO","en865mp60k","2","78","70","85","","","","","","","","","","","","","","","",""
"620","
          <p id=""word"" style=""font-size: 40px;"">carry</p>
          <p style=""font-size: 16px;"">J = YES &nbsp;&nbsp;&nbsp; F = NO</p>
        ","j","html-keyboard-response","229","2.1.0","423922","J=YES, F=NO","en865mp60k","2","78","70","85","","","","","","","","","carry","burden","metaphor","experimental","j","true","",""
"2930","<p>Excellent! You have finished block 1 of 8.</p>
                     <p>Feel free to take a 30 second break.</p>
                     <p>Press any key when you're ready to continue.</p>"," ","html-keyboard-response","230","2.1.0","426854","J=YES, F=NO","en865mp60k","2","78","70","85","","","","","","","","","","","","","","","",""
"2397","<p>Starting main block 2 of 8. Press any key to continue.</p>"," ","html-keyboard-response","231","2.1.0","429253","J=YES, F=NO","en865mp60k","2","78","70","85","","","","","","","","","","","","","","","",""
"null","<p style=""font-size: 50px;"">+</p>","null","html-keyboard-response","232","2.1.0","429570","J=YES, F=NO","en865mp60k","2","78","70","85","","","","","","","","","","","","","","","",""
"null","audio/beep-329314.mp3","null","audio-keyboard-response","233","2.1.0","431104","J=YES, F=NO","en865mp60k","2","78","70","85","","","","","","","","","","","","","","","",""
"null","audio/topic.wav","null","audio-keyboard-response","234","2.1.0","431723","J=YES, F=NO","en865mp60k","2","78","70","85","","","","","","","","","","","","","","","",""
"487","
          <p id=""word"" style=""font-size: 40px;"">infortuitist</p>
          <p style=""font-size: 16px;"">J = YES &nbsp;&nbsp;&nbsp; F = NO</p>
        ","f","html-keyboard-response","235","2.1.0","432214","J=YES, F=NO","en865mp60k","2","78","70","85","","","","","","","","","infortuitist","topic","pseudoword","pseudoword","f","true","",""
"null","<p style=""font-size: 50px;"">+</p>","null","html-keyboard-response","236","2.1.0","432527","J=YES, F=NO","en865mp60k","2","78","70","85","","","","","","","","","","","","","","","",""
"null","audio/beep-329314.mp3","null","audio-keyboard-response","237","2.1.0","434063","J=YES, F=NO","en865mp60k","2","78","70","85","","","","","","","","","","","","","","","",""
"null","audio/breath.wav","null","audio-keyboard-response","238","2.1.0","434623","J=YES, F=NO","en865mp60k","2","78","70","85","","","","","","","","","","","","","","","",""
"537","
          <p id=""word"" style=""font-size: 40px;"">twets</p>
          <p style=""font-size: 16px;"">J = YES &nbsp;&nbsp;&nbsp; F = NO</p>
        ","f","html-keyboard-response","239","2.1.0","435164","J=YES, F=NO","en865mp60k","2","78","70","85","","","","","","","","","twets","breath","pseudoword","pseudoword","f","true","",""
"null","<p style=""font-size: 50px;"">+</p>","null","html-keyboard-response","240","2.1.0","435477","J=YES, F=NO","en865mp60k","2","78","70","85","","","","","","","","","","","","","","","",""
"null","audio/beep-329314.mp3","null","audio-keyboard-response","241","2.1.0","437003","J=YES, F=NO","en865mp60k","2","78","70","85","","","","","","","","","","","","","","","",""
"null","audio/belief.wav","null","audio-keyboard-response","242","2.1.0","438063","J=YES, F=NO","en865mp60k","2","78","70","85","","","","","","","","","","","","","","","",""
"588","
          <p id=""word"" style=""font-size: 40px;"">read</p>
          <p style=""font-size: 16px;"">J = YES &nbsp;&nbsp;&nbsp; F = NO</p>
        ","j","html-keyboard-response","243","2.1.0","438654","J=YES, F=NO","en865mp60k","2","78","70","85","","","","","","","","","read","belief","filler","filler","j","true","",""
"null","<p style=""font-size: 50px;"">+</p>","null","html-keyboard-response","244","2.1.0","438966","J=YES, F=NO","en865mp60k","2","78","70","85","","","","","","","","","","","","","","","",""
"null","audio/beep-329314.mp3","null","audio-keyboard-response","245","2.1.0","440503","J=YES, F=NO","en865mp60k","2","78","70","85","","","","","","","","","","","","","","","",""
"null","audio/trust.wav","null","audio-keyboard-response","246","2.1.0","441363","J=YES, F=NO","en865mp60k","2","78","70","85","","","","","","","","","","","","","","","",""
"528","
          <p id=""word"" style=""font-size: 40px;"">build</p>
          <p style=""font-size: 16px;"">J = YES &nbsp;&nbsp;&nbsp; F = NO</p>
        ","j","html-keyboard-response","247","2.1.0","441894","J=YES, F=NO","en865mp60k","2","78","70","85","","","","","","","","","build","trust","metaphor","experimental","j","true","",""
"null","<p style=""font-size: 50px;"">+</p>","null","html-keyboard-response","248","2.1.0","442211","J=YES, F=NO","en865mp60k","2","78","70","85","","","","","","","","","","","","","","","",""
"null","audio/beep-329314.mp3","null","audio-keyboard-response","249","2.1.0","443743","J=YES, F=NO","en865mp60k","2","78","70","85","","","","","","","","","","","","","","","",""
"null","audio/scar.wav","null","audio-keyboard-response","250","2.1.0","444583","J=YES, F=NO","en865mp60k","2","78","70","85","","","","","","","","","","","","","","","",""
"528","
          <p id=""word"" style=""font-size: 40px;"">adelineate</p>
          <p style=""font-size: 16px;"">J = YES &nbsp;&nbsp;&nbsp; F = NO</p>
        ","f","html-keyboard-response","251","2.1.0","445115","J=YES, F=NO","en865mp60k","2","78","70","85","","","","","","","","","adelineate","scar","pseudoword","pseudoword","f","true","",""
"null","<p style=""font-size: 50px;"">+</p>","null","html-keyboard-response","252","2.1.0","445419","J=YES, F=NO","en865mp60k","2","78","70","85","","","","","","","","","","","","","","","",""
"null","audio/beep-329314.mp3","null","audio-keyboard-response","253","2.1.0","446943","J=YES, F=NO","en865mp60k","2","78","70","85","","","","","","","","","","","","","","","",""
"null","audio/tax1.wav","null","audio-keyboard-response","254","2.1.0","447603","J=YES, F=NO","en865mp60k","2","78","70","85","","","","","","","","","","","","","","","",""
"638","
          <p id=""word"" style=""font-size: 40px;"">snate</p>
          <p style=""font-size: 16px;"">J = YES &nbsp;&nbsp;&nbsp; F = NO</p>
        ","f","html-keyboard-response","255","2.1.0","448244","J=YES, F=NO","en865mp60k","2","78","70","85","","","","","","","","","snate","tax1","pseudoword","pseudoword","f","true","",""
"null","<p style=""font-size: 50px;"">+</p>","null","html-keyboard-response","256","2.1.0","448558","J=YES, F=NO","en865mp60k","2","78","70","85","","","","","","","","","","","","","","","",""
"null","audio/beep-329314.mp3","null","audio-keyboard-response","257","2.1.0","450103","J=YES, F=NO","en865mp60k","2","78","70","85","","","","","","","","","","","","","","","",""
"null","audio/strength.wav","null","audio-keyboard-response","258","2.1.0","451083","J=YES, F=NO","en865mp60k","2","78","70","85","","","","","","","","","","","","","","","",""
"559","
          <p id=""word"" style=""font-size: 40px;"">plabet</p>
          <p style=""font-size: 16px;"">J = YES &nbsp;&nbsp;&nbsp; F = NO</p>
        ","f","html-keyboard-response","259","2.1.0","451644","J=YES, F=NO","en865mp60k","2","78","70","85","","","","","","","","","plabet","strength","pseudoword","pseudoword","f","true","",""
"null","<p style=""font-size: 50px;"">+</p>","null","html-keyboard-response","260","2.1.0","451955","J=YES, F=NO","en865mp60k","2","78","70","85","","","","","","","","","","","","","","","",""
"null","audio/beep-329314.mp3","null","audio-keyboard-response","261","2.1.0","453482","J=YES, F=NO","en865mp60k","2","78","70","85","","","","","","","","","","","","","","","",""
"null","audio/camera1.wav","null","audio-keyboard-response","262","2.1.0","454202","J=YES, F=NO","en865mp60k","2","78","70","85","","","","","","","","","","","","","","","",""
"659","
          <p id=""word"" style=""font-size: 40px;"">stir</p>
          <p style=""font-size: 16px;"">J = YES &nbsp;&nbsp;&nbsp; F = NO</p>
        ","f","html-keyboard-response","263","2.1.0","454864","J=YES, F=NO","en865mp60k","2","78","70","85","","","","","","","","","stir","camera1","filler","filler","j","false","",""
"null","<p style=""font-size: 50px;"">+</p>","null","html-keyboard-response","264","2.1.0","455173","J=YES, F=NO","en865mp60k","2","78","70","85","","","","","","","","","","","","","","","",""
"null","audio/beep-329314.mp3","null","audio-keyboard-response","265","2.1.0","456702","J=YES, F=NO","en865mp60k","2","78","70","85","","","","","","","","","","","","","","","",""
"null","audio/gift1.wav","null","audio-keyboard-response","266","2.1.0","457482","J=YES, F=NO","en865mp60k","2","78","70","85","","","","","","","","","","","","","","","",""
"549","
          <p id=""word"" style=""font-size: 40px;"">protsh</p>
          <p style=""font-size: 16px;"">J = YES &nbsp;&nbsp;&nbsp; F = NO</p>
        ","f","html-keyboard-response","267","2.1.0","458033","J=YES, F=NO","en865mp60k","2","78","70","85","","","","","","","","","protsh","gift1","pseudoword","pseudoword","f","true","",""
"null","<p style=""font-size: 50px;"">+</p>","null","html-keyboard-response","268","2.1.0","458344","J=YES, F=NO","en865mp60k","2","78","70","85","","","","","","","","","","","","","","","",""
"null","audio/beep-329314.mp3","null","audio-keyboard-response","269","2.1.0","459882","J=YES, F=NO","en865mp60k","2","78","70","85","","","","","","","","","","","","","","","",""
"null","audio/arm.wav","null","audio-keyboard-response","270","2.1.0","460722","J=YES, F=NO","en865mp60k","2","78","70","85","","","","","","","","","","","","","","","",""
"609","
          <p id=""word"" style=""font-size: 40px;"">fold</p>
          <p style=""font-size: 16px;"">J = YES &nbsp;&nbsp;&nbsp; F = NO</p>
        ","j","html-keyboard-response","271","2.1.0","461333","J=YES, F=NO","en865mp60k","2","78","70","85","","","","","","","","","fold","arm","filler","filler","j","true","",""
"null","<p style=""font-size: 50px;"">+</p>","null","html-keyboard-response","272","2.1.0","461646","J=YES, F=NO","en865mp60k","2","78","70","85","","","","","","","","","","","","","","","",""
"null","audio/beep-329314.mp3","null","audio-keyboard-response","273","2.1.0","463182","J=YES, F=NO","en865mp60k","2","78","70","85","","","","","","","","","","","","","","","",""
"null","audio/van1.wav","null","audio-keyboard-response","274","2.1.0","463662","J=YES, F=NO","en865mp60k","2","78","70","85","","","","","","","","","","","","","","","",""
"520","
          <p id=""word"" style=""font-size: 40px;"">push</p>
          <p style=""font-size: 16px;"">J = YES &nbsp;&nbsp;&nbsp; F = NO</p>
        ","j","html-keyboard-response","275","2.1.0","464183","J=YES, F=NO","en865mp60k","2","78","70","85","","","","","","","","","push","van1","filler","filler","j","true","",""
"null","<p style=""font-size: 50px;"">+</p>","null","html-keyboard-response","276","2.1.0","464488","J=YES, F=NO","en865mp60k","2","78","70","85","","","","","","","","","","","","","","","",""
"null","audio/beep-329314.mp3","null","audio-keyboard-response","277","2.1.0","466022","J=YES, F=NO","en865mp60k","2","78","70","85","","","","","","","","","","","","","","","",""
"null","audio/relief.wav","null","audio-keyboard-response","278","2.1.0","466782","J=YES, F=NO","en865mp60k","2","78","70","85","","","","","","","","","","","","","","","",""
"589","
          <p id=""word"" style=""font-size: 40px;"">grigg</p>
          <p style=""font-size: 16px;"">J = YES &nbsp;&nbsp;&nbsp; F = NO</p>
        ","f","html-keyboard-response","279","2.1.0","467373","J=YES, F=NO","en865mp60k","2","78","70","85","","","","","","","","","grigg","relief","pseudoword","pseudoword","f","true","",""
"null","<p style=""font-size: 50px;"">+</p>","null","html-keyboard-response","280","2.1.0","467685","J=YES, F=NO","en865mp60k","2","78","70","85","","","","","","","","","","","","","","","",""
"null","audio/beep-329314.mp3","null","audio-keyboard-response","281","2.1.0","469222","J=YES, F=NO","en865mp60k","2","78","70","85","","","","","","","","","","","","","","","",""
"null","audio/show.wav","null","audio-keyboard-response","282","2.1.0","470042","J=YES, F=NO","en865mp60k","2","78","70","85","","","","","","","","","","","","","","","",""
"659","
          <p id=""word"" style=""font-size: 40px;"">hold</p>
          <p style=""font-size: 16px;"">J = YES &nbsp;&nbsp;&nbsp; F = NO</p>
        ","j","html-keyboard-response","283","2.1.0","470703","J=YES, F=NO","en865mp60k","2","78","70","85","","","","","","","","","hold","show","metaphor","experimental","j","true","",""
"null","<p style=""font-size: 50px;"">+</p>","null","html-keyboard-response","284","2.1.0","471016","J=YES, F=NO","en865mp60k","2","78","70","85","","","","","","","","","","","","","","","",""
"null","audio/beep-329314.mp3","null","audio-keyboard-response","285","2.1.0","472542","J=YES, F=NO","en865mp60k","2","78","70","85","","","","","","","","","","","","","","","",""
"null","audio/floor.wav","null","audio-keyboard-response","286","2.1.0","473122","J=YES, F=NO","en865mp60k","2","78","70","85","","","","","","","","","","","","","","","",""
"629","
          <p id=""word"" style=""font-size: 40px;"">cover</p>
          <p style=""font-size: 16px;"">J = YES &nbsp;&nbsp;&nbsp; F = NO</p>
        ","j","html-keyboard-response","287","2.1.0","473753","J=YES, F=NO","en865mp60k","2","78","70","85","","","","","","","","","cover","floor","literal","experimental","j","true","",""
"null","<p style=""font-size: 50px;"">+</p>","null","html-keyboard-response","288","2.1.0","474056","J=YES, F=NO","en865mp60k","2","78","70","85","","","","","","","","","","","","","","","",""
"null","audio/beep-329314.mp3","null","audio-keyboard-response","289","2.1.0","475581","J=YES, F=NO","en865mp60k","2","78","70","85","","","","","","","","","","","","","","","",""
"null","audio/revenue1.wav","null","audio-keyboard-response","290","2.1.0","476501","J=YES, F=NO","en865mp60k","2","78","70","85","","","","","","","","","","","","","","","",""
"520","
          <p id=""word"" style=""font-size: 40px;"">grow</p>
          <p style=""font-size: 16px;"">J = YES &nbsp;&nbsp;&nbsp; F = NO</p>
        ","j","html-keyboard-response","291","2.1.0","477022","J=YES, F=NO","en865mp60k","2","78","70","85","","","","","","","","","grow","revenue1","metaphor","experimental","j","true","",""
"null","<p style=""font-size: 50px;"">+</p>","null","html-keyboard-response","292","2.1.0","477331","J=YES, F=NO","en865mp60k","2","78","70","85","","","","","","","","","","","","","","","",""
"null","audio/beep-329314.mp3","null","audio-keyboard-response","293","2.1.0","478861","J=YES, F=NO","en865mp60k","2","78","70","85","","","","","","","","","","","","","","","",""
"null","audio/prisoner.wav","null","audio-keyboard-response","294","2.1.0","479381","J=YES, F=NO","en865mp60k","2","78","70","85","","","","","","","","","","","","","","","",""
"480","
          <p id=""word"" style=""font-size: 40px;"">egotian</p>
          <p style=""font-size: 16px;"">J = YES &nbsp;&nbsp;&nbsp; F = NO</p>
        ","f","html-keyboard-response","295","2.1.0","479862","J=YES, F=NO","en865mp60k","2","78","70","85","","","","","","","","","egotian","prisoner","pseudoword","pseudoword","f","true","",""
"7860","<p>Excellent! You have finished block 2 of 8.</p>
                     <p>Feel free to take a 30 second break.</p>
                     <p>Press any key when you're ready to continue.</p>"," ","html-keyboard-response","296","2.1.0","487723","J=YES, F=NO","en865mp60k","2","78","70","85","","","","","","","","","","","","","","","",""
"1310","<p>Starting main block 3 of 8. Press any key to continue.</p>"," ","html-keyboard-response","297","2.1.0","489034","J=YES, F=NO","en865mp60k","2","78","70","85","","","","","","","","","","","","","","","",""
"null","<p style=""font-size: 50px;"">+</p>","null","html-keyboard-response","298","2.1.0","489348","J=YES, F=NO","en865mp60k","2","78","70","85","","","","","","","","","","","","","","","",""
"null","audio/beep-329314.mp3","null","audio-keyboard-response","299","2.1.0","490862","J=YES, F=NO","en865mp60k","2","78","70","85","","","","","","","","","","","","","","","",""
"null","audio/burden.wav","null","audio-keyboard-response","300","2.1.0","491332","J=YES, F=NO","en865mp60k","2","78","70","85","","","","","","","","","","","","","","","",""
"490","
          <p id=""word"" style=""font-size: 40px;"">whotth</p>
          <p style=""font-size: 16px;"">J = YES &nbsp;&nbsp;&nbsp; F = NO</p>
        ","f","html-keyboard-response","301","2.1.0","491824","J=YES, F=NO","en865mp60k","2","78","70","85","","","","","","","","","whotth","burden","pseudoword","pseudoword","f","true","",""
"null","<p style=""font-size: 50px;"">+</p>","null","html-keyboard-response","302","2.1.0","492133","J=YES, F=NO","en865mp60k","2","78","70","85","","","","","","","","","","","","","","","",""
"null","audio/beep-329314.mp3","null","audio-keyboard-response","303","2.1.0","493662","J=YES, F=NO","en865mp60k","2","78","70","85","","","","","","","","","","","","","","","",""
"null","audio/dome.wav","null","audio-keyboard-response","304","2.1.0","494112","J=YES, F=NO","en865mp60k","2","78","70","85","","","","","","","","","","","","","","","",""
"380","
          <p id=""word"" style=""font-size: 40px;"">scrupliness</p>
          <p style=""font-size: 16px;"">J = YES &nbsp;&nbsp;&nbsp; F = NO</p>
        ","f","html-keyboard-response","305","2.1.0","494495","J=YES, F=NO","en865mp60k","2","78","70","85","","","","","","","","","scrupliness","dome","pseudoword","pseudoword","f","true","",""
"null","<p style=""font-size: 50px;"">+</p>","null","html-keyboard-response","306","2.1.0","494802","J=YES, F=NO","en865mp60k","2","78","70","85","","","","","","","","","","","","","","","",""
"null","audio/beep-329314.mp3","null","audio-keyboard-response","307","2.1.0","496342","J=YES, F=NO","en865mp60k","2","78","70","85","","","","","","","","","","","","","","","",""
"null","audio/smirk1.wav","null","audio-keyboard-response","308","2.1.0","497052","J=YES, F=NO","en865mp60k","2","78","70","85","","","","","","","","","","","","","","","",""
"510","
          <p id=""word"" style=""font-size: 40px;"">wipe</p>
          <p style=""font-size: 16px;"">J = YES &nbsp;&nbsp;&nbsp; F = NO</p>
        ","j","html-keyboard-response","309","2.1.0","497564","J=YES, F=NO","en865mp60k","2","78","70","85","","","","","","","","","wipe","smirk1","metaphor","experimental","j","true","",""
"null","<p style=""font-size: 50px;"">+</p>","null","html-keyboard-response","310","2.1.0","497876","J=YES, F=NO","en865mp60k","2","78","70","85","","","","","","","","","","","","","","","",""
"null","audio/beep-329314.mp3","null","audio-keyboard-response","311","2.1.0","499401","J=YES, F=NO","en865mp60k","2","78","70","85","","","","","","","","","","","","","","","",""
"null","audio/bomb1.wav","null","audio-keyboard-response","312","2.1.0","499771","J=YES, F=NO","en865mp60k","2","78","70","85","","","","","","","","","","","","","","","",""
"479","
          <p id=""word"" style=""font-size: 40px;"">drop</p>
          <p style=""font-size: 16px;"">J = YES &nbsp;&nbsp;&nbsp; F = NO</p>
        ","j","html-keyboard-response","313","2.1.0","500253","J=YES, F=NO","en865mp60k","2","78","70","85","","","","","","","","","drop","bomb1","literal","experimental","j","true","",""
"null","<p style=""font-size: 50px;"">+</p>","null","html-keyboard-response","314","2.1.0","500557","J=YES, F=NO","en865mp60k","2","78","70","85","","","","","","","","","","","","","","","",""
"null","audio/beep-329314.mp3","null","audio-keyboard-response","315","2.1.0","502081","J=YES, F=NO","en865mp60k","2","78","70","85","","","","","","","","","","","","","","","",""
"null","audio/meal.wav","null","audio-keyboard-response","316","2.1.0","502551","J=YES, F=NO","en865mp60k","2","78","70","85","","","","","","","","","","","","","","","",""
"451","
          <p id=""word"" style=""font-size: 40px;"">gallite</p>
          <p style=""font-size: 16px;"">J = YES &nbsp;&nbsp;&nbsp; F = NO</p>
        ","f","html-keyboard-response","317","2.1.0","503003","J=YES, F=NO","en865mp60k","2","78","70","85","","","","","","","","","gallite","meal","pseudoword","pseudoword","f","true","",""
"null","<p style=""font-size: 50px;"">+</p>","null","html-keyboard-response","318","2.1.0","503306","J=YES, F=NO","en865mp60k","2","78","70","85","","","","","","","","","","","","","","","",""
"null","audio/beep-329314.mp3","null","audio-keyboard-response","319","2.1.0","504841","J=YES, F=NO","en865mp60k","2","78","70","85","","","","","","","","","","","","","","","",""
"null","audio/demon1.wav","null","audio-keyboard-response","320","2.1.0","505531","J=YES, F=NO","en865mp60k","2","78","70","85","","","","","","","","","","","","","","","",""
"481","
          <p id=""word"" style=""font-size: 40px;"">wrestle</p>
          <p style=""font-size: 16px;"">J = YES &nbsp;&nbsp;&nbsp; F = NO</p>
        ","f","html-keyboard-response","321","2.1.0","506013","J=YES, F=NO","en865mp60k","2","78","70","85","","","","","","","","","wrestle","demon1","metaphor","experimental","j","false","",""
"null","<p style=""font-size: 50px;"">+</p>","null","html-keyboard-response","322","2.1.0","506329","J=YES, F=NO","en865mp60k","2","78","70","85","","","","","","","","","","","","","","","",""
"null","audio/beep-329314.mp3","null","audio-keyboard-response","323","2.1.0","507861","J=YES, F=NO","en865mp60k","2","78","70","85","","","","","","","","","","","","","","","",""
"null","audio/emotion.wav","null","audio-keyboard-response","324","2.1.0","508751","J=YES, F=NO","en865mp60k","2","78","70","85","","","","","","","","","","","","","","","",""
"621","
          <p id=""word"" style=""font-size: 40px;"">devering</p>
          <p style=""font-size: 16px;"">J = YES &nbsp;&nbsp;&nbsp; F = NO</p>
        ","f","html-keyboard-response","325","2.1.0","509373","J=YES, F=NO","en865mp60k","2","78","70","85","","","","","","","","","devering","emotion","pseudoword","pseudoword","f","true","",""
"null","<p style=""font-size: 50px;"">+</p>","null","html-keyboard-response","326","2.1.0","509687","J=YES, F=NO","en865mp60k","2","78","70","85","","","","","","","","","","","","","","","",""
"null","audio/beep-329314.mp3","null","audio-keyboard-response","327","2.1.0","511221","J=YES, F=NO","en865mp60k","2","78","70","85","","","","","","","","","","","","","","","",""
"null","audio/truth1.wav","null","audio-keyboard-response","328","2.1.0","511931","J=YES, F=NO","en865mp60k","2","78","70","85","","","","","","","","","","","","","","","",""
"601","
          <p id=""word"" style=""font-size: 40px;"">calitom</p>
          <p style=""font-size: 16px;"">J = YES &nbsp;&nbsp;&nbsp; F = NO</p>
        ","f","html-keyboard-response","329","2.1.0","512534","J=YES, F=NO","en865mp60k","2","78","70","85","","","","","","","","","calitom","truth1","pseudoword","pseudoword","f","true","",""
"null","<p style=""font-size: 50px;"">+</p>","null","html-keyboard-response","330","2.1.0","512847","J=YES, F=NO","en865mp60k","2","78","70","85","","","","","","","","","","","","","","","",""
"null","audio/beep-329314.mp3","null","audio-keyboard-response","331","2.1.0","514381","J=YES, F=NO","en865mp60k","2","78","70","85","","","","","","","","","","","","","","","",""
"null","audio/road.wav","null","audio-keyboard-response","332","2.1.0","514812","J=YES, F=NO","en865mp60k","2","78","70","85","","","","","","","","","","","","","","","",""
"541","
          <p id=""word"" style=""font-size: 40px;"">wappings</p>
          <p style=""font-size: 16px;"">J = YES &nbsp;&nbsp;&nbsp; F = NO</p>
        ","f","html-keyboard-response","333","2.1.0","515354","J=YES, F=NO","en865mp60k","2","78","70","85","","","","","","","","","wappings","road","pseudoword","pseudoword","f","true","",""
"null","<p style=""font-size: 50px;"">+</p>","null","html-keyboard-response","334","2.1.0","515658","J=YES, F=NO","en865mp60k","2","78","70","85","","","","","","","","","","","","","","","",""
"null","audio/beep-329314.mp3","null","audio-keyboard-response","335","2.1.0","517183","J=YES, F=NO","en865mp60k","2","78","70","85","","","","","","","","","","","","","","","",""
"null","audio/trout1.wav","null","audio-keyboard-response","336","2.1.0","517912","J=YES, F=NO","en865mp60k","2","78","70","85","","","","","","","","","","","","","","","",""
"490","
          <p id=""word"" style=""font-size: 40px;"">spimt</p>
          <p style=""font-size: 16px;"">J = YES &nbsp;&nbsp;&nbsp; F = NO</p>
        ","f","html-keyboard-response","337","2.1.0","518405","J=YES, F=NO","en865mp60k","2","78","70","85","","","","","","","","","spimt","trout1","pseudoword","pseudoword","f","true","",""
"null","<p style=""font-size: 50px;"">+</p>","null","html-keyboard-response","338","2.1.0","518714","J=YES, F=NO","en865mp60k","2","78","70","85","","","","","","","","","","","","","","","",""
"null","audio/beep-329314.mp3","null","audio-keyboard-response","339","2.1.0","520243","J=YES, F=NO","en865mp60k","2","78","70","85","","","","","","","","","","","","","","","",""
"null","audio/foot1.wav","null","audio-keyboard-response","340","2.1.0","520952","J=YES, F=NO","en865mp60k","2","78","70","85","","","","","","","","","","","","","","","",""
"451","
          <p id=""word"" style=""font-size: 40px;"">thrutt</p>
          <p style=""font-size: 16px;"">J = YES &nbsp;&nbsp;&nbsp; F = NO</p>
        ","f","html-keyboard-response","341","2.1.0","521405","J=YES, F=NO","en865mp60k","2","78","70","85","","","","","","","","","thrutt","foot1","pseudoword","pseudoword","f","true","",""
"null","<p style=""font-size: 50px;"">+</p>","null","html-keyboard-response","342","2.1.0","521714","J=YES, F=NO","en865mp60k","2","78","70","85","","","","","","","","","","","","","","","",""
"null","audio/beep-329314.mp3","null","audio-keyboard-response","343","2.1.0","523243","J=YES, F=NO","en865mp60k","2","78","70","85","","","","","","","","","","","","","","","",""
"null","audio/tunnel.wav","null","audio-keyboard-response","344","2.1.0","523712","J=YES, F=NO","en865mp60k","2","78","70","85","","","","","","","","","","","","","","","",""
"600","
          <p id=""word"" style=""font-size: 40px;"">grasp</p>
          <p style=""font-size: 16px;"">J = YES &nbsp;&nbsp;&nbsp; F = NO</p>
        ","j","html-keyboard-response","345","2.1.0","524315","J=YES, F=NO","en865mp60k","2","78","70","85","","","","","","","","","grasp","tunnel","unrelated","experimental","j","true","",""
"null","<p style=""font-size: 50px;"">+</p>","null","html-keyboard-response","346","2.1.0","524620","J=YES, F=NO","en865mp60k","2","78","70","85","","","","","","","","","","","","","","","",""
"null","audio/beep-329314.mp3","null","audio-keyboard-response","347","2.1.0","526163","J=YES, F=NO","en865mp60k","2","78","70","85","","","","","","","","","","","","","","","",""
"null","audio/hotel1.wav","null","audio-keyboard-response","348","2.1.0","526892","J=YES, F=NO","en865mp60k","2","78","70","85","","","","","","","","","","","","","","","",""
"681","
          <p id=""word"" style=""font-size: 40px;"">flanter</p>
          <p style=""font-size: 16px;"">J = YES &nbsp;&nbsp;&nbsp; F = NO</p>
        ","f","html-keyboard-response","349","2.1.0","527576","J=YES, F=NO","en865mp60k","2","78","70","85","","","","","","","","","flanter","hotel1","pseudoword","pseudoword","f","true","",""
"null","<p style=""font-size: 50px;"">+</p>","null","html-keyboard-response","350","2.1.0","527890","J=YES, F=NO","en865mp60k","2","78","70","85","","","","","","","","","","","","","","","",""
"null","audio/beep-329314.mp3","null","audio-keyboard-response","351","2.1.0","529422","J=YES, F=NO","en865mp60k","2","78","70","85","","","","","","","","","","","","","","","",""
"null","audio/cinema1.wav","null","audio-keyboard-response","352","2.1.0","530093","J=YES, F=NO","en865mp60k","2","78","70","85","","","","","","","","","","","","","","","",""
"620","
          <p id=""word"" style=""font-size: 40px;"">murple</p>
          <p style=""font-size: 16px;"">J = YES &nbsp;&nbsp;&nbsp; F = NO</p>
        ","f","html-keyboard-response","353","2.1.0","530716","J=YES, F=NO","en865mp60k","2","78","70","85","","","","","","","","","murple","cinema1","pseudoword","pseudoword","f","true","",""
"null","<p style=""font-size: 50px;"">+</p>","null","html-keyboard-response","354","2.1.0","531032","J=YES, F=NO","en865mp60k","2","78","70","85","","","","","","","","","","","","","","","",""
"null","audio/beep-329314.mp3","null","audio-keyboard-response","355","2.1.0","532563","J=YES, F=NO","en865mp60k","2","78","70","85","","","","","","","","","","","","","","","",""
"null","audio/pizza1.wav","null","audio-keyboard-response","356","2.1.0","533192","J=YES, F=NO","en865mp60k","2","78","70","85","","","","","","","","","","","","","","","",""
"721","
          <p id=""word"" style=""font-size: 40px;"">devour</p>
          <p style=""font-size: 16px;"">J = YES &nbsp;&nbsp;&nbsp; F = NO</p>
        ","j","html-keyboard-response","357","2.1.0","533916","J=YES, F=NO","en865mp60k","2","78","70","85","","","","","","","","","devour","pizza1","literal","experimental","j","true","",""
"null","<p style=""font-size: 50px;"">+</p>","null","html-keyboard-response","358","2.1.0","534222","J=YES, F=NO","en865mp60k","2","78","70","85","","","","","","","","","","","","","","","",""
"null","audio/beep-329314.mp3","null","audio-keyboard-response","359","2.1.0","535763","J=YES, F=NO","en865mp60k","2","78","70","85","","","","","","","","","","","","","","","",""
"null","audio/train.wav","null","audio-keyboard-response","360","2.1.0","536572","J=YES, F=NO","en865mp60k","2","78","70","85","","","","","","","","","","","","","","","",""
"901","
          <p id=""word"" style=""font-size: 40px;"">catch</p>
          <p style=""font-size: 16px;"">J = YES &nbsp;&nbsp;&nbsp; F = NO</p>
        ","j","html-keyboard-response","361","2.1.0","537476","J=YES, F=NO","en865mp60k","2","78","70","85","","","","","","","","","catch","train","metaphor","experimental","j","true","",""
"4958","<p>Excellent! You have finished block 3 of 8.</p>
                     <p>Feel free to take a 30 second break.</p>
                     <p>Press any key when you're ready to continue.</p>"," ","html-keyboard-response","362","2.1.0","542436","J=YES, F=NO","en865mp60k","2","78","70","85","","","","","","","","","","","","","","","",""
"1478","<p>Starting main block 4 of 8. Press any key to continue.</p>"," ","html-keyboard-response","363","2.1.0","543916","J=YES, F=NO","en865mp60k","2","78","70","85","","","","","","","","","","","","","","","",""
"null","<p style=""font-size: 50px;"">+</p>","null","html-keyboard-response","364","2.1.0","544218","J=YES, F=NO","en865mp60k","2","78","70","85","","","","","","","","","","","","","","","",""
"null","audio/beep-329314.mp3","null","audio-keyboard-response","365","2.1.0","545743","J=YES, F=NO","en865mp60k","2","78","70","85","","","","","","","","","","","","","","","",""
"null","audio/foot1.wav","null","audio-keyboard-response","366","2.1.0","546273","J=YES, F=NO","en865mp60k","2","78","70","85","","","","","","","","","","","","","","","",""
"530","
          <p id=""word"" style=""font-size: 40px;"">close</p>
          <p style=""font-size: 16px;"">J = YES &nbsp;&nbsp;&nbsp; F = NO</p>
        ","j","html-keyboard-response","367","2.1.0","546806","J=YES, F=NO","en865mp60k","2","78","70","85","","","","","","","","","close","foot1","unrelated","experimental","j","true","",""
"null","<p style=""font-size: 50px;"">+</p>","null","html-keyboard-response","368","2.1.0","547122","J=YES, F=NO","en865mp60k","2","78","70","85","","","","","","","","","","","","","","","",""
"null","audio/beep-329314.mp3","null","audio-keyboard-response","369","2.1.0","548663","J=YES, F=NO","en865mp60k","2","78","70","85","","","","","","","","","","","","","","","",""
"null","audio/weight1.wav","null","audio-keyboard-response","370","2.1.0","549433","J=YES, F=NO","en865mp60k","2","78","70","85","","","","","","","","","","","","","","","",""
"591","
          <p id=""word"" style=""font-size: 40px;"">crimsh</p>
          <p style=""font-size: 16px;"">J = YES &nbsp;&nbsp;&nbsp; F = NO</p>
        ","f","html-keyboard-response","371","2.1.0","550026","J=YES, F=NO","en865mp60k","2","78","70","85","","","","","","","","","crimsh","weight1","pseudoword","pseudoword","f","true","",""
"null","<p style=""font-size: 50px;"">+</p>","null","html-keyboard-response","372","2.1.0","550342","J=YES, F=NO","en865mp60k","2","78","70","85","","","","","","","","","","","","","","","",""
"null","audio/beep-329314.mp3","null","audio-keyboard-response","373","2.1.0","551883","J=YES, F=NO","en865mp60k","2","78","70","85","","","","","","","","","","","","","","","",""
"null","audio/dollar.wav","null","audio-keyboard-response","374","2.1.0","552312","J=YES, F=NO","en865mp60k","2","78","70","85","","","","","","","","","","","","","","","",""
"521","
          <p id=""word"" style=""font-size: 40px;"">gliptism</p>
          <p style=""font-size: 16px;"">J = YES &nbsp;&nbsp;&nbsp; F = NO</p>
        ","f","html-keyboard-response","375","2.1.0","552836","J=YES, F=NO","en865mp60k","2","78","70","85","","","","","","","","","gliptism","dollar","pseudoword","pseudoword","f","true","",""
"null","<p style=""font-size: 50px;"">+</p>","null","html-keyboard-response","376","2.1.0","553141","J=YES, F=NO","en865mp60k","2","78","70","85","","","","","","","","","","","","","","","",""
"null","audio/beep-329314.mp3","null","audio-keyboard-response","377","2.1.0","554682","J=YES, F=NO","en865mp60k","2","78","70","85","","","","","","","","","","","","","","","",""
"null","audio/budget1.wav","null","audio-keyboard-response","378","2.1.0","555411","J=YES, F=NO","en865mp60k","2","78","70","85","","","","","","","","","","","","","","","",""
"493","
          <p id=""word"" style=""font-size: 40px;"">cut</p>
          <p style=""font-size: 16px;"">J = YES &nbsp;&nbsp;&nbsp; F = NO</p>
        ","j","html-keyboard-response","379","2.1.0","555906","J=YES, F=NO","en865mp60k","2","78","70","85","","","","","","","","","cut","budget1","metaphor","experimental","j","true","",""
"null","<p style=""font-size: 50px;"">+</p>","null","html-keyboard-response","380","2.1.0","556217","J=YES, F=NO","en865mp60k","2","78","70","85","","","","","","","","","","","","","","","",""
"null","audio/beep-329314.mp3","null","audio-keyboard-response","381","2.1.0","557742","J=YES, F=NO","en865mp60k","2","78","70","85","","","","","","","","","","","","","","","",""
"null","audio/novel.wav","null","audio-keyboard-response","382","2.1.0","558292","J=YES, F=NO","en865mp60k","2","78","70","85","","","","","","","","","","","","","","","",""
"561","
          <p id=""word"" style=""font-size: 40px;"">type</p>
          <p style=""font-size: 16px;"">J = YES &nbsp;&nbsp;&nbsp; F = NO</p>
        ","j","html-keyboard-response","383","2.1.0","558856","J=YES, F=NO","en865mp60k","2","78","70","85","","","","","","","","","type","novel","filler","filler","j","true","",""
"null","<p style=""font-size: 50px;"">+</p>","null","html-keyboard-response","384","2.1.0","559159","J=YES, F=NO","en865mp60k","2","78","70","85","","","","","","","","","","","","","","","",""
"null","audio/beep-329314.mp3","null","audio-keyboard-response","385","2.1.0","560703","J=YES, F=NO","en865mp60k","2","78","70","85","","","","","","","","","","","","","","","",""
"null","audio/radio1.wav","null","audio-keyboard-response","386","2.1.0","561332","J=YES, F=NO","en865mp60k","2","78","70","85","","","","","","","","","","","","","","","",""
"481","
          <p id=""word"" style=""font-size: 40px;"">blanter</p>
          <p style=""font-size: 16px;"">J = YES &nbsp;&nbsp;&nbsp; F = NO</p>
        ","f","html-keyboard-response","387","2.1.0","561816","J=YES, F=NO","en865mp60k","2","78","70","85","","","","","","","","","blanter","radio1","pseudoword","pseudoword","f","true","",""
"null","<p style=""font-size: 50px;"">+</p>","null","html-keyboard-response","388","2.1.0","562126","J=YES, F=NO","en865mp60k","2","78","70","85","","","","","","","","","","","","","","","",""
"null","audio/beep-329314.mp3","null","audio-keyboard-response","389","2.1.0","563663","J=YES, F=NO","en865mp60k","2","78","70","85","","","","","","","","","","","","","","","",""
"null","audio/effort.wav","null","audio-keyboard-response","390","2.1.0","564232","J=YES, F=NO","en865mp60k","2","78","70","85","","","","","","","","","","","","","","","",""
"550","
          <p id=""word"" style=""font-size: 40px;"">invest</p>
          <p style=""font-size: 16px;"">J = YES &nbsp;&nbsp;&nbsp; F = NO</p>
