"rt","stimulus","response","trial_type","trial_index","plugin_version","time_elapsed","response_mapping","subject_id","list_index","lextale_score","lextale_word_score","lextale_nonword_score","success","timeout","failed_images","failed_audio","failed_video","task","isWord","isDummy","target","prime","prime_type","stimulus_type","correct_response","correct","section","question_order"
"95875","
    <div style=""max-width: 800px; margin: auto; text-align: left;"">
      <h2>STANFORD UNIVERSITY</h2>
      <h3>Research Information Sheet</h3>
      <p><strong>Protocol Director:</strong> Robert Hawkins<br>
      <strong>Protocol Title:</strong> Communication and social cognition in natural audiovisual contexts<br>
      <strong>IRB#:</strong> 77226</p>

      <p><strong>DESCRIPTION:</strong> You are invited to participate in a research study about language and communication. The purpose of the research is to understand how you interact and communicate with other people in naturalistic settings as a fluent English speaker. This research will be conducted through the Prolific platform, including participants from the US, UK, and Canada. If you decide to participate in this research, you will play a communication game in a group with one or more partners.</p>

      <p><strong>TIME INVOLVEMENT:</strong> The task will last the amount of time advertised on Prolific. You are free to withdraw from the study at any time.</p>

      <p><strong>RISKS AND BENEFITS:</strong> You may become frustrated if your partner gets distracted, or experience discomfort if other participants in your group send text that is inappropriate for the task. We ask you to please be respectful of other participants you might be interacting with to mitigate these risks. You may also experience discomfort when being asked to discuss or challenge emotionally salient political beliefs. Study data will be stored securely, in compliance with Stanford University standards, minimizing the risk of confidentiality breach. This study advances our scientific understanding of how people communicate and collaborate in naturalistic settings. This study may lead to further insights about what can go wrong in teamwork, suggest potential interventions to overcome these barriers, and help to develop assistive technologies that collaborate with human partners. We cannot and do not guarantee or promise that you will receive any benefits from this study.</p>

      <p><strong>PAYMENTS:</strong> You will receive payment in the amount advertised on Prolific. If you do not complete this study, you will receive prorated payment based on the time that you have spent. Additionally, you may be eligible for bonus payments as described in the instructions.</p>

      <p><strong>PARTICIPANT’S RIGHTS:</strong> If you have read this form and have decided to participate in this project, please understand your participation is voluntary and you have the right to withdraw your consent or discontinue participation at any time without penalty or loss of benefits to which you are otherwise entitled. The alternative is not to participate. You have the right to refuse to answer particular questions. The results of this research study may be presented at scientific or professional meetings or published in scientific journals. Your individual privacy will be maintained in all published and written data resulting from the study. In accordance with scientific norms, the data from this study may be used or shared with other researchers for future research (after removing personally identifying information) without additional consent from you.</p>

      <p><strong>CONTACT INFORMATION:</strong><br>
      Questions: If you have any questions, concerns or complaints about this research, its procedures, risks and benefits, contact the Protocol Director, Robert Hawkins (<a href=""mailto:rdhawkins@stanford.edu"">rdhawkins@stanford.edu</a>, 217-549-6923).<br>
      Independent Contact: If you are not satisfied with how this study is being conducted, or if you have any concerns, complaints, or general questions about the research or your rights as a participant, please contact the Stanford Institutional Review Board (IRB) to speak to someone independent of the research team at 650-723-2480 or toll free at 1-866-680-2906, or email at <a href=""mailto:irbnon-med@stanford.edu"">irbnon-med@stanford.edu</a>. You can also write to the Stanford IRB, Stanford University, 1705 El Camino Real, Palo Alto, CA 94306.</p>

      <p><strong>Please save or print a copy of this page for your records.</strong></p>
      <p>If you agree to participate in this research, click ""Continue"" below.</p>
    </div>
  ","0","html-button-response","0","2.1.0","95888","F=YES, J=NO","f1vyg0p4vn","2","55","85","25","","","","","","","","","","","","","","","",""
"36071","
    <div style=""max-width: 800px; margin: auto; text-align: left;"">
      <h2>Welcome!</h2>
      <p>Thank you for participating in this study. The experiment consists of three parts:</p>
      <ol>
        <li>An English vocabulary test</li>
        <li>A main task in which you will hear and see words, and decide whether the written word is a real English word</li>
        <li>A brief survey about your background</li>
      </ol>
      <p>Each part will be introduced before it begins.</p>
      <p>Please make sure you are in a quiet environment and can hear audio clearly for the final task.</p>
      <p style=""margin-top: 2em;"">Press any key to begin.</p>
    </div>
  "," ","html-keyboard-response","1","2.1.0","131969","F=YES, J=NO","f1vyg0p4vn","2","55","85","25","","","","","","","","","","","","","","","",""
"","","","preload","2","2.1.0","165360","F=YES, J=NO","f1vyg0p4vn","2","55","85","25","true","false","[]","[]","[]","","","","","","","","","","",""
"10627","
    <div style=""max-width: 800px; margin: auto; text-align: left;"">
      <h2>Part 1: Vocabulary Test</h2>
      <p>You will now complete the first part of the study: a short English vocabulary test.</p>
      <p>This test is called <strong>LexTALE</strong> and helps us get a general sense of your English proficiency.</p>
      <p style=""margin-top: 2em;"">Press any key to continue.</p>
    </div>
  "," ","html-keyboard-response","3","2.1.0","175990","F=YES, J=NO","f1vyg0p4vn","2","55","85","25","","","","","","","","","","","","","","","",""
"44227","
    <div style=""max-width: 800px; margin: auto; text-align: left;"">
      <h2>LexTALE Vocabulary Test</h2>
      <p>In this test, you will see a series of letter strings—one at a time.</p>
      <p>Your task is to decide whether each string is a real English word.</p>
      <p><strong>Key responses:</strong></p>
      <ul>
        <li><strong>F</strong> = YES (real English word)</li>
        <li><strong>J</strong> = NO (not a real English word)</li>
      </ul>
      <p>There is no time limit, but please try to be accurate.</p>
      <p style=""margin-top: 2em;"">Press any key to begin.</p>
    </div>
  "," ","html-keyboard-response","4","2.1.0","220221","F=YES, J=NO","f1vyg0p4vn","2","55","85","25","","","","","","","","","","","","","","","",""
"3735","
  <p style=""font-size: 40px;"">platery</p>
  <p style=""font-size: 16px;"">F = YES &nbsp;&nbsp;&nbsp; J = NO</p>
","f","html-keyboard-response","5","2.1.0","223958","F=YES, J=NO","f1vyg0p4vn","2","55","85","25","","","","","","lextale","false","true","","","","","","","",""
"1252","
  <p style=""font-size: 40px;"">denial</p>
  <p style=""font-size: 16px;"">F = YES &nbsp;&nbsp;&nbsp; J = NO</p>
","f","html-keyboard-response","6","2.1.0","225214","F=YES, J=NO","f1vyg0p4vn","2","55","85","25","","","","","","lextale","true","true","","","","","","","",""
"1661","
  <p style=""font-size: 40px;"">marrit</p>
  <p style=""font-size: 16px;"">F = YES &nbsp;&nbsp;&nbsp; J = NO</p>
","f","html-keyboard-response","7","2.1.0","226877","F=YES, J=NO","f1vyg0p4vn","2","55","85","25","","","","","","lextale","false","true","","","","","","","",""
"1014","
  <p style=""font-size: 40px;"">bottle</p>
  <p style=""font-size: 16px;"">F = YES &nbsp;&nbsp;&nbsp; J = NO</p>
","f","html-keyboard-response","8","2.1.0","227894","F=YES, J=NO","f1vyg0p4vn","2","55","85","25","","","","","","lextale","true","false","","","","","","","",""
"2646","
  <p style=""font-size: 40px;"">birst</p>
  <p style=""font-size: 16px;"">F = YES &nbsp;&nbsp;&nbsp; J = NO</p>
","j","html-keyboard-response","9","2.1.0","230542","F=YES, J=NO","f1vyg0p4vn","2","55","85","25","","","","","","lextale","false","false","","","","","","","",""
"701","
  <p style=""font-size: 40px;"">envy</p>
  <p style=""font-size: 16px;"">F = YES &nbsp;&nbsp;&nbsp; J = NO</p>
","f","html-keyboard-response","10","2.1.0","231245","F=YES, J=NO","f1vyg0p4vn","2","55","85","25","","","","","","lextale","true","false","","","","","","","",""
"1614","
  <p style=""font-size: 40px;"">brang</p>
  <p style=""font-size: 16px;"">F = YES &nbsp;&nbsp;&nbsp; J = NO</p>
","j","html-keyboard-response","11","2.1.0","232861","F=YES, J=NO","f1vyg0p4vn","2","55","85","25","","","","","","lextale","false","false","","","","","","","",""
"663","
  <p style=""font-size: 40px;"">huge</p>
  <p style=""font-size: 16px;"">F = YES &nbsp;&nbsp;&nbsp; J = NO</p>
","f","html-keyboard-response","12","2.1.0","233526","F=YES, J=NO","f1vyg0p4vn","2","55","85","25","","","","","","lextale","true","false","","","","","","","",""
"2711","
  <p style=""font-size: 40px;"">plove</p>
  <p style=""font-size: 16px;"">F = YES &nbsp;&nbsp;&nbsp; J = NO</p>
","f","html-keyboard-response","13","2.1.0","236238","F=YES, J=NO","f1vyg0p4vn","2","55","85","25","","","","","","lextale","false","false","","","","","","","",""
"693","
  <p style=""font-size: 40px;"">border</p>
  <p style=""font-size: 16px;"">F = YES &nbsp;&nbsp;&nbsp; J = NO</p>
","f","html-keyboard-response","14","2.1.0","236932","F=YES, J=NO","f1vyg0p4vn","2","55","85","25","","","","","","lextale","true","false","","","","","","","",""
"2415","
  <p style=""font-size: 40px;"">flimsy</p>
  <p style=""font-size: 16px;"">F = YES &nbsp;&nbsp;&nbsp; J = NO</p>
","f","html-keyboard-response","15","2.1.0","239348","F=YES, J=NO","f1vyg0p4vn","2","55","85","25","","","","","","lextale","true","false","","","","","","","",""
"687","
  <p style=""font-size: 40px;"">drain</p>
  <p style=""font-size: 16px;"">F = YES &nbsp;&nbsp;&nbsp; J = NO</p>
","f","html-keyboard-response","16","2.1.0","240037","F=YES, J=NO","f1vyg0p4vn","2","55","85","25","","","","","","lextale","true","false","","","","","","","",""
"1149","
  <p style=""font-size: 40px;"">twindle</p>
  <p style=""font-size: 16px;"">F = YES &nbsp;&nbsp;&nbsp; J = NO</p>
","f","html-keyboard-response","17","2.1.0","241189","F=YES, J=NO","f1vyg0p4vn","2","55","85","25","","","","","","lextale","false","false","","","","","","","",""
"662","
  <p style=""font-size: 40px;"">propose</p>
  <p style=""font-size: 16px;"">F = YES &nbsp;&nbsp;&nbsp; J = NO</p>
","f","html-keyboard-response","18","2.1.0","241853","F=YES, J=NO","f1vyg0p4vn","2","55","85","25","","","","","","lextale","true","false","","","","","","","",""
"1966","
  <p style=""font-size: 40px;"">forlay</p>
  <p style=""font-size: 16px;"">F = YES &nbsp;&nbsp;&nbsp; J = NO</p>
","f","html-keyboard-response","19","2.1.0","243821","F=YES, J=NO","f1vyg0p4vn","2","55","85","25","","","","","","lextale","false","false","","","","","","","",""
"742","
  <p style=""font-size: 40px;"">tenant</p>
  <p style=""font-size: 16px;"">F = YES &nbsp;&nbsp;&nbsp; J = NO</p>
","f","html-keyboard-response","20","2.1.0","244565","F=YES, J=NO","f1vyg0p4vn","2","55","85","25","","","","","","lextale","true","false","","","","","","","",""
"654","
  <p style=""font-size: 40px;"">strain</p>
  <p style=""font-size: 16px;"">F = YES &nbsp;&nbsp;&nbsp; J = NO</p>
","f","html-keyboard-response","21","2.1.0","245221","F=YES, J=NO","f1vyg0p4vn","2","55","85","25","","","","","","lextale","true","false","","","","","","","",""
"933","
  <p style=""font-size: 40px;"">holster</p>
  <p style=""font-size: 16px;"">F = YES &nbsp;&nbsp;&nbsp; J = NO</p>
","f","html-keyboard-response","22","2.1.0","246157","F=YES, J=NO","f1vyg0p4vn","2","55","85","25","","","","","","lextale","true","false","","","","","","","",""
"1590","
  <p style=""font-size: 40px;"">hinder</p>
  <p style=""font-size: 16px;"">F = YES &nbsp;&nbsp;&nbsp; J = NO</p>
","f","html-keyboard-response","23","2.1.0","247749","F=YES, J=NO","f1vyg0p4vn","2","55","85","25","","","","","","lextale","true","false","","","","","","","",""
"894","
  <p style=""font-size: 40px;"">swindle</p>
  <p style=""font-size: 16px;"">F = YES &nbsp;&nbsp;&nbsp; J = NO</p>
","f","html-keyboard-response","24","2.1.0","248645","F=YES, J=NO","f1vyg0p4vn","2","55","85","25","","","","","","lextale","true","false","","","","","","","",""
"1893","
  <p style=""font-size: 40px;"">nuder</p>
  <p style=""font-size: 16px;"">F = YES &nbsp;&nbsp;&nbsp; J = NO</p>
","j","html-keyboard-response","25","2.1.0","250540","F=YES, J=NO","f1vyg0p4vn","2","55","85","25","","","","","","lextale","false","false","","","","","","","",""
"711","
  <p style=""font-size: 40px;"">pillow</p>
  <p style=""font-size: 16px;"">F = YES &nbsp;&nbsp;&nbsp; J = NO</p>
","f","html-keyboard-response","26","2.1.0","251253","F=YES, J=NO","f1vyg0p4vn","2","55","85","25","","","","","","lextale","true","false","","","","","","","",""
"2879","
  <p style=""font-size: 40px;"">shumble</p>
  <p style=""font-size: 16px;"">F = YES &nbsp;&nbsp;&nbsp; J = NO</p>
","j","html-keyboard-response","27","2.1.0","254132","F=YES, J=NO","f1vyg0p4vn","2","55","85","25","","","","","","lextale","false","false","","","","","","","",""
"670","
  <p style=""font-size: 40px;"">thirst</p>
  <p style=""font-size: 16px;"">F = YES &nbsp;&nbsp;&nbsp; J = NO</p>
","f","html-keyboard-response","28","2.1.0","254804","F=YES, J=NO","f1vyg0p4vn","2","55","85","25","","","","","","lextale","true","false","","","","","","","",""
"2119","
  <p style=""font-size: 40px;"">unsail</p>
  <p style=""font-size: 16px;"">F = YES &nbsp;&nbsp;&nbsp; J = NO</p>
","f","html-keyboard-response","29","2.1.0","256924","F=YES, J=NO","f1vyg0p4vn","2","55","85","25","","","","","","lextale","false","false","","","","","","","",""
"838","
  <p style=""font-size: 40px;"">rifle</p>
  <p style=""font-size: 16px;"">F = YES &nbsp;&nbsp;&nbsp; J = NO</p>
","f","html-keyboard-response","30","2.1.0","257764","F=YES, J=NO","f1vyg0p4vn","2","55","85","25","","","","","","lextale","true","false","","","","","","","",""
"694","
  <p style=""font-size: 40px;"">mush</p>
  <p style=""font-size: 16px;"">F = YES &nbsp;&nbsp;&nbsp; J = NO</p>
","f","html-keyboard-response","31","2.1.0","258460","F=YES, J=NO","f1vyg0p4vn","2","55","85","25","","","","","","lextale","false","false","","","","","","","",""
"1134","
  <p style=""font-size: 40px;"">drench</p>
  <p style=""font-size: 16px;"">F = YES &nbsp;&nbsp;&nbsp; J = NO</p>
","f","html-keyboard-response","32","2.1.0","259596","F=YES, J=NO","f1vyg0p4vn","2","55","85","25","","","","","","lextale","true","false","","","","","","","",""
"757","
  <p style=""font-size: 40px;"">snirt</p>
  <p style=""font-size: 16px;"">F = YES &nbsp;&nbsp;&nbsp; J = NO</p>
","f","html-keyboard-response","33","2.1.0","260356","F=YES, J=NO","f1vyg0p4vn","2","55","85","25","","","","","","lextale","false","false","","","","","","","",""
"671","
  <p style=""font-size: 40px;"">bitter</p>
  <p style=""font-size: 16px;"">F = YES &nbsp;&nbsp;&nbsp; J = NO</p>
","f","html-keyboard-response","34","2.1.0","261028","F=YES, J=NO","f1vyg0p4vn","2","55","85","25","","","","","","lextale","true","false","","","","","","","",""
"1006","
  <p style=""font-size: 40px;"">pliff</p>
  <p style=""font-size: 16px;"">F = YES &nbsp;&nbsp;&nbsp; J = NO</p>
","f","html-keyboard-response","35","2.1.0","262037","F=YES, J=NO","f1vyg0p4vn","2","55","85","25","","","","","","lextale","false","false","","","","","","","",""
"879","
  <p style=""font-size: 40px;"">tablet</p>
  <p style=""font-size: 16px;"">F = YES &nbsp;&nbsp;&nbsp; J = NO</p>
","f","html-keyboard-response","36","2.1.0","262917","F=YES, J=NO","f1vyg0p4vn","2","55","85","25","","","","","","lextale","true","false","","","","","","","",""
"877","
  <p style=""font-size: 40px;"">glimmer</p>
  <p style=""font-size: 16px;"">F = YES &nbsp;&nbsp;&nbsp; J = NO</p>
","f","html-keyboard-response","37","2.1.0","263797","F=YES, J=NO","f1vyg0p4vn","2","55","85","25","","","","","","lextale","true","false","","","","","","","",""
"710","
  <p style=""font-size: 40px;"">slink</p>
  <p style=""font-size: 16px;"">F = YES &nbsp;&nbsp;&nbsp; J = NO</p>
","f","html-keyboard-response","38","2.1.0","264509","F=YES, J=NO","f1vyg0p4vn","2","55","85","25","","","","","","lextale","true","false","","","","","","","",""
"895","
  <p style=""font-size: 40px;"">clever</p>
  <p style=""font-size: 16px;"">F = YES &nbsp;&nbsp;&nbsp; J = NO</p>
","f","html-keyboard-response","39","2.1.0","265404","F=YES, J=NO","f1vyg0p4vn","2","55","85","25","","","","","","lextale","true","false","","","","","","","",""
"1030","
  <p style=""font-size: 40px;"">grum</p>
  <p style=""font-size: 16px;"">F = YES &nbsp;&nbsp;&nbsp; J = NO</p>
","f","html-keyboard-response","40","2.1.0","266436","F=YES, J=NO","f1vyg0p4vn","2","55","85","25","","","","","","lextale","false","false","","","","","","","",""
"1015","
  <p style=""font-size: 40px;"">string</p>
  <p style=""font-size: 16px;"">F = YES &nbsp;&nbsp;&nbsp; J = NO</p>
","f","html-keyboard-response","41","2.1.0","267453","F=YES, J=NO","f1vyg0p4vn","2","55","85","25","","","","","","lextale","true","false","","","","","","","",""
"774","
  <p style=""font-size: 40px;"">plim</p>
  <p style=""font-size: 16px;"">F = YES &nbsp;&nbsp;&nbsp; J = NO</p>
","f","html-keyboard-response","42","2.1.0","268229","F=YES, J=NO","f1vyg0p4vn","2","55","85","25","","","","","","lextale","false","false","","","","","","","",""
"734","
  <p style=""font-size: 40px;"">cable</p>
  <p style=""font-size: 16px;"">F = YES &nbsp;&nbsp;&nbsp; J = NO</p>
","f","html-keyboard-response","43","2.1.0","268965","F=YES, J=NO","f1vyg0p4vn","2","55","85","25","","","","","","lextale","true","false","","","","","","","",""
"1095","
  <p style=""font-size: 40px;"">shrivel</p>
  <p style=""font-size: 16px;"">F = YES &nbsp;&nbsp;&nbsp; J = NO</p>
","f","html-keyboard-response","44","2.1.0","270060","F=YES, J=NO","f1vyg0p4vn","2","55","85","25","","","","","","lextale","true","false","","","","","","","",""
"775","
  <p style=""font-size: 40px;"">tarnish</p>
  <p style=""font-size: 16px;"">F = YES &nbsp;&nbsp;&nbsp; J = NO</p>
","f","html-keyboard-response","45","2.1.0","270836","F=YES, J=NO","f1vyg0p4vn","2","55","85","25","","","","","","lextale","true","false","","","","","","","",""
"752","
  <p style=""font-size: 40px;"">blim</p>
  <p style=""font-size: 16px;"">F = YES &nbsp;&nbsp;&nbsp; J = NO</p>
","f","html-keyboard-response","46","2.1.0","271589","F=YES, J=NO","f1vyg0p4vn","2","55","85","25","","","","","","lextale","false","false","","","","","","","",""
"940","
  <p style=""font-size: 40px;"">stifle</p>
  <p style=""font-size: 16px;"">F = YES &nbsp;&nbsp;&nbsp; J = NO</p>
","f","html-keyboard-response","47","2.1.0","272533","F=YES, J=NO","f1vyg0p4vn","2","55","85","25","","","","","","lextale","true","false","","","","","","","",""
"990","
  <p style=""font-size: 40px;"">bint</p>
  <p style=""font-size: 16px;"">F = YES &nbsp;&nbsp;&nbsp; J = NO</p>
","f","html-keyboard-response","48","2.1.0","273525","F=YES, J=NO","f1vyg0p4vn","2","55","85","25","","","","","","lextale","false","false","","","","","","","",""
"702","
  <p style=""font-size: 40px;"">purple</p>
  <p style=""font-size: 16px;"">F = YES &nbsp;&nbsp;&nbsp; J = NO</p>
","f","html-keyboard-response","49","2.1.0","274228","F=YES, J=NO","f1vyg0p4vn","2","55","85","25","","","","","","lextale","true","false","","","","","","","",""
"854","
  <p style=""font-size: 40px;"">wriggle</p>
  <p style=""font-size: 16px;"">F = YES &nbsp;&nbsp;&nbsp; J = NO</p>
","f","html-keyboard-response","50","2.1.0","275085","F=YES, J=NO","f1vyg0p4vn","2","55","85","25","","","","","","lextale","true","false","","","","","","","",""
"822","
  <p style=""font-size: 40px;"">mangle</p>
  <p style=""font-size: 16px;"">F = YES &nbsp;&nbsp;&nbsp; J = NO</p>
","f","html-keyboard-response","51","2.1.0","275909","F=YES, J=NO","f1vyg0p4vn","2","55","85","25","","","","","","lextale","true","false","","","","","","","",""
"1742","
  <p style=""font-size: 40px;"">shramp</p>
  <p style=""font-size: 16px;"">F = YES &nbsp;&nbsp;&nbsp; J = NO</p>
","j","html-keyboard-response","52","2.1.0","277652","F=YES, J=NO","f1vyg0p4vn","2","55","85","25","","","","","","lextale","false","false","","","","","","","",""
"646","
  <p style=""font-size: 40px;"">flirt</p>
  <p style=""font-size: 16px;"">F = YES &nbsp;&nbsp;&nbsp; J = NO</p>
","f","html-keyboard-response","53","2.1.0","278300","F=YES, J=NO","f1vyg0p4vn","2","55","85","25","","","","","","lextale","true","false","","","","","","","",""
"784","
  <p style=""font-size: 40px;"">frip</p>
  <p style=""font-size: 16px;"">F = YES &nbsp;&nbsp;&nbsp; J = NO</p>
","f","html-keyboard-response","54","2.1.0","279085","F=YES, J=NO","f1vyg0p4vn","2","55","85","25","","","","","","lextale","false","false","","","","","","","",""
"718","
  <p style=""font-size: 40px;"">tangle</p>
  <p style=""font-size: 16px;"">F = YES &nbsp;&nbsp;&nbsp; J = NO</p>
","f","html-keyboard-response","55","2.1.0","279804","F=YES, J=NO","f1vyg0p4vn","2","55","85","25","","","","","","lextale","true","false","","","","","","","",""
"782","
  <p style=""font-size: 40px;"">crumble</p>
  <p style=""font-size: 16px;"">F = YES &nbsp;&nbsp;&nbsp; J = NO</p>
","f","html-keyboard-response","56","2.1.0","280588","F=YES, J=NO","f1vyg0p4vn","2","55","85","25","","","","","","lextale","true","false","","","","","","","",""
"695","
  <p style=""font-size: 40px;"">wrinkle</p>
  <p style=""font-size: 16px;"">F = YES &nbsp;&nbsp;&nbsp; J = NO</p>
","f","html-keyboard-response","57","2.1.0","281284","F=YES, J=NO","f1vyg0p4vn","2","55","85","25","","","","","","lextale","true","false","","","","","","","",""
"734","
  <p style=""font-size: 40px;"">slumb</p>
  <p style=""font-size: 16px;"">F = YES &nbsp;&nbsp;&nbsp; J = NO</p>
","f","html-keyboard-response","58","2.1.0","282020","F=YES, J=NO","f1vyg0p4vn","2","55","85","25","","","","","","lextale","false","false","","","","","","","",""
"718","
  <p style=""font-size: 40px;"">jungle</p>
  <p style=""font-size: 16px;"">F = YES &nbsp;&nbsp;&nbsp; J = NO</p>
","f","html-keyboard-response","59","2.1.0","282739","F=YES, J=NO","f1vyg0p4vn","2","55","85","25","","","","","","lextale","true","false","","","","","","","",""
"1806","
  <p style=""font-size: 40px;"">frolick</p>
  <p style=""font-size: 16px;"">F = YES &nbsp;&nbsp;&nbsp; J = NO</p>
","f","html-keyboard-response","60","2.1.0","284548","F=YES, J=NO","f1vyg0p4vn","2","55","85","25","","","","","","lextale","false","false","","","","","","","",""
"3773","
      <h2>LexTALE Test Completed</h2>
      <p>Your LexTALE vocabulary score is: <strong>55%</strong></p>
      <p>Press any key to continue.</p>
    "," ","html-keyboard-response","61","2.1.0","288324","F=YES, J=NO","f1vyg0p4vn","2","55","85","25","","","","","","","","","","","","","","","",""
"29909","
    <div style=""max-width: 800px; margin: auto; text-align: left;"">
      <h2>Break Time</h2>
      <p>You have completed the first part of the study.</p>
      <p>You may take a short <strong>30-second break</strong> before continuing.</p>
      <p>When you’re ready, press any key to continue to the final task.</p>
    </div>
  "," ","html-keyboard-response","62","2.1.0","318236","F=YES, J=NO","f1vyg0p4vn","2","55","85","25","","","","","","","","","","","","","","","",""
"28854","
    <div style=""max-width: 800px; margin: auto; text-align: left;"">
      <h2>Part 2: Lexical Decision Task</h2>
      <p>You will now begin the second part of the study.</p>
      <p>Each trial will follow this sequence:</p>
      <ul>
        <li>A fixation cross (+) appears at the center of the screen.</li>
        <li>You will hear a short beep followed by a spoken word.</li>
        <li>A written word will appear briefly on the screen.</li>
      </ul>
      <p>Your task is to judge whether the <strong>written word</strong> is a real English word.</p>
      <p style=""margin-top: 1em;""><strong>Key responses:</strong></p>
      <ul>
        <li><strong>F</strong> = YES (real English word)</li>
        <li><strong>J</strong> = NO (not a real English word)</li>
      </ul>
      <p>Please respond as quickly and accurately as you can.</p>
      <p style=""margin-top: 2em;"">Press any key to continue.</p>
    </div>
  "," ","html-keyboard-response","63","2.1.0","347091","F=YES, J=NO","f1vyg0p4vn","2","55","85","25","","","","","","","","","","","","","","","",""
"10758","
    <div style=""max-width: 800px; margin: auto; text-align: left;"">
      <h2>Before You Begin</h2>
      <p>Make sure your sound is turned on.</p>
      <p>You will hear audio during each trial, but your decision should be based only on the <strong>written word</strong> you see on the screen.</p>
      <p><strong>Reminder:</strong></p>
      <ul>
        <li><strong>F</strong> = YES (real English word)</li>
        <li><strong>J</strong> = NO (not a real English word)</li>
      </ul>
      <p style=""margin-top: 2em;"">Press any key when you are ready to begin.</p>
    </div>
  "," ","html-keyboard-response","64","2.1.0","357850","F=YES, J=NO","f1vyg0p4vn","2","55","85","25","","","","","","","","","","","","","","","",""
"5765","
    <div style=""max-width: 800px; margin: auto; text-align: left;"">
      <h2>Part 2: Practice Trials</h2>
      <p>You will now complete a few <strong>practice trials</strong> to get familiar with the task.</p>
      <p>These trials are <strong>not scored</strong> and are only to help you get used to the format.</p>
      <p style=""margin-top: 2em;"">Press any key to begin.</p>
    </div>
  "," ","html-keyboard-response","65","2.1.0","363618","F=YES, J=NO","f1vyg0p4vn","2","55","85","25","","","","","","","","","","","","","","","",""
"3775","<p>Starting practice block 1 of 2. Press any key to continue.</p>"," ","html-keyboard-response","66","2.1.0","367395","F=YES, J=NO","f1vyg0p4vn","2","55","85","25","","","","","","","","","","","","","","","",""
"null","<p style=""font-size: 50px;"">+</p>","null","html-keyboard-response","67","2.1.0","367697","F=YES, J=NO","f1vyg0p4vn","2","55","85","25","","","","","","","","","","","","","","","",""
"null","audio/beep-329314.mp3","null","audio-keyboard-response","68","2.1.0","369263","F=YES, J=NO","f1vyg0p4vn","2","55","85","25","","","","","","","","","","","","","","","",""
"null","audio/bomb1.wav","null","audio-keyboard-response","69","2.1.0","370032","F=YES, J=NO","f1vyg0p4vn","2","55","85","25","","","","","","","","","","","","","","","",""
"null","
          <p id=""word"" style=""font-size: 40px;"">clean</p>
          <p style=""font-size: 16px;"">F = YES &nbsp;&nbsp;&nbsp; J = NO</p>
        ","null","html-keyboard-response","70","2.1.0","371536","F=YES, J=NO","f1vyg0p4vn","2","55","85","25","","","","","","","","","clean","bomb1","filler","filler","f","false","",""
"null","<p style=""font-size: 50px;"">+</p>","null","html-keyboard-response","71","2.1.0","371838","F=YES, J=NO","f1vyg0p4vn","2","55","85","25","","","","","","","","","","","","","","","",""
"null","audio/beep-329314.mp3","null","audio-keyboard-response","72","2.1.0","373353","F=YES, J=NO","f1vyg0p4vn","2","55","85","25","","","","","","","","","","","","","","","",""
"null","audio/weight1.wav","null","audio-keyboard-response","73","2.1.0","373853","F=YES, J=NO","f1vyg0p4vn","2","55","85","25","","","","","","","","","","","","","","","",""
"1379","
          <p id=""word"" style=""font-size: 40px;"">crimsh</p>
          <p style=""font-size: 16px;"">F = YES &nbsp;&nbsp;&nbsp; J = NO</p>
        ","f","html-keyboard-response","74","2.1.0","375234","F=YES, J=NO","f1vyg0p4vn","2","55","85","25","","","","","","","","","crimsh","weight1","pseudoword","pseudoword","j","false","",""
"null","<p style=""font-size: 50px;"">+</p>","null","html-keyboard-response","75","2.1.0","375536","F=YES, J=NO","f1vyg0p4vn","2","55","85","25","","","","","","","","","","","","","","","",""
"null","audio/beep-329314.mp3","null","audio-keyboard-response","76","2.1.0","377053","F=YES, J=NO","f1vyg0p4vn","2","55","85","25","","","","","","","","","","","","","","","",""
"null","audio/bush1.wav","null","audio-keyboard-response","77","2.1.0","377743","F=YES, J=NO","f1vyg0p4vn","2","55","85","25","","","","","","","","","","","","","","","",""
"1328","
          <p id=""word"" style=""font-size: 40px;"">platined</p>
          <p style=""font-size: 16px;"">F = YES &nbsp;&nbsp;&nbsp; J = NO</p>
        ","j","html-keyboard-response","78","2.1.0","379074","F=YES, J=NO","f1vyg0p4vn","2","55","85","25","","","","","","","","","platined","bush1","pseudoword","pseudoword","j","true","",""
"null","<p style=""font-size: 50px;"">+</p>","null","html-keyboard-response","79","2.1.0","379376","F=YES, J=NO","f1vyg0p4vn","2","55","85","25","","","","","","","","","","","","","","","",""
"null","audio/beep-329314.mp3","null","audio-keyboard-response","80","2.1.0","380893","F=YES, J=NO","f1vyg0p4vn","2","55","85","25","","","","","","","","","","","","","","","",""
"null","audio/mile1.wav","null","audio-keyboard-response","81","2.1.0","381342","F=YES, J=NO","f1vyg0p4vn","2","55","85","25","","","","","","","","","","","","","","","",""
"913","
          <p id=""word"" style=""font-size: 40px;"">writch</p>
          <p style=""font-size: 16px;"">F = YES &nbsp;&nbsp;&nbsp; J = NO</p>
        ","f","html-keyboard-response","82","2.1.0","382258","F=YES, J=NO","f1vyg0p4vn","2","55","85","25","","","","","","","","","writch","mile1","pseudoword","pseudoword","j","false","",""
"null","<p style=""font-size: 50px;"">+</p>","null","html-keyboard-response","83","2.1.0","382560","F=YES, J=NO","f1vyg0p4vn","2","55","85","25","","","","","","","","","","","","","","","",""
"null","audio/beep-329314.mp3","null","audio-keyboard-response","84","2.1.0","384073","F=YES, J=NO","f1vyg0p4vn","2","55","85","25","","","","","","","","","","","","","","","",""
"null","audio/account1.wav","null","audio-keyboard-response","85","2.1.0","384723","F=YES, J=NO","f1vyg0p4vn","2","55","85","25","","","","","","","","","","","","","","","",""
"517","
          <p id=""word"" style=""font-size: 40px;"">paint</p>
          <p style=""font-size: 16px;"">F = YES &nbsp;&nbsp;&nbsp; J = NO</p>
        ","f","html-keyboard-response","86","2.1.0","385242","F=YES, J=NO","f1vyg0p4vn","2","55","85","25","","","","","","","","","paint","account1","filler","filler","f","true","",""
"null","<p style=""font-size: 50px;"">+</p>","null","html-keyboard-response","87","2.1.0","385543","F=YES, J=NO","f1vyg0p4vn","2","55","85","25","","","","","","","","","","","","","","","",""
"null","audio/beep-329314.mp3","null","audio-keyboard-response","88","2.1.0","387052","F=YES, J=NO","f1vyg0p4vn","2","55","85","25","","","","","","","","","","","","","","","",""
"null","audio/butter1.wav","null","audio-keyboard-response","89","2.1.0","387722","F=YES, J=NO","f1vyg0p4vn","2","55","85","25","","","","","","","","","","","","","","","",""
"645","
          <p id=""word"" style=""font-size: 40px;"">chew</p>
          <p style=""font-size: 16px;"">F = YES &nbsp;&nbsp;&nbsp; J = NO</p>
        ","f","html-keyboard-response","90","2.1.0","388370","F=YES, J=NO","f1vyg0p4vn","2","55","85","25","","","","","","","","","chew","butter1","filler","filler","f","true","",""
"null","<p style=""font-size: 50px;"">+</p>","null","html-keyboard-response","91","2.1.0","388672","F=YES, J=NO","f1vyg0p4vn","2","55","85","25","","","","","","","","","","","","","","","",""
"null","audio/beep-329314.mp3","null","audio-keyboard-response","92","2.1.0","390182","F=YES, J=NO","f1vyg0p4vn","2","55","85","25","","","","","","","","","","","","","","","",""
"null","audio/show.wav","null","audio-keyboard-response","93","2.1.0","390692","F=YES, J=NO","f1vyg0p4vn","2","55","85","25","","","","","","","","","","","","","","","",""
"491","
          <p id=""word"" style=""font-size: 40px;"">smark</p>
          <p style=""font-size: 16px;"">F = YES &nbsp;&nbsp;&nbsp; J = NO</p>
        ","f","html-keyboard-response","94","2.1.0","391186","F=YES, J=NO","f1vyg0p4vn","2","55","85","25","","","","","","","","","smark","show","pseudoword","pseudoword","j","false","",""
"null","<p style=""font-size: 50px;"">+</p>","null","html-keyboard-response","95","2.1.0","391488","F=YES, J=NO","f1vyg0p4vn","2","55","85","25","","","","","","","","","","","","","","","",""
"null","audio/beep-329314.mp3","null","audio-keyboard-response","96","2.1.0","392992","F=YES, J=NO","f1vyg0p4vn","2","55","85","25","","","","","","","","","","","","","","","",""
"null","audio/holiday1.wav","null","audio-keyboard-response","97","2.1.0","393733","F=YES, J=NO","f1vyg0p4vn","2","55","85","25","","","","","","","","","","","","","","","",""
"867","
          <p id=""word"" style=""font-size: 40px;"">drivets</p>
          <p style=""font-size: 16px;"">F = YES &nbsp;&nbsp;&nbsp; J = NO</p>
        ","j","html-keyboard-response","98","2.1.0","394602","F=YES, J=NO","f1vyg0p4vn","2","55","85","25","","","","","","","","","drivets","holiday1","pseudoword","pseudoword","j","true","",""
"null","<p style=""font-size: 50px;"">+</p>","null","html-keyboard-response","99","2.1.0","394905","F=YES, J=NO","f1vyg0p4vn","2","55","85","25","","","","","","","","","","","","","","","",""
"null","audio/beep-329314.mp3","null","audio-keyboard-response","100","2.1.0","396423","F=YES, J=NO","f1vyg0p4vn","2","55","85","25","","","","","","","","","","","","","","","",""
"null","audio/pattern.wav","null","audio-keyboard-response","101","2.1.0","397152","F=YES, J=NO","f1vyg0p4vn","2","55","85","25","","","","","","","","","","","","","","","",""
"1064","
          <p id=""word"" style=""font-size: 40px;"">tug</p>
          <p style=""font-size: 16px;"">F = YES &nbsp;&nbsp;&nbsp; J = NO</p>
        ","f","html-keyboard-response","102","2.1.0","398218","F=YES, J=NO","f1vyg0p4vn","2","55","85","25","","","","","","","","","tug","pattern","filler","filler","f","true","",""
"null","<p style=""font-size: 50px;"">+</p>","null","html-keyboard-response","103","2.1.0","398519","F=YES, J=NO","f1vyg0p4vn","2","55","85","25","","","","","","","","","","","","","","","",""
"null","audio/beep-329314.mp3","null","audio-keyboard-response","104","2.1.0","400032","F=YES, J=NO","f1vyg0p4vn","2","55","85","25","","","","","","","","","","","","","","","",""
"null","audio/age1.wav","null","audio-keyboard-response","105","2.1.0","400562","F=YES, J=NO","f1vyg0p4vn","2","55","85","25","","","","","","","","","","","","","","","",""
"716","
          <p id=""word"" style=""font-size: 40px;"">bake</p>
          <p style=""font-size: 16px;"">F = YES &nbsp;&nbsp;&nbsp; J = NO</p>
        ","f","html-keyboard-response","106","2.1.0","401282","F=YES, J=NO","f1vyg0p4vn","2","55","85","25","","","","","","","","","bake","age1","filler","filler","f","true","",""
"null","<p style=""font-size: 50px;"">+</p>","null","html-keyboard-response","107","2.1.0","401583","F=YES, J=NO","f1vyg0p4vn","2","55","85","25","","","","","","","","","","","","","","","",""
"null","audio/beep-329314.mp3","null","audio-keyboard-response","108","2.1.0","403092","F=YES, J=NO","f1vyg0p4vn","2","55","85","25","","","","","","","","","","","","","","","",""
"null","audio/emotion.wav","null","audio-keyboard-response","109","2.1.0","403982","F=YES, J=NO","f1vyg0p4vn","2","55","85","25","","","","","","","","","","","","","","","",""
"1088","
          <p id=""word"" style=""font-size: 40px;"">devering</p>
          <p style=""font-size: 16px;"">F = YES &nbsp;&nbsp;&nbsp; J = NO</p>
        ","j","html-keyboard-response","110","2.1.0","405073","F=YES, J=NO","f1vyg0p4vn","2","55","85","25","","","","","","","","","devering","emotion","pseudoword","pseudoword","j","true","",""
"null","<p style=""font-size: 50px;"">+</p>","null","html-keyboard-response","111","2.1.0","405376","F=YES, J=NO","f1vyg0p4vn","2","55","85","25","","","","","","","","","","","","","","","",""
"null","audio/beep-329314.mp3","null","audio-keyboard-response","112","2.1.0","406882","F=YES, J=NO","f1vyg0p4vn","2","55","85","25","","","","","","","","","","","","","","","",""
"null","audio/pig.wav","null","audio-keyboard-response","113","2.1.0","407512","F=YES, J=NO","f1vyg0p4vn","2","55","85","25","","","","","","","","","","","","","","","",""
"1183","
          <p id=""word"" style=""font-size: 40px;"">tirlike</p>
          <p style=""font-size: 16px;"">F = YES &nbsp;&nbsp;&nbsp; J = NO</p>
        ","j","html-keyboard-response","114","2.1.0","408697","F=YES, J=NO","f1vyg0p4vn","2","55","85","25","","","","","","","","","tirlike","pig","pseudoword","pseudoword","j","true","",""
"2358","<p>Starting practice block 2 of 2. Press any key to continue.</p>"," ","html-keyboard-response","115","2.1.0","411058","F=YES, J=NO","f1vyg0p4vn","2","55","85","25","","","","","","","","","","","","","","","",""
"null","<p style=""font-size: 50px;"">+</p>","null","html-keyboard-response","116","2.1.0","411359","F=YES, J=NO","f1vyg0p4vn","2","55","85","25","","","","","","","","","","","","","","","",""
"null","audio/beep-329314.mp3","null","audio-keyboard-response","117","2.1.0","412898","F=YES, J=NO","f1vyg0p4vn","2","55","85","25","","","","","","","","","","","","","","","",""
"null","audio/prisoner.wav","null","audio-keyboard-response","118","2.1.0","413649","F=YES, J=NO","f1vyg0p4vn","2","55","85","25","","","","","","","","","","","","","","","",""
"919","
          <p id=""word"" style=""font-size: 40px;"">egotian</p>
          <p style=""font-size: 16px;"">F = YES &nbsp;&nbsp;&nbsp; J = NO</p>
        ","j","html-keyboard-response","119","2.1.0","414569","F=YES, J=NO","f1vyg0p4vn","2","55","85","25","","","","","","","","","egotian","prisoner","pseudoword","pseudoword","j","true","",""
"null","<p style=""font-size: 50px;"">+</p>","null","html-keyboard-response","120","2.1.0","414870","F=YES, J=NO","f1vyg0p4vn","2","55","85","25","","","","","","","","","","","","","","","",""
"null","audio/beep-329314.mp3","null","audio-keyboard-response","121","2.1.0","416378","F=YES, J=NO","f1vyg0p4vn","2","55","85","25","","","","","","","","","","","","","","","",""
"null","audio/plot1.wav","null","audio-keyboard-response","122","2.1.0","417148","F=YES, J=NO","f1vyg0p4vn","2","55","85","25","","","","","","","","","","","","","","","",""
"931","
          <p id=""word"" style=""font-size: 40px;"">glenter</p>
          <p style=""font-size: 16px;"">F = YES &nbsp;&nbsp;&nbsp; J = NO</p>
        ","j","html-keyboard-response","123","2.1.0","418081","F=YES, J=NO","f1vyg0p4vn","2","55","85","25","","","","","","","","","glenter","plot1","pseudoword","pseudoword","j","true","",""
"null","<p style=""font-size: 50px;"">+</p>","null","html-keyboard-response","124","2.1.0","418383","F=YES, J=NO","f1vyg0p4vn","2","55","85","25","","","","","","","","","","","","","","","",""
"null","audio/beep-329314.mp3","null","audio-keyboard-response","125","2.1.0","419898","F=YES, J=NO","f1vyg0p4vn","2","55","85","25","","","","","","","","","","","","","","","",""
"null","audio/battle1.wav","null","audio-keyboard-response","126","2.1.0","420558","F=YES, J=NO","f1vyg0p4vn","2","55","85","25","","","","","","","","","","","","","","","",""
"401","
          <p id=""word"" style=""font-size: 40px;"">boil</p>
          <p style=""font-size: 16px;"">F = YES &nbsp;&nbsp;&nbsp; J = NO</p>
        ","f","html-keyboard-response","127","2.1.0","420962","F=YES, J=NO","f1vyg0p4vn","2","55","85","25","","","","","","","","","boil","battle1","filler","filler","f","true","",""
"null","<p style=""font-size: 50px;"">+</p>","null","html-keyboard-response","128","2.1.0","421263","F=YES, J=NO","f1vyg0p4vn","2","55","85","25","","","","","","","","","","","","","","","",""
"null","audio/beep-329314.mp3","null","audio-keyboard-response","129","2.1.0","422769","F=YES, J=NO","f1vyg0p4vn","2","55","85","25","","","","","","","","","","","","","","","",""
"null","audio/window1.wav","null","audio-keyboard-response","130","2.1.0","423598","F=YES, J=NO","f1vyg0p4vn","2","55","85","25","","","","","","","","","","","","","","","",""
"648","
          <p id=""word"" style=""font-size: 40px;"">toss</p>
          <p style=""font-size: 16px;"">F = YES &nbsp;&nbsp;&nbsp; J = NO</p>
        ","f","html-keyboard-response","131","2.1.0","424249","F=YES, J=NO","f1vyg0p4vn","2","55","85","25","","","","","","","","","toss","window1","filler","filler","f","true","",""
"null","<p style=""font-size: 50px;"">+</p>","null","html-keyboard-response","132","2.1.0","424551","F=YES, J=NO","f1vyg0p4vn","2","55","85","25","","","","","","","","","","","","","","","",""
"null","audio/beep-329314.mp3","null","audio-keyboard-response","133","2.1.0","426068","F=YES, J=NO","f1vyg0p4vn","2","55","85","25","","","","","","","","","","","","","","","",""
"null","audio/heart1.wav","null","audio-keyboard-response","134","2.1.0","426658","F=YES, J=NO","f1vyg0p4vn","2","55","85","25","","","","","","","","","","","","","","","",""
"1038","
          <p id=""word"" style=""font-size: 40px;"">dralm</p>
          <p style=""font-size: 16px;"">F = YES &nbsp;&nbsp;&nbsp; J = NO</p>
        ","j","html-keyboard-response","135","2.1.0","427697","F=YES, J=NO","f1vyg0p4vn","2","55","85","25","","","","","","","","","dralm","heart1","pseudoword","pseudoword","j","true","",""
"null","<p style=""font-size: 50px;"">+</p>","null","html-keyboard-response","136","2.1.0","427999","F=YES, J=NO","f1vyg0p4vn","2","55","85","25","","","","","","","","","","","","","","","",""
"null","audio/beep-329314.mp3","null","audio-keyboard-response","137","2.1.0","429509","F=YES, J=NO","f1vyg0p4vn","2","55","85","25","","","","","","","","","","","","","","","",""
"null","audio/client1.wav","null","audio-keyboard-response","138","2.1.0","430458","F=YES, J=NO","f1vyg0p4vn","2","55","85","25","","","","","","","","","","","","","","","",""
"388","
          <p id=""word"" style=""font-size: 40px;"">droothe</p>
          <p style=""font-size: 16px;"">F = YES &nbsp;&nbsp;&nbsp; J = NO</p>
        ","f","html-keyboard-response","139","2.1.0","430849","F=YES, J=NO","f1vyg0p4vn","2","55","85","25","","","","","","","","","droothe","client1","pseudoword","pseudoword","j","false","",""
"null","<p style=""font-size: 50px;"">+</p>","null","html-keyboard-response","140","2.1.0","431151","F=YES, J=NO","f1vyg0p4vn","2","55","85","25","","","","","","","","","","","","","","","",""
"null","audio/beep-329314.mp3","null","audio-keyboard-response","141","2.1.0","432658","F=YES, J=NO","f1vyg0p4vn","2","55","85","25","","","","","","","","","","","","","","","",""
"null","audio/novel.wav","null","audio-keyboard-response","142","2.1.0","433127","F=YES, J=NO","f1vyg0p4vn","2","55","85","25","","","","","","","","","","","","","","","",""
"590","
          <p id=""word"" style=""font-size: 40px;"">type</p>
          <p style=""font-size: 16px;"">F = YES &nbsp;&nbsp;&nbsp; J = NO</p>
        ","f","html-keyboard-response","143","2.1.0","433721","F=YES, J=NO","f1vyg0p4vn","2","55","85","25","","","","","","","","","type","novel","filler","filler","f","true","",""
"null","<p style=""font-size: 50px;"">+</p>","null","html-keyboard-response","144","2.1.0","434023","F=YES, J=NO","f1vyg0p4vn","2","55","85","25","","","","","","","","","","","","","","","",""
"null","audio/beep-329314.mp3","null","audio-keyboard-response","145","2.1.0","435528","F=YES, J=NO","f1vyg0p4vn","2","55","85","25","","","","","","","","","","","","","","","",""
"null","audio/arm.wav","null","audio-keyboard-response","146","2.1.0","436038","F=YES, J=NO","f1vyg0p4vn","2","55","85","25","","","","","","","","","","","","","","","",""
"569","
          <p id=""word"" style=""font-size: 40px;"">fold</p>
          <p style=""font-size: 16px;"">F = YES &nbsp;&nbsp;&nbsp; J = NO</p>
        ","f","html-keyboard-response","147","2.1.0","436609","F=YES, J=NO","f1vyg0p4vn","2","55","85","25","","","","","","","","","fold","arm","filler","filler","f","true","",""
"null","<p style=""font-size: 50px;"">+</p>","null","html-keyboard-response","148","2.1.0","436911","F=YES, J=NO","f1vyg0p4vn","2","55","85","25","","","","","","","","","","","","","","","",""
"null","audio/beep-329314.mp3","null","audio-keyboard-response","149","2.1.0","438417","F=YES, J=NO","f1vyg0p4vn","2","55","85","25","","","","","","","","","","","","","","","",""
"null","audio/belief.wav","null","audio-keyboard-response","150","2.1.0","439167","F=YES, J=NO","f1vyg0p4vn","2","55","85","25","","","","","","","","","","","","","","","",""
"474","
          <p id=""word"" style=""font-size: 40px;"">read</p>
          <p style=""font-size: 16px;"">F = YES &nbsp;&nbsp;&nbsp; J = NO</p>
        ","f","html-keyboard-response","151","2.1.0","439650","F=YES, J=NO","f1vyg0p4vn","2","55","85","25","","","","","","","","","read","belief","filler","filler","f","true","",""
"null","<p style=""font-size: 50px;"">+</p>","null","html-keyboard-response","152","2.1.0","439951","F=YES, J=NO","f1vyg0p4vn","2","55","85","25","","","","","","","","","","","","","","","",""
"null","audio/beep-329314.mp3","null","audio-keyboard-response","153","2.1.0","441458","F=YES, J=NO","f1vyg0p4vn","2","55","85","25","","","","","","","","","","","","","","","",""
"null","audio/bottle.wav","null","audio-keyboard-response","154","2.1.0","442127","F=YES, J=NO","f1vyg0p4vn","2","55","85","25","","","","","","","","","","","","","","","",""
"383","
          <p id=""word"" style=""font-size: 40px;"">watch</p>
          <p style=""font-size: 16px;"">F = YES &nbsp;&nbsp;&nbsp; J = NO</p>
        ","f","html-keyboard-response","155","2.1.0","442512","F=YES, J=NO","f1vyg0p4vn","2","55","85","25","","","","","","","","","watch","bottle","filler","filler","f","true","",""
"null","<p style=""font-size: 50px;"">+</p>","null","html-keyboard-response","156","2.1.0","442815","F=YES, J=NO","f1vyg0p4vn","2","55","85","25","","","","","","","","","","","","","","","",""
"null","audio/beep-329314.mp3","null","audio-keyboard-response","157","2.1.0","444317","F=YES, J=NO","f1vyg0p4vn","2","55","85","25","","","","","","","","","","","","","","","",""
"null","audio/neck.wav","null","audio-keyboard-response","158","2.1.0","444827","F=YES, J=NO","f1vyg0p4vn","2","55","85","25","","","","","","","","","","","","","","","",""
"955","
          <p id=""word"" style=""font-size: 40px;"">werling</p>
          <p style=""font-size: 16px;"">F = YES &nbsp;&nbsp;&nbsp; J = NO</p>
        ","j","html-keyboard-response","159","2.1.0","445784","F=YES, J=NO","f1vyg0p4vn","2","55","85","25","","","","","","","","","werling","neck","pseudoword","pseudoword","j","true","",""
"null","<p style=""font-size: 50px;"">+</p>","null","html-keyboard-response","160","2.1.0","446087","F=YES, J=NO","f1vyg0p4vn","2","55","85","25","","","","","","","","","","","","","","","",""
"null","audio/beep-329314.mp3","null","audio-keyboard-response","161","2.1.0","447598","F=YES, J=NO","f1vyg0p4vn","2","55","85","25","","","","","","","","","","","","","","","",""
"null","audio/menu.wav","null","audio-keyboard-response","162","2.1.0","448388","F=YES, J=NO","f1vyg0p4vn","2","55","85","25","","","","","","","","","","","","","","","",""
"546","
          <p id=""word"" style=""font-size: 40px;"">slice</p>
          <p style=""font-size: 16px;"">F = YES &nbsp;&nbsp;&nbsp; J = NO</p>
        ","f","html-keyboard-response","163","2.1.0","448937","F=YES, J=NO","f1vyg0p4vn","2","55","85","25","","","","","","","","","slice","menu","filler","filler","f","true","",""
"8055","
    <div style=""max-width: 800px; margin: auto; text-align: left;"">
      <h2>Part 2: Main Trials</h2>
      <p>Great job on the practice trials!</p>
      <p>You will now begin the <strong>main set of trials</strong>.</p>
      <p>Remember your key assignments:</p>
      <ul>
        <li><strong>F</strong> = YES (real English word)</li>
        <li><strong>J</strong> = NO (not a real English word)</li>
      </ul>
      <p>Try to respond as <strong>quickly and accurately</strong> as possible.</p>
      <p style=""margin-top: 2em;"">Press any key to begin the main trials.</p>
    </div>
  "," ","html-keyboard-response","164","2.1.0","456992","F=YES, J=NO","f1vyg0p4vn","2","55","85","25","","","","","","","","","","","","","","","",""
"2263","<p>Starting main block 1 of 8. Press any key to continue.</p>"," ","html-keyboard-response","165","2.1.0","459256","F=YES, J=NO","f1vyg0p4vn","2","55","85","25","","","","","","","","","","","","","","","",""
"null","<p style=""font-size: 50px;"">+</p>","null","html-keyboard-response","166","2.1.0","459558","F=YES, J=NO","f1vyg0p4vn","2","55","85","25","","","","","","","","","","","","","","","",""
"null","audio/beep-329314.mp3","null","audio-keyboard-response","167","2.1.0","461094","F=YES, J=NO","f1vyg0p4vn","2","55","85","25","","","","","","","","","","","","","","","",""
"null","audio/tax1.wav","null","audio-keyboard-response","168","2.1.0","461674","F=YES, J=NO","f1vyg0p4vn","2","55","85","25","","","","","","","","","","","","","","","",""
"435","
          <p id=""word"" style=""font-size: 40px;"">snate</p>
          <p style=""font-size: 16px;"">F = YES &nbsp;&nbsp;&nbsp; J = NO</p>
        ","f","html-keyboard-response","169","2.1.0","462112","F=YES, J=NO","f1vyg0p4vn","2","55","85","25","","","","","","","","","snate","tax1","pseudoword","pseudoword","j","false","",""
"null","<p style=""font-size: 50px;"">+</p>","null","html-keyboard-response","170","2.1.0","462415","F=YES, J=NO","f1vyg0p4vn","2","55","85","25","","","","","","","","","","","","","","","",""
"null","audio/beep-329314.mp3","null","audio-keyboard-response","171","2.1.0","463924","F=YES, J=NO","f1vyg0p4vn","2","55","85","25","","","","","","","","","","","","","","","",""
"null","audio/sand.wav","null","audio-keyboard-response","172","2.1.0","464545","F=YES, J=NO","f1vyg0p4vn","2","55","85","25","","","","","","","","","","","","","","","",""
"557","
          <p id=""word"" style=""font-size: 40px;"">proted</p>
          <p style=""font-size: 16px;"">F = YES &nbsp;&nbsp;&nbsp; J = NO</p>
        ","f","html-keyboard-response","173","2.1.0","465104","F=YES, J=NO","f1vyg0p4vn","2","55","85","25","","","","","","","","","proted","sand","pseudoword","pseudoword","j","false","",""
"null","<p style=""font-size: 50px;"">+</p>","null","html-keyboard-response","174","2.1.0","465407","F=YES, J=NO","f1vyg0p4vn","2","55","85","25","","","","","","","","","","","","","","","",""
"null","audio/beep-329314.mp3","null","audio-keyboard-response","175","2.1.0","466915","F=YES, J=NO","f1vyg0p4vn","2","55","85","25","","","","","","","","","","","","","","","",""
"null","audio/mouth1.wav","null","audio-keyboard-response","176","2.1.0","467454","F=YES, J=NO","f1vyg0p4vn","2","55","85","25","","","","","","","","","","","","","","","",""
"759","
          <p id=""word"" style=""font-size: 40px;"">spolial</p>
          <p style=""font-size: 16px;"">F = YES &nbsp;&nbsp;&nbsp; J = NO</p>
        ","j","html-keyboard-response","177","2.1.0","468216","F=YES, J=NO","f1vyg0p4vn","2","55","85","25","","","","","","","","","spolial","mouth1","pseudoword","pseudoword","j","true","",""
"null","<p style=""font-size: 50px;"">+</p>","null","html-keyboard-response","178","2.1.0","468517","F=YES, J=NO","f1vyg0p4vn","2","55","85","25","","","","","","","","","","","","","","","",""
"null","audio/beep-329314.mp3","null","audio-keyboard-response","179","2.1.0","470034","F=YES, J=NO","f1vyg0p4vn","2","55","85","25","","","","","","","","","","","","","","","",""
"null","audio/radio1.wav","null","audio-keyboard-response","180","2.1.0","470603","F=YES, J=NO","f1vyg0p4vn","2","55","85","25","","","","","","","","","","","","","","","",""
"522","
          <p id=""word"" style=""font-size: 40px;"">blanter</p>
          <p style=""font-size: 16px;"">F = YES &nbsp;&nbsp;&nbsp; J = NO</p>
        ","f","html-keyboard-response","181","2.1.0","471136","F=YES, J=NO","f1vyg0p4vn","2","55","85","25","","","","","","","","","blanter","radio1","pseudoword","pseudoword","j","false","",""
"null","<p style=""font-size: 50px;"">+</p>","null","html-keyboard-response","182","2.1.0","471438","F=YES, J=NO","f1vyg0p4vn","2","55","85","25","","","","","","","","","","","","","","","",""
"null","audio/beep-329314.mp3","null","audio-keyboard-response","183","2.1.0","472944","F=YES, J=NO","f1vyg0p4vn","2","55","85","25","","","","","","","","","","","","","","","",""
"null","audio/hotel1.wav","null","audio-keyboard-response","184","2.1.0","473534","F=YES, J=NO","f1vyg0p4vn","2","55","85","25","","","","","","","","","","","","","","","",""
"1040","
          <p id=""word"" style=""font-size: 40px;"">flanter</p>
          <p style=""font-size: 16px;"">F = YES &nbsp;&nbsp;&nbsp; J = NO</p>
        ","f","html-keyboard-response","185","2.1.0","474577","F=YES, J=NO","f1vyg0p4vn","2","55","85","25","","","","","","","","","flanter","hotel1","pseudoword","pseudoword","j","false","",""
"null","<p style=""font-size: 50px;"">+</p>","null","html-keyboard-response","186","2.1.0","474879","F=YES, J=NO","f1vyg0p4vn","2","55","85","25","","","","","","","","","","","","","","","",""
"null","audio/beep-329314.mp3","null","audio-keyboard-response","187","2.1.0","476393","F=YES, J=NO","f1vyg0p4vn","2","55","85","25","","","","","","","","","","","","","","","",""
"null","audio/sugar1.wav","null","audio-keyboard-response","188","2.1.0","476844","F=YES, J=NO","f1vyg0p4vn","2","55","85","25","","","","","","","","","","","","","","","",""
"1089","
          <p id=""word"" style=""font-size: 40px;"">glung</p>
          <p style=""font-size: 16px;"">F = YES &nbsp;&nbsp;&nbsp; J = NO</p>
        ","f","html-keyboard-response","189","2.1.0","477936","F=YES, J=NO","f1vyg0p4vn","2","55","85","25","","","","","","","","","glung","sugar1","pseudoword","pseudoword","j","false","",""
"null","<p style=""font-size: 50px;"">+</p>","null","html-keyboard-response","190","2.1.0","478238","F=YES, J=NO","f1vyg0p4vn","2","55","85","25","","","","","","","","","","","","","","","",""
"null","audio/beep-329314.mp3","null","audio-keyboard-response","191","2.1.0","479754","F=YES, J=NO","f1vyg0p4vn","2","55","85","25","","","","","","","","","","","","","","","",""
"null","audio/milk.wav","null","audio-keyboard-response","192","2.1.0","480294","F=YES, J=NO","f1vyg0p4vn","2","55","85","25","","","","","","","","","","","","","","","",""
"664","
          <p id=""word"" style=""font-size: 40px;"">digest</p>
          <p style=""font-size: 16px;"">F = YES &nbsp;&nbsp;&nbsp; J = NO</p>
        ","f","html-keyboard-response","193","2.1.0","480960","F=YES, J=NO","f1vyg0p4vn","2","55","85","25","","","","","","","","","digest","milk","literal","experimental","f","true","",""
"null","<p style=""font-size: 50px;"">+</p>","null","html-keyboard-response","194","2.1.0","481262","F=YES, J=NO","f1vyg0p4vn","2","55","85","25","","","","","","","","","","","","","","","",""
"null","audio/beep-329314.mp3","null","audio-keyboard-response","195","2.1.0","482763","F=YES, J=NO","f1vyg0p4vn","2","55","85","25","","","","","","","","","","","","","","","",""
"null","audio/empire.wav","null","audio-keyboard-response","196","2.1.0","483364","F=YES, J=NO","f1vyg0p4vn","2","55","85","25","","","","","","","","","","","","","","","",""
"1002","
          <p id=""word"" style=""font-size: 40px;"">slorby</p>
          <p style=""font-size: 16px;"">F = YES &nbsp;&nbsp;&nbsp; J = NO</p>
        ","j","html-keyboard-response","197","2.1.0","484368","F=YES, J=NO","f1vyg0p4vn","2","55","85","25","","","","","","","","","slorby","empire","pseudoword","pseudoword","j","true","",""
"null","<p style=""font-size: 50px;"">+</p>","null","html-keyboard-response","198","2.1.0","484669","F=YES, J=NO","f1vyg0p4vn","2","55","85","25","","","","","","","","","","","","","","","",""
"null","audio/beep-329314.mp3","null","audio-keyboard-response","199","2.1.0","486184","F=YES, J=NO","f1vyg0p4vn","2","55","85","25","","","","","","","","","","","","","","","",""
"null","audio/golf1.wav","null","audio-keyboard-response","200","2.1.0","486714","F=YES, J=NO","f1vyg0p4vn","2","55","85","25","","","","","","","","","","","","","","","",""
"508","
          <p id=""word"" style=""font-size: 40px;"">drabble</p>
          <p style=""font-size: 16px;"">F = YES &nbsp;&nbsp;&nbsp; J = NO</p>
        ","f","html-keyboard-response","201","2.1.0","487224","F=YES, J=NO","f1vyg0p4vn","2","55","85","25","","","","","","","","","drabble","golf1","pseudoword","pseudoword","j","false","",""
"null","<p style=""font-size: 50px;"">+</p>","null","html-keyboard-response","202","2.1.0","487527","F=YES, J=NO","f1vyg0p4vn","2","55","85","25","","","","","","","","","","","","","","","",""
"null","audio/beep-329314.mp3","null","audio-keyboard-response","203","2.1.0","489034","F=YES, J=NO","f1vyg0p4vn","2","55","85","25","","","","","","","","","","","","","","","",""
"null","audio/haste1.wav","null","audio-keyboard-response","204","2.1.0","489563","F=YES, J=NO","f1vyg0p4vn","2","55","85","25","","","","","","","","","","","","","","","",""
"1026","
          <p id=""word"" style=""font-size: 40px;"">coraconate</p>
          <p style=""font-size: 16px;"">F = YES &nbsp;&nbsp;&nbsp; J = NO</p>
        ","f","html-keyboard-response","205","2.1.0","490593","F=YES, J=NO","f1vyg0p4vn","2","55","85","25","","","","","","","","","coraconate","haste1","pseudoword","pseudoword","j","false","",""
"null","<p style=""font-size: 50px;"">+</p>","null","html-keyboard-response","206","2.1.0","490894","F=YES, J=NO","f1vyg0p4vn","2","55","85","25","","","","","","","","","","","","","","","",""
"null","audio/beep-329314.mp3","null","audio-keyboard-response","207","2.1.0","492404","F=YES, J=NO","f1vyg0p4vn","2","55","85","25","","","","","","","","","","","","","","","",""
"null","audio/breath.wav","null","audio-keyboard-response","208","2.1.0","492944","F=YES, J=NO","f1vyg0p4vn","2","55","85","25","","","","","","","","","","","","","","","",""
"590","
          <p id=""word"" style=""font-size: 40px;"">pack</p>
          <p style=""font-size: 16px;"">F = YES &nbsp;&nbsp;&nbsp; J = NO</p>
        ","f","html-keyboard-response","209","2.1.0","493536","F=YES, J=NO","f1vyg0p4vn","2","55","85","25","","","","","","","","","pack","breath","filler","filler","f","true","",""
"null","<p style=""font-size: 50px;"">+</p>","null","html-keyboard-response","210","2.1.0","493837","F=YES, J=NO","f1vyg0p4vn","2","55","85","25","","","","","","","","","","","","","","","",""
"null","audio/beep-329314.mp3","null","audio-keyboard-response","211","2.1.0","495343","F=YES, J=NO","f1vyg0p4vn","2","55","85","25","","","","","","","","","","","","","","","",""
"null","audio/burden.wav","null","audio-keyboard-response","212","2.1.0","495833","F=YES, J=NO","f1vyg0p4vn","2","55","85","25","","","","","","","","","","","","","","","",""
"1124","
          <p id=""word"" style=""font-size: 40px;"">whotth</p>
          <p style=""font-size: 16px;"">F = YES &nbsp;&nbsp;&nbsp; J = NO</p>
        ","j","html-keyboard-response","213","2.1.0","496960","F=YES, J=NO","f1vyg0p4vn","2","55","85","25","","","","","","","","","whotth","burden","pseudoword","pseudoword","j","true","",""
"null","<p style=""font-size: 50px;"">+</p>","null","html-keyboard-response","214","2.1.0","497261","F=YES, J=NO","f1vyg0p4vn","2","55","85","25","","","","","","","","","","","","","","","",""
"null","audio/beep-329314.mp3","null","audio-keyboard-response","215","2.1.0","498773","F=YES, J=NO","f1vyg0p4vn","2","55","85","25","","","","","","","","","","","","","","","",""
"null","audio/scar.wav","null","audio-keyboard-response","216","2.1.0","499343","F=YES, J=NO","f1vyg0p4vn","2","55","85","25","","","","","","","","","","","","","","","",""
"830","
          <p id=""word"" style=""font-size: 40px;"">adelineate</p>
          <p style=""font-size: 16px;"">F = YES &nbsp;&nbsp;&nbsp; J = NO</p>
        ","j","html-keyboard-response","217","2.1.0","500175","F=YES, J=NO","f1vyg0p4vn","2","55","85","25","","","","","","","","","adelineate","scar","pseudoword","pseudoword","j","true","",""
"null","<p style=""font-size: 50px;"">+</p>","null","html-keyboard-response","218","2.1.0","500478","F=YES, J=NO","f1vyg0p4vn","2","55","85","25","","","","","","","","","","","","","","","",""
"null","audio/beep-329314.mp3","null","audio-keyboard-response","219","2.1.0","501992","F=YES, J=NO","f1vyg0p4vn","2","55","85","25","","","","","","","","","","","","","","","",""
"null","audio/bishop1.wav","null","audio-keyboard-response","220","2.1.0","502543","F=YES, J=NO","f1vyg0p4vn","2","55","85","25","","","","","","","","","","","","","","","",""
"413","
          <p id=""word"" style=""font-size: 40px;"">play</p>
          <p style=""font-size: 16px;"">F = YES &nbsp;&nbsp;&nbsp; J = NO</p>
        ","f","html-keyboard-response","221","2.1.0","502959","F=YES, J=NO","f1vyg0p4vn","2","55","85","25","","","","","","","","","play","bishop1","filler","filler","f","true","",""
"null","<p style=""font-size: 50px;"">+</p>","null","html-keyboard-response","222","2.1.0","503261","F=YES, J=NO","f1vyg0p4vn","2","55","85","25","","","","","","","","","","","","","","","",""
"null","audio/beep-329314.mp3","null","audio-keyboard-response","223","2.1.0","504774","F=YES, J=NO","f1vyg0p4vn","2","55","85","25","","","","","","","","","","","","","","","",""
"null","audio/fence.wav","null","audio-keyboard-response","224","2.1.0","505403","F=YES, J=NO","f1vyg0p4vn","2","55","85","25","","","","","","","","","","","","","","","",""
"546","
          <p id=""word"" style=""font-size: 40px;"">trim</p>
          <p style=""font-size: 16px;"">F = YES &nbsp;&nbsp;&nbsp; J = NO</p>
        ","f","html-keyboard-response","225","2.1.0","505951","F=YES, J=NO","f1vyg0p4vn","2","55","85","25","","","","","","","","","trim","fence","filler","filler","f","true","",""
"null","<p style=""font-size: 50px;"">+</p>","null","html-keyboard-response","226","2.1.0","506253","F=YES, J=NO","f1vyg0p4vn","2","55","85","25","","","","","","","","","","","","","","","",""
"null","audio/beep-329314.mp3","null","audio-keyboard-response","227","2.1.0","507763","F=YES, J=NO","f1vyg0p4vn","2","55","85","25","","","","","","","","","","","","","","","",""
"null","audio/cinema1.wav","null","audio-keyboard-response","228","2.1.0","508353","F=YES, J=NO","f1vyg0p4vn","2","55","85","25","","","","","","","","","","","","","","","",""
"548","
          <p id=""word"" style=""font-size: 40px;"">murple</p>
          <p style=""font-size: 16px;"">F = YES &nbsp;&nbsp;&nbsp; J = NO</p>
        ","f","html-keyboard-response","229","2.1.0","508903","F=YES, J=NO","f1vyg0p4vn","2","55","85","25","","","","","","","","","murple","cinema1","pseudoword","pseudoword","j","false","",""
"5623","<p>Excellent! You have finished block 1 of 8.</p>
                     <p>Feel free to take a 30 second break.</p>
                     <p>Press any key when you're ready to continue.</p>"," ","html-keyboard-response","230","2.1.0","514528","F=YES, J=NO","f1vyg0p4vn","2","55","85","25","","","","","","","","","","","","","","","",""
"2581","<p>Starting main block 2 of 8. Press any key to continue.</p>"," ","html-keyboard-response","231","2.1.0","517112","F=YES, J=NO","f1vyg0p4vn","2","55","85","25","","","","","","","","","","","","","","","",""
"null","<p style=""font-size: 50px;"">+</p>","null","html-keyboard-response","232","2.1.0","517414","F=YES, J=NO","f1vyg0p4vn","2","55","85","25","","","","","","","","","","","","","","","",""
"null","audio/beep-329314.mp3","null","audio-keyboard-response","233","2.1.0","518941","F=YES, J=NO","f1vyg0p4vn","2","55","85","25","","","","","","","","","","","","","","","",""
"null","audio/hotel1.wav","null","audio-keyboard-response","234","2.1.0","519530","F=YES, J=NO","f1vyg0p4vn","2","55","85","25","","","","","","","","","","","","","","","",""
"435","
          <p id=""word"" style=""font-size: 40px;"">spread</p>
          <p style=""font-size: 16px;"">F = YES &nbsp;&nbsp;&nbsp; J = NO</p>
        ","f","html-keyboard-response","235","2.1.0","519967","F=YES, J=NO","f1vyg0p4vn","2","55","85","25","","","","","","","","","spread","hotel1","unrelated","experimental","f","true","",""
"null","<p style=""font-size: 50px;"">+</p>","null","html-keyboard-response","236","2.1.0","520268","F=YES, J=NO","f1vyg0p4vn","2","55","85","25","","","","","","","","","","","","","","","",""
"null","audio/beep-329314.mp3","null","audio-keyboard-response","237","2.1.0","521781","F=YES, J=NO","f1vyg0p4vn","2","55","85","25","","","","","","","","","","","","","","","",""
"null","audio/trust.wav","null","audio-keyboard-response","238","2.1.0","522380","F=YES, J=NO","f1vyg0p4vn","2","55","85","25","","","","","","","","","","","","","","","",""
"543","
          <p id=""word"" style=""font-size: 40px;"">swint</p>
          <p style=""font-size: 16px;"">F = YES &nbsp;&nbsp;&nbsp; J = NO</p>
        ","f","html-keyboard-response","239","2.1.0","522927","F=YES, J=NO","f1vyg0p4vn","2","55","85","25","","","","","","","","","swint","trust","pseudoword","pseudoword","j","false","",""
"null","<p style=""font-size: 50px;"">+</p>","null","html-keyboard-response","240","2.1.0","523229","F=YES, J=NO","f1vyg0p4vn","2","55","85","25","","","","","","","","","","","","","","","",""
"null","audio/beep-329314.mp3","null","audio-keyboard-response","241","2.1.0","524730","F=YES, J=NO","f1vyg0p4vn","2","55","85","25","","","","","","","","","","","","","","","",""
"null","audio/tunnel.wav","null","audio-keyboard-response","242","2.1.0","525130","F=YES, J=NO","f1vyg0p4vn","2","55","85","25","","","","","","","","","","","","","","","",""
"995","
          <p id=""word"" style=""font-size: 40px;"">gred</p>
          <p style=""font-size: 16px;"">F = YES &nbsp;&nbsp;&nbsp; J = NO</p>
        ","j","html-keyboard-response","243","2.1.0","526127","F=YES, J=NO","f1vyg0p4vn","2","55","85","25","","","","","","","","","gred","tunnel","pseudoword","pseudoword","j","true","",""
"null","<p style=""font-size: 50px;"">+</p>","null","html-keyboard-response","244","2.1.0","526429","F=YES, J=NO","f1vyg0p4vn","2","55","85","25","","","","","","","","","","","","","","","",""
"null","audio/beep-329314.mp3","null","audio-keyboard-response","245","2.1.0","527940","F=YES, J=NO","f1vyg0p4vn","2","55","85","25","","","","","","","","","","","","","","","",""
"null","audio/kettle1.wav","null","audio-keyboard-response","246","2.1.0","528370","F=YES, J=NO","f1vyg0p4vn","2","55","85","25","","","","","","","","","","","","","","","",""
"491","
          <p id=""word"" style=""font-size: 40px;"">wrap</p>
          <p style=""font-size: 16px;"">F = YES &nbsp;&nbsp;&nbsp; J = NO</p>
        ","f","html-keyboard-response","247","2.1.0","528863","F=YES, J=NO","f1vyg0p4vn","2","55","85","25","","","","","","","","","wrap","kettle1","filler","filler","f","true","",""
"null","<p style=""font-size: 50px;"">+</p>","null","html-keyboard-response","248","2.1.0","529164","F=YES, J=NO","f1vyg0p4vn","2","55","85","25","","","","","","","","","","","","","","","",""
"null","audio/beep-329314.mp3","null","audio-keyboard-response","249","2.1.0","530670","F=YES, J=NO","f1vyg0p4vn","2","55","85","25","","","","","","","","","","","","","","","",""
"null","audio/road.wav","null","audio-keyboard-response","250","2.1.0","531070","F=YES, J=NO","f1vyg0p4vn","2","55","85","25","","","","","","","","","","","","","","","",""
"423","
          <p id=""word"" style=""font-size: 40px;"">flood</p>
          <p style=""font-size: 16px;"">F = YES &nbsp;&nbsp;&nbsp; J = NO</p>
        ","f","html-keyboard-response","251","2.1.0","531494","F=YES, J=NO","f1vyg0p4vn","2","55","85","25","","","","","","","","","flood","road","literal","experimental","f","true","",""
"null","<p style=""font-size: 50px;"">+</p>","null","html-keyboard-response","252","2.1.0","531797","F=YES, J=NO","f1vyg0p4vn","2","55","85","25","","","","","","","","","","","","","","","",""
"null","audio/beep-329314.mp3","null","audio-keyboard-response","253","2.1.0","533300","F=YES, J=NO","f1vyg0p4vn","2","55","85","25","","","","","","","","","","","","","","","",""
"null","audio/brain.wav","null","audio-keyboard-response","254","2.1.0","533750","F=YES, J=NO","f1vyg0p4vn","2","55","85","25","","","","","","","","","","","","","","","",""
"477","
          <p id=""word"" style=""font-size: 40px;"">throw</p>
          <p style=""font-size: 16px;"">F = YES &nbsp;&nbsp;&nbsp; J = NO</p>
        ","f","html-keyboard-response","255","2.1.0","534231","F=YES, J=NO","f1vyg0p4vn","2","55","85","25","","","","","","","","","throw","brain","filler","filler","f","true","",""
"null","<p style=""font-size: 50px;"">+</p>","null","html-keyboard-response","256","2.1.0","534532","F=YES, J=NO","f1vyg0p4vn","2","55","85","25","","","","","","","","","","","","","","","",""
"null","audio/beep-329314.mp3","null","audio-keyboard-response","257","2.1.0","536040","F=YES, J=NO","f1vyg0p4vn","2","55","85","25","","","","","","","","","","","","","","","",""
"null","audio/theory1.wav","null","audio-keyboard-response","258","2.1.0","536650","F=YES, J=NO","f1vyg0p4vn","2","55","85","25","","","","","","","","","","","","","","","",""
"498","
          <p id=""word"" style=""font-size: 40px;"">construct</p>
          <p style=""font-size: 16px;"">F = YES &nbsp;&nbsp;&nbsp; J = NO</p>
        ","f","html-keyboard-response","259","2.1.0","537151","F=YES, J=NO","f1vyg0p4vn","2","55","85","25","","","","","","","","","construct","theory1","metaphor","experimental","f","true","",""
"null","<p style=""font-size: 50px;"">+</p>","null","html-keyboard-response","260","2.1.0","537453","F=YES, J=NO","f1vyg0p4vn","2","55","85","25","","","","","","","","","","","","","","","",""
"null","audio/beep-329314.mp3","null","audio-keyboard-response","261","2.1.0","538960","F=YES, J=NO","f1vyg0p4vn","2","55","85","25","","","","","","","","","","","","","","","",""
"null","audio/hawk1.wav","null","audio-keyboard-response","262","2.1.0","539530","F=YES, J=NO","f1vyg0p4vn","2","55","85","25","","","","","","","","","","","","","","","",""
"937","
          <p id=""word"" style=""font-size: 40px;"">ostach</p>
          <p style=""font-size: 16px;"">F = YES &nbsp;&nbsp;&nbsp; J = NO</p>
        ","f","html-keyboard-response","263","2.1.0","540479","F=YES, J=NO","f1vyg0p4vn","2","55","85","25","","","","","","","","","ostach","hawk1","pseudoword","pseudoword","j","false","",""
"null","<p style=""font-size: 50px;"">+</p>","null","html-keyboard-response","264","2.1.0","540781","F=YES, J=NO","f1vyg0p4vn","2","55","85","25","","","","","","","","","","","","","","","",""
"null","audio/beep-329314.mp3","null","audio-keyboard-response","265","2.1.0","542291","F=YES, J=NO","f1vyg0p4vn","2","55","85","25","","","","","","","","","","","","","","","",""
"null","audio/age1.wav","null","audio-keyboard-response","266","2.1.0","542819","F=YES, J=NO","f1vyg0p4vn","2","55","85","25","","","","","","","","","","","","","","","",""
"847","
          <p id=""word"" style=""font-size: 40px;"">lachry</p>
          <p style=""font-size: 16px;"">F = YES &nbsp;&nbsp;&nbsp; J = NO</p>
        ","j","html-keyboard-response","267","2.1.0","543670","F=YES, J=NO","f1vyg0p4vn","2","55","85","25","","","","","","","","","lachry","age1","pseudoword","pseudoword","j","true","",""
"null","<p style=""font-size: 50px;"">+</p>","null","html-keyboard-response","268","2.1.0","543973","F=YES, J=NO","f1vyg0p4vn","2","55","85","25","","","","","","","","","","","","","","","",""
"null","audio/beep-329314.mp3","null","audio-keyboard-response","269","2.1.0","545490","F=YES, J=NO","f1vyg0p4vn","2","55","85","25","","","","","","","","","","","","","","","",""
"null","audio/camera1.wav","null","audio-keyboard-response","270","2.1.0","545949","F=YES, J=NO","f1vyg0p4vn","2","55","85","25","","","","","","","","","","","","","","","",""
"567","
          <p id=""word"" style=""font-size: 40px;"">stir</p>
          <p style=""font-size: 16px;"">F = YES &nbsp;&nbsp;&nbsp; J = NO</p>
        ","f","html-keyboard-response","271","2.1.0","546519","F=YES, J=NO","f1vyg0p4vn","2","55","85","25","","","","","","","","","stir","camera1","filler","filler","f","true","",""
"null","<p style=""font-size: 50px;"">+</p>","null","html-keyboard-response","272","2.1.0","546820","F=YES, J=NO","f1vyg0p4vn","2","55","85","25","","","","","","","","","","","","","","","",""
"null","audio/beep-329314.mp3","null","audio-keyboard-response","273","2.1.0","548329","F=YES, J=NO","f1vyg0p4vn","2","55","85","25","","","","","","","","","","","","","","","",""
"null","audio/mile1.wav","null","audio-keyboard-response","274","2.1.0","548780","F=YES, J=NO","f1vyg0p4vn","2","55","85","25","","","","","","","","","","","","","","","",""
"462","
          <p id=""word"" style=""font-size: 40px;"">run</p>
          <p style=""font-size: 16px;"">F = YES &nbsp;&nbsp;&nbsp; J = NO</p>
        ","f","html-keyboard-response","275","2.1.0","549246","F=YES, J=NO","f1vyg0p4vn","2","55","85","25","","","","","","","","","run","mile1","literal","experimental","f","true","",""
"null","<p style=""font-size: 50px;"">+</p>","null","html-keyboard-response","276","2.1.0","549548","F=YES, J=NO","f1vyg0p4vn","2","55","85","25","","","","","","","","","","","","","","","",""
"null","audio/beep-329314.mp3","null","audio-keyboard-response","277","2.1.0","551059","F=YES, J=NO","f1vyg0p4vn","2","55","85","25","","","","","","","","","","","","","","","",""
"null","audio/mind.wav","null","audio-keyboard-response","278","2.1.0","551600","F=YES, J=NO","f1vyg0p4vn","2","55","85","25","","","","","","","","","","","","","","","",""
"388","
          <p id=""word"" style=""font-size: 40px;"">crainate</p>
          <p style=""font-size: 16px;"">F = YES &nbsp;&nbsp;&nbsp; J = NO</p>
        ","f","html-keyboard-response","279","2.1.0","551990","F=YES, J=NO","f1vyg0p4vn","2","55","85","25","","","","","","","","","crainate","mind","pseudoword","pseudoword","j","false","",""
"null","<p style=""font-size: 50px;"">+</p>","null","html-keyboard-response","280","2.1.0","552293","F=YES, J=NO","f1vyg0p4vn","2","55","85","25","","","","","","","","","","","","","","","",""
"null","audio/beep-329314.mp3","null","audio-keyboard-response","281","2.1.0","553800","F=YES, J=NO","f1vyg0p4vn","2","55","85","25","","","","","","","","","","","","","","","",""
"null","audio/show.wav","null","audio-keyboard-response","282","2.1.0","554310","F=YES, J=NO","f1vyg0p4vn","2","55","85","25","","","","","","","","","","","","","","","",""
"551","
          <p id=""word"" style=""font-size: 40px;"">hold</p>
          <p style=""font-size: 16px;"">F = YES &nbsp;&nbsp;&nbsp; J = NO</p>
        ","f","html-keyboard-response","283","2.1.0","554863","F=YES, J=NO","f1vyg0p4vn","2","55","85","25","","","","","","","","","hold","show","metaphor","experimental","f","true","",""
"null","<p style=""font-size: 50px;"">+</p>","null","html-keyboard-response","284","2.1.0","555165","F=YES, J=NO","f1vyg0p4vn","2","55","85","25","","","","","","","","","","","","","","","",""
"null","audio/beep-329314.mp3","null","audio-keyboard-response","285","2.1.0","556668","F=YES, J=NO","f1vyg0p4vn","2","55","85","25","","","","","","","","","","","","","","","",""
"null","audio/train.wav","null","audio-keyboard-response","286","2.1.0","557149","F=YES, J=NO","f1vyg0p4vn","2","55","85","25","","","","","","","","","","","","","","","",""
"470","
          <p id=""word"" style=""font-size: 40px;"">catch</p>
          <p style=""font-size: 16px;"">F = YES &nbsp;&nbsp;&nbsp; J = NO</p>
        ","f","html-keyboard-response","287","2.1.0","557622","F=YES, J=NO","f1vyg0p4vn","2","55","85","25","","","","","","","","","catch","train","metaphor","experimental","f","true","",""
"null","<p style=""font-size: 50px;"">+</p>","null","html-keyboard-response","288","2.1.0","557925","F=YES, J=NO","f1vyg0p4vn","2","55","85","25","","","","","","","","","","","","","","","",""
"null","audio/beep-329314.mp3","null","audio-keyboard-response","289","2.1.0","559429","F=YES, J=NO","f1vyg0p4vn","2","55","85","25","","","","","","","","","","","","","","","",""
"null","audio/smirk1.wav","null","audio-keyboard-response","290","2.1.0","560120","F=YES, J=NO","f1vyg0p4vn","2","55","85","25","","","","","","","","","","","","","","","",""
"820","
          <p id=""word"" style=""font-size: 40px;"">snopt</p>
          <p style=""font-size: 16px;"">F = YES &nbsp;&nbsp;&nbsp; J = NO</p>
        ","j","html-keyboard-response","291","2.1.0","560942","F=YES, J=NO","f1vyg0p4vn","2","55","85","25","","","","","","","","","snopt","smirk1","pseudoword","pseudoword","j","true","",""
"null","<p style=""font-size: 50px;"">+</p>","null","html-keyboard-response","292","2.1.0","561244","F=YES, J=NO","f1vyg0p4vn","2","55","85","25","","","","","","","","","","","","","","","",""
"null","audio/beep-329314.mp3","null","audio-keyboard-response","293","2.1.0","562759","F=YES, J=NO","f1vyg0p4vn","2","55","85","25","","","","","","","","","","","","","","","",""
"null","audio/handle.wav","null","audio-keyboard-response","294","2.1.0","563349","F=YES, J=NO","f1vyg0p4vn","2","55","85","25","","","","","","","","","","","","","","","",""
"623","
          <p id=""word"" style=""font-size: 40px;"">grasp</p>
          <p style=""font-size: 16px;"">F = YES &nbsp;&nbsp;&nbsp; J = NO</p>
        ","f","html-keyboard-response","295","2.1.0","563974","F=YES, J=NO","f1vyg0p4vn","2","55","85","25","","","","","","","","","grasp","handle","literal","experimental","f","true","",""
"1608","<p>Excellent! You have finished block 2 of 8.</p>
                     <p>Feel free to take a 30 second break.</p>
                     <p>Press any key when you're ready to continue.</p>"," ","html-keyboard-response","296","2.1.0","565582","F=YES, J=NO","f1vyg0p4vn","2","55","85","25","","","","","","","","","","","","","","","",""
"2038","<p>Starting main block 3 of 8. Press any key to continue.</p>"," ","html-keyboard-response","297","2.1.0","567622","F=YES, J=NO","f1vyg0p4vn","2","55","85","25","","","","","","","","","","","","","","","",""
"null","<p style=""font-size: 50px;"">+</p>","null","html-keyboard-response","298","2.1.0","567924","F=YES, J=NO","f1vyg0p4vn","2","55","85","25","","","","","","","","","","","","","","","",""
"null","audio/beep-329314.mp3","null","audio-keyboard-response","299","2.1.0","569456","F=YES, J=NO","f1vyg0p4vn","2","55","85","25","","","","","","","","","","","","","","","",""
"null","audio/survey1.wav","null","audio-keyboard-response","300","2.1.0","570157","F=YES, J=NO","f1vyg0p4vn","2","55","85","25","","","","","","","","","","","","","","","",""
"648","
          <p id=""word"" style=""font-size: 40px;"">release</p>
          <p style=""font-size: 16px;"">F = YES &nbsp;&nbsp;&nbsp; J = NO</p>
        ","f","html-keyboard-response","301","2.1.0","570807","F=YES, J=NO","f1vyg0p4vn","2","55","85","25","","","","","","","","","release","survey1","metaphor","experimental","f","true","",""
"null","<p style=""font-size: 50px;"">+</p>","null","html-keyboard-response","302","2.1.0","571108","F=YES, J=NO","f1vyg0p4vn","2","55","85","25","","","","","","","","","","","","","","","",""
"null","audio/beep-329314.mp3","null","audio-keyboard-response","303","2.1.0","572627","F=YES, J=NO","f1vyg0p4vn","2","55","85","25","","","","","","","","","","","","","","","",""
"null","audio/corpse1.wav","null","audio-keyboard-response","304","2.1.0","573236","F=YES, J=NO","f1vyg0p4vn","2","55","85","25","","","","","","","","","","","","","","","",""
"391","
          <p id=""word"" style=""font-size: 40px;"">bury</p>
          <p style=""font-size: 16px;"">F = YES &nbsp;&nbsp;&nbsp; J = NO</p>
        ","f","html-keyboard-response","305","2.1.0","573630","F=YES, J=NO","f1vyg0p4vn","2","55","85","25","","","","","","","","","bury","corpse1","literal","experimental","f","true","",""
"null","<p style=""font-size: 50px;"">+</p>","null","html-keyboard-response","306","2.1.0","573931","F=YES, J=NO","f1vyg0p4vn","2","55","85","25","","","","","","","","","","","","","","","",""
"null","audio/beep-329314.mp3","null","audio-keyboard-response","307","2.1.0","575436","F=YES, J=NO","f1vyg0p4vn","2","55","85","25","","","","","","","","","","","","","","","",""
"null","audio/ankle1.wav","null","audio-keyboard-response","308","2.1.0","575946","F=YES, J=NO","f1vyg0p4vn","2","55","85","25","","","","","","","","","","","","","","","",""
"489","
          <p id=""word"" style=""font-size: 40px;"">kick</p>
          <p style=""font-size: 16px;"">F = YES &nbsp;&nbsp;&nbsp; J = NO</p>
        ","f","html-keyboard-response","309","2.1.0","576439","F=YES, J=NO","f1vyg0p4vn","2","55","85","25","","","","","","","","","kick","ankle1","filler","filler","f","true","",""
"null","<p style=""font-size: 50px;"">+</p>","null","html-keyboard-response","310","2.1.0","576740","F=YES, J=NO","f1vyg0p4vn","2","55","85","25","","","","","","","","","","","","","","","",""
"null","audio/beep-329314.mp3","null","audio-keyboard-response","311","2.1.0","578246","F=YES, J=NO","f1vyg0p4vn","2","55","85","25","","","","","","","","","","","","","","","",""
"null","audio/cancer1.wav","null","audio-keyboard-response","312","2.1.0","578776","F=YES, J=NO","f1vyg0p4vn","2","55","85","25","","","","","","","","","","","","","","","",""
"444","
          <p id=""word"" style=""font-size: 40px;"">draw</p>
          <p style=""font-size: 16px;"">F = YES &nbsp;&nbsp;&nbsp; J = NO</p>
        ","f","html-keyboard-response","313","2.1.0","579222","F=YES, J=NO","f1vyg0p4vn","2","55","85","25","","","","","","","","","draw","cancer1","filler","filler","f","true","",""
"null","<p style=""font-size: 50px;"">+</p>","null","html-keyboard-response","314","2.1.0","579524","F=YES, J=NO","f1vyg0p4vn","2","55","85","25","","","","","","","","","","","","","","","",""
"null","audio/beep-329314.mp3","null","audio-keyboard-response","315","2.1.0","581036","F=YES, J=NO","f1vyg0p4vn","2","55","85","25","","","","","","","","","","","","","","","",""
"null","audio/cloud1.wav","null","audio-keyboard-response","316","2.1.0","581556","F=YES, J=NO","f1vyg0p4vn","2","55","85","25","","","","","","","","","","","","","","","",""
"639","
          <p id=""word"" style=""font-size: 40px;"">brotant</p>
          <p style=""font-size: 16px;"">F = YES &nbsp;&nbsp;&nbsp; J = NO</p>
        ","j","html-keyboard-response","317","2.1.0","582198","F=YES, J=NO","f1vyg0p4vn","2","55","85","25","","","","","","","","","brotant","cloud1","pseudoword","pseudoword","j","true","",""
"null","<p style=""font-size: 50px;"">+</p>","null","html-keyboard-response","318","2.1.0","582499","F=YES, J=NO","f1vyg0p4vn","2","55","85","25","","","","","","","","","","","","","","","",""
"null","audio/beep-329314.mp3","null","audio-keyboard-response","319","2.1.0","584007","F=YES, J=NO","f1vyg0p4vn","2","55","85","25","","","","","","","","","","","","","","","",""
"null","audio/neck.wav","null","audio-keyboard-response","320","2.1.0","584516","F=YES, J=NO","f1vyg0p4vn","2","55","85","25","","","","","","","","","","","","","","","",""
"393","
          <p id=""word"" style=""font-size: 40px;"">share</p>
          <p style=""font-size: 16px;"">F = YES &nbsp;&nbsp;&nbsp; J = NO</p>
        ","f","html-keyboard-response","321","2.1.0","584911","F=YES, J=NO","f1vyg0p4vn","2","55","85","25","","","","","","","","","share","neck","unrelated","experimental","f","true","",""
"null","<p style=""font-size: 50px;"">+</p>","null","html-keyboard-response","322","2.1.0","585212","F=YES, J=NO","f1vyg0p4vn","2","55","85","25","","","","","","","","","","","","","","","",""
"null","audio/beep-329314.mp3","null","audio-keyboard-response","323","2.1.0","586716","F=YES, J=NO","f1vyg0p4vn","2","55","85","25","","","","","","","","","","","","","","","",""
"null","audio/pride1.wav","null","audio-keyboard-response","324","2.1.0","587256","F=YES, J=NO","f1vyg0p4vn","2","55","85","25","","","","","","","","","","","","","","","",""
"548","
          <p id=""word"" style=""font-size: 40px;"">hurt</p>
          <p style=""font-size: 16px;"">F = YES &nbsp;&nbsp;&nbsp; J = NO</p>
        ","f","html-keyboard-response","325","2.1.0","587806","F=YES, J=NO","f1vyg0p4vn","2","55","85","25","","","","","","","","","hurt","pride1","metaphor","experimental","f","true","",""
"null","<p style=""font-size: 50px;"">+</p>","null","html-keyboard-response","326","2.1.0","588108","F=YES, J=NO","f1vyg0p4vn","2","55","85","25","","","","","","","","","","","","","","","",""
"null","audio/beep-329314.mp3","null","audio-keyboard-response","327","2.1.0","589617","F=YES, J=NO","f1vyg0p4vn","2","55","85","25","","","","","","","","","","","","","","","",""
"null","audio/dome.wav","null","audio-keyboard-response","328","2.1.0","590026","F=YES, J=NO","f1vyg0p4vn","2","55","85","25","","","","","","","","","","","","","","","",""
"849","
          <p id=""word"" style=""font-size: 40px;"">scrupliness</p>
          <p style=""font-size: 16px;"">F = YES &nbsp;&nbsp;&nbsp; J = NO</p>
        ","j","html-keyboard-response","329","2.1.0","590878","F=YES, J=NO","f1vyg0p4vn","2","55","85","25","","","","","","","","","scrupliness","dome","pseudoword","pseudoword","j","true","",""
"null","<p style=""font-size: 50px;"">+</p>","null","html-keyboard-response","330","2.1.0","591179","F=YES, J=NO","f1vyg0p4vn","2","55","85","25","","","","","","","","","","","","","","","",""
"null","audio/beep-329314.mp3","null","audio-keyboard-response","331","2.1.0","592686","F=YES, J=NO","f1vyg0p4vn","2","55","85","25","","","","","","","","","","","","","","","",""
"null","audio/planet1.wav","null","audio-keyboard-response","332","2.1.0","593256","F=YES, J=NO","f1vyg0p4vn","2","55","85","25","","","","","","","","","","","","","","","",""
"468","
          <p id=""word"" style=""font-size: 40px;"">cratched</p>
          <p style=""font-size: 16px;"">F = YES &nbsp;&nbsp;&nbsp; J = NO</p>
        ","f","html-keyboard-response","333","2.1.0","593726","F=YES, J=NO","f1vyg0p4vn","2","55","85","25","","","","","","","","","cratched","planet1","pseudoword","pseudoword","j","false","",""
"null","<p style=""font-size: 50px;"">+</p>","null","html-keyboard-response","334","2.1.0","594027","F=YES, J=NO","f1vyg0p4vn","2","55","85","25","","","","","","","","","","","","","","","",""
"null","audio/beep-329314.mp3","null","audio-keyboard-response","335","2.1.0","595535","F=YES, J=NO","f1vyg0p4vn","2","55","85","25","","","","","","","","","","","","","","","",""
"null","audio/gold1.wav","null","audio-keyboard-response","336","2.1.0","596046","F=YES, J=NO","f1vyg0p4vn","2","55","85","25","","","","","","","","","","","","","","","",""
"542","
          <p id=""word"" style=""font-size: 40px;"">sell</p>
          <p style=""font-size: 16px;"">F = YES &nbsp;&nbsp;&nbsp; J = NO</p>
        ","f","html-keyboard-response","337","2.1.0","596591","F=YES, J=NO","f1vyg0p4vn","2","55","85","25","","","","","","","","","sell","gold1","literal","experimental","f","true","",""
"null","<p style=""font-size: 50px;"">+</p>","null","html-keyboard-response","338","2.1.0","596893","F=YES, J=NO","f1vyg0p4vn","2","55","85","25","","","","","","","","","","","","","","","",""
"null","audio/beep-329314.mp3","null","audio-keyboard-response","339","2.1.0","598396","F=YES, J=NO","f1vyg0p4vn","2","55","85","25","","","","","","","","","","","","","","","",""
"null","audio/case1.wav","null","audio-keyboard-response","340","2.1.0","598885","F=YES, J=NO","f1vyg0p4vn","2","55","85","25","","","","","","","","","","","","","","","",""
"414","
          <p id=""word"" style=""font-size: 40px;"">close</p>
          <p style=""font-size: 16px;"">F = YES &nbsp;&nbsp;&nbsp; J = NO</p>
        ","f","html-keyboard-response","341","2.1.0","599302","F=YES, J=NO","f1vyg0p4vn","2","55","85","25","","","","","","","","","close","case1","metaphor","experimental","f","true","",""
"null","<p style=""font-size: 50px;"">+</p>","null","html-keyboard-response","342","2.1.0","599603","F=YES, J=NO","f1vyg0p4vn","2","55","85","25","","","","","","","","","","","","","","","",""
"null","audio/beep-329314.mp3","null","audio-keyboard-response","343","2.1.0","601106","F=YES, J=NO","f1vyg0p4vn","2","55","85","25","","","","","","","","","","","","","","","",""
"null","audio/garden1.wav","null","audio-keyboard-response","344","2.1.0","601606","F=YES, J=NO","f1vyg0p4vn","2","55","85","25","","","","","","","","","","","","","","","",""
"374","
          <p id=""word"" style=""font-size: 40px;"">invest</p>
          <p style=""font-size: 16px;"">F = YES &nbsp;&nbsp;&nbsp; J = NO</p>
        ","f","html-keyboard-response","345","2.1.0","601981","F=YES, J=NO","f1vyg0p4vn","2","55","85","25","","","","","","","","","invest","garden1","unrelated","experimental","f","true","",""
"null","<p style=""font-size: 50px;"">+</p>","null","html-keyboard-response","346","2.1.0","602283","F=YES, J=NO","f1vyg0p4vn","2","55","85","25","","","","","","","","","","","","","","","",""
"null","audio/beep-329314.mp3","null","audio-keyboard-response","347","2.1.0","603795","F=YES, J=NO","f1vyg0p4vn","2","55","85","25","","","","","","","","","","","","","","","",""
"null","audio/radio1.wav","null","audio-keyboard-response","348","2.1.0","604376","F=YES, J=NO","f1vyg0p4vn","2","55","85","25","","","","","","","","","","","","","","","",""
"460","
          <p id=""word"" style=""font-size: 40px;"">spend</p>
          <p style=""font-size: 16px;"">F = YES &nbsp;&nbsp;&nbsp; J = NO</p>
        ","f","html-keyboard-response","349","2.1.0","604838","F=YES, J=NO","f1vyg0p4vn","2","55","85","25","","","","","","","","","spend","radio1","unrelated","experimental","f","true","",""
"null","<p style=""font-size: 50px;"">+</p>","null","html-keyboard-response","350","2.1.0","605140","F=YES, J=NO","f1vyg0p4vn","2","55","85","25","","","","","","","","","","","","","","","",""
"null","audio/beep-329314.mp3","null","audio-keyboard-response","351","2.1.0","606646","F=YES, J=NO","f1vyg0p4vn","2","55","85","25","","","","","","","","","","","","","","","",""
"null","audio/truth1.wav","null","audio-keyboard-response","352","2.1.0","607176","F=YES, J=NO","f1vyg0p4vn","2","55","85","25","","","","","","","","","","","","","","","",""
"691","
          <p id=""word"" style=""font-size: 40px;"">calitom</p>
          <p style=""font-size: 16px;"">F = YES &nbsp;&nbsp;&nbsp; J = NO</p>
        ","j","html-keyboard-response","353","2.1.0","607869","F=YES, J=NO","f1vyg0p4vn","2","55","85","25","","","","","","","","","calitom","truth1","pseudoword","pseudoword","j","true","",""
"null","<p style=""font-size: 50px;"">+</p>","null","html-keyboard-response","354","2.1.0","608172","F=YES, J=NO","f1vyg0p4vn","2","55","85","25","","","","","","","","","","","","","","","",""
"null","audio/beep-329314.mp3","null","audio-keyboard-response","355","2.1.0","609685","F=YES, J=NO","f1vyg0p4vn","2","55","85","25","","","","","","","","","","","","","","","",""
"null","audio/scar.wav","null","audio-keyboard-response","356","2.1.0","610255","F=YES, J=NO","f1vyg0p4vn","2","55","85","25","","","","","","","","","","","","","","","",""
"459","
          <p id=""word"" style=""font-size: 40px;"">hide</p>
          <p style=""font-size: 16px;"">F = YES &nbsp;&nbsp;&nbsp; J = NO</p>
        ","f","html-keyboard-response","357","2.1.0","610717","F=YES, J=NO","f1vyg0p4vn","2","55","85","25","","","","","","","","","hide","scar","literal","experimental","f","true","",""
"null","<p style=""font-size: 50px;"">+</p>","null","html-keyboard-response","358","2.1.0","611020","F=YES, J=NO","f1vyg0p4vn","2","55","85","25","","","","","","","","","","","","","","","",""
"null","audio/beep-329314.mp3","null","audio-keyboard-response","359","2.1.0","612525","F=YES, J=NO","f1vyg0p4vn","2","55","85","25","","","","","","","","","","","","","","","",""
"null","audio/pine.wav","null","audio-keyboard-response","360","2.1.0","612995","F=YES, J=NO","f1vyg0p4vn","2","55","85","25","","","","","","","","","","","","","","","",""
"543","
          <p id=""word"" style=""font-size: 40px;"">weave</p>
          <p style=""font-size: 16px;"">F = YES &nbsp;&nbsp;&nbsp; J = NO</p>
        ","f","html-keyboard-response","361","2.1.0","613542","F=YES, J=NO","f1vyg0p4vn","2","55","85","25","","","","","","","","","weave","pine","unrelated","experimental","f","true","",""
"1374","<p>Excellent! You have finished block 3 of 8.</p>
                     <p>Feel free to take a 30 second break.</p>
                     <p>Press any key when you're ready to continue.</p>"," ","html-keyboard-response","362","2.1.0","614917","F=YES, J=NO","f1vyg0p4vn","2","55","85","25","","","","","","","","","","","","","","","",""
"1719","<p>Starting main block 4 of 8. Press any key to continue.</p>","f","html-keyboard-response","363","2.1.0","616638","F=YES, J=NO","f1vyg0p4vn","2","55","85","25","","","","","","","","","","","","","","","",""
"null","<p style=""font-size: 50px;"">+</p>","null","html-keyboard-response","364","2.1.0","616940","F=YES, J=NO","f1vyg0p4vn","2","55","85","25","","","","","","","","","","","","","","","",""
"null","audio/beep-329314.mp3","null","audio-keyboard-response","365","2.1.0","618462","F=YES, J=NO","f1vyg0p4vn","2","55","85","25","","","","","","","","","","","","","","","",""
"null","audio/burden.wav","null","audio-keyboard-response","366","2.1.0","618952","F=YES, J=NO","f1vyg0p4vn","2","55","85","25","","","","","","","","","","","","","","","",""
"499","
          <p id=""word"" style=""font-size: 40px;"">carry</p>
          <p style=""font-size: 16px;"">F = YES &nbsp;&nbsp;&nbsp; J = NO</p>
        ","f","html-keyboard-response","367","2.1.0","619454","F=YES, J=NO","f1vyg0p4vn","2","55","85","25","","","","","","","","","carry","burden","metaphor","experimental","f","true","",""
"null","<p style=""font-size: 50px;"">+</p>","null","html-keyboard-response","368","2.1.0","619756","F=YES, J=NO","f1vyg0p4vn","2","55","85","25","","","","","","","","","","","","","","","",""
"null","audio/beep-329314.mp3","null","audio-keyboard-response","369","2.1.0","621262","F=YES, J=NO","f1vyg0p4vn","2","55","85","25","","","","","","","","","","","","","","","",""
"null","audio/breath.wav","null","audio-keyboard-response","370","2.1.0","621792","F=YES, J=NO","f1vyg0p4vn","2","55","85","25","","","","","","","","","","","","","","","",""
"779","
          <p id=""word"" style=""font-size: 40px;"">twets</p>
          <p style=""font-size: 16px;"">F = YES &nbsp;&nbsp;&nbsp; J = NO</p>
        ","f","html-keyboard-response","371","2.1.0","622573","F=YES, J=NO","f1vyg0p4vn","2","55","85","25","","","","","","","","","twets","breath","pseudoword","pseudoword","j","false","",""
"null","<p style=""font-size: 50px;"">+</p>","null","html-keyboard-response","372","2.1.0","622875","F=YES, J=NO","f1vyg0p4vn","2","55","85","25","","","","","","","","","","","","","","","",""
"null","audio/beep-329314.mp3","null","audio-keyboard-response","373","2.1.0","624393","F=YES, J=NO","f1vyg0p4vn","2","55","85","25","","","","","","","","","","","","","","","",""
"null","audio/dollar.wav","null","audio-keyboard-response","374","2.1.0","624752","F=YES, J=NO","f1vyg0p4vn","2","55","85","25","","","","","","","","","","","","","","","",""
"665","
          <p id=""word"" style=""font-size: 40px;"">gliptism</p>
          <p style=""font-size: 16px;"">F = YES &nbsp;&nbsp;&nbsp; J = NO</p>
        ","j","html-keyboard-response","375","2.1.0","625421","F=YES, J=NO","f1vyg0p4vn","2","55","85","25","","","","","","","","","gliptism","dollar","pseudoword","pseudoword","j","true","",""
"null","<p style=""font-size: 50px;"">+</p>","null","html-keyboard-response","376","2.1.0","625723","F=YES, J=NO","f1vyg0p4vn","2","55","85","25","","","","","","","","","","","","","","","",""
"null","audio/beep-329314.mp3","null","audio-keyboard-response","377","2.1.0","627232","F=YES, J=NO","f1vyg0p4vn","2","55","85","25","","","","","","","","","","","","","","","",""
"null","audio/hawk1.wav","null","audio-keyboard-response","378","2.1.0","627792","F=YES, J=NO","f1vyg0p4vn","2","55","85","25","","","","","","","","","","","","","","","",""
"419","
          <p id=""word"" style=""font-size: 40px;"">wipe</p>
          <p style=""font-size: 16px;"">F = YES &nbsp;&nbsp;&nbsp; J = NO</p>
        ","f","html-keyboard-response","379","2.1.0","628213","F=YES, J=NO","f1vyg0p4vn","2","55","85","25","","","","","","","","","wipe","hawk1","unrelated","experimental","f","true","",""
"null","<p style=""font-size: 50px;"">+</p>","null","html-keyboard-response","380","2.1.0","628514","F=YES, J=NO","f1vyg0p4vn","2","55","85","25","","","","","","","","","","","","","","","",""
"null","audio/beep-329314.mp3","null","audio-keyboard-response","381","2.1.0","630022","F=YES, J=NO","f1vyg0p4vn","2","55","85","25","","","","","","","","","","","","","","","",""
"null","audio/road.wav","null","audio-keyboard-response","382","2.1.0","630422","F=YES, J=NO","f1vyg0p4vn","2","55","85","25","","","","","","","","","","","","","","","",""
"1228","
          <p id=""word"" style=""font-size: 40px;"">wappings</p>
          <p style=""font-size: 16px;"">F = YES &nbsp;&nbsp;&nbsp; J = NO</p>
        ","j","html-keyboard-response","383","2.1.0","631654","F=YES, J=NO","f1vyg0p4vn","2","55","85","25","","","","","","","","","wappings","road","pseudoword","pseudoword","j","true","",""
"null","<p style=""font-size: 50px;"">+</p>","null","html-keyboard-response","384","2.1.0","631956","F=YES, J=NO","f1vyg0p4vn","2","55","85","25","","","","","","","","","","","","","","","",""
"null","audio/beep-329314.mp3","null","audio-keyboard-response","385","2.1.0","633462","F=YES, J=NO","f1vyg0p4vn","2","55","85","25","","","","","","","","","","","","","","","",""
"null","audio/strength.wav","null","audio-keyboard-response","386","2.1.0","634182","F=YES, J=NO","f1vyg0p4vn","2","55","85","25","","","","","","","","","","","","","","","",""
"869","
          <p id=""word"" style=""font-size: 40px;"">plabet</p>
          <p style=""font-size: 16px;"">F = YES &nbsp;&nbsp;&nbsp; J = NO</p>
        ","j","html-keyboard-response","387","2.1.0","635054","F=YES, J=NO","f1vyg0p4vn","2","55","85","25","","","","","","","","","plabet","strength","pseudoword","pseudoword","j","true","",""
"null","<p style=""font-size: 50px;"">+</p>","null","html-keyboard-response","388","2.1.0","635356","F=YES, J=NO","f1vyg0p4vn","2","55","85","25","","","","","","","","","","","","","","","",""
"null","audio/beep-329314.mp3","null","audio-keyboard-response","389","2.1.0","636872","F=YES, J=NO","f1vyg0p4vn","2","55","85","25","","","","","","","","","","","","","","","",""
"null","audio/novel.wav","null","audio-keyboard-response","390","2.1.0","637342","F=YES, J=NO","f1vyg0p4vn","2","55","85","25","","","","","","","","","","","","","","","",""
"604","
          <p id=""word"" style=""font-size: 40px;"">devour</p>
          <p style=""font-size: 16px;"">F = YES &nbsp;&nbsp;&nbsp; J = NO</p>
