"rt","stimulus","response","trial_type","trial_index","plugin_version","time_elapsed","response_mapping","subject_id","list_index","lextale_score","lextale_word_score","lextale_nonword_score","success","timeout","failed_images","failed_audio","failed_video","task","isWord","isDummy","target","prime","prime_type","stimulus_type","correct_response","correct","section","question_order"
"7119","
    <div style=""max-width: 800px; margin: auto; text-align: left;"">
      <h2>STANFORD UNIVERSITY</h2>
      <h3>Research Information Sheet</h3>
      <p><strong>Protocol Director:</strong> Robert Hawkins<br>
      <strong>Protocol Title:</strong> Communication and social cognition in natural audiovisual contexts<br>
      <strong>IRB#:</strong> 77226</p>

      <p><strong>DESCRIPTION:</strong> You are invited to participate in a research study about language and communication. The purpose of the research is to understand how you interact and communicate with other people in naturalistic settings as a fluent English speaker. This research will be conducted through the Prolific platform, including participants from the US, UK, and Canada. If you decide to participate in this research, you will play a communication game in a group with one or more partners.</p>

      <p><strong>TIME INVOLVEMENT:</strong> The task will last the amount of time advertised on Prolific. You are free to withdraw from the study at any time.</p>

      <p><strong>RISKS AND BENEFITS:</strong> You may become frustrated if your partner gets distracted, or experience discomfort if other participants in your group send text that is inappropriate for the task. We ask you to please be respectful of other participants you might be interacting with to mitigate these risks. You may also experience discomfort when being asked to discuss or challenge emotionally salient political beliefs. Study data will be stored securely, in compliance with Stanford University standards, minimizing the risk of confidentiality breach. This study advances our scientific understanding of how people communicate and collaborate in naturalistic settings. This study may lead to further insights about what can go wrong in teamwork, suggest potential interventions to overcome these barriers, and help to develop assistive technologies that collaborate with human partners. We cannot and do not guarantee or promise that you will receive any benefits from this study.</p>

      <p><strong>PAYMENTS:</strong> You will receive payment in the amount advertised on Prolific. If you do not complete this study, you will receive prorated payment based on the time that you have spent. Additionally, you may be eligible for bonus payments as described in the instructions.</p>

      <p><strong>PARTICIPANT’S RIGHTS:</strong> If you have read this form and have decided to participate in this project, please understand your participation is voluntary and you have the right to withdraw your consent or discontinue participation at any time without penalty or loss of benefits to which you are otherwise entitled. The alternative is not to participate. You have the right to refuse to answer particular questions. The results of this research study may be presented at scientific or professional meetings or published in scientific journals. Your individual privacy will be maintained in all published and written data resulting from the study. In accordance with scientific norms, the data from this study may be used or shared with other researchers for future research (after removing personally identifying information) without additional consent from you.</p>

      <p><strong>CONTACT INFORMATION:</strong><br>
      Questions: If you have any questions, concerns or complaints about this research, its procedures, risks and benefits, contact the Protocol Director, Robert Hawkins (<a href=""mailto:rdhawkins@stanford.edu"">rdhawkins@stanford.edu</a>, 217-549-6923).<br>
      Independent Contact: If you are not satisfied with how this study is being conducted, or if you have any concerns, complaints, or general questions about the research or your rights as a participant, please contact the Stanford Institutional Review Board (IRB) to speak to someone independent of the research team at 650-723-2480 or toll free at 1-866-680-2906, or email at <a href=""mailto:irbnon-med@stanford.edu"">irbnon-med@stanford.edu</a>. You can also write to the Stanford IRB, Stanford University, 1705 El Camino Real, Palo Alto, CA 94306.</p>

      <p><strong>Please save or print a copy of this page for your records.</strong></p>
      <p>If you agree to participate in this research, click ""Continue"" below.</p>
    </div>
  ","0","html-button-response","0","2.1.0","7125","J=YES, F=NO","f4norcc4qm","0","83","80","85","","","","","","","","","","","","","","","",""
"3443","
    <div style=""max-width: 800px; margin: auto; text-align: left;"">
      <h2>Welcome!</h2>
      <p>Thank you for participating in this study. The experiment consists of three parts:</p>
      <ol>
        <li>An English vocabulary test</li>
        <li>A main task in which you will hear and see words, and decide whether the written word is a real English word</li>
        <li>A brief survey about your background</li>
      </ol>
      <p>Each part will be introduced before it begins.</p>
      <p>Please make sure you are in a quiet environment and can hear audio clearly for the final task.</p>
      <p style=""margin-top: 2em;"">Press any key to begin.</p>
    </div>
  ","g","html-keyboard-response","1","2.1.0","10569","J=YES, F=NO","f4norcc4qm","0","83","80","85","","","","","","","","","","","","","","","",""
"","","","preload","2","2.1.0","11278","J=YES, F=NO","f4norcc4qm","0","83","80","85","true","false","[]","[]","[]","","","","","","","","","","",""
"3017","
    <div style=""max-width: 800px; margin: auto; text-align: left;"">
      <h2>Part 1: Vocabulary Test</h2>
      <p>You will now complete the first part of the study: a short English vocabulary test.</p>
      <p>This test is called <strong>LexTALE</strong> and helps us get a general sense of your English proficiency.</p>
      <p style=""margin-top: 2em;"">Press any key to continue.</p>
    </div>
  ","g","html-keyboard-response","3","2.1.0","14296","J=YES, F=NO","f4norcc4qm","0","83","80","85","","","","","","","","","","","","","","","",""
"5893","
    <div style=""max-width: 800px; margin: auto; text-align: left;"">
      <h2>LexTALE Vocabulary Test</h2>
      <p>In this test, you will see a series of letter strings—one at a time.</p>
      <p>Your task is to decide whether each string is a real English word.</p>
      <p><strong>Key responses:</strong></p>
      <ul>
        <li><strong>J</strong> = YES (real English word)</li>
        <li><strong>F</strong> = NO (not a real English word)</li>
      </ul>
      <p>There is no time limit, but please try to be accurate.</p>
      <p style=""margin-top: 2em;"">Press any key to begin.</p>
    </div>
  ","k","html-keyboard-response","4","2.1.0","20189","J=YES, F=NO","f4norcc4qm","0","83","80","85","","","","","","","","","","","","","","","",""
"2527","
  <p style=""font-size: 40px;"">platery</p>
  <p style=""font-size: 16px;"">J = YES &nbsp;&nbsp;&nbsp; F = NO</p>
","j","html-keyboard-response","5","2.1.0","22717","J=YES, F=NO","f4norcc4qm","0","83","80","85","","","","","","lextale","false","true","","","","","","","",""
"1088","
  <p style=""font-size: 40px;"">denial</p>
  <p style=""font-size: 16px;"">J = YES &nbsp;&nbsp;&nbsp; F = NO</p>
","j","html-keyboard-response","6","2.1.0","23806","J=YES, F=NO","f4norcc4qm","0","83","80","85","","","","","","lextale","true","true","","","","","","","",""
"1679","
  <p style=""font-size: 40px;"">marrit</p>
  <p style=""font-size: 16px;"">J = YES &nbsp;&nbsp;&nbsp; F = NO</p>
","f","html-keyboard-response","7","2.1.0","25485","J=YES, F=NO","f4norcc4qm","0","83","80","85","","","","","","lextale","false","true","","","","","","","",""
"690","
  <p style=""font-size: 40px;"">bottle</p>
  <p style=""font-size: 16px;"">J = YES &nbsp;&nbsp;&nbsp; F = NO</p>
","j","html-keyboard-response","8","2.1.0","26176","J=YES, F=NO","f4norcc4qm","0","83","80","85","","","","","","lextale","true","false","","","","","","","",""
"1237","
  <p style=""font-size: 40px;"">birst</p>
  <p style=""font-size: 16px;"">J = YES &nbsp;&nbsp;&nbsp; F = NO</p>
","f","html-keyboard-response","9","2.1.0","27413","J=YES, F=NO","f4norcc4qm","0","83","80","85","","","","","","lextale","false","false","","","","","","","",""
"819","
  <p style=""font-size: 40px;"">envy</p>
  <p style=""font-size: 16px;"">J = YES &nbsp;&nbsp;&nbsp; F = NO</p>
","j","html-keyboard-response","10","2.1.0","28233","J=YES, F=NO","f4norcc4qm","0","83","80","85","","","","","","lextale","true","false","","","","","","","",""
"910","
  <p style=""font-size: 40px;"">brang</p>
  <p style=""font-size: 16px;"">J = YES &nbsp;&nbsp;&nbsp; F = NO</p>
","f","html-keyboard-response","11","2.1.0","29143","J=YES, F=NO","f4norcc4qm","0","83","80","85","","","","","","lextale","false","false","","","","","","","",""
"655","
  <p style=""font-size: 40px;"">huge</p>
  <p style=""font-size: 16px;"">J = YES &nbsp;&nbsp;&nbsp; F = NO</p>
","j","html-keyboard-response","12","2.1.0","29799","J=YES, F=NO","f4norcc4qm","0","83","80","85","","","","","","lextale","true","false","","","","","","","",""
"781","
  <p style=""font-size: 40px;"">plove</p>
  <p style=""font-size: 16px;"">J = YES &nbsp;&nbsp;&nbsp; F = NO</p>
","f","html-keyboard-response","13","2.1.0","30580","J=YES, F=NO","f4norcc4qm","0","83","80","85","","","","","","lextale","false","false","","","","","","","",""
"615","
  <p style=""font-size: 40px;"">border</p>
  <p style=""font-size: 16px;"">J = YES &nbsp;&nbsp;&nbsp; F = NO</p>
","j","html-keyboard-response","14","2.1.0","31196","J=YES, F=NO","f4norcc4qm","0","83","80","85","","","","","","lextale","true","false","","","","","","","",""
"1327","
  <p style=""font-size: 40px;"">flimsy</p>
  <p style=""font-size: 16px;"">J = YES &nbsp;&nbsp;&nbsp; F = NO</p>
","j","html-keyboard-response","15","2.1.0","32522","J=YES, F=NO","f4norcc4qm","0","83","80","85","","","","","","lextale","true","false","","","","","","","",""
"774","
  <p style=""font-size: 40px;"">drain</p>
  <p style=""font-size: 16px;"">J = YES &nbsp;&nbsp;&nbsp; F = NO</p>
","j","html-keyboard-response","16","2.1.0","33297","J=YES, F=NO","f4norcc4qm","0","83","80","85","","","","","","lextale","true","false","","","","","","","",""
"947","
  <p style=""font-size: 40px;"">twindle</p>
  <p style=""font-size: 16px;"">J = YES &nbsp;&nbsp;&nbsp; F = NO</p>
","f","html-keyboard-response","17","2.1.0","34244","J=YES, F=NO","f4norcc4qm","0","83","80","85","","","","","","lextale","false","false","","","","","","","",""
"706","
  <p style=""font-size: 40px;"">propose</p>
  <p style=""font-size: 16px;"">J = YES &nbsp;&nbsp;&nbsp; F = NO</p>
","j","html-keyboard-response","18","2.1.0","34951","J=YES, F=NO","f4norcc4qm","0","83","80","85","","","","","","lextale","true","false","","","","","","","",""
"805","
  <p style=""font-size: 40px;"">forlay</p>
  <p style=""font-size: 16px;"">J = YES &nbsp;&nbsp;&nbsp; F = NO</p>
","f","html-keyboard-response","19","2.1.0","35756","J=YES, F=NO","f4norcc4qm","0","83","80","85","","","","","","lextale","false","false","","","","","","","",""
"794","
  <p style=""font-size: 40px;"">tenant</p>
  <p style=""font-size: 16px;"">J = YES &nbsp;&nbsp;&nbsp; F = NO</p>
","j","html-keyboard-response","20","2.1.0","36551","J=YES, F=NO","f4norcc4qm","0","83","80","85","","","","","","lextale","true","false","","","","","","","",""
"731","
  <p style=""font-size: 40px;"">strain</p>
  <p style=""font-size: 16px;"">J = YES &nbsp;&nbsp;&nbsp; F = NO</p>
","j","html-keyboard-response","21","2.1.0","37282","J=YES, F=NO","f4norcc4qm","0","83","80","85","","","","","","lextale","true","false","","","","","","","",""
"1152","
  <p style=""font-size: 40px;"">holster</p>
  <p style=""font-size: 16px;"">J = YES &nbsp;&nbsp;&nbsp; F = NO</p>
","j","html-keyboard-response","22","2.1.0","38434","J=YES, F=NO","f4norcc4qm","0","83","80","85","","","","","","lextale","true","false","","","","","","","",""
"1194","
  <p style=""font-size: 40px;"">hinder</p>
  <p style=""font-size: 16px;"">J = YES &nbsp;&nbsp;&nbsp; F = NO</p>
","j","html-keyboard-response","23","2.1.0","39629","J=YES, F=NO","f4norcc4qm","0","83","80","85","","","","","","lextale","true","false","","","","","","","",""
"963","
  <p style=""font-size: 40px;"">swindle</p>
  <p style=""font-size: 16px;"">J = YES &nbsp;&nbsp;&nbsp; F = NO</p>
","j","html-keyboard-response","24","2.1.0","40592","J=YES, F=NO","f4norcc4qm","0","83","80","85","","","","","","lextale","true","false","","","","","","","",""
"1361","
  <p style=""font-size: 40px;"">nuder</p>
  <p style=""font-size: 16px;"">J = YES &nbsp;&nbsp;&nbsp; F = NO</p>
","f","html-keyboard-response","25","2.1.0","41953","J=YES, F=NO","f4norcc4qm","0","83","80","85","","","","","","lextale","false","false","","","","","","","",""
"637","
  <p style=""font-size: 40px;"">pillow</p>
  <p style=""font-size: 16px;"">J = YES &nbsp;&nbsp;&nbsp; F = NO</p>
","j","html-keyboard-response","26","2.1.0","42591","J=YES, F=NO","f4norcc4qm","0","83","80","85","","","","","","lextale","true","false","","","","","","","",""
"1338","
  <p style=""font-size: 40px;"">shumble</p>
  <p style=""font-size: 16px;"">J = YES &nbsp;&nbsp;&nbsp; F = NO</p>
","j","html-keyboard-response","27","2.1.0","43929","J=YES, F=NO","f4norcc4qm","0","83","80","85","","","","","","lextale","false","false","","","","","","","",""
"579","
  <p style=""font-size: 40px;"">thirst</p>
  <p style=""font-size: 16px;"">J = YES &nbsp;&nbsp;&nbsp; F = NO</p>
","j","html-keyboard-response","28","2.1.0","44509","J=YES, F=NO","f4norcc4qm","0","83","80","85","","","","","","lextale","true","false","","","","","","","",""
"944","
  <p style=""font-size: 40px;"">unsail</p>
  <p style=""font-size: 16px;"">J = YES &nbsp;&nbsp;&nbsp; F = NO</p>
","j","html-keyboard-response","29","2.1.0","45454","J=YES, F=NO","f4norcc4qm","0","83","80","85","","","","","","lextale","false","false","","","","","","","",""
"677","
  <p style=""font-size: 40px;"">rifle</p>
  <p style=""font-size: 16px;"">J = YES &nbsp;&nbsp;&nbsp; F = NO</p>
","j","html-keyboard-response","30","2.1.0","46131","J=YES, F=NO","f4norcc4qm","0","83","80","85","","","","","","lextale","true","false","","","","","","","",""
"1195","
  <p style=""font-size: 40px;"">mush</p>
  <p style=""font-size: 16px;"">J = YES &nbsp;&nbsp;&nbsp; F = NO</p>
","f","html-keyboard-response","31","2.1.0","47327","J=YES, F=NO","f4norcc4qm","0","83","80","85","","","","","","lextale","false","false","","","","","","","",""
"769","
  <p style=""font-size: 40px;"">drench</p>
  <p style=""font-size: 16px;"">J = YES &nbsp;&nbsp;&nbsp; F = NO</p>
","j","html-keyboard-response","32","2.1.0","48096","J=YES, F=NO","f4norcc4qm","0","83","80","85","","","","","","lextale","true","false","","","","","","","",""
"1015","
  <p style=""font-size: 40px;"">snirt</p>
  <p style=""font-size: 16px;"">J = YES &nbsp;&nbsp;&nbsp; F = NO</p>
","f","html-keyboard-response","33","2.1.0","49112","J=YES, F=NO","f4norcc4qm","0","83","80","85","","","","","","lextale","false","false","","","","","","","",""
"667","
  <p style=""font-size: 40px;"">bitter</p>
  <p style=""font-size: 16px;"">J = YES &nbsp;&nbsp;&nbsp; F = NO</p>
","j","html-keyboard-response","34","2.1.0","49779","J=YES, F=NO","f4norcc4qm","0","83","80","85","","","","","","lextale","true","false","","","","","","","",""
"802","
  <p style=""font-size: 40px;"">pliff</p>
  <p style=""font-size: 16px;"">J = YES &nbsp;&nbsp;&nbsp; F = NO</p>
","f","html-keyboard-response","35","2.1.0","50582","J=YES, F=NO","f4norcc4qm","0","83","80","85","","","","","","lextale","false","false","","","","","","","",""
"692","
  <p style=""font-size: 40px;"">tablet</p>
  <p style=""font-size: 16px;"">J = YES &nbsp;&nbsp;&nbsp; F = NO</p>
","j","html-keyboard-response","36","2.1.0","51274","J=YES, F=NO","f4norcc4qm","0","83","80","85","","","","","","lextale","true","false","","","","","","","",""
"1624","
  <p style=""font-size: 40px;"">glimmer</p>
  <p style=""font-size: 16px;"">J = YES &nbsp;&nbsp;&nbsp; F = NO</p>
","j","html-keyboard-response","37","2.1.0","52899","J=YES, F=NO","f4norcc4qm","0","83","80","85","","","","","","lextale","true","false","","","","","","","",""
"1176","
  <p style=""font-size: 40px;"">slink</p>
  <p style=""font-size: 16px;"">J = YES &nbsp;&nbsp;&nbsp; F = NO</p>
","j","html-keyboard-response","38","2.1.0","54075","J=YES, F=NO","f4norcc4qm","0","83","80","85","","","","","","lextale","true","false","","","","","","","",""
"605","
  <p style=""font-size: 40px;"">clever</p>
  <p style=""font-size: 16px;"">J = YES &nbsp;&nbsp;&nbsp; F = NO</p>
","j","html-keyboard-response","39","2.1.0","54680","J=YES, F=NO","f4norcc4qm","0","83","80","85","","","","","","lextale","true","false","","","","","","","",""
"770","
  <p style=""font-size: 40px;"">grum</p>
  <p style=""font-size: 16px;"">J = YES &nbsp;&nbsp;&nbsp; F = NO</p>
","f","html-keyboard-response","40","2.1.0","55451","J=YES, F=NO","f4norcc4qm","0","83","80","85","","","","","","lextale","false","false","","","","","","","",""
"580","
  <p style=""font-size: 40px;"">string</p>
  <p style=""font-size: 16px;"">J = YES &nbsp;&nbsp;&nbsp; F = NO</p>
","j","html-keyboard-response","41","2.1.0","56031","J=YES, F=NO","f4norcc4qm","0","83","80","85","","","","","","lextale","true","false","","","","","","","",""
"833","
  <p style=""font-size: 40px;"">plim</p>
  <p style=""font-size: 16px;"">J = YES &nbsp;&nbsp;&nbsp; F = NO</p>
","f","html-keyboard-response","42","2.1.0","56865","J=YES, F=NO","f4norcc4qm","0","83","80","85","","","","","","lextale","false","false","","","","","","","",""
"596","
  <p style=""font-size: 40px;"">cable</p>
  <p style=""font-size: 16px;"">J = YES &nbsp;&nbsp;&nbsp; F = NO</p>
","j","html-keyboard-response","43","2.1.0","57461","J=YES, F=NO","f4norcc4qm","0","83","80","85","","","","","","lextale","true","false","","","","","","","",""
"1430","
  <p style=""font-size: 40px;"">shrivel</p>
  <p style=""font-size: 16px;"">J = YES &nbsp;&nbsp;&nbsp; F = NO</p>
","j","html-keyboard-response","44","2.1.0","58892","J=YES, F=NO","f4norcc4qm","0","83","80","85","","","","","","lextale","true","false","","","","","","","",""
"755","
  <p style=""font-size: 40px;"">tarnish</p>
  <p style=""font-size: 16px;"">J = YES &nbsp;&nbsp;&nbsp; F = NO</p>
","j","html-keyboard-response","45","2.1.0","59647","J=YES, F=NO","f4norcc4qm","0","83","80","85","","","","","","lextale","true","false","","","","","","","",""
"2799","
  <p style=""font-size: 40px;"">blim</p>
  <p style=""font-size: 16px;"">J = YES &nbsp;&nbsp;&nbsp; F = NO</p>
","f","html-keyboard-response","46","2.1.0","62447","J=YES, F=NO","f4norcc4qm","0","83","80","85","","","","","","lextale","false","false","","","","","","","",""
"1464","
  <p style=""font-size: 40px;"">stifle</p>
  <p style=""font-size: 16px;"">J = YES &nbsp;&nbsp;&nbsp; F = NO</p>
","f","html-keyboard-response","47","2.1.0","63911","J=YES, F=NO","f4norcc4qm","0","83","80","85","","","","","","lextale","true","false","","","","","","","",""
"933","
  <p style=""font-size: 40px;"">bint</p>
  <p style=""font-size: 16px;"">J = YES &nbsp;&nbsp;&nbsp; F = NO</p>
","f","html-keyboard-response","48","2.1.0","64844","J=YES, F=NO","f4norcc4qm","0","83","80","85","","","","","","lextale","false","false","","","","","","","",""
"588","
  <p style=""font-size: 40px;"">purple</p>
  <p style=""font-size: 16px;"">J = YES &nbsp;&nbsp;&nbsp; F = NO</p>
","j","html-keyboard-response","49","2.1.0","65433","J=YES, F=NO","f4norcc4qm","0","83","80","85","","","","","","lextale","true","false","","","","","","","",""
"1097","
  <p style=""font-size: 40px;"">wriggle</p>
  <p style=""font-size: 16px;"">J = YES &nbsp;&nbsp;&nbsp; F = NO</p>
","f","html-keyboard-response","50","2.1.0","66531","J=YES, F=NO","f4norcc4qm","0","83","80","85","","","","","","lextale","true","false","","","","","","","",""
"2059","
  <p style=""font-size: 40px;"">mangle</p>
  <p style=""font-size: 16px;"">J = YES &nbsp;&nbsp;&nbsp; F = NO</p>
","j","html-keyboard-response","51","2.1.0","68590","J=YES, F=NO","f4norcc4qm","0","83","80","85","","","","","","lextale","true","false","","","","","","","",""
"776","
  <p style=""font-size: 40px;"">shramp</p>
  <p style=""font-size: 16px;"">J = YES &nbsp;&nbsp;&nbsp; F = NO</p>
","f","html-keyboard-response","52","2.1.0","69367","J=YES, F=NO","f4norcc4qm","0","83","80","85","","","","","","lextale","false","false","","","","","","","",""
"593","
  <p style=""font-size: 40px;"">flirt</p>
  <p style=""font-size: 16px;"">J = YES &nbsp;&nbsp;&nbsp; F = NO</p>
","j","html-keyboard-response","53","2.1.0","69960","J=YES, F=NO","f4norcc4qm","0","83","80","85","","","","","","lextale","true","false","","","","","","","",""
"846","
  <p style=""font-size: 40px;"">frip</p>
  <p style=""font-size: 16px;"">J = YES &nbsp;&nbsp;&nbsp; F = NO</p>
","f","html-keyboard-response","54","2.1.0","70807","J=YES, F=NO","f4norcc4qm","0","83","80","85","","","","","","lextale","false","false","","","","","","","",""
"1013","
  <p style=""font-size: 40px;"">tangle</p>
  <p style=""font-size: 16px;"">J = YES &nbsp;&nbsp;&nbsp; F = NO</p>
","j","html-keyboard-response","55","2.1.0","71820","J=YES, F=NO","f4norcc4qm","0","83","80","85","","","","","","lextale","true","false","","","","","","","",""
"659","
  <p style=""font-size: 40px;"">crumble</p>
  <p style=""font-size: 16px;"">J = YES &nbsp;&nbsp;&nbsp; F = NO</p>
","j","html-keyboard-response","56","2.1.0","72480","J=YES, F=NO","f4norcc4qm","0","83","80","85","","","","","","lextale","true","false","","","","","","","",""
"842","
  <p style=""font-size: 40px;"">wrinkle</p>
  <p style=""font-size: 16px;"">J = YES &nbsp;&nbsp;&nbsp; F = NO</p>
","j","html-keyboard-response","57","2.1.0","73322","J=YES, F=NO","f4norcc4qm","0","83","80","85","","","","","","lextale","true","false","","","","","","","",""
"953","
  <p style=""font-size: 40px;"">slumb</p>
  <p style=""font-size: 16px;"">J = YES &nbsp;&nbsp;&nbsp; F = NO</p>
","f","html-keyboard-response","58","2.1.0","74276","J=YES, F=NO","f4norcc4qm","0","83","80","85","","","","","","lextale","false","false","","","","","","","",""
"623","
  <p style=""font-size: 40px;"">jungle</p>
  <p style=""font-size: 16px;"">J = YES &nbsp;&nbsp;&nbsp; F = NO</p>
","j","html-keyboard-response","59","2.1.0","74899","J=YES, F=NO","f4norcc4qm","0","83","80","85","","","","","","lextale","true","false","","","","","","","",""
"793","
  <p style=""font-size: 40px;"">frolick</p>
  <p style=""font-size: 16px;"">J = YES &nbsp;&nbsp;&nbsp; F = NO</p>
","f","html-keyboard-response","60","2.1.0","75693","J=YES, F=NO","f4norcc4qm","0","83","80","85","","","","","","lextale","false","false","","","","","","","",""
"1366","
      <h2>LexTALE Test Completed</h2>
      <p>Your LexTALE vocabulary score is: <strong>83%</strong></p>
      <p>Press any key to continue.</p>
    ","j","html-keyboard-response","61","2.1.0","77059","J=YES, F=NO","f4norcc4qm","0","83","80","85","","","","","","","","","","","","","","","",""
"4154","
    <div style=""max-width: 800px; margin: auto; text-align: left;"">
      <h2>Break Time</h2>
      <p>You have completed the first part of the study.</p>
      <p>You may take a short <strong>30-second break</strong> before continuing.</p>
      <p>When you’re ready, press any key to continue to the final task.</p>
    </div>
  ","j","html-keyboard-response","62","2.1.0","81213","J=YES, F=NO","f4norcc4qm","0","83","80","85","","","","","","","","","","","","","","","",""
"5926","
    <div style=""max-width: 800px; margin: auto; text-align: left;"">
      <h2>Part 2: Lexical Decision Task</h2>
      <p>You will now begin the second part of the study.</p>
      <p>Each trial will follow this sequence:</p>
      <ul>
        <li>A fixation cross (+) appears at the center of the screen.</li>
        <li>You will hear a short beep followed by a spoken word.</li>
        <li>A written word will appear briefly on the screen.</li>
      </ul>
      <p>Your task is to judge whether the <strong>written word</strong> is a real English word.</p>
      <p style=""margin-top: 1em;""><strong>Key responses:</strong></p>
      <ul>
        <li><strong>J</strong> = YES (real English word)</li>
        <li><strong>F</strong> = NO (not a real English word)</li>
      </ul>
      <p>Please respond as quickly and accurately as you can.</p>
      <p style=""margin-top: 2em;"">Press any key to continue.</p>
    </div>
  ","j","html-keyboard-response","63","2.1.0","87140","J=YES, F=NO","f4norcc4qm","0","83","80","85","","","","","","","","","","","","","","","",""
"4672","
    <div style=""max-width: 800px; margin: auto; text-align: left;"">
      <h2>Before You Begin</h2>
      <p>Make sure your sound is turned on.</p>
      <p>You will hear audio during each trial, but your decision should be based only on the <strong>written word</strong> you see on the screen.</p>
      <p><strong>Reminder:</strong></p>
      <ul>
        <li><strong>J</strong> = YES (real English word)</li>
        <li><strong>F</strong> = NO (not a real English word)</li>
      </ul>
      <p style=""margin-top: 2em;"">Press any key when you are ready to begin.</p>
    </div>
  ","j","html-keyboard-response","64","2.1.0","91812","J=YES, F=NO","f4norcc4qm","0","83","80","85","","","","","","","","","","","","","","","",""
"1283","
    <div style=""max-width: 800px; margin: auto; text-align: left;"">
      <h2>Part 2: Practice Trials</h2>
      <p>You will now complete a few <strong>practice trials</strong> to get familiar with the task.</p>
      <p>These trials are <strong>not scored</strong> and are only to help you get used to the format.</p>
      <p style=""margin-top: 2em;"">Press any key to begin.</p>
    </div>
  ","j","html-keyboard-response","65","2.1.0","93095","J=YES, F=NO","f4norcc4qm","0","83","80","85","","","","","","","","","","","","","","","",""
"1317","<p>Starting practice block 1 of 2. Press any key to continue.</p>","j","html-keyboard-response","66","2.1.0","94413","J=YES, F=NO","f4norcc4qm","0","83","80","85","","","","","","","","","","","","","","","",""
"null","<p style=""font-size: 50px;"">+</p>","null","html-keyboard-response","67","2.1.0","94729","J=YES, F=NO","f4norcc4qm","0","83","80","85","","","","","","","","","","","","","","","",""
"null","audio/beep-329314.mp3","null","audio-keyboard-response","68","2.1.0","96252","J=YES, F=NO","f4norcc4qm","0","83","80","85","","","","","","","","","","","","","","","",""
"null","audio/gossip1.wav","null","audio-keyboard-response","69","2.1.0","97032","J=YES, F=NO","f4norcc4qm","0","83","80","85","","","","","","","","","","","","","","","",""
"null","
          <p id=""word"" style=""font-size: 40px;"">camerish</p>
          <p style=""font-size: 16px;"">J = YES &nbsp;&nbsp;&nbsp; F = NO</p>
        ","null","html-keyboard-response","70","2.1.0","98535","J=YES, F=NO","f4norcc4qm","0","83","80","85","","","","","","","","","camerish","gossip1","pseudoword","pseudoword","f","false","",""
"null","<p style=""font-size: 50px;"">+</p>","null","html-keyboard-response","71","2.1.0","98839","J=YES, F=NO","f4norcc4qm","0","83","80","85","","","","","","","","","","","","","","","",""
"null","audio/beep-329314.mp3","null","audio-keyboard-response","72","2.1.0","100372","J=YES, F=NO","f4norcc4qm","0","83","80","85","","","","","","","","","","","","","","","",""
"null","audio/kettle1.wav","null","audio-keyboard-response","73","2.1.0","100992","J=YES, F=NO","f4norcc4qm","0","83","80","85","","","","","","","","","","","","","","","",""
"null","
          <p id=""word"" style=""font-size: 40px;"">wrap</p>
          <p style=""font-size: 16px;"">J = YES &nbsp;&nbsp;&nbsp; F = NO</p>
        ","null","html-keyboard-response","74","2.1.0","102506","J=YES, F=NO","f4norcc4qm","0","83","80","85","","","","","","","","","wrap","kettle1","filler","filler","j","false","",""
"null","<p style=""font-size: 50px;"">+</p>","null","html-keyboard-response","75","2.1.0","102810","J=YES, F=NO","f4norcc4qm","0","83","80","85","","","","","","","","","","","","","","","",""
"null","audio/beep-329314.mp3","null","audio-keyboard-response","76","2.1.0","104332","J=YES, F=NO","f4norcc4qm","0","83","80","85","","","","","","","","","","","","","","","",""
"null","audio/client1.wav","null","audio-keyboard-response","77","2.1.0","105212","J=YES, F=NO","f4norcc4qm","0","83","80","85","","","","","","","","","","","","","","","",""
"472","
          <p id=""word"" style=""font-size: 40px;"">droothe</p>
          <p style=""font-size: 16px;"">J = YES &nbsp;&nbsp;&nbsp; F = NO</p>
        ","j","html-keyboard-response","78","2.1.0","105685","J=YES, F=NO","f4norcc4qm","0","83","80","85","","","","","","","","","droothe","client1","pseudoword","pseudoword","f","false","",""
"null","<p style=""font-size: 50px;"">+</p>","null","html-keyboard-response","79","2.1.0","105990","J=YES, F=NO","f4norcc4qm","0","83","80","85","","","","","","","","","","","","","","","",""
"null","audio/beep-329314.mp3","null","audio-keyboard-response","80","2.1.0","107512","J=YES, F=NO","f4norcc4qm","0","83","80","85","","","","","","","","","","","","","","","",""
"null","audio/cave1.wav","null","audio-keyboard-response","81","2.1.0","108052","J=YES, F=NO","f4norcc4qm","0","83","80","85","","","","","","","","","","","","","","","",""
"743","
          <p id=""word"" style=""font-size: 40px;"">blacket</p>
          <p style=""font-size: 16px;"">J = YES &nbsp;&nbsp;&nbsp; F = NO</p>
        ","j","html-keyboard-response","82","2.1.0","108796","J=YES, F=NO","f4norcc4qm","0","83","80","85","","","","","","","","","blacket","cave1","pseudoword","pseudoword","f","false","",""
"null","<p style=""font-size: 50px;"">+</p>","null","html-keyboard-response","83","2.1.0","109105","J=YES, F=NO","f4norcc4qm","0","83","80","85","","","","","","","","","","","","","","","",""
"null","audio/beep-329314.mp3","null","audio-keyboard-response","84","2.1.0","110632","J=YES, F=NO","f4norcc4qm","0","83","80","85","","","","","","","","","","","","","","","",""
"null","audio/bishop1.wav","null","audio-keyboard-response","85","2.1.0","111392","J=YES, F=NO","f4norcc4qm","0","83","80","85","","","","","","","","","","","","","","","",""
"1456","
          <p id=""word"" style=""font-size: 40px;"">play</p>
          <p style=""font-size: 16px;"">J = YES &nbsp;&nbsp;&nbsp; F = NO</p>
        ","j","html-keyboard-response","86","2.1.0","112848","J=YES, F=NO","f4norcc4qm","0","83","80","85","","","","","","","","","play","bishop1","filler","filler","j","true","",""
"null","<p style=""font-size: 50px;"">+</p>","null","html-keyboard-response","87","2.1.0","113154","J=YES, F=NO","f4norcc4qm","0","83","80","85","","","","","","","","","","","","","","","",""
"null","audio/beep-329314.mp3","null","audio-keyboard-response","88","2.1.0","114692","J=YES, F=NO","f4norcc4qm","0","83","80","85","","","","","","","","","","","","","","","",""
"null","audio/strength.wav","null","audio-keyboard-response","89","2.1.0","115612","J=YES, F=NO","f4norcc4qm","0","83","80","85","","","","","","","","","","","","","","","",""
"1295","
          <p id=""word"" style=""font-size: 40px;"">plabet</p>
          <p style=""font-size: 16px;"">J = YES &nbsp;&nbsp;&nbsp; F = NO</p>
        ","f","html-keyboard-response","90","2.1.0","116907","J=YES, F=NO","f4norcc4qm","0","83","80","85","","","","","","","","","plabet","strength","pseudoword","pseudoword","f","true","",""
"null","<p style=""font-size: 50px;"">+</p>","null","html-keyboard-response","91","2.1.0","117219","J=YES, F=NO","f4norcc4qm","0","83","80","85","","","","","","","","","","","","","","","",""
"null","audio/beep-329314.mp3","null","audio-keyboard-response","92","2.1.0","118752","J=YES, F=NO","f4norcc4qm","0","83","80","85","","","","","","","","","","","","","","","",""
"null","audio/age1.wav","null","audio-keyboard-response","93","2.1.0","119292","J=YES, F=NO","f4norcc4qm","0","83","80","85","","","","","","","","","","","","","","","",""
"814","
          <p id=""word"" style=""font-size: 40px;"">bake</p>
          <p style=""font-size: 16px;"">J = YES &nbsp;&nbsp;&nbsp; F = NO</p>
        ","j","html-keyboard-response","94","2.1.0","120107","J=YES, F=NO","f4norcc4qm","0","83","80","85","","","","","","","","","bake","age1","filler","filler","j","true","",""
"null","<p style=""font-size: 50px;"">+</p>","null","html-keyboard-response","95","2.1.0","120422","J=YES, F=NO","f4norcc4qm","0","83","80","85","","","","","","","","","","","","","","","",""
"null","audio/beep-329314.mp3","null","audio-keyboard-response","96","2.1.0","121952","J=YES, F=NO","f4norcc4qm","0","83","80","85","","","","","","","","","","","","","","","",""
"null","audio/baby.wav","null","audio-keyboard-response","97","2.1.0","122412","J=YES, F=NO","f4norcc4qm","0","83","80","85","","","","","","","","","","","","","","","",""
"1144","
          <p id=""word"" style=""font-size: 40px;"">lift</p>
          <p style=""font-size: 16px;"">J = YES &nbsp;&nbsp;&nbsp; F = NO</p>
        ","j","html-keyboard-response","98","2.1.0","123557","J=YES, F=NO","f4norcc4qm","0","83","80","85","","","","","","","","","lift","baby","filler","filler","j","true","",""
"null","<p style=""font-size: 50px;"">+</p>","null","html-keyboard-response","99","2.1.0","123860","J=YES, F=NO","f4norcc4qm","0","83","80","85","","","","","","","","","","","","","","","",""
"null","audio/beep-329314.mp3","null","audio-keyboard-response","100","2.1.0","125392","J=YES, F=NO","f4norcc4qm","0","83","80","85","","","","","","","","","","","","","","","",""
"null","audio/battle1.wav","null","audio-keyboard-response","101","2.1.0","126032","J=YES, F=NO","f4norcc4qm","0","83","80","85","","","","","","","","","","","","","","","",""
"627","
          <p id=""word"" style=""font-size: 40px;"">boil</p>
          <p style=""font-size: 16px;"">J = YES &nbsp;&nbsp;&nbsp; F = NO</p>
        ","j","html-keyboard-response","102","2.1.0","126660","J=YES, F=NO","f4norcc4qm","0","83","80","85","","","","","","","","","boil","battle1","filler","filler","j","true","",""
"null","<p style=""font-size: 50px;"">+</p>","null","html-keyboard-response","103","2.1.0","126965","J=YES, F=NO","f4norcc4qm","0","83","80","85","","","","","","","","","","","","","","","",""
"null","audio/beep-329314.mp3","null","audio-keyboard-response","104","2.1.0","128493","J=YES, F=NO","f4norcc4qm","0","83","80","85","","","","","","","","","","","","","","","",""
"null","audio/arm.wav","null","audio-keyboard-response","105","2.1.0","129192","J=YES, F=NO","f4norcc4qm","0","83","80","85","","","","","","","","","","","","","","","",""
"771","
          <p id=""word"" style=""font-size: 40px;"">pigne</p>
          <p style=""font-size: 16px;"">J = YES &nbsp;&nbsp;&nbsp; F = NO</p>
        ","f","html-keyboard-response","106","2.1.0","129964","J=YES, F=NO","f4norcc4qm","0","83","80","85","","","","","","","","","pigne","arm","pseudoword","pseudoword","f","true","",""
"null","<p style=""font-size: 50px;"">+</p>","null","html-keyboard-response","107","2.1.0","130266","J=YES, F=NO","f4norcc4qm","0","83","80","85","","","","","","","","","","","","","","","",""
"null","audio/beep-329314.mp3","null","audio-keyboard-response","108","2.1.0","131792","J=YES, F=NO","f4norcc4qm","0","83","80","85","","","","","","","","","","","","","","","",""
"null","audio/belief.wav","null","audio-keyboard-response","109","2.1.0","132572","J=YES, F=NO","f4norcc4qm","0","83","80","85","","","","","","","","","","","","","","","",""
"694","
          <p id=""word"" style=""font-size: 40px;"">read</p>
          <p style=""font-size: 16px;"">J = YES &nbsp;&nbsp;&nbsp; F = NO</p>
        ","j","html-keyboard-response","110","2.1.0","133267","J=YES, F=NO","f4norcc4qm","0","83","80","85","","","","","","","","","read","belief","filler","filler","j","true","",""
"null","<p style=""font-size: 50px;"">+</p>","null","html-keyboard-response","111","2.1.0","133570","J=YES, F=NO","f4norcc4qm","0","83","80","85","","","","","","","","","","","","","","","",""
"null","audio/beep-329314.mp3","null","audio-keyboard-response","112","2.1.0","135092","J=YES, F=NO","f4norcc4qm","0","83","80","85","","","","","","","","","","","","","","","",""
"null","audio/golf1.wav","null","audio-keyboard-response","113","2.1.0","135832","J=YES, F=NO","f4norcc4qm","0","83","80","85","","","","","","","","","","","","","","","",""
"724","
          <p id=""word"" style=""font-size: 40px;"">drabble</p>
          <p style=""font-size: 16px;"">J = YES &nbsp;&nbsp;&nbsp; F = NO</p>
        ","f","html-keyboard-response","114","2.1.0","136557","J=YES, F=NO","f4norcc4qm","0","83","80","85","","","","","","","","","drabble","golf1","pseudoword","pseudoword","f","true","",""
"1146","<p>Starting practice block 2 of 2. Press any key to continue.</p>","f","html-keyboard-response","115","2.1.0","137703","J=YES, F=NO","f4norcc4qm","0","83","80","85","","","","","","","","","","","","","","","",""
"null","<p style=""font-size: 50px;"">+</p>","null","html-keyboard-response","116","2.1.0","138014","J=YES, F=NO","f4norcc4qm","0","83","80","85","","","","","","","","","","","","","","","",""
"null","audio/beep-329314.mp3","null","audio-keyboard-response","117","2.1.0","139553","J=YES, F=NO","f4norcc4qm","0","83","80","85","","","","","","","","","","","","","","","",""
"null","audio/dome.wav","null","audio-keyboard-response","118","2.1.0","139972","J=YES, F=NO","f4norcc4qm","0","83","80","85","","","","","","","","","","","","","","","",""
"922","
          <p id=""word"" style=""font-size: 40px;"">scrupliness</p>
          <p style=""font-size: 16px;"">J = YES &nbsp;&nbsp;&nbsp; F = NO</p>
        ","f","html-keyboard-response","119","2.1.0","140895","J=YES, F=NO","f4norcc4qm","0","83","80","85","","","","","","","","","scrupliness","dome","pseudoword","pseudoword","f","true","",""
"null","<p style=""font-size: 50px;"">+</p>","null","html-keyboard-response","120","2.1.0","141197","J=YES, F=NO","f4norcc4qm","0","83","80","85","","","","","","","","","","","","","","","",""
"null","audio/beep-329314.mp3","null","audio-keyboard-response","121","2.1.0","142732","J=YES, F=NO","f4norcc4qm","0","83","80","85","","","","","","","","","","","","","","","",""
"null","audio/burden.wav","null","audio-keyboard-response","122","2.1.0","143232","J=YES, F=NO","f4norcc4qm","0","83","80","85","","","","","","","","","","","","","","","",""
"705","
          <p id=""word"" style=""font-size: 40px;"">whotth</p>
          <p style=""font-size: 16px;"">J = YES &nbsp;&nbsp;&nbsp; F = NO</p>
        ","f","html-keyboard-response","123","2.1.0","143938","J=YES, F=NO","f4norcc4qm","0","83","80","85","","","","","","","","","whotth","burden","pseudoword","pseudoword","f","true","",""
"null","<p style=""font-size: 50px;"">+</p>","null","html-keyboard-response","124","2.1.0","144251","J=YES, F=NO","f4norcc4qm","0","83","80","85","","","","","","","","","","","","","","","",""
"null","audio/beep-329314.mp3","null","audio-keyboard-response","125","2.1.0","145772","J=YES, F=NO","f4norcc4qm","0","83","80","85","","","","","","","","","","","","","","","",""
"null","audio/terrain.wav","null","audio-keyboard-response","126","2.1.0","146352","J=YES, F=NO","f4norcc4qm","0","83","80","85","","","","","","","","","","","","","","","",""
"615","
          <p id=""word"" style=""font-size: 40px;"">twist</p>
          <p style=""font-size: 16px;"">J = YES &nbsp;&nbsp;&nbsp; F = NO</p>
        ","j","html-keyboard-response","127","2.1.0","146968","J=YES, F=NO","f4norcc4qm","0","83","80","85","","","","","","","","","twist","terrain","filler","filler","j","true","",""
"null","<p style=""font-size: 50px;"">+</p>","null","html-keyboard-response","128","2.1.0","147280","J=YES, F=NO","f4norcc4qm","0","83","80","85","","","","","","","","","","","","","","","",""
"null","audio/beep-329314.mp3","null","audio-keyboard-response","129","2.1.0","148812","J=YES, F=NO","f4norcc4qm","0","83","80","85","","","","","","","","","","","","","","","",""
"null","audio/arm.wav","null","audio-keyboard-response","130","2.1.0","149352","J=YES, F=NO","f4norcc4qm","0","83","80","85","","","","","","","","","","","","","","","",""
"556","
          <p id=""word"" style=""font-size: 40px;"">fold</p>
          <p style=""font-size: 16px;"">J = YES &nbsp;&nbsp;&nbsp; F = NO</p>
        ","j","html-keyboard-response","131","2.1.0","149909","J=YES, F=NO","f4norcc4qm","0","83","80","85","","","","","","","","","fold","arm","filler","filler","j","true","",""
"null","<p style=""font-size: 50px;"">+</p>","null","html-keyboard-response","132","2.1.0","150221","J=YES, F=NO","f4norcc4qm","0","83","80","85","","","","","","","","","","","","","","","",""
"null","audio/beep-329314.mp3","null","audio-keyboard-response","133","2.1.0","151752","J=YES, F=NO","f4norcc4qm","0","83","80","85","","","","","","","","","","","","","","","",""
"null","audio/alarm1.wav","null","audio-keyboard-response","134","2.1.0","152332","J=YES, F=NO","f4norcc4qm","0","83","80","85","","","","","","","","","","","","","","","",""
"606","
          <p id=""word"" style=""font-size: 40px;"">lock</p>
          <p style=""font-size: 16px;"">J = YES &nbsp;&nbsp;&nbsp; F = NO</p>
        ","j","html-keyboard-response","135","2.1.0","152939","J=YES, F=NO","f4norcc4qm","0","83","80","85","","","","","","","","","lock","alarm1","filler","filler","j","true","",""
"null","<p style=""font-size: 50px;"">+</p>","null","html-keyboard-response","136","2.1.0","153241","J=YES, F=NO","f4norcc4qm","0","83","80","85","","","","","","","","","","","","","","","",""
"null","audio/beep-329314.mp3","null","audio-keyboard-response","137","2.1.0","154772","J=YES, F=NO","f4norcc4qm","0","83","80","85","","","","","","","","","","","","","","","",""
"null","audio/desire.wav","null","audio-keyboard-response","138","2.1.0","155392","J=YES, F=NO","f4norcc4qm","0","83","80","85","","","","","","","","","","","","","","","",""
"653","
          <p id=""word"" style=""font-size: 40px;"">nophed</p>
          <p style=""font-size: 16px;"">J = YES &nbsp;&nbsp;&nbsp; F = NO</p>
        ","f","html-keyboard-response","139","2.1.0","156045","J=YES, F=NO","f4norcc4qm","0","83","80","85","","","","","","","","","nophed","desire","pseudoword","pseudoword","f","true","",""
"null","<p style=""font-size: 50px;"">+</p>","null","html-keyboard-response","140","2.1.0","156350","J=YES, F=NO","f4norcc4qm","0","83","80","85","","","","","","","","","","","","","","","",""
"null","audio/beep-329314.mp3","null","audio-keyboard-response","141","2.1.0","157872","J=YES, F=NO","f4norcc4qm","0","83","80","85","","","","","","","","","","","","","","","",""
"null","audio/corpse1.wav","null","audio-keyboard-response","142","2.1.0","158652","J=YES, F=NO","f4norcc4qm","0","83","80","85","","","","","","","","","","","","","","","",""
"614","
          <p id=""word"" style=""font-size: 40px;"">glonet</p>
          <p style=""font-size: 16px;"">J = YES &nbsp;&nbsp;&nbsp; F = NO</p>
        ","f","html-keyboard-response","143","2.1.0","159266","J=YES, F=NO","f4norcc4qm","0","83","80","85","","","","","","","","","glonet","corpse1","pseudoword","pseudoword","f","true","",""
"null","<p style=""font-size: 50px;"">+</p>","null","html-keyboard-response","144","2.1.0","159581","J=YES, F=NO","f4norcc4qm","0","83","80","85","","","","","","","","","","","","","","","",""
"null","audio/beep-329314.mp3","null","audio-keyboard-response","145","2.1.0","161112","J=YES, F=NO","f4norcc4qm","0","83","80","85","","","","","","","","","","","","","","","",""
"null","audio/test1.wav","null","audio-keyboard-response","146","2.1.0","161872","J=YES, F=NO","f4norcc4qm","0","83","80","85","","","","","","","","","","","","","","","",""
"593","
          <p id=""word"" style=""font-size: 40px;"">twopch</p>
          <p style=""font-size: 16px;"">J = YES &nbsp;&nbsp;&nbsp; F = NO</p>
        ","f","html-keyboard-response","147","2.1.0","162465","J=YES, F=NO","f4norcc4qm","0","83","80","85","","","","","","","","","twopch","test1","pseudoword","pseudoword","f","true","",""
"null","<p style=""font-size: 50px;"">+</p>","null","html-keyboard-response","148","2.1.0","162776","J=YES, F=NO","f4norcc4qm","0","83","80","85","","","","","","","","","","","","","","","",""
"null","audio/beep-329314.mp3","null","audio-keyboard-response","149","2.1.0","164312","J=YES, F=NO","f4norcc4qm","0","83","80","85","","","","","","","","","","","","","","","",""
"null","audio/window1.wav","null","audio-keyboard-response","150","2.1.0","165072","J=YES, F=NO","f4norcc4qm","0","83","80","85","","","","","","","","","","","","","","","",""
"598","
          <p id=""word"" style=""font-size: 40px;"">toss</p>
          <p style=""font-size: 16px;"">J = YES &nbsp;&nbsp;&nbsp; F = NO</p>
        ","j","html-keyboard-response","151","2.1.0","165670","J=YES, F=NO","f4norcc4qm","0","83","80","85","","","","","","","","","toss","window1","filler","filler","j","true","",""
"null","<p style=""font-size: 50px;"">+</p>","null","html-keyboard-response","152","2.1.0","165975","J=YES, F=NO","f4norcc4qm","0","83","80","85","","","","","","","","","","","","","","","",""
"null","audio/beep-329314.mp3","null","audio-keyboard-response","153","2.1.0","167512","J=YES, F=NO","f4norcc4qm","0","83","80","85","","","","","","","","","","","","","","","",""
"null","audio/cancer1.wav","null","audio-keyboard-response","154","2.1.0","168052","J=YES, F=NO","f4norcc4qm","0","83","80","85","","","","","","","","","","","","","","","",""
"605","
          <p id=""word"" style=""font-size: 40px;"">draw</p>
          <p style=""font-size: 16px;"">J = YES &nbsp;&nbsp;&nbsp; F = NO</p>
        ","j","html-keyboard-response","155","2.1.0","168658","J=YES, F=NO","f4norcc4qm","0","83","80","85","","","","","","","","","draw","cancer1","filler","filler","j","true","",""
"null","<p style=""font-size: 50px;"">+</p>","null","html-keyboard-response","156","2.1.0","168974","J=YES, F=NO","f4norcc4qm","0","83","80","85","","","","","","","","","","","","","","","",""
"null","audio/beep-329314.mp3","null","audio-keyboard-response","157","2.1.0","170512","J=YES, F=NO","f4norcc4qm","0","83","80","85","","","","","","","","","","","","","","","",""
"null","audio/topic.wav","null","audio-keyboard-response","158","2.1.0","171232","J=YES, F=NO","f4norcc4qm","0","83","80","85","","","","","","","","","","","","","","","",""
"710","
          <p id=""word"" style=""font-size: 40px;"">infortuitist</p>
          <p style=""font-size: 16px;"">J = YES &nbsp;&nbsp;&nbsp; F = NO</p>
        ","f","html-keyboard-response","159","2.1.0","171943","J=YES, F=NO","f4norcc4qm","0","83","80","85","","","","","","","","","infortuitist","topic","pseudoword","pseudoword","f","true","",""
"null","<p style=""font-size: 50px;"">+</p>","null","html-keyboard-response","160","2.1.0","172251","J=YES, F=NO","f4norcc4qm","0","83","80","85","","","","","","","","","","","","","","","",""
"null","audio/beep-329314.mp3","null","audio-keyboard-response","161","2.1.0","173772","J=YES, F=NO","f4norcc4qm","0","83","80","85","","","","","","","","","","","","","","","",""
"null","audio/pattern.wav","null","audio-keyboard-response","162","2.1.0","174432","J=YES, F=NO","f4norcc4qm","0","83","80","85","","","","","","","","","","","","","","","",""
"699","
          <p id=""word"" style=""font-size: 40px;"">tug</p>
          <p style=""font-size: 16px;"">J = YES &nbsp;&nbsp;&nbsp; F = NO</p>
        ","j","html-keyboard-response","163","2.1.0","175132","J=YES, F=NO","f4norcc4qm","0","83","80","85","","","","","","","","","tug","pattern","filler","filler","j","true","",""
"4847","
    <div style=""max-width: 800px; margin: auto; text-align: left;"">
      <h2>Part 2: Main Trials</h2>
      <p>Great job on the practice trials!</p>
      <p>You will now begin the <strong>main set of trials</strong>.</p>
      <p>Remember your key assignments:</p>
      <ul>
        <li><strong>J</strong> = YES (real English word)</li>
        <li><strong>F</strong> = NO (not a real English word)</li>
      </ul>
      <p>Try to respond as <strong>quickly and accurately</strong> as possible.</p>
      <p style=""margin-top: 2em;"">Press any key to begin the main trials.</p>
    </div>
  ","j","html-keyboard-response","164","2.1.0","179979","J=YES, F=NO","f4norcc4qm","0","83","80","85","","","","","","","","","","","","","","","",""
"1012","<p>Starting main block 1 of 8. Press any key to continue.</p>","j","html-keyboard-response","165","2.1.0","180991","J=YES, F=NO","f4norcc4qm","0","83","80","85","","","","","","","","","","","","","","","",""
"null","<p style=""font-size: 50px;"">+</p>","null","html-keyboard-response","166","2.1.0","181306","J=YES, F=NO","f4norcc4qm","0","83","80","85","","","","","","","","","","","","","","","",""
"null","audio/beep-329314.mp3","null","audio-keyboard-response","167","2.1.0","182832","J=YES, F=NO","f4norcc4qm","0","83","80","85","","","","","","","","","","","","","","","",""
"null","audio/butter1.wav","null","audio-keyboard-response","168","2.1.0","183272","J=YES, F=NO","f4norcc4qm","0","83","80","85","","","","","","","","","","","","","","","",""
"615","
          <p id=""word"" style=""font-size: 40px;"">chew</p>
          <p style=""font-size: 16px;"">J = YES &nbsp;&nbsp;&nbsp; F = NO</p>
        ","j","html-keyboard-response","169","2.1.0","183888","J=YES, F=NO","f4norcc4qm","0","83","80","85","","","","","","","","","chew","butter1","filler","filler","j","true","",""
"null","<p style=""font-size: 50px;"">+</p>","null","html-keyboard-response","170","2.1.0","184200","J=YES, F=NO","f4norcc4qm","0","83","80","85","","","","","","","","","","","","","","","",""
"null","audio/beep-329314.mp3","null","audio-keyboard-response","171","2.1.0","185732","J=YES, F=NO","f4norcc4qm","0","83","80","85","","","","","","","","","","","","","","","",""
"null","audio/vehicle1.wav","null","audio-keyboard-response","172","2.1.0","186372","J=YES, F=NO","f4norcc4qm","0","83","80","85","","","","","","","","","","","","","","","",""
"500","
          <p id=""word"" style=""font-size: 40px;"">approach</p>
          <p style=""font-size: 16px;"">J = YES &nbsp;&nbsp;&nbsp; F = NO</p>
        ","j","html-keyboard-response","173","2.1.0","186872","J=YES, F=NO","f4norcc4qm","0","83","80","85","","","","","","","","","approach","vehicle1","literal","experimental","j","true","",""
"null","<p style=""font-size: 50px;"">+</p>","null","html-keyboard-response","174","2.1.0","187187","J=YES, F=NO","f4norcc4qm","0","83","80","85","","","","","","","","","","","","","","","",""
"null","audio/beep-329314.mp3","null","audio-keyboard-response","175","2.1.0","188712","J=YES, F=NO","f4norcc4qm","0","83","80","85","","","","","","","","","","","","","","","",""
"null","audio/ground.wav","null","audio-keyboard-response","176","2.1.0","189292","J=YES, F=NO","f4norcc4qm","0","83","80","85","","","","","","","","","","","","","","","",""
"443","
          <p id=""word"" style=""font-size: 40px;"">touch</p>
          <p style=""font-size: 16px;"">J = YES &nbsp;&nbsp;&nbsp; F = NO</p>
        ","j","html-keyboard-response","177","2.1.0","189735","J=YES, F=NO","f4norcc4qm","0","83","80","85","","","","","","","","","touch","ground","literal","experimental","j","true","",""
"null","<p style=""font-size: 50px;"">+</p>","null","html-keyboard-response","178","2.1.0","190052","J=YES, F=NO","f4norcc4qm","0","83","80","85","","","","","","","","","","","","","","","",""
"null","audio/beep-329314.mp3","null","audio-keyboard-response","179","2.1.0","191592","J=YES, F=NO","f4norcc4qm","0","83","80","85","","","","","","","","","","","","","","","",""
"null","audio/alarm1.wav","null","audio-keyboard-response","180","2.1.0","192172","J=YES, F=NO","f4norcc4qm","0","83","80","85","","","","","","","","","","","","","","","",""
"606","
          <p id=""word"" style=""font-size: 40px;"">swetp</p>
          <p style=""font-size: 16px;"">J = YES &nbsp;&nbsp;&nbsp; F = NO</p>
        ","f","html-keyboard-response","181","2.1.0","192779","J=YES, F=NO","f4norcc4qm","0","83","80","85","","","","","","","","","swetp","alarm1","pseudoword","pseudoword","f","true","",""
"null","<p style=""font-size: 50px;"">+</p>","null","html-keyboard-response","182","2.1.0","193088","J=YES, F=NO","f4norcc4qm","0","83","80","85","","","","","","","","","","","","","","","",""
"null","audio/beep-329314.mp3","null","audio-keyboard-response","183","2.1.0","194612","J=YES, F=NO","f4norcc4qm","0","83","80","85","","","","","","","","","","","","","","","",""
"null","audio/bridge.wav","null","audio-keyboard-response","184","2.1.0","195152","J=YES, F=NO","f4norcc4qm","0","83","80","85","","","","","","","","","","","","","","","",""
"470","
          <p id=""word"" style=""font-size: 40px;"">build</p>
          <p style=""font-size: 16px;"">J = YES &nbsp;&nbsp;&nbsp; F = NO</p>
        ","j","html-keyboard-response","185","2.1.0","195622","J=YES, F=NO","f4norcc4qm","0","83","80","85","","","","","","","","","build","bridge","literal","experimental","j","true","",""
"null","<p style=""font-size: 50px;"">+</p>","null","html-keyboard-response","186","2.1.0","195931","J=YES, F=NO","f4norcc4qm","0","83","80","85","","","","","","","","","","","","","","","",""
"null","audio/beep-329314.mp3","null","audio-keyboard-response","187","2.1.0","197452","J=YES, F=NO","f4norcc4qm","0","83","80","85","","","","","","","","","","","","","","","",""
"null","audio/mile1.wav","null","audio-keyboard-response","188","2.1.0","197932","J=YES, F=NO","f4norcc4qm","0","83","80","85","","","","","","","","","","","","","","","",""
"529","
          <p id=""word"" style=""font-size: 40px;"">run</p>
          <p style=""font-size: 16px;"">J = YES &nbsp;&nbsp;&nbsp; F = NO</p>
        ","j","html-keyboard-response","189","2.1.0","198461","J=YES, F=NO","f4norcc4qm","0","83","80","85","","","","","","","","","run","mile1","literal","experimental","j","true","",""
"null","<p style=""font-size: 50px;"">+</p>","null","html-keyboard-response","190","2.1.0","198778","J=YES, F=NO","f4norcc4qm","0","83","80","85","","","","","","","","","","","","","","","",""
"null","audio/beep-329314.mp3","null","audio-keyboard-response","191","2.1.0","200312","J=YES, F=NO","f4norcc4qm","0","83","80","85","","","","","","","","","","","","","","","",""
"null","audio/age1.wav","null","audio-keyboard-response","192","2.1.0","200852","J=YES, F=NO","f4norcc4qm","0","83","80","85","","","","","","","","","","","","","","","",""
"764","
          <p id=""word"" style=""font-size: 40px;"">lachry</p>
          <p style=""font-size: 16px;"">J = YES &nbsp;&nbsp;&nbsp; F = NO</p>
        ","f","html-keyboard-response","193","2.1.0","201616","J=YES, F=NO","f4norcc4qm","0","83","80","85","","","","","","","","","lachry","age1","pseudoword","pseudoword","f","true","",""
"null","<p style=""font-size: 50px;"">+</p>","null","html-keyboard-response","194","2.1.0","201930","J=YES, F=NO","f4norcc4qm","0","83","80","85","","","","","","","","","","","","","","","",""
"null","audio/beep-329314.mp3","null","audio-keyboard-response","195","2.1.0","203452","J=YES, F=NO","f4norcc4qm","0","83","80","85","","","","","","","","","","","","","","","",""
"null","audio/seat.wav","null","audio-keyboard-response","196","2.1.0","204072","J=YES, F=NO","f4norcc4qm","0","83","80","85","","","","","","","","","","","","","","","",""
"839","
          <p id=""word"" style=""font-size: 40px;"">digest</p>
          <p style=""font-size: 16px;"">J = YES &nbsp;&nbsp;&nbsp; F = NO</p>
        ","j","html-keyboard-response","197","2.1.0","204911","J=YES, F=NO","f4norcc4qm","0","83","80","85","","","","","","","","","digest","seat","unrelated","experimental","j","true","",""
"null","<p style=""font-size: 50px;"">+</p>","null","html-keyboard-response","198","2.1.0","205227","J=YES, F=NO","f4norcc4qm","0","83","80","85","","","","","","","","","","","","","","","",""
"null","audio/beep-329314.mp3","null","audio-keyboard-response","199","2.1.0","206752","J=YES, F=NO","f4norcc4qm","0","83","80","85","","","","","","","","","","","","","","","",""
"null","audio/mind.wav","null","audio-keyboard-response","200","2.1.0","207312","J=YES, F=NO","f4norcc4qm","0","83","80","85","","","","","","","","","","","","","","","",""
"680","
          <p id=""word"" style=""font-size: 40px;"">crainate</p>
          <p style=""font-size: 16px;"">J = YES &nbsp;&nbsp;&nbsp; F = NO</p>
        ","f","html-keyboard-response","201","2.1.0","207993","J=YES, F=NO","f4norcc4qm","0","83","80","85","","","","","","","","","crainate","mind","pseudoword","pseudoword","f","true","",""
"null","<p style=""font-size: 50px;"">+</p>","null","html-keyboard-response","202","2.1.0","208306","J=YES, F=NO","f4norcc4qm","0","83","80","85","","","","","","","","","","","","","","","",""
"null","audio/beep-329314.mp3","null","audio-keyboard-response","203","2.1.0","209832","J=YES, F=NO","f4norcc4qm","0","83","80","85","","","","","","","","","","","","","","","",""
"null","audio/alarm1.wav","null","audio-keyboard-response","204","2.1.0","210412","J=YES, F=NO","f4norcc4qm","0","83","80","85","","","","","","","","","","","","","","","",""
"571","
          <p id=""word"" style=""font-size: 40px;"">save</p>
          <p style=""font-size: 16px;"">J = YES &nbsp;&nbsp;&nbsp; F = NO</p>
        ","j","html-keyboard-response","205","2.1.0","210984","J=YES, F=NO","f4norcc4qm","0","83","80","85","","","","","","","","","save","alarm1","unrelated","experimental","j","true","",""
"null","<p style=""font-size: 50px;"">+</p>","null","html-keyboard-response","206","2.1.0","211298","J=YES, F=NO","f4norcc4qm","0","83","80","85","","","","","","","","","","","","","","","",""
"null","audio/beep-329314.mp3","null","audio-keyboard-response","207","2.1.0","212832","J=YES, F=NO","f4norcc4qm","0","83","80","85","","","","","","","","","","","","","","","",""
"null","audio/trout1.wav","null","audio-keyboard-response","208","2.1.0","213412","J=YES, F=NO","f4norcc4qm","0","83","80","85","","","","","","","","","","","","","","","",""
"610","
          <p id=""word"" style=""font-size: 40px;"">spimt</p>
          <p style=""font-size: 16px;"">J = YES &nbsp;&nbsp;&nbsp; F = NO</p>
        ","f","html-keyboard-response","209","2.1.0","214023","J=YES, F=NO","f4norcc4qm","0","83","80","85","","","","","","","","","spimt","trout1","pseudoword","pseudoword","f","true","",""
"null","<p style=""font-size: 50px;"">+</p>","null","html-keyboard-response","210","2.1.0","214336","J=YES, F=NO","f4norcc4qm","0","83","80","85","","","","","","","","","","","","","","","",""
"null","audio/beep-329314.mp3","null","audio-keyboard-response","211","2.1.0","215872","J=YES, F=NO","f4norcc4qm","0","83","80","85","","","","","","","","","","","","","","","",""
"null","audio/emotion.wav","null","audio-keyboard-response","212","2.1.0","216513","J=YES, F=NO","f4norcc4qm","0","83","80","85","","","","","","","","","","","","","","","",""
"543","
          <p id=""word"" style=""font-size: 40px;"">bury</p>
          <p style=""font-size: 16px;"">J = YES &nbsp;&nbsp;&nbsp; F = NO</p>
        ","j","html-keyboard-response","213","2.1.0","217056","J=YES, F=NO","f4norcc4qm","0","83","80","85","","","","","","","","","bury","emotion","metaphor","experimental","j","true","",""
"null","<p style=""font-size: 50px;"">+</p>","null","html-keyboard-response","214","2.1.0","217361","J=YES, F=NO","f4norcc4qm","0","83","80","85","","","","","","","","","","","","","","","",""
"null","audio/beep-329314.mp3","null","audio-keyboard-response","215","2.1.0","218892","J=YES, F=NO","f4norcc4qm","0","83","80","85","","","","","","","","","","","","","","","",""
"null","audio/uncle1.wav","null","audio-keyboard-response","216","2.1.0","219372","J=YES, F=NO","f4norcc4qm","0","83","80","85","","","","","","","","","","","","","","","",""
"454","
          <p id=""word"" style=""font-size: 40px;"">break</p>
          <p style=""font-size: 16px;"">J = YES &nbsp;&nbsp;&nbsp; F = NO</p>
        ","j","html-keyboard-response","217","2.1.0","219827","J=YES, F=NO","f4norcc4qm","0","83","80","85","","","","","","","","","break","uncle1","unrelated","experimental","j","true","",""
"null","<p style=""font-size: 50px;"">+</p>","null","html-keyboard-response","218","2.1.0","220131","J=YES, F=NO","f4norcc4qm","0","83","80","85","","","","","","","","","","","","","","","",""
"null","audio/beep-329314.mp3","null","audio-keyboard-response","219","2.1.0","221652","J=YES, F=NO","f4norcc4qm","0","83","80","85","","","","","","","","","","","","","","","",""
"null","audio/ship.wav","null","audio-keyboard-response","220","2.1.0","222192","J=YES, F=NO","f4norcc4qm","0","83","80","85","","","","","","","","","","","","","","","",""
"533","
          <p id=""word"" style=""font-size: 40px;"">scrap</p>
          <p style=""font-size: 16px;"">J = YES &nbsp;&nbsp;&nbsp; F = NO</p>
        ","j","html-keyboard-response","221","2.1.0","222726","J=YES, F=NO","f4norcc4qm","0","83","80","85","","","","","","","","","scrap","ship","literal","experimental","j","true","",""
"null","<p style=""font-size: 50px;"">+</p>","null","html-keyboard-response","222","2.1.0","223041","J=YES, F=NO","f4norcc4qm","0","83","80","85","","","","","","","","","","","","","","","",""
"null","audio/beep-329314.mp3","null","audio-keyboard-response","223","2.1.0","224572","J=YES, F=NO","f4norcc4qm","0","83","80","85","","","","","","","","","","","","","","","",""
"null","audio/bomb1.wav","null","audio-keyboard-response","224","2.1.0","224952","J=YES, F=NO","f4norcc4qm","0","83","80","85","","","","","","","","","","","","","","","",""
"508","
          <p id=""word"" style=""font-size: 40px;"">clean</p>
          <p style=""font-size: 16px;"">J = YES &nbsp;&nbsp;&nbsp; F = NO</p>
        ","j","html-keyboard-response","225","2.1.0","225461","J=YES, F=NO","f4norcc4qm","0","83","80","85","","","","","","","","","clean","bomb1","filler","filler","j","true","",""
"null","<p style=""font-size: 50px;"">+</p>","null","html-keyboard-response","226","2.1.0","225774","J=YES, F=NO","f4norcc4qm","0","83","80","85","","","","","","","","","","","","","","","",""
"null","audio/beep-329314.mp3","null","audio-keyboard-response","227","2.1.0","227312","J=YES, F=NO","f4norcc4qm","0","83","80","85","","","","","","","","","","","","","","","",""
"null","audio/dollar.wav","null","audio-keyboard-response","228","2.1.0","227692","J=YES, F=NO","f4norcc4qm","0","83","80","85","","","","","","","","","","","","","","","",""
"857","
          <p id=""word"" style=""font-size: 40px;"">gliptism</p>
          <p style=""font-size: 16px;"">J = YES &nbsp;&nbsp;&nbsp; F = NO</p>
        ","f","html-keyboard-response","229","2.1.0","228550","J=YES, F=NO","f4norcc4qm","0","83","80","85","","","","","","","","","gliptism","dollar","pseudoword","pseudoword","f","true","",""
"40352","<p>Excellent! You have finished block 1 of 8.</p>
                     <p>Feel free to take a 30 second break.</p>
                     <p>Press any key when you're ready to continue.</p>","f","html-keyboard-response","230","2.1.0","268902","J=YES, F=NO","f4norcc4qm","0","83","80","85","","","","","","","","","","","","","","","",""
"1356","<p>Starting main block 2 of 8. Press any key to continue.</p>","j","html-keyboard-response","231","2.1.0","270259","J=YES, F=NO","f4norcc4qm","0","83","80","85","","","","","","","","","","","","","","","",""
"null","<p style=""font-size: 50px;"">+</p>","null","html-keyboard-response","232","2.1.0","270562","J=YES, F=NO","f4norcc4qm","0","83","80","85","","","","","","","","","","","","","","","",""
"null","audio/beep-329314.mp3","null","audio-keyboard-response","233","2.1.0","272074","J=YES, F=NO","f4norcc4qm","0","83","80","85","","","","","","","","","","","","","","","",""
"null","audio/truth1.wav","null","audio-keyboard-response","234","2.1.0","272594","J=YES, F=NO","f4norcc4qm","0","83","80","85","","","","","","","","","","","","","","","",""
"590","
          <p id=""word"" style=""font-size: 40px;"">calitom</p>
          <p style=""font-size: 16px;"">J = YES &nbsp;&nbsp;&nbsp; F = NO</p>
        ","f","html-keyboard-response","235","2.1.0","273184","J=YES, F=NO","f4norcc4qm","0","83","80","85","","","","","","","","","calitom","truth1","pseudoword","pseudoword","f","true","",""
"null","<p style=""font-size: 50px;"">+</p>","null","html-keyboard-response","236","2.1.0","273488","J=YES, F=NO","f4norcc4qm","0","83","80","85","","","","","","","","","","","","","","","",""
"null","audio/beep-329314.mp3","null","audio-keyboard-response","237","2.1.0","275014","J=YES, F=NO","f4norcc4qm","0","83","80","85","","","","","","","","","","","","","","","",""
"null","audio/plot1.wav","null","audio-keyboard-response","238","2.1.0","275554","J=YES, F=NO","f4norcc4qm","0","83","80","85","","","","","","","","","","","","","","","",""
"705","
          <p id=""word"" style=""font-size: 40px;"">glenter</p>
          <p style=""font-size: 16px;"">J = YES &nbsp;&nbsp;&nbsp; F = NO</p>
        ","f","html-keyboard-response","239","2.1.0","276259","J=YES, F=NO","f4norcc4qm","0","83","80","85","","","","","","","","","glenter","plot1","pseudoword","pseudoword","f","true","",""
"null","<p style=""font-size: 50px;"">+</p>","null","html-keyboard-response","240","2.1.0","276575","J=YES, F=NO","f4norcc4qm","0","83","80","85","","","","","","","","","","","","","","","",""
"null","audio/beep-329314.mp3","null","audio-keyboard-response","241","2.1.0","278114","J=YES, F=NO","f4norcc4qm","0","83","80","85","","","","","","","","","","","","","","","",""
"null","audio/foe1.wav","null","audio-keyboard-response","242","2.1.0","278614","J=YES, F=NO","f4norcc4qm","0","83","80","85","","","","","","","","","","","","","","","",""
"619","
          <p id=""word"" style=""font-size: 40px;"">creth</p>
          <p style=""font-size: 16px;"">J = YES &nbsp;&nbsp;&nbsp; F = NO</p>
        ","f","html-keyboard-response","243","2.1.0","279233","J=YES, F=NO","f4norcc4qm","0","83","80","85","","","","","","","","","creth","foe1","pseudoword","pseudoword","f","true","",""
"null","<p style=""font-size: 50px;"">+</p>","null","html-keyboard-response","244","2.1.0","279539","J=YES, F=NO","f4norcc4qm","0","83","80","85","","","","","","","","","","","","","","","",""
"null","audio/beep-329314.mp3","null","audio-keyboard-response","245","2.1.0","281074","J=YES, F=NO","f4norcc4qm","0","83","80","85","","","","","","","","","","","","","","","",""
"null","audio/inch1.wav","null","audio-keyboard-response","246","2.1.0","281654","J=YES, F=NO","f4norcc4qm","0","83","80","85","","","","","","","","","","","","","","","",""
"464","
          <p id=""word"" style=""font-size: 40px;"">lose</p>
          <p style=""font-size: 16px;"">J = YES &nbsp;&nbsp;&nbsp; F = NO</p>
        ","j","html-keyboard-response","247","2.1.0","282119","J=YES, F=NO","f4norcc4qm","0","83","80","85","","","","","","","","","lose","inch1","metaphor","experimental","j","true","",""
"null","<p style=""font-size: 50px;"">+</p>","null","html-keyboard-response","248","2.1.0","282425","J=YES, F=NO","f4norcc4qm","0","83","80","85","","","","","","","","","","","","","","","",""
"null","audio/beep-329314.mp3","null","audio-keyboard-response","249","2.1.0","283954","J=YES, F=NO","f4norcc4qm","0","83","80","85","","","","","","","","","","","","","","","",""
"null","audio/budget1.wav","null","audio-keyboard-response","250","2.1.0","284554","J=YES, F=NO","f4norcc4qm","0","83","80","85","","","","","","","","","","","","","","","",""
"711","
          <p id=""word"" style=""font-size: 40px;"">sulist</p>
          <p style=""font-size: 16px;"">J = YES &nbsp;&nbsp;&nbsp; F = NO</p>
        ","f","html-keyboard-response","251","2.1.0","285266","J=YES, F=NO","f4norcc4qm","0","83","80","85","","","","","","","","","sulist","budget1","pseudoword","pseudoword","f","true","",""
"null","<p style=""font-size: 50px;"">+</p>","null","html-keyboard-response","252","2.1.0","285574","J=YES, F=NO","f4norcc4qm","0","83","80","85","","","","","","","","","","","","","","","",""
"null","audio/beep-329314.mp3","null","audio-keyboard-response","253","2.1.0","287114","J=YES, F=NO","f4norcc4qm","0","83","80","85","","","","","","","","","","","","","","","",""
"null","audio/truth1.wav","null","audio-keyboard-response","254","2.1.0","287654","J=YES, F=NO","f4norcc4qm","0","83","80","85","","","","","","","","","","","","","","","",""
"444","
          <p id=""word"" style=""font-size: 40px;"">expose</p>
          <p style=""font-size: 16px;"">J = YES &nbsp;&nbsp;&nbsp; F = NO</p>
        ","j","html-keyboard-response","255","2.1.0","288098","J=YES, F=NO","f4norcc4qm","0","83","80","85","","","","","","","","","expose","truth1","metaphor","experimental","j","true","",""
"null","<p style=""font-size: 50px;"">+</p>","null","html-keyboard-response","256","2.1.0","288411","J=YES, F=NO","f4norcc4qm","0","83","80","85","","","","","","","","","","","","","","","",""
"null","audio/beep-329314.mp3","null","audio-keyboard-response","257","2.1.0","289934","J=YES, F=NO","f4norcc4qm","0","83","80","85","","","","","","","","","","","","","","","",""
"null","audio/fence.wav","null","audio-keyboard-response","258","2.1.0","290574","J=YES, F=NO","f4norcc4qm","0","83","80","85","","","","","","","","","","","","","","","",""
"484","
          <p id=""word"" style=""font-size: 40px;"">climb</p>
          <p style=""font-size: 16px;"">J = YES &nbsp;&nbsp;&nbsp; F = NO</p>
        ","j","html-keyboard-response","259","2.1.0","291059","J=YES, F=NO","f4norcc4qm","0","83","80","85","","","","","","","","","climb","fence","literal","experimental","j","true","",""
"null","<p style=""font-size: 50px;"">+</p>","null","html-keyboard-response","260","2.1.0","291365","J=YES, F=NO","f4norcc4qm","0","83","80","85","","","","","","","","","","","","","","","",""
"null","audio/beep-329314.mp3","null","audio-keyboard-response","261","2.1.0","292894","J=YES, F=NO","f4norcc4qm","0","83","80","85","","","","","","","","","","","","","","","",""
"null","audio/brain.wav","null","audio-keyboard-response","262","2.1.0","293374","J=YES, F=NO","f4norcc4qm","0","83","80","85","","","","","","","","","","","","","","","",""
"535","
          <p id=""word"" style=""font-size: 40px;"">throw</p>
          <p style=""font-size: 16px;"">J = YES &nbsp;&nbsp;&nbsp; F = NO</p>
        ","j","html-keyboard-response","263","2.1.0","293910","J=YES, F=NO","f4norcc4qm","0","83","80","85","","","","","","","","","throw","brain","filler","filler","j","true","",""
"null","<p style=""font-size: 50px;"">+</p>","null","html-keyboard-response","264","2.1.0","294220","J=YES, F=NO","f4norcc4qm","0","83","80","85","","","","","","","","","","","","","","","",""
"null","audio/beep-329314.mp3","null","audio-keyboard-response","265","2.1.0","295754","J=YES, F=NO","f4norcc4qm","0","83","80","85","","","","","","","","","","","","","","","",""
"null","audio/sand.wav","null","audio-keyboard-response","266","2.1.0","296394","J=YES, F=NO","f4norcc4qm","0","83","80","85","","","","","","","","","","","","","","","",""
"936","
          <p id=""word"" style=""font-size: 40px;"">proted</p>
          <p style=""font-size: 16px;"">J = YES &nbsp;&nbsp;&nbsp; F = NO</p>
        ","f","html-keyboard-response","267","2.1.0","297331","J=YES, F=NO","f4norcc4qm","0","83","80","85","","","","","","","","","proted","sand","pseudoword","pseudoword","f","true","",""
"null","<p style=""font-size: 50px;"">+</p>","null","html-keyboard-response","268","2.1.0","297645","J=YES, F=NO","f4norcc4qm","0","83","80","85","","","","","","","","","","","","","","","",""
"null","audio/beep-329314.mp3","null","audio-keyboard-response","269","2.1.0","299174","J=YES, F=NO","f4norcc4qm","0","83","80","85","","","","","","","","","","","","","","","",""
"null","audio/uncle1.wav","null","audio-keyboard-response","270","2.1.0","299654","J=YES, F=NO","f4norcc4qm","0","83","80","85","","","","","","","","","","","","","","","",""
"1256","
          <p id=""word"" style=""font-size: 40px;"">dramble</p>
          <p style=""font-size: 16px;"">J = YES &nbsp;&nbsp;&nbsp; F = NO</p>
        ","f","html-keyboard-response","271","2.1.0","300911","J=YES, F=NO","f4norcc4qm","0","83","80","85","","","","","","","","","dramble","uncle1","pseudoword","pseudoword","f","true","",""
"null","<p style=""font-size: 50px;"">+</p>","null","html-keyboard-response","272","2.1.0","301220","J=YES, F=NO","f4norcc4qm","0","83","80","85","","","","","","","","","","","","","","","",""
"null","audio/beep-329314.mp3","null","audio-keyboard-response","273","2.1.0","302754","J=YES, F=NO","f4norcc4qm","0","83","80","85","","","","","","","","","","","","","","","",""
"null","audio/cash1.wav","null","audio-keyboard-response","274","2.1.0","303314","J=YES, F=NO","f4norcc4qm","0","83","80","85","","","","","","","","","","","","","","","",""
"645","
          <p id=""word"" style=""font-size: 40px;"">splear</p>
          <p style=""font-size: 16px;"">J = YES &nbsp;&nbsp;&nbsp; F = NO</p>
        ","f","html-keyboard-response","275","2.1.0","303960","J=YES, F=NO","f4norcc4qm","0","83","80","85","","","","","","","","","splear","cash1","pseudoword","pseudoword","f","true","",""
"null","<p style=""font-size: 50px;"">+</p>","null","html-keyboard-response","276","2.1.0","304272","J=YES, F=NO","f4norcc4qm","0","83","80","85","","","","","","","","","","","","","","","",""
"null","audio/beep-329314.mp3","null","audio-keyboard-response","277","2.1.0","305794","J=YES, F=NO","f4norcc4qm","0","83","80","85","","","","","","","","","","","","","","","",""
"null","audio/account1.wav","null","audio-keyboard-response","278","2.1.0","306474","J=YES, F=NO","f4norcc4qm","0","83","80","85","","","","","","","","","","","","","","","",""
"535","
          <p id=""word"" style=""font-size: 40px;"">paint</p>
          <p style=""font-size: 16px;"">J = YES &nbsp;&nbsp;&nbsp; F = NO</p>
        ","j","html-keyboard-response","279","2.1.0","307010","J=YES, F=NO","f4norcc4qm","0","83","80","85","","","","","","","","","paint","account1","filler","filler","j","true","",""
"null","<p style=""font-size: 50px;"">+</p>","null","html-keyboard-response","280","2.1.0","307325","J=YES, F=NO","f4norcc4qm","0","83","80","85","","","","","","","","","","","","","","","",""
"null","audio/beep-329314.mp3","null","audio-keyboard-response","281","2.1.0","308854","J=YES, F=NO","f4norcc4qm","0","83","80","85","","","","","","","","","","","","","","","",""
"null","audio/mind.wav","null","audio-keyboard-response","282","2.1.0","309414","J=YES, F=NO","f4norcc4qm","0","83","80","85","","","","","","","","","","","","","","","",""
"406","
          <p id=""word"" style=""font-size: 40px;"">clear</p>
          <p style=""font-size: 16px;"">J = YES &nbsp;&nbsp;&nbsp; F = NO</p>
        ","j","html-keyboard-response","283","2.1.0","309821","J=YES, F=NO","f4norcc4qm","0","83","80","85","","","","","","","","","clear","mind","metaphor","experimental","j","true","",""
"null","<p style=""font-size: 50px;"">+</p>","null","html-keyboard-response","284","2.1.0","310132","J=YES, F=NO","f4norcc4qm","0","83","80","85","","","","","","","","","","","","","","","",""
"null","audio/beep-329314.mp3","null","audio-keyboard-response","285","2.1.0","311654","J=YES, F=NO","f4norcc4qm","0","83","80","85","","","","","","","","","","","","","","","",""
"null","audio/flaw.wav","null","audio-keyboard-response","286","2.1.0","312274","J=YES, F=NO","f4norcc4qm","0","83","80","85","","","","","","","","","","","","","","","",""
"485","
          <p id=""word"" style=""font-size: 40px;"">hide</p>
          <p style=""font-size: 16px;"">J = YES &nbsp;&nbsp;&nbsp; F = NO</p>
        ","j","html-keyboard-response","287","2.1.0","312760","J=YES, F=NO","f4norcc4qm","0","83","80","85","","","","","","","","","hide","flaw","metaphor","experimental","j","true","",""
"null","<p style=""font-size: 50px;"">+</p>","null","html-keyboard-response","288","2.1.0","313071","J=YES, F=NO","f4norcc4qm","0","83","80","85","","","","","","","","","","","","","","","",""
"null","audio/beep-329314.mp3","null","audio-keyboard-response","289","2.1.0","314594","J=YES, F=NO","f4norcc4qm","0","83","80","85","","","","","","","","","","","","","","","",""
"null","audio/breath.wav","null","audio-keyboard-response","290","2.1.0","315154","J=YES, F=NO","f4norcc4qm","0","83","80","85","","","","","","","","","","","","","","","",""
"441","
          <p id=""word"" style=""font-size: 40px;"">construct</p>
          <p style=""font-size: 16px;"">J = YES &nbsp;&nbsp;&nbsp; F = NO</p>
        ","j","html-keyboard-response","291","2.1.0","315595","J=YES, F=NO","f4norcc4qm","0","83","80","85","","","","","","","","","construct","breath","unrelated","experimental","j","true","",""
"null","<p style=""font-size: 50px;"">+</p>","null","html-keyboard-response","292","2.1.0","315908","J=YES, F=NO","f4norcc4qm","0","83","80","85","","","","","","","","","","","","","","","",""
"null","audio/beep-329314.mp3","null","audio-keyboard-response","293","2.1.0","317434","J=YES, F=NO","f4norcc4qm","0","83","80","85","","","","","","","","","","","","","","","",""
"null","audio/roof1.wav","null","audio-keyboard-response","294","2.1.0","317974","J=YES, F=NO","f4norcc4qm","0","83","80","85","","","","","","","","","","","","","","","",""
"632","
          <p id=""word"" style=""font-size: 40px;"">wronb</p>
          <p style=""font-size: 16px;"">J = YES &nbsp;&nbsp;&nbsp; F = NO</p>
        ","f","html-keyboard-response","295","2.1.0","318606","J=YES, F=NO","f4norcc4qm","0","83","80","85","","","","","","","","","wronb","roof1","pseudoword","pseudoword","f","true","",""
"1126","<p>Excellent! You have finished block 2 of 8.</p>
                     <p>Feel free to take a 30 second break.</p>
                     <p>Press any key when you're ready to continue.</p>","f","html-keyboard-response","296","2.1.0","319733","J=YES, F=NO","f4norcc4qm","0","83","80","85","","","","","","","","","","","","","","","",""
"574","<p>Starting main block 3 of 8. Press any key to continue.</p>","f","html-keyboard-response","297","2.1.0","320307","J=YES, F=NO","f4norcc4qm","0","83","80","85","","","","","","","","","","","","","","","",""
"null","<p style=""font-size: 50px;"">+</p>","null","html-keyboard-response","298","2.1.0","320620","J=YES, F=NO","f4norcc4qm","0","83","80","85","","","","","","","","","","","","","","","",""
"null","audio/beep-329314.mp3","null","audio-keyboard-response","299","2.1.0","322154","J=YES, F=NO","f4norcc4qm","0","83","80","85","","","","","","","","","","","","","","","",""
"null","audio/fence.wav","null","audio-keyboard-response","300","2.1.0","322794","J=YES, F=NO","f4norcc4qm","0","83","80","85","","","","","","","","","","","","","","","",""
"522","
          <p id=""word"" style=""font-size: 40px;"">trim</p>
          <p style=""font-size: 16px;"">J = YES &nbsp;&nbsp;&nbsp; F = NO</p>
        ","j","html-keyboard-response","301","2.1.0","323316","J=YES, F=NO","f4norcc4qm","0","83","80","85","","","","","","","","","trim","fence","filler","filler","j","true","",""
"null","<p style=""font-size: 50px;"">+</p>","null","html-keyboard-response","302","2.1.0","323629","J=YES, F=NO","f4norcc4qm","0","83","80","85","","","","","","","","","","","","","","","",""
"null","audio/beep-329314.mp3","null","audio-keyboard-response","303","2.1.0","325154","J=YES, F=NO","f4norcc4qm","0","83","80","85","","","","","","","","","","","","","","","",""
"null","audio/winter.wav","null","audio-keyboard-response","304","2.1.0","325714","J=YES, F=NO","f4norcc4qm","0","83","80","85","","","","","","","","","","","","","","","",""
"709","
          <p id=""word"" style=""font-size: 40px;"">straven</p>
          <p style=""font-size: 16px;"">J = YES &nbsp;&nbsp;&nbsp; F = NO</p>
        ","f","html-keyboard-response","305","2.1.0","326424","J=YES, F=NO","f4norcc4qm","0","83","80","85","","","","","","","","","straven","winter","pseudoword","pseudoword","f","true","",""
"null","<p style=""font-size: 50px;"">+</p>","null","html-keyboard-response","306","2.1.0","326738","J=YES, F=NO","f4norcc4qm","0","83","80","85","","","","","","","","","","","","","","","",""
"null","audio/beep-329314.mp3","null","audio-keyboard-response","307","2.1.0","328274","J=YES, F=NO","f4norcc4qm","0","83","80","85","","","","","","","","","","","","","","","",""
"null","audio/noise1.wav","null","audio-keyboard-response","308","2.1.0","328874","J=YES, F=NO","f4norcc4qm","0","83","80","85","","","","","","","","","","","","","","","",""
"632","
          <p id=""word"" style=""font-size: 40px;"">slintered</p>
          <p style=""font-size: 16px;"">J = YES &nbsp;&nbsp;&nbsp; F = NO</p>
        ","f","html-keyboard-response","309","2.1.0","329506","J=YES, F=NO","f4norcc4qm","0","83","80","85","","","","","","","","","slintered","noise1","pseudoword","pseudoword","f","true","",""
"null","<p style=""font-size: 50px;"">+</p>","null","html-keyboard-response","310","2.1.0","329822","J=YES, F=NO","f4norcc4qm","0","83","80","85","","","","","","","","","","","","","","","",""
"null","audio/beep-329314.mp3","null","audio-keyboard-response","311","2.1.0","331354","J=YES, F=NO","f4norcc4qm","0","83","80","85","","","","","","","","","","","","","","","",""
"null","audio/neck.wav","null","audio-keyboard-response","312","2.1.0","331894","J=YES, F=NO","f4norcc4qm","0","83","80","85","","","","","","","","","","","","","","","",""
"614","
          <p id=""word"" style=""font-size: 40px;"">werling</p>
          <p style=""font-size: 16px;"">J = YES &nbsp;&nbsp;&nbsp; F = NO</p>
        ","f","html-keyboard-response","313","2.1.0","332509","J=YES, F=NO","f4norcc4qm","0","83","80","85","","","","","","","","","werling","neck","pseudoword","pseudoword","f","true","",""
"null","<p style=""font-size: 50px;"">+</p>","null","html-keyboard-response","314","2.1.0","332813","J=YES, F=NO","f4norcc4qm","0","83","80","85","","","","","","","","","","","","","","","",""
"null","audio/beep-329314.mp3","null","audio-keyboard-response","315","2.1.0","334334","J=YES, F=NO","f4norcc4qm","0","83","80","85","","","","","","","","","","","","","","","",""
"null","audio/sand.wav","null","audio-keyboard-response","316","2.1.0","334974","J=YES, F=NO","f4norcc4qm","0","83","80","85","","","","","","","","","","","","","","","",""
"631","
          <p id=""word"" style=""font-size: 40px;"">possess</p>
          <p style=""font-size: 16px;"">J = YES &nbsp;&nbsp;&nbsp; F = NO</p>
        ","j","html-keyboard-response","317","2.1.0","335606","J=YES, F=NO","f4norcc4qm","0","83","80","85","","","","","","","","","possess","sand","unrelated","experimental","j","true","",""
"null","<p style=""font-size: 50px;"">+</p>","null","html-keyboard-response","318","2.1.0","335910","J=YES, F=NO","f4norcc4qm","0","83","80","85","","","","","","","","","","","","","","","",""
"null","audio/beep-329314.mp3","null","audio-keyboard-response","319","2.1.0","337434","J=YES, F=NO","f4norcc4qm","0","83","80","85","","","","","","","","","","","","","","","",""
"null","audio/goal.wav","null","audio-keyboard-response","320","2.1.0","337834","J=YES, F=NO","f4norcc4qm","0","83","80","85","","","","","","","","","","","","","","","",""
"418","
          <p id=""word"" style=""font-size: 40px;"">support</p>
          <p style=""font-size: 16px;"">J = YES &nbsp;&nbsp;&nbsp; F = NO</p>
        ","j","html-keyboard-response","321","2.1.0","338253","J=YES, F=NO","f4norcc4qm","0","83","80","85","","","","","","","","","support","goal","metaphor","experimental","j","true","",""
"null","<p style=""font-size: 50px;"">+</p>","null","html-keyboard-response","322","2.1.0","338566","J=YES, F=NO","f4norcc4qm","0","83","80","85","","","","","","","","","","","","","","","",""
"null","audio/beep-329314.mp3","null","audio-keyboard-response","323","2.1.0","340094","J=YES, F=NO","f4norcc4qm","0","83","80","85","","","","","","","","","","","","","","","",""
"null","audio/road.wav","null","audio-keyboard-response","324","2.1.0","340515","J=YES, F=NO","f4norcc4qm","0","83","80","85","","","","","","","","","","","","","","","",""
"640","
          <p id=""word"" style=""font-size: 40px;"">wappings</p>
          <p style=""font-size: 16px;"">J = YES &nbsp;&nbsp;&nbsp; F = NO</p>
        ","f","html-keyboard-response","325","2.1.0","341155","J=YES, F=NO","f4norcc4qm","0","83","80","85","","","","","","","","","wappings","road","pseudoword","pseudoword","f","true","",""
"null","<p style=""font-size: 50px;"">+</p>","null","html-keyboard-response","326","2.1.0","341461","J=YES, F=NO","f4norcc4qm","0","83","80","85","","","","","","","","","","","","","","","",""
"null","audio/beep-329314.mp3","null","audio-keyboard-response","327","2.1.0","342994","J=YES, F=NO","f4norcc4qm","0","83","80","85","","","","","","","","","","","","","","","",""
"null","audio/desire.wav","null","audio-keyboard-response","328","2.1.0","343614","J=YES, F=NO","f4norcc4qm","0","83","80","85","","","","","","","","","","","","","","","",""
"480","
          <p id=""word"" style=""font-size: 40px;"">open</p>
          <p style=""font-size: 16px;"">J = YES &nbsp;&nbsp;&nbsp; F = NO</p>
        ","j","html-keyboard-response","329","2.1.0","344095","J=YES, F=NO","f4norcc4qm","0","83","80","85","","","","","","","","","open","desire","unrelated","experimental","j","true","",""
"null","<p style=""font-size: 50px;"">+</p>","null","html-keyboard-response","330","2.1.0","344395","J=YES, F=NO","f4norcc4qm","0","83","80","85","","","","","","","","","","","","","","","",""
"null","audio/beep-329314.mp3","null","audio-keyboard-response","331","2.1.0","345934","J=YES, F=NO","f4norcc4qm","0","83","80","85","","","","","","","","","","","","","","","",""
"null","audio/budget1.wav","null","audio-keyboard-response","332","2.1.0","346534","J=YES, F=NO","f4norcc4qm","0","83","80","85","","","","","","","","","","","","","","","",""
"413","
          <p id=""word"" style=""font-size: 40px;"">cut</p>
          <p style=""font-size: 16px;"">J = YES &nbsp;&nbsp;&nbsp; F = NO</p>
        ","j","html-keyboard-response","333","2.1.0","346948","J=YES, F=NO","f4norcc4qm","0","83","80","85","","","","","","","","","cut","budget1","metaphor","experimental","j","true","",""
"null","<p style=""font-size: 50px;"">+</p>","null","html-keyboard-response","334","2.1.0","347258","J=YES, F=NO","f4norcc4qm","0","83","80","85","","","","","","","","","","","","","","","",""
"null","audio/beep-329314.mp3","null","audio-keyboard-response","335","2.1.0","348794","J=YES, F=NO","f4norcc4qm","0","83","80","85","","","","","","","","","","","","","","","",""
"null","audio/breath.wav","null","audio-keyboard-response","336","2.1.0","349354","J=YES, F=NO","f4norcc4qm","0","83","80","85","","","","","","","","","","","","","","","",""
"450","
          <p id=""word"" style=""font-size: 40px;"">pack</p>
          <p style=""font-size: 16px;"">J = YES &nbsp;&nbsp;&nbsp; F = NO</p>
        ","j","html-keyboard-response","337","2.1.0","349805","J=YES, F=NO","f4norcc4qm","0","83","80","85","","","","","","","","","pack","breath","filler","filler","j","true","",""
"null","<p style=""font-size: 50px;"">+</p>","null","html-keyboard-response","338","2.1.0","350119","J=YES, F=NO","f4norcc4qm","0","83","80","85","","","","","","","","","","","","","","","",""
"null","audio/beep-329314.mp3","null","audio-keyboard-response","339","2.1.0","351654","J=YES, F=NO","f4norcc4qm","0","83","80","85","","","","","","","","","","","","","","","",""
"null","audio/theory1.wav","null","audio-keyboard-response","340","2.1.0","352294","J=YES, F=NO","f4norcc4qm","0","83","80","85","","","","","","","","","","","","","","","",""
"745","
          <p id=""word"" style=""font-size: 40px;"">scolve</p>
          <p style=""font-size: 16px;"">J = YES &nbsp;&nbsp;&nbsp; F = NO</p>
        ","f","html-keyboard-response","341","2.1.0","353040","J=YES, F=NO","f4norcc4qm","0","83","80","85","","","","","","","","","scolve","theory1","pseudoword","pseudoword","f","true","",""
"null","<p style=""font-size: 50px;"">+</p>","null","html-keyboard-response","342","2.1.0","353342","J=YES, F=NO","f4norcc4qm","0","83","80","85","","","","","","","","","","","","","","","",""
"null","audio/beep-329314.mp3","null","audio-keyboard-response","343","2.1.0","354874","J=YES, F=NO","f4norcc4qm","0","83","80","85","","","","","","","","","","","","","","","",""
"null","audio/table1.wav","null","audio-keyboard-response","344","2.1.0","355354","J=YES, F=NO","f4norcc4qm","0","83","80","85","","","","","","","","","","","","","","","",""
"723","
          <p id=""word"" style=""font-size: 40px;"">stimb</p>
          <p style=""font-size: 16px;"">J = YES &nbsp;&nbsp;&nbsp; F = NO</p>
        ","f","html-keyboard-response","345","2.1.0","356077","J=YES, F=NO","f4norcc4qm","0","83","80","85","","","","","","","","","stimb","table1","pseudoword","pseudoword","f","true","",""
"null","<p style=""font-size: 50px;"">+</p>","null","html-keyboard-response","346","2.1.0","356378","J=YES, F=NO","f4norcc4qm","0","83","80","85","","","","","","","","","","","","","","","",""
"null","audio/beep-329314.mp3","null","audio-keyboard-response","347","2.1.0","357914","J=YES, F=NO","f4norcc4qm","0","83","80","85","","","","","","","","","","","","","","","",""
"null","audio/tunnel.wav","null","audio-keyboard-response","348","2.1.0","358335","J=YES, F=NO","f4norcc4qm","0","83","80","85","","","","","","","","","","","","","","","",""
"907","
          <p id=""word"" style=""font-size: 40px;"">gred</p>
          <p style=""font-size: 16px;"">J = YES &nbsp;&nbsp;&nbsp; F = NO</p>
        ","f","html-keyboard-response","349","2.1.0","359242","J=YES, F=NO","f4norcc4qm","0","83","80","85","","","","","","","","","gred","tunnel","pseudoword","pseudoword","f","true","",""
"null","<p style=""font-size: 50px;"">+</p>","null","html-keyboard-response","350","2.1.0","359555","J=YES, F=NO","f4norcc4qm","0","83","80","85","","","","","","","","","","","","","","","",""
"null","audio/beep-329314.mp3","null","audio-keyboard-response","351","2.1.0","361094","J=YES, F=NO","f4norcc4qm","0","83","80","85","","","","","","","","","","","","","","","",""
"null","audio/cancer1.wav","null","audio-keyboard-response","352","2.1.0","361634","J=YES, F=NO","f4norcc4qm","0","83","80","85","","","","","","","","","","","","","","","",""
"421","
          <p id=""word"" style=""font-size: 40px;"">fight</p>
          <p style=""font-size: 16px;"">J = YES &nbsp;&nbsp;&nbsp; F = NO</p>
        ","j","html-keyboard-response","353","2.1.0","362055","J=YES, F=NO","f4norcc4qm","0","83","80","85","","","","","","","","","fight","cancer1","metaphor","experimental","j","true","",""
"null","<p style=""font-size: 50px;"">+</p>","null","html-keyboard-response","354","2.1.0","362362","J=YES, F=NO","f4norcc4qm","0","83","80","85","","","","","","","","","","","","","","","",""
"null","audio/beep-329314.mp3","null","audio-keyboard-response","355","2.1.0","363894","J=YES, F=NO","f4norcc4qm","0","83","80","85","","","","","","","","","","","","","","","",""
"null","audio/holiday1.wav","null","audio-keyboard-response","356","2.1.0","364514","J=YES, F=NO","f4norcc4qm","0","83","80","85","","","","","","","","","","","","","","","",""
"640","
          <p id=""word"" style=""font-size: 40px;"">drivets</p>
          <p style=""font-size: 16px;"">J = YES &nbsp;&nbsp;&nbsp; F = NO</p>
        ","f","html-keyboard-response","357","2.1.0","365155","J=YES, F=NO","f4norcc4qm","0","83","80","85","","","","","","","","","drivets","holiday1","pseudoword","pseudoword","f","true","",""
"null","<p style=""font-size: 50px;"">+</p>","null","html-keyboard-response","358","2.1.0","365467","J=YES, F=NO","f4norcc4qm","0","83","80","85","","","","","","","","","","","","","","","",""
"null","audio/beep-329314.mp3","null","audio-keyboard-response","359","2.1.0","366994","J=YES, F=NO","f4norcc4qm","0","83","80","85","","","","","","","","","","","","","","","",""
"null","audio/pig.wav","null","audio-keyboard-response","360","2.1.0","367374","J=YES, F=NO","f4norcc4qm","0","83","80","85","","","","","","","","","","","","","","","",""
"676","
          <p id=""word"" style=""font-size: 40px;"">tirlike</p>
          <p style=""font-size: 16px;"">J = YES &nbsp;&nbsp;&nbsp; F = NO</p>
        ","f","html-keyboard-response","361","2.1.0","368051","J=YES, F=NO","f4norcc4qm","0","83","80","85","","","","","","","","","tirlike","pig","pseudoword","pseudoword","f","true","",""
"60878","<p>Excellent! You have finished block 3 of 8.</p>
                     <p>Feel free to take a 30 second break.</p>
                     <p>Press any key when you're ready to continue.</p>","f","html-keyboard-response","362","2.1.0","428929","J=YES, F=NO","f4norcc4qm","0","83","80","85","","","","","","","","","","","","","","","",""
"976","<p>Starting main block 4 of 8. Press any key to continue.</p>","f","html-keyboard-response","363","2.1.0","429905","J=YES, F=NO","f4norcc4qm","0","83","80","85","","","","","","","","","","","","","","","",""
"null","<p style=""font-size: 50px;"">+</p>","null","html-keyboard-response","364","2.1.0","430206","J=YES, F=NO","f4norcc4qm","0","83","80","85","","","","","","","","","","","","","","","",""
"null","audio/beep-329314.mp3","null","audio-keyboard-response","365","2.1.0","431720","J=YES, F=NO","f4norcc4qm","0","83","80","85","","","","","","","","","","","","","","","",""
"null","audio/pain1.wav","null","audio-keyboard-response","366","2.1.0","432130","J=YES, F=NO","f4norcc4qm","0","83","80","85","","","","","","","","","","","","","","","",""
"414","
          <p id=""word"" style=""font-size: 40px;"">sell</p>
          <p style=""font-size: 16px;"">J = YES &nbsp;&nbsp;&nbsp; F = NO</p>
        ","j","html-keyboard-response","367","2.1.0","432545","J=YES, F=NO","f4norcc4qm","0","83","80","85","","","","","","","","","sell","pain1","unrelated","experimental","j","true","",""
"null","<p style=""font-size: 50px;"">+</p>","null","html-keyboard-response","368","2.1.0","432857","J=YES, F=NO","f4norcc4qm","0","83","80","85","","","","","","","","","","","","","","","",""
"null","audio/beep-329314.mp3","null","audio-keyboard-response","369","2.1.0","434380","J=YES, F=NO","f4norcc4qm","0","83","80","85","","","","","","","","","","","","","","","",""
"null","audio/mood1.wav","null","audio-keyboard-response","370","2.1.0","434831","J=YES, F=NO","f4norcc4qm","0","83","80","85","","","","","","","","","","","","","","","",""
"440","
          <p id=""word"" style=""font-size: 40px;"">give</p>
          <p style=""font-size: 16px;"">J = YES &nbsp;&nbsp;&nbsp; F = NO</p>
        ","j","html-keyboard-response","371","2.1.0","435271","J=YES, F=NO","f4norcc4qm","0","83","80","85","","","","","","","","","give","mood1","unrelated","experimental","j","true","",""
"null","<p style=""font-size: 50px;"">+</p>","null","html-keyboard-response","372","2.1.0","435587","J=YES, F=NO","f4norcc4qm","0","83","80","85","","","","","","","","","","","","","","","",""
"null","audio/beep-329314.mp3","null","audio-keyboard-response","373","2.1.0","437120","J=YES, F=NO","f4norcc4qm","0","83","80","85","","","","","","","","","","","","","","","",""
"null","audio/burden.wav","null","audio-keyboard-response","374","2.1.0","437610","J=YES, F=NO","f4norcc4qm","0","83","80","85","","","","","","","","","","","","","","","",""
"399","
          <p id=""word"" style=""font-size: 40px;"">carry</p>
          <p style=""font-size: 16px;"">J = YES &nbsp;&nbsp;&nbsp; F = NO</p>
        ","j","html-keyboard-response","375","2.1.0","438009","J=YES, F=NO","f4norcc4qm","0","83","80","85","","","","","","","","","carry","burden","metaphor","experimental","j","true","",""
"null","<p style=""font-size: 50px;"">+</p>","null","html-keyboard-response","376","2.1.0","438311","J=YES, F=NO","f4norcc4qm","0","83","80","85","","","","","","","","","","","","","","","",""
"null","audio/beep-329314.mp3","null","audio-keyboard-response","377","2.1.0","439840","J=YES, F=NO","f4norcc4qm","0","83","80","85","","","","","","","","","","","","","","","",""
"null","audio/pizza1.wav","null","audio-keyboard-response","378","2.1.0","440390","J=YES, F=NO","f4norcc4qm","0","83","80","85","","","","","","","","","","","","","","","",""
"427","
          <p id=""word"" style=""font-size: 40px;"">devour</p>
          <p style=""font-size: 16px;"">J = YES &nbsp;&nbsp;&nbsp; F = NO</p>
        ","j","html-keyboard-response","379","2.1.0","440818","J=YES, F=NO","f4norcc4qm","0","83","80","85","","","","","","","","","devour","pizza1","literal","experimental","j","true","",""
"null","<p style=""font-size: 50px;"">+</p>","null","html-keyboard-response","380","2.1.0","441132","J=YES, F=NO","f4norcc4qm","0","83","80","85","","","","","","","","","","","","","","","",""
"null","audio/beep-329314.mp3","null","audio-keyboard-response","381","2.1.0","442660","J=YES, F=NO","f4norcc4qm","0","83","80","85","","","","","","","","","","","","","","","",""
"null","audio/ankle1.wav","null","audio-keyboard-response","382","2.1.0","443170","J=YES, F=NO","f4norcc4qm","0","83","80","85","","","","","","","","","","","","","","","",""
"352","
          <p id=""word"" style=""font-size: 40px;"">kick</p>
          <p style=""font-size: 16px;"">J = YES &nbsp;&nbsp;&nbsp; F = NO</p>
        ","j","html-keyboard-response","383","2.1.0","443522","J=YES, F=NO","f4norcc4qm","0","83","80","85","","","","","","","","","kick","ankle1","filler","filler","j","true","",""
"null","<p style=""font-size: 50px;"">+</p>","null","html-keyboard-response","384","2.1.0","443827","J=YES, F=NO","f4norcc4qm","0","83","80","85","","","","","","","","","","","","","","","",""
"null","audio/beep-329314.mp3","null","audio-keyboard-response","385","2.1.0","445360","J=YES, F=NO","f4norcc4qm","0","83","80","85","","","","","","","","","","","","","","","",""
"null","audio/bottle.wav","null","audio-keyboard-response","386","2.1.0","445810","J=YES, F=NO","f4norcc4qm","0","83","80","85","","","","","","","","","","","","","","","",""
"394","
          <p id=""word"" style=""font-size: 40px;"">watch</p>
          <p style=""font-size: 16px;"">J = YES &nbsp;&nbsp;&nbsp; F = NO</p>
        ","j","html-keyboard-response","387","2.1.0","446204","J=YES, F=NO","f4norcc4qm","0","83","80","85","","","","","","","","","watch","bottle","filler","filler","j","true","",""
"null","<p style=""font-size: 50px;"">+</p>","null","html-keyboard-response","388","2.1.0","446510","J=YES, F=NO","f4norcc4qm","0","83","80","85","","","","","","","","","","","","","","","",""
"null","audio/beep-329314.mp3","null","audio-keyboard-response","389","2.1.0","448040","J=YES, F=NO","f4norcc4qm","0","83","80","85","","","","","","","","","","","","","","","",""
"null","audio/plane1.wav","null","audio-keyboard-response","390","2.1.0","448470","J=YES, F=NO","f4norcc4qm","0","83","80","85","","","","","","","","","","","","","","","",""
"334","
          <p id=""word"" style=""font-size: 40px;"">land</p>
          <p style=""font-size: 16px;"">J = YES &nbsp;&nbsp;&nbsp; F = NO</p>
        ","j","html-keyboard-response","391","2.1.0","448805","J=YES, F=NO","f4norcc4qm","0","83","80","85","","","","","","","","","land","plane1","literal","experimental","j","true","",""
