"rt","stimulus","response","trial_type","trial_index","plugin_version","time_elapsed","response_mapping","subject_id","list_index","lextale_score","lextale_word_score","lextale_nonword_score","success","timeout","failed_images","failed_audio","failed_video","task","isWord","isDummy","target","prime","prime_type","stimulus_type","correct_response","correct","section","question_order"
"3233","
    <div style=""max-width: 800px; margin: auto; text-align: left;"">
      <h2>STANFORD UNIVERSITY</h2>
      <h3>Research Information Sheet</h3>
      <p><strong>Protocol Director:</strong> Robert Hawkins<br>
      <strong>Protocol Title:</strong> Communication and social cognition in natural audiovisual contexts<br>
      <strong>IRB#:</strong> 77226</p>

      <p><strong>DESCRIPTION:</strong> You are invited to participate in a research study about language and communication. The purpose of the research is to understand how you interact and communicate with other people in naturalistic settings as a fluent English speaker. This research will be conducted through the Prolific platform, including participants from the US, UK, and Canada. If you decide to participate in this research, you will play a communication game in a group with one or more partners.</p>

      <p><strong>TIME INVOLVEMENT:</strong> The task will last the amount of time advertised on Prolific. You are free to withdraw from the study at any time.</p>

      <p><strong>RISKS AND BENEFITS:</strong> You may become frustrated if your partner gets distracted, or experience discomfort if other participants in your group send text that is inappropriate for the task. We ask you to please be respectful of other participants you might be interacting with to mitigate these risks. You may also experience discomfort when being asked to discuss or challenge emotionally salient political beliefs. Study data will be stored securely, in compliance with Stanford University standards, minimizing the risk of confidentiality breach. This study advances our scientific understanding of how people communicate and collaborate in naturalistic settings. This study may lead to further insights about what can go wrong in teamwork, suggest potential interventions to overcome these barriers, and help to develop assistive technologies that collaborate with human partners. We cannot and do not guarantee or promise that you will receive any benefits from this study.</p>

      <p><strong>PAYMENTS:</strong> You will receive payment in the amount advertised on Prolific. If you do not complete this study, you will receive prorated payment based on the time that you have spent. Additionally, you may be eligible for bonus payments as described in the instructions.</p>

      <p><strong>PARTICIPANT’S RIGHTS:</strong> If you have read this form and have decided to participate in this project, please understand your participation is voluntary and you have the right to withdraw your consent or discontinue participation at any time without penalty or loss of benefits to which you are otherwise entitled. The alternative is not to participate. You have the right to refuse to answer particular questions. The results of this research study may be presented at scientific or professional meetings or published in scientific journals. Your individual privacy will be maintained in all published and written data resulting from the study. In accordance with scientific norms, the data from this study may be used or shared with other researchers for future research (after removing personally identifying information) without additional consent from you.</p>

      <p><strong>CONTACT INFORMATION:</strong><br>
      Questions: If you have any questions, concerns or complaints about this research, its procedures, risks and benefits, contact the Protocol Director, Robert Hawkins (<a href=""mailto:rdhawkins@stanford.edu"">rdhawkins@stanford.edu</a>, 217-549-6923).<br>
      Independent Contact: If you are not satisfied with how this study is being conducted, or if you have any concerns, complaints, or general questions about the research or your rights as a participant, please contact the Stanford Institutional Review Board (IRB) to speak to someone independent of the research team at 650-723-2480 or toll free at 1-866-680-2906, or email at <a href=""mailto:irbnon-med@stanford.edu"">irbnon-med@stanford.edu</a>. You can also write to the Stanford IRB, Stanford University, 1705 El Camino Real, Palo Alto, CA 94306.</p>

      <p><strong>Please save or print a copy of this page for your records.</strong></p>
      <p>If you agree to participate in this research, click ""Continue"" below.</p>
    </div>
  ","0","html-button-response","0","2.1.0","3241","J=YES, F=NO","f55z05cpwq","1","78","85","70","","","","","","","","","","","","","","","",""
"13912","
    <div style=""max-width: 800px; margin: auto; text-align: left;"">
      <h2>Welcome!</h2>
      <p>Thank you for participating in this study. The experiment consists of three parts:</p>
      <ol>
        <li>An English vocabulary test</li>
        <li>A main task in which you will hear and see words, and decide whether the written word is a real English word</li>
        <li>A brief survey about your background</li>
      </ol>
      <p>Each part will be introduced before it begins.</p>
      <p>Please make sure you are in a quiet environment and can hear audio clearly for the final task.</p>
      <p style=""margin-top: 2em;"">Press any key to begin.</p>
    </div>
  ","f","html-keyboard-response","1","2.1.0","17155","J=YES, F=NO","f55z05cpwq","1","78","85","70","","","","","","","","","","","","","","","",""
"","","","preload","2","2.1.0","23558","J=YES, F=NO","f55z05cpwq","1","78","85","70","true","false","[]","[]","[]","","","","","","","","","","",""
"6970","
    <div style=""max-width: 800px; margin: auto; text-align: left;"">
      <h2>Part 1: Vocabulary Test</h2>
      <p>You will now complete the first part of the study: a short English vocabulary test.</p>
      <p>This test is called <strong>LexTALE</strong> and helps us get a general sense of your English proficiency.</p>
      <p style=""margin-top: 2em;"">Press any key to continue.</p>
    </div>
  ","j","html-keyboard-response","3","2.1.0","30528","J=YES, F=NO","f55z05cpwq","1","78","85","70","","","","","","","","","","","","","","","",""
"7920","
    <div style=""max-width: 800px; margin: auto; text-align: left;"">
      <h2>LexTALE Vocabulary Test</h2>
      <p>In this test, you will see a series of letter strings—one at a time.</p>
      <p>Your task is to decide whether each string is a real English word.</p>
      <p><strong>Key responses:</strong></p>
      <ul>
        <li><strong>J</strong> = YES (real English word)</li>
        <li><strong>F</strong> = NO (not a real English word)</li>
      </ul>
      <p>There is no time limit, but please try to be accurate.</p>
      <p style=""margin-top: 2em;"">Press any key to begin.</p>
    </div>
  ","j","html-keyboard-response","4","2.1.0","38448","J=YES, F=NO","f55z05cpwq","1","78","85","70","","","","","","","","","","","","","","","",""
"3656","
  <p style=""font-size: 40px;"">platery</p>
  <p style=""font-size: 16px;"">J = YES &nbsp;&nbsp;&nbsp; F = NO</p>
","j","html-keyboard-response","5","2.1.0","42105","J=YES, F=NO","f55z05cpwq","1","78","85","70","","","","","","lextale","false","true","","","","","","","",""
"911","
  <p style=""font-size: 40px;"">denial</p>
  <p style=""font-size: 16px;"">J = YES &nbsp;&nbsp;&nbsp; F = NO</p>
","j","html-keyboard-response","6","2.1.0","43016","J=YES, F=NO","f55z05cpwq","1","78","85","70","","","","","","lextale","true","true","","","","","","","",""
"3000","
  <p style=""font-size: 40px;"">marrit</p>
  <p style=""font-size: 16px;"">J = YES &nbsp;&nbsp;&nbsp; F = NO</p>
","f","html-keyboard-response","7","2.1.0","46016","J=YES, F=NO","f55z05cpwq","1","78","85","70","","","","","","lextale","false","true","","","","","","","",""
"968","
  <p style=""font-size: 40px;"">bottle</p>
  <p style=""font-size: 16px;"">J = YES &nbsp;&nbsp;&nbsp; F = NO</p>
","j","html-keyboard-response","8","2.1.0","46985","J=YES, F=NO","f55z05cpwq","1","78","85","70","","","","","","lextale","true","false","","","","","","","",""
"1191","
  <p style=""font-size: 40px;"">birst</p>
  <p style=""font-size: 16px;"">J = YES &nbsp;&nbsp;&nbsp; F = NO</p>
","f","html-keyboard-response","9","2.1.0","48176","J=YES, F=NO","f55z05cpwq","1","78","85","70","","","","","","lextale","false","false","","","","","","","",""
"1079","
  <p style=""font-size: 40px;"">envy</p>
  <p style=""font-size: 16px;"">J = YES &nbsp;&nbsp;&nbsp; F = NO</p>
","j","html-keyboard-response","10","2.1.0","49256","J=YES, F=NO","f55z05cpwq","1","78","85","70","","","","","","lextale","true","false","","","","","","","",""
"1551","
  <p style=""font-size: 40px;"">brang</p>
  <p style=""font-size: 16px;"">J = YES &nbsp;&nbsp;&nbsp; F = NO</p>
","f","html-keyboard-response","11","2.1.0","50808","J=YES, F=NO","f55z05cpwq","1","78","85","70","","","","","","lextale","false","false","","","","","","","",""
"863","
  <p style=""font-size: 40px;"">huge</p>
  <p style=""font-size: 16px;"">J = YES &nbsp;&nbsp;&nbsp; F = NO</p>
","j","html-keyboard-response","12","2.1.0","51672","J=YES, F=NO","f55z05cpwq","1","78","85","70","","","","","","lextale","true","false","","","","","","","",""
"1407","
  <p style=""font-size: 40px;"">plove</p>
  <p style=""font-size: 16px;"">J = YES &nbsp;&nbsp;&nbsp; F = NO</p>
","j","html-keyboard-response","13","2.1.0","53080","J=YES, F=NO","f55z05cpwq","1","78","85","70","","","","","","lextale","false","false","","","","","","","",""
"607","
  <p style=""font-size: 40px;"">border</p>
  <p style=""font-size: 16px;"">J = YES &nbsp;&nbsp;&nbsp; F = NO</p>
","j","html-keyboard-response","14","2.1.0","53688","J=YES, F=NO","f55z05cpwq","1","78","85","70","","","","","","lextale","true","false","","","","","","","",""
"688","
  <p style=""font-size: 40px;"">flimsy</p>
  <p style=""font-size: 16px;"">J = YES &nbsp;&nbsp;&nbsp; F = NO</p>
","j","html-keyboard-response","15","2.1.0","54376","J=YES, F=NO","f55z05cpwq","1","78","85","70","","","","","","lextale","true","false","","","","","","","",""
"592","
  <p style=""font-size: 40px;"">drain</p>
  <p style=""font-size: 16px;"">J = YES &nbsp;&nbsp;&nbsp; F = NO</p>
","j","html-keyboard-response","16","2.1.0","54968","J=YES, F=NO","f55z05cpwq","1","78","85","70","","","","","","lextale","true","false","","","","","","","",""
"952","
  <p style=""font-size: 40px;"">twindle</p>
  <p style=""font-size: 16px;"">J = YES &nbsp;&nbsp;&nbsp; F = NO</p>
","j","html-keyboard-response","17","2.1.0","55921","J=YES, F=NO","f55z05cpwq","1","78","85","70","","","","","","lextale","false","false","","","","","","","",""
"623","
  <p style=""font-size: 40px;"">propose</p>
  <p style=""font-size: 16px;"">J = YES &nbsp;&nbsp;&nbsp; F = NO</p>
","j","html-keyboard-response","18","2.1.0","56544","J=YES, F=NO","f55z05cpwq","1","78","85","70","","","","","","lextale","true","false","","","","","","","",""
"1056","
  <p style=""font-size: 40px;"">forlay</p>
  <p style=""font-size: 16px;"">J = YES &nbsp;&nbsp;&nbsp; F = NO</p>
","j","html-keyboard-response","19","2.1.0","57601","J=YES, F=NO","f55z05cpwq","1","78","85","70","","","","","","lextale","false","false","","","","","","","",""
"679","
  <p style=""font-size: 40px;"">tenant</p>
  <p style=""font-size: 16px;"">J = YES &nbsp;&nbsp;&nbsp; F = NO</p>
","j","html-keyboard-response","20","2.1.0","58281","J=YES, F=NO","f55z05cpwq","1","78","85","70","","","","","","lextale","true","false","","","","","","","",""
"711","
  <p style=""font-size: 40px;"">strain</p>
  <p style=""font-size: 16px;"">J = YES &nbsp;&nbsp;&nbsp; F = NO</p>
","j","html-keyboard-response","21","2.1.0","58992","J=YES, F=NO","f55z05cpwq","1","78","85","70","","","","","","lextale","true","false","","","","","","","",""
"1023","
  <p style=""font-size: 40px;"">holster</p>
  <p style=""font-size: 16px;"">J = YES &nbsp;&nbsp;&nbsp; F = NO</p>
","j","html-keyboard-response","22","2.1.0","60016","J=YES, F=NO","f55z05cpwq","1","78","85","70","","","","","","lextale","true","false","","","","","","","",""
"959","
  <p style=""font-size: 40px;"">hinder</p>
  <p style=""font-size: 16px;"">J = YES &nbsp;&nbsp;&nbsp; F = NO</p>
","j","html-keyboard-response","23","2.1.0","60976","J=YES, F=NO","f55z05cpwq","1","78","85","70","","","","","","lextale","true","false","","","","","","","",""
"639","
  <p style=""font-size: 40px;"">swindle</p>
  <p style=""font-size: 16px;"">J = YES &nbsp;&nbsp;&nbsp; F = NO</p>
","j","html-keyboard-response","24","2.1.0","61616","J=YES, F=NO","f55z05cpwq","1","78","85","70","","","","","","lextale","true","false","","","","","","","",""
"896","
  <p style=""font-size: 40px;"">nuder</p>
  <p style=""font-size: 16px;"">J = YES &nbsp;&nbsp;&nbsp; F = NO</p>
","f","html-keyboard-response","25","2.1.0","62512","J=YES, F=NO","f55z05cpwq","1","78","85","70","","","","","","lextale","false","false","","","","","","","",""
"688","
  <p style=""font-size: 40px;"">pillow</p>
  <p style=""font-size: 16px;"">J = YES &nbsp;&nbsp;&nbsp; F = NO</p>
","j","html-keyboard-response","26","2.1.0","63201","J=YES, F=NO","f55z05cpwq","1","78","85","70","","","","","","lextale","true","false","","","","","","","",""
"1559","
  <p style=""font-size: 40px;"">shumble</p>
  <p style=""font-size: 16px;"">J = YES &nbsp;&nbsp;&nbsp; F = NO</p>
","f","html-keyboard-response","27","2.1.0","64760","J=YES, F=NO","f55z05cpwq","1","78","85","70","","","","","","lextale","false","false","","","","","","","",""
"639","
  <p style=""font-size: 40px;"">thirst</p>
  <p style=""font-size: 16px;"">J = YES &nbsp;&nbsp;&nbsp; F = NO</p>
","j","html-keyboard-response","28","2.1.0","65400","J=YES, F=NO","f55z05cpwq","1","78","85","70","","","","","","lextale","true","false","","","","","","","",""
"1487","
  <p style=""font-size: 40px;"">unsail</p>
  <p style=""font-size: 16px;"">J = YES &nbsp;&nbsp;&nbsp; F = NO</p>
","f","html-keyboard-response","29","2.1.0","66888","J=YES, F=NO","f55z05cpwq","1","78","85","70","","","","","","lextale","false","false","","","","","","","",""
"599","
  <p style=""font-size: 40px;"">rifle</p>
  <p style=""font-size: 16px;"">J = YES &nbsp;&nbsp;&nbsp; F = NO</p>
","j","html-keyboard-response","30","2.1.0","67488","J=YES, F=NO","f55z05cpwq","1","78","85","70","","","","","","lextale","true","false","","","","","","","",""
"679","
  <p style=""font-size: 40px;"">mush</p>
  <p style=""font-size: 16px;"">J = YES &nbsp;&nbsp;&nbsp; F = NO</p>
","j","html-keyboard-response","31","2.1.0","68167","J=YES, F=NO","f55z05cpwq","1","78","85","70","","","","","","lextale","false","false","","","","","","","",""
"568","
  <p style=""font-size: 40px;"">drench</p>
  <p style=""font-size: 16px;"">J = YES &nbsp;&nbsp;&nbsp; F = NO</p>
","j","html-keyboard-response","32","2.1.0","68736","J=YES, F=NO","f55z05cpwq","1","78","85","70","","","","","","lextale","true","false","","","","","","","",""
"1192","
  <p style=""font-size: 40px;"">snirt</p>
  <p style=""font-size: 16px;"">J = YES &nbsp;&nbsp;&nbsp; F = NO</p>
","f","html-keyboard-response","33","2.1.0","69928","J=YES, F=NO","f55z05cpwq","1","78","85","70","","","","","","lextale","false","false","","","","","","","",""
"679","
  <p style=""font-size: 40px;"">bitter</p>
  <p style=""font-size: 16px;"">J = YES &nbsp;&nbsp;&nbsp; F = NO</p>
","j","html-keyboard-response","34","2.1.0","70608","J=YES, F=NO","f55z05cpwq","1","78","85","70","","","","","","lextale","true","false","","","","","","","",""
"815","
  <p style=""font-size: 40px;"">pliff</p>
  <p style=""font-size: 16px;"">J = YES &nbsp;&nbsp;&nbsp; F = NO</p>
","f","html-keyboard-response","35","2.1.0","71424","J=YES, F=NO","f55z05cpwq","1","78","85","70","","","","","","lextale","false","false","","","","","","","",""
"552","
  <p style=""font-size: 40px;"">tablet</p>
  <p style=""font-size: 16px;"">J = YES &nbsp;&nbsp;&nbsp; F = NO</p>
","j","html-keyboard-response","36","2.1.0","71976","J=YES, F=NO","f55z05cpwq","1","78","85","70","","","","","","lextale","true","false","","","","","","","",""
"671","
  <p style=""font-size: 40px;"">glimmer</p>
  <p style=""font-size: 16px;"">J = YES &nbsp;&nbsp;&nbsp; F = NO</p>
","j","html-keyboard-response","37","2.1.0","72648","J=YES, F=NO","f55z05cpwq","1","78","85","70","","","","","","lextale","true","false","","","","","","","",""
"6360","
  <p style=""font-size: 40px;"">slink</p>
  <p style=""font-size: 16px;"">J = YES &nbsp;&nbsp;&nbsp; F = NO</p>
","j","html-keyboard-response","38","2.1.0","79008","J=YES, F=NO","f55z05cpwq","1","78","85","70","","","","","","lextale","true","false","","","","","","","",""
"559","
  <p style=""font-size: 40px;"">clever</p>
  <p style=""font-size: 16px;"">J = YES &nbsp;&nbsp;&nbsp; F = NO</p>
","j","html-keyboard-response","39","2.1.0","79568","J=YES, F=NO","f55z05cpwq","1","78","85","70","","","","","","lextale","true","false","","","","","","","",""
"1016","
  <p style=""font-size: 40px;"">grum</p>
  <p style=""font-size: 16px;"">J = YES &nbsp;&nbsp;&nbsp; F = NO</p>
","f","html-keyboard-response","40","2.1.0","80584","J=YES, F=NO","f55z05cpwq","1","78","85","70","","","","","","lextale","false","false","","","","","","","",""
"799","
  <p style=""font-size: 40px;"">string</p>
  <p style=""font-size: 16px;"">J = YES &nbsp;&nbsp;&nbsp; F = NO</p>
","j","html-keyboard-response","41","2.1.0","81384","J=YES, F=NO","f55z05cpwq","1","78","85","70","","","","","","lextale","true","false","","","","","","","",""
"1151","
  <p style=""font-size: 40px;"">plim</p>
  <p style=""font-size: 16px;"">J = YES &nbsp;&nbsp;&nbsp; F = NO</p>
","f","html-keyboard-response","42","2.1.0","82535","J=YES, F=NO","f55z05cpwq","1","78","85","70","","","","","","lextale","false","false","","","","","","","",""
"2111","
  <p style=""font-size: 40px;"">cable</p>
  <p style=""font-size: 16px;"">J = YES &nbsp;&nbsp;&nbsp; F = NO</p>
","j","html-keyboard-response","43","2.1.0","84647","J=YES, F=NO","f55z05cpwq","1","78","85","70","","","","","","lextale","true","false","","","","","","","",""
"2728","
  <p style=""font-size: 40px;"">shrivel</p>
  <p style=""font-size: 16px;"">J = YES &nbsp;&nbsp;&nbsp; F = NO</p>
","j","html-keyboard-response","44","2.1.0","87375","J=YES, F=NO","f55z05cpwq","1","78","85","70","","","","","","lextale","true","false","","","","","","","",""
"600","
  <p style=""font-size: 40px;"">tarnish</p>
  <p style=""font-size: 16px;"">J = YES &nbsp;&nbsp;&nbsp; F = NO</p>
","j","html-keyboard-response","45","2.1.0","87976","J=YES, F=NO","f55z05cpwq","1","78","85","70","","","","","","lextale","true","false","","","","","","","",""
"863","
  <p style=""font-size: 40px;"">blim</p>
  <p style=""font-size: 16px;"">J = YES &nbsp;&nbsp;&nbsp; F = NO</p>
","f","html-keyboard-response","46","2.1.0","88839","J=YES, F=NO","f55z05cpwq","1","78","85","70","","","","","","lextale","false","false","","","","","","","",""
"1655","
  <p style=""font-size: 40px;"">stifle</p>
  <p style=""font-size: 16px;"">J = YES &nbsp;&nbsp;&nbsp; F = NO</p>
","j","html-keyboard-response","47","2.1.0","90496","J=YES, F=NO","f55z05cpwq","1","78","85","70","","","","","","lextale","true","false","","","","","","","",""
"679","
  <p style=""font-size: 40px;"">bint</p>
  <p style=""font-size: 16px;"">J = YES &nbsp;&nbsp;&nbsp; F = NO</p>
","f","html-keyboard-response","48","2.1.0","91175","J=YES, F=NO","f55z05cpwq","1","78","85","70","","","","","","lextale","false","false","","","","","","","",""
"752","
  <p style=""font-size: 40px;"">purple</p>
  <p style=""font-size: 16px;"">J = YES &nbsp;&nbsp;&nbsp; F = NO</p>
","j","html-keyboard-response","49","2.1.0","91927","J=YES, F=NO","f55z05cpwq","1","78","85","70","","","","","","lextale","true","false","","","","","","","",""
"784","
  <p style=""font-size: 40px;"">wriggle</p>
  <p style=""font-size: 16px;"">J = YES &nbsp;&nbsp;&nbsp; F = NO</p>
","j","html-keyboard-response","50","2.1.0","92712","J=YES, F=NO","f55z05cpwq","1","78","85","70","","","","","","lextale","true","false","","","","","","","",""
"799","
  <p style=""font-size: 40px;"">mangle</p>
  <p style=""font-size: 16px;"">J = YES &nbsp;&nbsp;&nbsp; F = NO</p>
","j","html-keyboard-response","51","2.1.0","93511","J=YES, F=NO","f55z05cpwq","1","78","85","70","","","","","","lextale","true","false","","","","","","","",""
"808","
  <p style=""font-size: 40px;"">shramp</p>
  <p style=""font-size: 16px;"">J = YES &nbsp;&nbsp;&nbsp; F = NO</p>
","f","html-keyboard-response","52","2.1.0","94320","J=YES, F=NO","f55z05cpwq","1","78","85","70","","","","","","lextale","false","false","","","","","","","",""
"559","
  <p style=""font-size: 40px;"">flirt</p>
  <p style=""font-size: 16px;"">J = YES &nbsp;&nbsp;&nbsp; F = NO</p>
","j","html-keyboard-response","53","2.1.0","94879","J=YES, F=NO","f55z05cpwq","1","78","85","70","","","","","","lextale","true","false","","","","","","","",""
"735","
  <p style=""font-size: 40px;"">frip</p>
  <p style=""font-size: 16px;"">J = YES &nbsp;&nbsp;&nbsp; F = NO</p>
","f","html-keyboard-response","54","2.1.0","95616","J=YES, F=NO","f55z05cpwq","1","78","85","70","","","","","","lextale","false","false","","","","","","","",""
"815","
  <p style=""font-size: 40px;"">tangle</p>
  <p style=""font-size: 16px;"">J = YES &nbsp;&nbsp;&nbsp; F = NO</p>
","j","html-keyboard-response","55","2.1.0","96431","J=YES, F=NO","f55z05cpwq","1","78","85","70","","","","","","lextale","true","false","","","","","","","",""
"651","
  <p style=""font-size: 40px;"">crumble</p>
  <p style=""font-size: 16px;"">J = YES &nbsp;&nbsp;&nbsp; F = NO</p>
","j","html-keyboard-response","56","2.1.0","97082","J=YES, F=NO","f55z05cpwq","1","78","85","70","","","","","","lextale","true","false","","","","","","","",""
"597","
  <p style=""font-size: 40px;"">wrinkle</p>
  <p style=""font-size: 16px;"">J = YES &nbsp;&nbsp;&nbsp; F = NO</p>
","j","html-keyboard-response","57","2.1.0","97680","J=YES, F=NO","f55z05cpwq","1","78","85","70","","","","","","lextale","true","false","","","","","","","",""
"743","
  <p style=""font-size: 40px;"">slumb</p>
  <p style=""font-size: 16px;"">J = YES &nbsp;&nbsp;&nbsp; F = NO</p>
","f","html-keyboard-response","58","2.1.0","98424","J=YES, F=NO","f55z05cpwq","1","78","85","70","","","","","","lextale","false","false","","","","","","","",""
"560","
  <p style=""font-size: 40px;"">jungle</p>
  <p style=""font-size: 16px;"">J = YES &nbsp;&nbsp;&nbsp; F = NO</p>
","j","html-keyboard-response","59","2.1.0","98984","J=YES, F=NO","f55z05cpwq","1","78","85","70","","","","","","lextale","true","false","","","","","","","",""
"769","
  <p style=""font-size: 40px;"">frolick</p>
  <p style=""font-size: 16px;"">J = YES &nbsp;&nbsp;&nbsp; F = NO</p>
","j","html-keyboard-response","60","2.1.0","99754","J=YES, F=NO","f55z05cpwq","1","78","85","70","","","","","","lextale","false","false","","","","","","","",""
"8326","
      <h2>LexTALE Test Completed</h2>
      <p>Your LexTALE vocabulary score is: <strong>78%</strong></p>
      <p>Press any key to continue.</p>
    ","j","html-keyboard-response","61","2.1.0","108081","J=YES, F=NO","f55z05cpwq","1","78","85","70","","","","","","","","","","","","","","","",""
"3143","
    <div style=""max-width: 800px; margin: auto; text-align: left;"">
      <h2>Break Time</h2>
      <p>You have completed the first part of the study.</p>
      <p>You may take a short <strong>30-second break</strong> before continuing.</p>
      <p>When you’re ready, press any key to continue to the final task.</p>
    </div>
  ","j","html-keyboard-response","62","2.1.0","111224","J=YES, F=NO","f55z05cpwq","1","78","85","70","","","","","","","","","","","","","","","",""
"122638","
    <div style=""max-width: 800px; margin: auto; text-align: left;"">
      <h2>Part 2: Lexical Decision Task</h2>
      <p>You will now begin the second part of the study.</p>
      <p>Each trial will follow this sequence:</p>
      <ul>
        <li>A fixation cross (+) appears at the center of the screen.</li>
        <li>You will hear a short beep followed by a spoken word.</li>
        <li>A written word will appear briefly on the screen.</li>
      </ul>
      <p>Your task is to judge whether the <strong>written word</strong> is a real English word.</p>
      <p style=""margin-top: 1em;""><strong>Key responses:</strong></p>
      <ul>
        <li><strong>J</strong> = YES (real English word)</li>
        <li><strong>F</strong> = NO (not a real English word)</li>
      </ul>
      <p>Please respond as quickly and accurately as you can.</p>
      <p style=""margin-top: 2em;"">Press any key to continue.</p>
    </div>
  "," ","html-keyboard-response","63","2.1.0","233863","J=YES, F=NO","f55z05cpwq","1","78","85","70","","","","","","","","","","","","","","","",""
"5471","
    <div style=""max-width: 800px; margin: auto; text-align: left;"">
      <h2>Before You Begin</h2>
      <p>Make sure your sound is turned on.</p>
      <p>You will hear audio during each trial, but your decision should be based only on the <strong>written word</strong> you see on the screen.</p>
      <p><strong>Reminder:</strong></p>
      <ul>
        <li><strong>J</strong> = YES (real English word)</li>
        <li><strong>F</strong> = NO (not a real English word)</li>
      </ul>
      <p style=""margin-top: 2em;"">Press any key when you are ready to begin.</p>
    </div>
  "," ","html-keyboard-response","64","2.1.0","239335","J=YES, F=NO","f55z05cpwq","1","78","85","70","","","","","","","","","","","","","","","",""
"2631","
    <div style=""max-width: 800px; margin: auto; text-align: left;"">
      <h2>Part 2: Practice Trials</h2>
      <p>You will now complete a few <strong>practice trials</strong> to get familiar with the task.</p>
      <p>These trials are <strong>not scored</strong> and are only to help you get used to the format.</p>
      <p style=""margin-top: 2em;"">Press any key to begin.</p>
    </div>
  "," ","html-keyboard-response","65","2.1.0","241966","J=YES, F=NO","f55z05cpwq","1","78","85","70","","","","","","","","","","","","","","","",""
"1161","<p>Starting practice block 1 of 2. Press any key to continue.</p>"," ","html-keyboard-response","66","2.1.0","243128","J=YES, F=NO","f55z05cpwq","1","78","85","70","","","","","","","","","","","","","","","",""
"null","<p style=""font-size: 50px;"">+</p>","null","html-keyboard-response","67","2.1.0","243432","J=YES, F=NO","f55z05cpwq","1","78","85","70","","","","","","","","","","","","","","","",""
"null","audio/beep-329314.mp3","null","audio-keyboard-response","68","2.1.0","245083","J=YES, F=NO","f55z05cpwq","1","78","85","70","","","","","","","","","","","","","","","",""
"null","audio/breath.wav","null","audio-keyboard-response","69","2.1.0","245662","J=YES, F=NO","f55z05cpwq","1","78","85","70","","","","","","","","","","","","","","","",""
"null","
          <p id=""word"" style=""font-size: 40px;"">pack</p>
          <p style=""font-size: 16px;"">J = YES &nbsp;&nbsp;&nbsp; F = NO</p>
        ","null","html-keyboard-response","70","2.1.0","247178","J=YES, F=NO","f55z05cpwq","1","78","85","70","","","","","","","","","pack","breath","filler","filler","j","false","",""
"null","<p style=""font-size: 50px;"">+</p>","null","html-keyboard-response","71","2.1.0","247488","J=YES, F=NO","f55z05cpwq","1","78","85","70","","","","","","","","","","","","","","","",""
"null","audio/beep-329314.mp3","null","audio-keyboard-response","72","2.1.0","249022","J=YES, F=NO","f55z05cpwq","1","78","85","70","","","","","","","","","","","","","","","",""
"null","audio/plot1.wav","null","audio-keyboard-response","73","2.1.0","249682","J=YES, F=NO","f55z05cpwq","1","78","85","70","","","","","","","","","","","","","","","",""
"1037","
          <p id=""word"" style=""font-size: 40px;"">glenter</p>
          <p style=""font-size: 16px;"">J = YES &nbsp;&nbsp;&nbsp; F = NO</p>
        ","f","html-keyboard-response","74","2.1.0","250719","J=YES, F=NO","f55z05cpwq","1","78","85","70","","","","","","","","","glenter","plot1","pseudoword","pseudoword","f","true","",""
"null","<p style=""font-size: 50px;"">+</p>","null","html-keyboard-response","75","2.1.0","251032","J=YES, F=NO","f55z05cpwq","1","78","85","70","","","","","","","","","","","","","","","",""
"null","audio/beep-329314.mp3","null","audio-keyboard-response","76","2.1.0","252563","J=YES, F=NO","f55z05cpwq","1","78","85","70","","","","","","","","","","","","","","","",""
"null","audio/grass.wav","null","audio-keyboard-response","77","2.1.0","253402","J=YES, F=NO","f55z05cpwq","1","78","85","70","","","","","","","","","","","","","","","",""
"997","
          <p id=""word"" style=""font-size: 40px;"">milames</p>
          <p style=""font-size: 16px;"">J = YES &nbsp;&nbsp;&nbsp; F = NO</p>
        ","f","html-keyboard-response","78","2.1.0","254399","J=YES, F=NO","f55z05cpwq","1","78","85","70","","","","","","","","","milames","grass","pseudoword","pseudoword","f","true","",""
"null","<p style=""font-size: 50px;"">+</p>","null","html-keyboard-response","79","2.1.0","254705","J=YES, F=NO","f55z05cpwq","1","78","85","70","","","","","","","","","","","","","","","",""
"null","audio/beep-329314.mp3","null","audio-keyboard-response","80","2.1.0","256242","J=YES, F=NO","f55z05cpwq","1","78","85","70","","","","","","","","","","","","","","","",""
"null","audio/kettle1.wav","null","audio-keyboard-response","81","2.1.0","256702","J=YES, F=NO","f55z05cpwq","1","78","85","70","","","","","","","","","","","","","","","",""
"864","
          <p id=""word"" style=""font-size: 40px;"">wrap</p>
          <p style=""font-size: 16px;"">J = YES &nbsp;&nbsp;&nbsp; F = NO</p>
        ","j","html-keyboard-response","82","2.1.0","257567","J=YES, F=NO","f55z05cpwq","1","78","85","70","","","","","","","","","wrap","kettle1","filler","filler","j","true","",""
"null","<p style=""font-size: 50px;"">+</p>","null","html-keyboard-response","83","2.1.0","257877","J=YES, F=NO","f55z05cpwq","1","78","85","70","","","","","","","","","","","","","","","",""
"null","audio/beep-329314.mp3","null","audio-keyboard-response","84","2.1.0","259402","J=YES, F=NO","f55z05cpwq","1","78","85","70","","","","","","","","","","","","","","","",""
"null","audio/terrain.wav","null","audio-keyboard-response","85","2.1.0","260102","J=YES, F=NO","f55z05cpwq","1","78","85","70","","","","","","","","","","","","","","","",""
"896","
          <p id=""word"" style=""font-size: 40px;"">twist</p>
          <p style=""font-size: 16px;"">J = YES &nbsp;&nbsp;&nbsp; F = NO</p>
        ","j","html-keyboard-response","86","2.1.0","260999","J=YES, F=NO","f55z05cpwq","1","78","85","70","","","","","","","","","twist","terrain","filler","filler","j","true","",""
"null","<p style=""font-size: 50px;"">+</p>","null","html-keyboard-response","87","2.1.0","261301","J=YES, F=NO","f55z05cpwq","1","78","85","70","","","","","","","","","","","","","","","",""
"null","audio/beep-329314.mp3","null","audio-keyboard-response","88","2.1.0","262843","J=YES, F=NO","f55z05cpwq","1","78","85","70","","","","","","","","","","","","","","","",""
"null","audio/arm.wav","null","audio-keyboard-response","89","2.1.0","263402","J=YES, F=NO","f55z05cpwq","1","78","85","70","","","","","","","","","","","","","","","",""
"628","
          <p id=""word"" style=""font-size: 40px;"">fold</p>
          <p style=""font-size: 16px;"">J = YES &nbsp;&nbsp;&nbsp; F = NO</p>
        ","j","html-keyboard-response","90","2.1.0","264031","J=YES, F=NO","f55z05cpwq","1","78","85","70","","","","","","","","","fold","arm","filler","filler","j","true","",""
"null","<p style=""font-size: 50px;"">+</p>","null","html-keyboard-response","91","2.1.0","264341","J=YES, F=NO","f55z05cpwq","1","78","85","70","","","","","","","","","","","","","","","",""
"null","audio/beep-329314.mp3","null","audio-keyboard-response","92","2.1.0","265862","J=YES, F=NO","f55z05cpwq","1","78","85","70","","","","","","","","","","","","","","","",""
"null","audio/cancer1.wav","null","audio-keyboard-response","93","2.1.0","266582","J=YES, F=NO","f55z05cpwq","1","78","85","70","","","","","","","","","","","","","","","",""
"538","
          <p id=""word"" style=""font-size: 40px;"">draw</p>
          <p style=""font-size: 16px;"">J = YES &nbsp;&nbsp;&nbsp; F = NO</p>
        ","j","html-keyboard-response","94","2.1.0","267120","J=YES, F=NO","f55z05cpwq","1","78","85","70","","","","","","","","","draw","cancer1","filler","filler","j","true","",""
"null","<p style=""font-size: 50px;"">+</p>","null","html-keyboard-response","95","2.1.0","267422","J=YES, F=NO","f55z05cpwq","1","78","85","70","","","","","","","","","","","","","","","",""
"null","audio/beep-329314.mp3","null","audio-keyboard-response","96","2.1.0","268962","J=YES, F=NO","f55z05cpwq","1","78","85","70","","","","","","","","","","","","","","","",""
"null","audio/ankle1.wav","null","audio-keyboard-response","97","2.1.0","269502","J=YES, F=NO","f55z05cpwq","1","78","85","70","","","","","","","","","","","","","","","",""
"568","
          <p id=""word"" style=""font-size: 40px;"">kick</p>
          <p style=""font-size: 16px;"">J = YES &nbsp;&nbsp;&nbsp; F = NO</p>
        ","j","html-keyboard-response","98","2.1.0","270071","J=YES, F=NO","f55z05cpwq","1","78","85","70","","","","","","","","","kick","ankle1","filler","filler","j","true","",""
"null","<p style=""font-size: 50px;"">+</p>","null","html-keyboard-response","99","2.1.0","270378","J=YES, F=NO","f55z05cpwq","1","78","85","70","","","","","","","","","","","","","","","",""
"null","audio/beep-329314.mp3","null","audio-keyboard-response","100","2.1.0","271902","J=YES, F=NO","f55z05cpwq","1","78","85","70","","","","","","","","","","","","","","","",""
"null","audio/age1.wav","null","audio-keyboard-response","101","2.1.0","272443","J=YES, F=NO","f55z05cpwq","1","78","85","70","","","","","","","","","","","","","","","",""
"716","
          <p id=""word"" style=""font-size: 40px;"">lachry</p>
          <p style=""font-size: 16px;"">J = YES &nbsp;&nbsp;&nbsp; F = NO</p>
        ","f","html-keyboard-response","102","2.1.0","273159","J=YES, F=NO","f55z05cpwq","1","78","85","70","","","","","","","","","lachry","age1","pseudoword","pseudoword","f","true","",""
"null","<p style=""font-size: 50px;"">+</p>","null","html-keyboard-response","103","2.1.0","273465","J=YES, F=NO","f55z05cpwq","1","78","85","70","","","","","","","","","","","","","","","",""
"null","audio/beep-329314.mp3","null","audio-keyboard-response","104","2.1.0","275002","J=YES, F=NO","f55z05cpwq","1","78","85","70","","","","","","","","","","","","","","","",""
"null","audio/baby.wav","null","audio-keyboard-response","105","2.1.0","275462","J=YES, F=NO","f55z05cpwq","1","78","85","70","","","","","","","","","","","","","","","",""
"600","
          <p id=""word"" style=""font-size: 40px;"">lift</p>
          <p style=""font-size: 16px;"">J = YES &nbsp;&nbsp;&nbsp; F = NO</p>
        ","j","html-keyboard-response","106","2.1.0","276063","J=YES, F=NO","f55z05cpwq","1","78","85","70","","","","","","","","","lift","baby","filler","filler","j","true","",""
"null","<p style=""font-size: 50px;"">+</p>","null","html-keyboard-response","107","2.1.0","276370","J=YES, F=NO","f55z05cpwq","1","78","85","70","","","","","","","","","","","","","","","",""
"null","audio/beep-329314.mp3","null","audio-keyboard-response","108","2.1.0","277902","J=YES, F=NO","f55z05cpwq","1","78","85","70","","","","","","","","","","","","","","","",""
"null","audio/weight1.wav","null","audio-keyboard-response","109","2.1.0","278422","J=YES, F=NO","f55z05cpwq","1","78","85","70","","","","","","","","","","","","","","","",""
"897","
          <p id=""word"" style=""font-size: 40px;"">crimsh</p>
          <p style=""font-size: 16px;"">J = YES &nbsp;&nbsp;&nbsp; F = NO</p>
        ","f","html-keyboard-response","110","2.1.0","279320","J=YES, F=NO","f55z05cpwq","1","78","85","70","","","","","","","","","crimsh","weight1","pseudoword","pseudoword","f","true","",""
"null","<p style=""font-size: 50px;"">+</p>","null","html-keyboard-response","111","2.1.0","279621","J=YES, F=NO","f55z05cpwq","1","78","85","70","","","","","","","","","","","","","","","",""
"null","audio/beep-329314.mp3","null","audio-keyboard-response","112","2.1.0","281162","J=YES, F=NO","f55z05cpwq","1","78","85","70","","","","","","","","","","","","","","","",""
"null","audio/truth1.wav","null","audio-keyboard-response","113","2.1.0","281702","J=YES, F=NO","f55z05cpwq","1","78","85","70","","","","","","","","","","","","","","","",""
"752","
          <p id=""word"" style=""font-size: 40px;"">calitom</p>
          <p style=""font-size: 16px;"">J = YES &nbsp;&nbsp;&nbsp; F = NO</p>
        ","f","html-keyboard-response","114","2.1.0","282455","J=YES, F=NO","f55z05cpwq","1","78","85","70","","","","","","","","","calitom","truth1","pseudoword","pseudoword","f","true","",""
"17979","<p>Starting practice block 2 of 2. Press any key to continue.</p>","f","html-keyboard-response","115","2.1.0","300434","J=YES, F=NO","f55z05cpwq","1","78","85","70","","","","","","","","","","","","","","","",""
"null","<p style=""font-size: 50px;"">+</p>","null","html-keyboard-response","116","2.1.0","300747","J=YES, F=NO","f55z05cpwq","1","78","85","70","","","","","","","","","","","","","","","",""
"null","audio/beep-329314.mp3","null","audio-keyboard-response","117","2.1.0","302282","J=YES, F=NO","f55z05cpwq","1","78","85","70","","","","","","","","","","","","","","","",""
"null","audio/uncle1.wav","null","audio-keyboard-response","118","2.1.0","302772","J=YES, F=NO","f55z05cpwq","1","78","85","70","","","","","","","","","","","","","","","",""
"882","
          <p id=""word"" style=""font-size: 40px;"">dramble</p>
          <p style=""font-size: 16px;"">J = YES &nbsp;&nbsp;&nbsp; F = NO</p>
        ","f","html-keyboard-response","119","2.1.0","303654","J=YES, F=NO","f55z05cpwq","1","78","85","70","","","","","","","","","dramble","uncle1","pseudoword","pseudoword","f","true","",""
"null","<p style=""font-size: 50px;"">+</p>","null","html-keyboard-response","120","2.1.0","303964","J=YES, F=NO","f55z05cpwq","1","78","85","70","","","","","","","","","","","","","","","",""
"null","audio/beep-329314.mp3","null","audio-keyboard-response","121","2.1.0","305502","J=YES, F=NO","f55z05cpwq","1","78","85","70","","","","","","","","","","","","","","","",""
"null","audio/butter1.wav","null","audio-keyboard-response","122","2.1.0","306112","J=YES, F=NO","f55z05cpwq","1","78","85","70","","","","","","","","","","","","","","","",""
"734","
          <p id=""word"" style=""font-size: 40px;"">chew</p>
          <p style=""font-size: 16px;"">J = YES &nbsp;&nbsp;&nbsp; F = NO</p>
        ","j","html-keyboard-response","123","2.1.0","306846","J=YES, F=NO","f55z05cpwq","1","78","85","70","","","","","","","","","chew","butter1","filler","filler","j","true","",""
"null","<p style=""font-size: 50px;"">+</p>","null","html-keyboard-response","124","2.1.0","307159","J=YES, F=NO","f55z05cpwq","1","78","85","70","","","","","","","","","","","","","","","",""
"null","audio/beep-329314.mp3","null","audio-keyboard-response","125","2.1.0","308682","J=YES, F=NO","f55z05cpwq","1","78","85","70","","","","","","","","","","","","","","","",""
"null","audio/alarm1.wav","null","audio-keyboard-response","126","2.1.0","309272","J=YES, F=NO","f55z05cpwq","1","78","85","70","","","","","","","","","","","","","","","",""
"662","
          <p id=""word"" style=""font-size: 40px;"">lock</p>
          <p style=""font-size: 16px;"">J = YES &nbsp;&nbsp;&nbsp; F = NO</p>
        ","j","html-keyboard-response","127","2.1.0","309935","J=YES, F=NO","f55z05cpwq","1","78","85","70","","","","","","","","","lock","alarm1","filler","filler","j","true","",""
"null","<p style=""font-size: 50px;"">+</p>","null","html-keyboard-response","128","2.1.0","310247","J=YES, F=NO","f55z05cpwq","1","78","85","70","","","","","","","","","","","","","","","",""
"null","audio/beep-329314.mp3","null","audio-keyboard-response","129","2.1.0","311783","J=YES, F=NO","f55z05cpwq","1","78","85","70","","","","","","","","","","","","","","","",""
"null","audio/corpse1.wav","null","audio-keyboard-response","130","2.1.0","312892","J=YES, F=NO","f55z05cpwq","1","78","85","70","","","","","","","","","","","","","","","",""
"954","
          <p id=""word"" style=""font-size: 40px;"">glonet</p>
          <p style=""font-size: 16px;"">J = YES &nbsp;&nbsp;&nbsp; F = NO</p>
        ","f","html-keyboard-response","131","2.1.0","313847","J=YES, F=NO","f55z05cpwq","1","78","85","70","","","","","","","","","glonet","corpse1","pseudoword","pseudoword","f","true","",""
"null","<p style=""font-size: 50px;"">+</p>","null","html-keyboard-response","132","2.1.0","314157","J=YES, F=NO","f55z05cpwq","1","78","85","70","","","","","","","","","","","","","","","",""
"null","audio/beep-329314.mp3","null","audio-keyboard-response","133","2.1.0","315682","J=YES, F=NO","f55z05cpwq","1","78","85","70","","","","","","","","","","","","","","","",""
"null","audio/roof1.wav","null","audio-keyboard-response","134","2.1.0","316232","J=YES, F=NO","f55z05cpwq","1","78","85","70","","","","","","","","","","","","","","","",""
"775","
          <p id=""word"" style=""font-size: 40px;"">wronb</p>
          <p style=""font-size: 16px;"">J = YES &nbsp;&nbsp;&nbsp; F = NO</p>
        ","f","html-keyboard-response","135","2.1.0","317007","J=YES, F=NO","f55z05cpwq","1","78","85","70","","","","","","","","","wronb","roof1","pseudoword","pseudoword","f","true","",""
"null","<p style=""font-size: 50px;"">+</p>","null","html-keyboard-response","136","2.1.0","317312","J=YES, F=NO","f55z05cpwq","1","78","85","70","","","","","","","","","","","","","","","",""
"null","audio/beep-329314.mp3","null","audio-keyboard-response","137","2.1.0","318842","J=YES, F=NO","f55z05cpwq","1","78","85","70","","","","","","","","","","","","","","","",""
"null","audio/scar.wav","null","audio-keyboard-response","138","2.1.0","319432","J=YES, F=NO","f55z05cpwq","1","78","85","70","","","","","","","","","","","","","","","",""
"934","
          <p id=""word"" style=""font-size: 40px;"">adelineate</p>
          <p style=""font-size: 16px;"">J = YES &nbsp;&nbsp;&nbsp; F = NO</p>
        ","f","html-keyboard-response","139","2.1.0","320367","J=YES, F=NO","f55z05cpwq","1","78","85","70","","","","","","","","","adelineate","scar","pseudoword","pseudoword","f","true","",""
"null","<p style=""font-size: 50px;"">+</p>","null","html-keyboard-response","140","2.1.0","320680","J=YES, F=NO","f55z05cpwq","1","78","85","70","","","","","","","","","","","","","","","",""
"null","audio/beep-329314.mp3","null","audio-keyboard-response","141","2.1.0","322202","J=YES, F=NO","f55z05cpwq","1","78","85","70","","","","","","","","","","","","","","","",""
"null","audio/belief.wav","null","audio-keyboard-response","142","2.1.0","323153","J=YES, F=NO","f55z05cpwq","1","78","85","70","","","","","","","","","","","","","","","",""
"533","
          <p id=""word"" style=""font-size: 40px;"">read</p>
          <p style=""font-size: 16px;"">J = YES &nbsp;&nbsp;&nbsp; F = NO</p>
        ","j","html-keyboard-response","143","2.1.0","323687","J=YES, F=NO","f55z05cpwq","1","78","85","70","","","","","","","","","read","belief","filler","filler","j","true","",""
"null","<p style=""font-size: 50px;"">+</p>","null","html-keyboard-response","144","2.1.0","324002","J=YES, F=NO","f55z05cpwq","1","78","85","70","","","","","","","","","","","","","","","",""
"null","audio/beep-329314.mp3","null","audio-keyboard-response","145","2.1.0","325542","J=YES, F=NO","f55z05cpwq","1","78","85","70","","","","","","","","","","","","","","","",""
"null","audio/gossip1.wav","null","audio-keyboard-response","146","2.1.0","326352","J=YES, F=NO","f55z05cpwq","1","78","85","70","","","","","","","","","","","","","","","",""
"702","
          <p id=""word"" style=""font-size: 40px;"">camerish</p>
          <p style=""font-size: 16px;"">J = YES &nbsp;&nbsp;&nbsp; F = NO</p>
        ","f","html-keyboard-response","147","2.1.0","327055","J=YES, F=NO","f55z05cpwq","1","78","85","70","","","","","","","","","camerish","gossip1","pseudoword","pseudoword","f","true","",""
"null","<p style=""font-size: 50px;"">+</p>","null","html-keyboard-response","148","2.1.0","327357","J=YES, F=NO","f55z05cpwq","1","78","85","70","","","","","","","","","","","","","","","",""
"null","audio/beep-329314.mp3","null","audio-keyboard-response","149","2.1.0","328882","J=YES, F=NO","f55z05cpwq","1","78","85","70","","","","","","","","","","","","","","","",""
"null","audio/window1.wav","null","audio-keyboard-response","150","2.1.0","329612","J=YES, F=NO","f55z05cpwq","1","78","85","70","","","","","","","","","","","","","","","",""
"634","
          <p id=""word"" style=""font-size: 40px;"">toss</p>
          <p style=""font-size: 16px;"">J = YES &nbsp;&nbsp;&nbsp; F = NO</p>
        ","j","html-keyboard-response","151","2.1.0","330247","J=YES, F=NO","f55z05cpwq","1","78","85","70","","","","","","","","","toss","window1","filler","filler","j","true","",""
"null","<p style=""font-size: 50px;"">+</p>","null","html-keyboard-response","152","2.1.0","330563","J=YES, F=NO","f55z05cpwq","1","78","85","70","","","","","","","","","","","","","","","",""
"null","audio/beep-329314.mp3","null","audio-keyboard-response","153","2.1.0","332102","J=YES, F=NO","f55z05cpwq","1","78","85","70","","","","","","","","","","","","","","","",""
"null","audio/test1.wav","null","audio-keyboard-response","154","2.1.0","332752","J=YES, F=NO","f55z05cpwq","1","78","85","70","","","","","","","","","","","","","","","",""
"750","
          <p id=""word"" style=""font-size: 40px;"">twopch</p>
          <p style=""font-size: 16px;"">J = YES &nbsp;&nbsp;&nbsp; F = NO</p>
        ","f","html-keyboard-response","155","2.1.0","333503","J=YES, F=NO","f55z05cpwq","1","78","85","70","","","","","","","","","twopch","test1","pseudoword","pseudoword","f","true","",""
"null","<p style=""font-size: 50px;"">+</p>","null","html-keyboard-response","156","2.1.0","333811","J=YES, F=NO","f55z05cpwq","1","78","85","70","","","","","","","","","","","","","","","",""
"null","audio/beep-329314.mp3","null","audio-keyboard-response","157","2.1.0","335342","J=YES, F=NO","f55z05cpwq","1","78","85","70","","","","","","","","","","","","","","","",""
"null","audio/neck.wav","null","audio-keyboard-response","158","2.1.0","335892","J=YES, F=NO","f55z05cpwq","1","78","85","70","","","","","","","","","","","","","","","",""
"747","
          <p id=""word"" style=""font-size: 40px;"">werling</p>
          <p style=""font-size: 16px;"">J = YES &nbsp;&nbsp;&nbsp; F = NO</p>
        ","f","html-keyboard-response","159","2.1.0","336639","J=YES, F=NO","f55z05cpwq","1","78","85","70","","","","","","","","","werling","neck","pseudoword","pseudoword","f","true","",""
"null","<p style=""font-size: 50px;"">+</p>","null","html-keyboard-response","160","2.1.0","336948","J=YES, F=NO","f55z05cpwq","1","78","85","70","","","","","","","","","","","","","","","",""
"null","audio/beep-329314.mp3","null","audio-keyboard-response","161","2.1.0","338482","J=YES, F=NO","f55z05cpwq","1","78","85","70","","","","","","","","","","","","","","","",""
"null","audio/bridge.wav","null","audio-keyboard-response","162","2.1.0","339032","J=YES, F=NO","f55z05cpwq","1","78","85","70","","","","","","","","","","","","","","","",""
"582","
          <p id=""word"" style=""font-size: 40px;"">crack</p>
          <p style=""font-size: 16px;"">J = YES &nbsp;&nbsp;&nbsp; F = NO</p>
        ","j","html-keyboard-response","163","2.1.0","339615","J=YES, F=NO","f55z05cpwq","1","78","85","70","","","","","","","","","crack","bridge","filler","filler","j","true","",""
"13335","
    <div style=""max-width: 800px; margin: auto; text-align: left;"">
      <h2>Part 2: Main Trials</h2>
      <p>Great job on the practice trials!</p>
      <p>You will now begin the <strong>main set of trials</strong>.</p>
      <p>Remember your key assignments:</p>
      <ul>
        <li><strong>J</strong> = YES (real English word)</li>
        <li><strong>F</strong> = NO (not a real English word)</li>
      </ul>
      <p>Try to respond as <strong>quickly and accurately</strong> as possible.</p>
      <p style=""margin-top: 2em;"">Press any key to begin the main trials.</p>
    </div>
  ","j","html-keyboard-response","164","2.1.0","352951","J=YES, F=NO","f55z05cpwq","1","78","85","70","","","","","","","","","","","","","","","",""
"1944","<p>Starting main block 1 of 8. Press any key to continue.</p>","j","html-keyboard-response","165","2.1.0","354894","J=YES, F=NO","f55z05cpwq","1","78","85","70","","","","","","","","","","","","","","","",""
"null","<p style=""font-size: 50px;"">+</p>","null","html-keyboard-response","166","2.1.0","355200","J=YES, F=NO","f55z05cpwq","1","78","85","70","","","","","","","","","","","","","","","",""
"null","audio/beep-329314.mp3","null","audio-keyboard-response","167","2.1.0","356733","J=YES, F=NO","f55z05cpwq","1","78","85","70","","","","","","","","","","","","","","","",""
"null","audio/ego.wav","null","audio-keyboard-response","168","2.1.0","357282","J=YES, F=NO","f55z05cpwq","1","78","85","70","","","","","","","","","","","","","","","",""
"644","
          <p id=""word"" style=""font-size: 40px;"">feed</p>
          <p style=""font-size: 16px;"">J = YES &nbsp;&nbsp;&nbsp; F = NO</p>
        ","j","html-keyboard-response","169","2.1.0","357927","J=YES, F=NO","f55z05cpwq","1","78","85","70","","","","","","","","","feed","ego","metaphor","experimental","j","true","",""
"null","<p style=""font-size: 50px;"">+</p>","null","html-keyboard-response","170","2.1.0","358238","J=YES, F=NO","f55z05cpwq","1","78","85","70","","","","","","","","","","","","","","","",""
"null","audio/beep-329314.mp3","null","audio-keyboard-response","171","2.1.0","359772","J=YES, F=NO","f55z05cpwq","1","78","85","70","","","","","","","","","","","","","","","",""
"null","audio/pig.wav","null","audio-keyboard-response","172","2.1.0","360162","J=YES, F=NO","f55z05cpwq","1","78","85","70","","","","","","","","","","","","","","","",""
"756","
          <p id=""word"" style=""font-size: 40px;"">tirlike</p>
          <p style=""font-size: 16px;"">J = YES &nbsp;&nbsp;&nbsp; F = NO</p>
        ","f","html-keyboard-response","173","2.1.0","360918","J=YES, F=NO","f55z05cpwq","1","78","85","70","","","","","","","","","tirlike","pig","pseudoword","pseudoword","f","true","",""
"null","<p style=""font-size: 50px;"">+</p>","null","html-keyboard-response","174","2.1.0","361231","J=YES, F=NO","f55z05cpwq","1","78","85","70","","","","","","","","","","","","","","","",""
"null","audio/beep-329314.mp3","null","audio-keyboard-response","175","2.1.0","362772","J=YES, F=NO","f55z05cpwq","1","78","85","70","","","","","","","","","","","","","","","",""
"null","audio/golf1.wav","null","audio-keyboard-response","176","2.1.0","363342","J=YES, F=NO","f55z05cpwq","1","78","85","70","","","","","","","","","","","","","","","",""
"792","
          <p id=""word"" style=""font-size: 40px;"">drabble</p>
          <p style=""font-size: 16px;"">J = YES &nbsp;&nbsp;&nbsp; F = NO</p>
        ","j","html-keyboard-response","177","2.1.0","364134","J=YES, F=NO","f55z05cpwq","1","78","85","70","","","","","","","","","drabble","golf1","pseudoword","pseudoword","f","false","",""
"null","<p style=""font-size: 50px;"">+</p>","null","html-keyboard-response","178","2.1.0","364439","J=YES, F=NO","f55z05cpwq","1","78","85","70","","","","","","","","","","","","","","","",""
"null","audio/beep-329314.mp3","null","audio-keyboard-response","179","2.1.0","365972","J=YES, F=NO","f55z05cpwq","1","78","85","70","","","","","","","","","","","","","","","",""
"null","audio/tax1.wav","null","audio-keyboard-response","180","2.1.0","366582","J=YES, F=NO","f55z05cpwq","1","78","85","70","","","","","","","","","","","","","","","",""
"704","
          <p id=""word"" style=""font-size: 40px;"">snate</p>
          <p style=""font-size: 16px;"">J = YES &nbsp;&nbsp;&nbsp; F = NO</p>
        ","f","html-keyboard-response","181","2.1.0","367286","J=YES, F=NO","f55z05cpwq","1","78","85","70","","","","","","","","","snate","tax1","pseudoword","pseudoword","f","true","",""
"null","<p style=""font-size: 50px;"">+</p>","null","html-keyboard-response","182","2.1.0","367598","J=YES, F=NO","f55z05cpwq","1","78","85","70","","","","","","","","","","","","","","","",""
"null","audio/beep-329314.mp3","null","audio-keyboard-response","183","2.1.0","369132","J=YES, F=NO","f55z05cpwq","1","78","85","70","","","","","","","","","","","","","","","",""
"null","audio/meal.wav","null","audio-keyboard-response","184","2.1.0","369582","J=YES, F=NO","f55z05cpwq","1","78","85","70","","","","","","","","","","","","","","","",""
"641","
          <p id=""word"" style=""font-size: 40px;"">gallite</p>
          <p style=""font-size: 16px;"">J = YES &nbsp;&nbsp;&nbsp; F = NO</p>
        ","f","html-keyboard-response","185","2.1.0","370223","J=YES, F=NO","f55z05cpwq","1","78","85","70","","","","","","","","","gallite","meal","pseudoword","pseudoword","f","true","",""
"null","<p style=""font-size: 50px;"">+</p>","null","html-keyboard-response","186","2.1.0","370539","J=YES, F=NO","f55z05cpwq","1","78","85","70","","","","","","","","","","","","","","","",""
"null","audio/beep-329314.mp3","null","audio-keyboard-response","187","2.1.0","372072","J=YES, F=NO","f55z05cpwq","1","78","85","70","","","","","","","","","","","","","","","",""
"null","audio/hotel1.wav","null","audio-keyboard-response","188","2.1.0","372702","J=YES, F=NO","f55z05cpwq","1","78","85","70","","","","","","","","","","","","","","","",""
"856","
          <p id=""word"" style=""font-size: 40px;"">flanter</p>
          <p style=""font-size: 16px;"">J = YES &nbsp;&nbsp;&nbsp; F = NO</p>
        ","f","html-keyboard-response","189","2.1.0","373559","J=YES, F=NO","f55z05cpwq","1","78","85","70","","","","","","","","","flanter","hotel1","pseudoword","pseudoword","f","true","",""
"null","<p style=""font-size: 50px;"">+</p>","null","html-keyboard-response","190","2.1.0","373872","J=YES, F=NO","f55z05cpwq","1","78","85","70","","","","","","","","","","","","","","","",""
"null","audio/beep-329314.mp3","null","audio-keyboard-response","191","2.1.0","375412","J=YES, F=NO","f55z05cpwq","1","78","85","70","","","","","","","","","","","","","","","",""
"null","audio/planet1.wav","null","audio-keyboard-response","192","2.1.0","376002","J=YES, F=NO","f55z05cpwq","1","78","85","70","","","","","","","","","","","","","","","",""
"1070","
          <p id=""word"" style=""font-size: 40px;"">cratched</p>
          <p style=""font-size: 16px;"">J = YES &nbsp;&nbsp;&nbsp; F = NO</p>
        ","j","html-keyboard-response","193","2.1.0","377073","J=YES, F=NO","f55z05cpwq","1","78","85","70","","","","","","","","","cratched","planet1","pseudoword","pseudoword","f","false","",""
"null","<p style=""font-size: 50px;"">+</p>","null","html-keyboard-response","194","2.1.0","377386","J=YES, F=NO","f55z05cpwq","1","78","85","70","","","","","","","","","","","","","","","",""
"null","audio/beep-329314.mp3","null","audio-keyboard-response","195","2.1.0","378913","J=YES, F=NO","f55z05cpwq","1","78","85","70","","","","","","","","","","","","","","","",""
"null","audio/dome.wav","null","audio-keyboard-response","196","2.1.0","379342","J=YES, F=NO","f55z05cpwq","1","78","85","70","","","","","","","","","","","","","","","",""
"816","
          <p id=""word"" style=""font-size: 40px;"">scrupliness</p>
          <p style=""font-size: 16px;"">J = YES &nbsp;&nbsp;&nbsp; F = NO</p>
        ","f","html-keyboard-response","197","2.1.0","380159","J=YES, F=NO","f55z05cpwq","1","78","85","70","","","","","","","","","scrupliness","dome","pseudoword","pseudoword","f","true","",""
"null","<p style=""font-size: 50px;"">+</p>","null","html-keyboard-response","198","2.1.0","380467","J=YES, F=NO","f55z05cpwq","1","78","85","70","","","","","","","","","","","","","","","",""
"null","audio/beep-329314.mp3","null","audio-keyboard-response","199","2.1.0","381993","J=YES, F=NO","f55z05cpwq","1","78","85","70","","","","","","","","","","","","","","","",""
"null","audio/cinema1.wav","null","audio-keyboard-response","200","2.1.0","382622","J=YES, F=NO","f55z05cpwq","1","78","85","70","","","","","","","","","","","","","","","",""
"728","
          <p id=""word"" style=""font-size: 40px;"">murple</p>
          <p style=""font-size: 16px;"">J = YES &nbsp;&nbsp;&nbsp; F = NO</p>
        ","f","html-keyboard-response","201","2.1.0","383351","J=YES, F=NO","f55z05cpwq","1","78","85","70","","","","","","","","","murple","cinema1","pseudoword","pseudoword","f","true","",""
"null","<p style=""font-size: 50px;"">+</p>","null","html-keyboard-response","202","2.1.0","383652","J=YES, F=NO","f55z05cpwq","1","78","85","70","","","","","","","","","","","","","","","",""
"null","audio/beep-329314.mp3","null","audio-keyboard-response","203","2.1.0","385192","J=YES, F=NO","f55z05cpwq","1","78","85","70","","","","","","","","","","","","","","","",""
"null","audio/news.wav","null","audio-keyboard-response","204","2.1.0","385842","J=YES, F=NO","f55z05cpwq","1","78","85","70","","","","","","","","","","","","","","","",""
"700","
          <p id=""word"" style=""font-size: 40px;"">digest</p>
          <p style=""font-size: 16px;"">J = YES &nbsp;&nbsp;&nbsp; F = NO</p>
        ","j","html-keyboard-response","205","2.1.0","386544","J=YES, F=NO","f55z05cpwq","1","78","85","70","","","","","","","","","digest","news","metaphor","experimental","j","true","",""
"null","<p style=""font-size: 50px;"">+</p>","null","html-keyboard-response","206","2.1.0","386849","J=YES, F=NO","f55z05cpwq","1","78","85","70","","","","","","","","","","","","","","","",""
"null","audio/beep-329314.mp3","null","audio-keyboard-response","207","2.1.0","388372","J=YES, F=NO","f55z05cpwq","1","78","85","70","","","","","","","","","","","","","","","",""
"null","audio/mind.wav","null","audio-keyboard-response","208","2.1.0","388942","J=YES, F=NO","f55z05cpwq","1","78","85","70","","","","","","","","","","","","","","","",""
"504","
          <p id=""word"" style=""font-size: 40px;"">clear</p>
          <p style=""font-size: 16px;"">J = YES &nbsp;&nbsp;&nbsp; F = NO</p>
        ","j","html-keyboard-response","209","2.1.0","389447","J=YES, F=NO","f55z05cpwq","1","78","85","70","","","","","","","","","clear","mind","metaphor","experimental","j","true","",""
"null","<p style=""font-size: 50px;"">+</p>","null","html-keyboard-response","210","2.1.0","389751","J=YES, F=NO","f55z05cpwq","1","78","85","70","","","","","","","","","","","","","","","",""
"null","audio/beep-329314.mp3","null","audio-keyboard-response","211","2.1.0","391272","J=YES, F=NO","f55z05cpwq","1","78","85","70","","","","","","","","","","","","","","","",""
"null","audio/tomato.wav","null","audio-keyboard-response","212","2.1.0","391942","J=YES, F=NO","f55z05cpwq","1","78","85","70","","","","","","","","","","","","","","","",""
"1016","
          <p id=""word"" style=""font-size: 40px;"">gladies</p>
          <p style=""font-size: 16px;"">J = YES &nbsp;&nbsp;&nbsp; F = NO</p>
        ","f","html-keyboard-response","213","2.1.0","392959","J=YES, F=NO","f55z05cpwq","1","78","85","70","","","","","","","","","gladies","tomato","pseudoword","pseudoword","f","true","",""
"null","<p style=""font-size: 50px;"">+</p>","null","html-keyboard-response","214","2.1.0","393274","J=YES, F=NO","f55z05cpwq","1","78","85","70","","","","","","","","","","","","","","","",""
"null","audio/beep-329314.mp3","null","audio-keyboard-response","215","2.1.0","394812","J=YES, F=NO","f55z05cpwq","1","78","85","70","","","","","","","","","","","","","","","",""
"null","audio/pizza1.wav","null","audio-keyboard-response","216","2.1.0","395382","J=YES, F=NO","f55z05cpwq","1","78","85","70","","","","","","","","","","","","","","","",""
"561","
          <p id=""word"" style=""font-size: 40px;"">devour</p>
          <p style=""font-size: 16px;"">J = YES &nbsp;&nbsp;&nbsp; F = NO</p>
        ","j","html-keyboard-response","217","2.1.0","395943","J=YES, F=NO","f55z05cpwq","1","78","85","70","","","","","","","","","devour","pizza1","literal","experimental","j","true","",""
"null","<p style=""font-size: 50px;"">+</p>","null","html-keyboard-response","218","2.1.0","396255","J=YES, F=NO","f55z05cpwq","1","78","85","70","","","","","","","","","","","","","","","",""
"null","audio/beep-329314.mp3","null","audio-keyboard-response","219","2.1.0","397792","J=YES, F=NO","f55z05cpwq","1","78","85","70","","","","","","","","","","","","","","","",""
"null","audio/demon1.wav","null","audio-keyboard-response","220","2.1.0","398282","J=YES, F=NO","f55z05cpwq","1","78","85","70","","","","","","","","","","","","","","","",""
"572","
          <p id=""word"" style=""font-size: 40px;"">wrestle</p>
          <p style=""font-size: 16px;"">J = YES &nbsp;&nbsp;&nbsp; F = NO</p>
        ","j","html-keyboard-response","221","2.1.0","398854","J=YES, F=NO","f55z05cpwq","1","78","85","70","","","","","","","","","wrestle","demon1","metaphor","experimental","j","true","",""
"null","<p style=""font-size: 50px;"">+</p>","null","html-keyboard-response","222","2.1.0","399164","J=YES, F=NO","f55z05cpwq","1","78","85","70","","","","","","","","","","","","","","","",""
"null","audio/beep-329314.mp3","null","audio-keyboard-response","223","2.1.0","400692","J=YES, F=NO","f55z05cpwq","1","78","85","70","","","","","","","","","","","","","","","",""
"null","audio/radio1.wav","null","audio-keyboard-response","224","2.1.0","401282","J=YES, F=NO","f55z05cpwq","1","78","85","70","","","","","","","","","","","","","","","",""
"837","
          <p id=""word"" style=""font-size: 40px;"">blanter</p>
          <p style=""font-size: 16px;"">J = YES &nbsp;&nbsp;&nbsp; F = NO</p>
        ","f","html-keyboard-response","225","2.1.0","402120","J=YES, F=NO","f55z05cpwq","1","78","85","70","","","","","","","","","blanter","radio1","pseudoword","pseudoword","f","true","",""
"null","<p style=""font-size: 50px;"">+</p>","null","html-keyboard-response","226","2.1.0","402424","J=YES, F=NO","f55z05cpwq","1","78","85","70","","","","","","","","","","","","","","","",""
"null","audio/beep-329314.mp3","null","audio-keyboard-response","227","2.1.0","403952","J=YES, F=NO","f55z05cpwq","1","78","85","70","","","","","","","","","","","","","","","",""
"null","audio/cloud1.wav","null","audio-keyboard-response","228","2.1.0","404502","J=YES, F=NO","f55z05cpwq","1","78","85","70","","","","","","","","","","","","","","","",""
"657","
          <p id=""word"" style=""font-size: 40px;"">scrap</p>
          <p style=""font-size: 16px;"">J = YES &nbsp;&nbsp;&nbsp; F = NO</p>
        ","j","html-keyboard-response","229","2.1.0","405160","J=YES, F=NO","f55z05cpwq","1","78","85","70","","","","","","","","","scrap","cloud1","unrelated","experimental","j","true","",""
"7087","<p>Excellent! You have finished block 1 of 8.</p>
                     <p>Feel free to take a 30 second break.</p>
                     <p>Press any key when you're ready to continue.</p>","j","html-keyboard-response","230","2.1.0","412247","J=YES, F=NO","f55z05cpwq","1","78","85","70","","","","","","","","","","","","","","","",""
"1255","<p>Starting main block 2 of 8. Press any key to continue.</p>","j","html-keyboard-response","231","2.1.0","413503","J=YES, F=NO","f55z05cpwq","1","78","85","70","","","","","","","","","","","","","","","",""
"null","<p style=""font-size: 50px;"">+</p>","null","html-keyboard-response","232","2.1.0","413817","J=YES, F=NO","f55z05cpwq","1","78","85","70","","","","","","","","","","","","","","","",""
"null","audio/beep-329314.mp3","null","audio-keyboard-response","233","2.1.0","415353","J=YES, F=NO","f55z05cpwq","1","78","85","70","","","","","","","","","","","","","","","",""
"null","audio/flaw.wav","null","audio-keyboard-response","234","2.1.0","415972","J=YES, F=NO","f55z05cpwq","1","78","85","70","","","","","","","","","","","","","","","",""
"611","
          <p id=""word"" style=""font-size: 40px;"">thwool</p>
          <p style=""font-size: 16px;"">J = YES &nbsp;&nbsp;&nbsp; F = NO</p>
        ","f","html-keyboard-response","235","2.1.0","416583","J=YES, F=NO","f55z05cpwq","1","78","85","70","","","","","","","","","thwool","flaw","pseudoword","pseudoword","f","true","",""
"null","<p style=""font-size: 50px;"">+</p>","null","html-keyboard-response","236","2.1.0","416890","J=YES, F=NO","f55z05cpwq","1","78","85","70","","","","","","","","","","","","","","","",""
"null","audio/beep-329314.mp3","null","audio-keyboard-response","237","2.1.0","418413","J=YES, F=NO","f55z05cpwq","1","78","85","70","","","","","","","","","","","","","","","",""
"null","audio/roof1.wav","null","audio-keyboard-response","238","2.1.0","418952","J=YES, F=NO","f55z05cpwq","1","78","85","70","","","","","","","","","","","","","","","",""
"567","
          <p id=""word"" style=""font-size: 40px;"">construct</p>
          <p style=""font-size: 16px;"">J = YES &nbsp;&nbsp;&nbsp; F = NO</p>
        ","j","html-keyboard-response","239","2.1.0","419519","J=YES, F=NO","f55z05cpwq","1","78","85","70","","","","","","","","","construct","roof1","literal","experimental","j","true","",""
"null","<p style=""font-size: 50px;"">+</p>","null","html-keyboard-response","240","2.1.0","419824","J=YES, F=NO","f55z05cpwq","1","78","85","70","","","","","","","","","","","","","","","",""
"null","audio/beep-329314.mp3","null","audio-keyboard-response","241","2.1.0","421352","J=YES, F=NO","f55z05cpwq","1","78","85","70","","","","","","","","","","","","","","","",""
"null","audio/desire.wav","null","audio-keyboard-response","242","2.1.0","421952","J=YES, F=NO","f55z05cpwq","1","78","85","70","","","","","","","","","","","","","","","",""
"527","
          <p id=""word"" style=""font-size: 40px;"">open</p>
          <p style=""font-size: 16px;"">J = YES &nbsp;&nbsp;&nbsp; F = NO</p>
        ","j","html-keyboard-response","243","2.1.0","422480","J=YES, F=NO","f55z05cpwq","1","78","85","70","","","","","","","","","open","desire","unrelated","experimental","j","true","",""
"null","<p style=""font-size: 50px;"">+</p>","null","html-keyboard-response","244","2.1.0","422789","J=YES, F=NO","f55z05cpwq","1","78","85","70","","","","","","","","","","","","","","","",""
"null","audio/beep-329314.mp3","null","audio-keyboard-response","245","2.1.0","424312","J=YES, F=NO","f55z05cpwq","1","78","85","70","","","","","","","","","","","","","","","",""
"null","audio/cave1.wav","null","audio-keyboard-response","246","2.1.0","424852","J=YES, F=NO","f55z05cpwq","1","78","85","70","","","","","","","","","","","","","","","",""
"762","
          <p id=""word"" style=""font-size: 40px;"">blacket</p>
          <p style=""font-size: 16px;"">J = YES &nbsp;&nbsp;&nbsp; F = NO</p>
        ","f","html-keyboard-response","247","2.1.0","425615","J=YES, F=NO","f55z05cpwq","1","78","85","70","","","","","","","","","blacket","cave1","pseudoword","pseudoword","f","true","",""
"null","<p style=""font-size: 50px;"">+</p>","null","html-keyboard-response","248","2.1.0","425930","J=YES, F=NO","f55z05cpwq","1","78","85","70","","","","","","","","","","","","","","","",""
"null","audio/beep-329314.mp3","null","audio-keyboard-response","249","2.1.0","427452","J=YES, F=NO","f55z05cpwq","1","78","85","70","","","","","","","","","","","","","","","",""
"null","audio/effort.wav","null","audio-keyboard-response","250","2.1.0","428052","J=YES, F=NO","f55z05cpwq","1","78","85","70","","","","","","","","","","","","","","","",""
"546","
          <p id=""word"" style=""font-size: 40px;"">whonk</p>
          <p style=""font-size: 16px;"">J = YES &nbsp;&nbsp;&nbsp; F = NO</p>
        ","f","html-keyboard-response","251","2.1.0","428598","J=YES, F=NO","f55z05cpwq","1","78","85","70","","","","","","","","","whonk","effort","pseudoword","pseudoword","f","true","",""
"null","<p style=""font-size: 50px;"">+</p>","null","html-keyboard-response","252","2.1.0","428905","J=YES, F=NO","f55z05cpwq","1","78","85","70","","","","","","","","","","","","","","","",""
"null","audio/beep-329314.mp3","null","audio-keyboard-response","253","2.1.0","430432","J=YES, F=NO","f55z05cpwq","1","78","85","70","","","","","","","","","","","","","","","",""
"null","audio/holiday1.wav","null","audio-keyboard-response","254","2.1.0","431052","J=YES, F=NO","f55z05cpwq","1","78","85","70","","","","","","","","","","","","","","","",""
"754","
          <p id=""word"" style=""font-size: 40px;"">drivets</p>
          <p style=""font-size: 16px;"">J = YES &nbsp;&nbsp;&nbsp; F = NO</p>
        ","f","html-keyboard-response","255","2.1.0","431807","J=YES, F=NO","f55z05cpwq","1","78","85","70","","","","","","","","","drivets","holiday1","pseudoword","pseudoword","f","true","",""
"null","<p style=""font-size: 50px;"">+</p>","null","html-keyboard-response","256","2.1.0","432117","J=YES, F=NO","f55z05cpwq","1","78","85","70","","","","","","","","","","","","","","","",""
"null","audio/beep-329314.mp3","null","audio-keyboard-response","257","2.1.0","433652","J=YES, F=NO","f55z05cpwq","1","78","85","70","","","","","","","","","","","","","","","",""
"null","audio/vehicle1.wav","null","audio-keyboard-response","258","2.1.0","434292","J=YES, F=NO","f55z05cpwq","1","78","85","70","","","","","","","","","","","","","","","",""
"618","
          <p id=""word"" style=""font-size: 40px;"">dropt</p>
          <p style=""font-size: 16px;"">J = YES &nbsp;&nbsp;&nbsp; F = NO</p>
        ","f","html-keyboard-response","259","2.1.0","434911","J=YES, F=NO","f55z05cpwq","1","78","85","70","","","","","","","","","dropt","vehicle1","pseudoword","pseudoword","f","true","",""
"null","<p style=""font-size: 50px;"">+</p>","null","html-keyboard-response","260","2.1.0","435226","J=YES, F=NO","f55z05cpwq","1","78","85","70","","","","","","","","","","","","","","","",""
"null","audio/beep-329314.mp3","null","audio-keyboard-response","261","2.1.0","436752","J=YES, F=NO","f55z05cpwq","1","78","85","70","","","","","","","","","","","","","","","",""
"null","audio/tunnel.wav","null","audio-keyboard-response","262","2.1.0","437172","J=YES, F=NO","f55z05cpwq","1","78","85","70","","","","","","","","","","","","","","","",""
"634","
          <p id=""word"" style=""font-size: 40px;"">gred</p>
          <p style=""font-size: 16px;"">J = YES &nbsp;&nbsp;&nbsp; F = NO</p>
        ","f","html-keyboard-response","263","2.1.0","437807","J=YES, F=NO","f55z05cpwq","1","78","85","70","","","","","","","","","gred","tunnel","pseudoword","pseudoword","f","true","",""
"null","<p style=""font-size: 50px;"">+</p>","null","html-keyboard-response","264","2.1.0","438121","J=YES, F=NO","f55z05cpwq","1","78","85","70","","","","","","","","","","","","","","","",""
"null","audio/beep-329314.mp3","null","audio-keyboard-response","265","2.1.0","439652","J=YES, F=NO","f55z05cpwq","1","78","85","70","","","","","","","","","","","","","","","",""
"null","audio/voice.wav","null","audio-keyboard-response","266","2.1.0","440253","J=YES, F=NO","f55z05cpwq","1","78","85","70","","","","","","","","","","","","","","","",""
"562","
          <p id=""word"" style=""font-size: 40px;"">grintle</p>
          <p style=""font-size: 16px;"">J = YES &nbsp;&nbsp;&nbsp; F = NO</p>
        ","f","html-keyboard-response","267","2.1.0","440816","J=YES, F=NO","f55z05cpwq","1","78","85","70","","","","","","","","","grintle","voice","pseudoword","pseudoword","f","true","",""
"null","<p style=""font-size: 50px;"">+</p>","null","html-keyboard-response","268","2.1.0","441123","J=YES, F=NO","f55z05cpwq","1","78","85","70","","","","","","","","","","","","","","","",""
"null","audio/beep-329314.mp3","null","audio-keyboard-response","269","2.1.0","442653","J=YES, F=NO","f55z05cpwq","1","78","85","70","","","","","","","","","","","","","","","",""
"null","audio/purpose.wav","null","audio-keyboard-response","270","2.1.0","443313","J=YES, F=NO","f55z05cpwq","1","78","85","70","","","","","","","","","","","","","","","",""
"558","
          <p id=""word"" style=""font-size: 40px;"">whigm</p>
          <p style=""font-size: 16px;"">J = YES &nbsp;&nbsp;&nbsp; F = NO</p>
        ","f","html-keyboard-response","271","2.1.0","443872","J=YES, F=NO","f55z05cpwq","1","78","85","70","","","","","","","","","whigm","purpose","pseudoword","pseudoword","f","true","",""
"null","<p style=""font-size: 50px;"">+</p>","null","html-keyboard-response","272","2.1.0","444188","J=YES, F=NO","f55z05cpwq","1","78","85","70","","","","","","","","","","","","","","","",""
"null","audio/beep-329314.mp3","null","audio-keyboard-response","273","2.1.0","445712","J=YES, F=NO","f55z05cpwq","1","78","85","70","","","","","","","","","","","","","","","",""
"null","audio/bottle.wav","null","audio-keyboard-response","274","2.1.0","446173","J=YES, F=NO","f55z05cpwq","1","78","85","70","","","","","","","","","","","","","","","",""
"459","
          <p id=""word"" style=""font-size: 40px;"">watch</p>
          <p style=""font-size: 16px;"">J = YES &nbsp;&nbsp;&nbsp; F = NO</p>
        ","j","html-keyboard-response","275","2.1.0","446632","J=YES, F=NO","f55z05cpwq","1","78","85","70","","","","","","","","","watch","bottle","filler","filler","j","true","",""
"null","<p style=""font-size: 50px;"">+</p>","null","html-keyboard-response","276","2.1.0","446941","J=YES, F=NO","f55z05cpwq","1","78","85","70","","","","","","","","","","","","","","","",""
"null","audio/beep-329314.mp3","null","audio-keyboard-response","277","2.1.0","448473","J=YES, F=NO","f55z05cpwq","1","78","85","70","","","","","","","","","","","","","","","",""
"null","audio/theory1.wav","null","audio-keyboard-response","278","2.1.0","449113","J=YES, F=NO","f55z05cpwq","1","78","85","70","","","","","","","","","","","","","","","",""
"638","
          <p id=""word"" style=""font-size: 40px;"">scolve</p>
          <p style=""font-size: 16px;"">J = YES &nbsp;&nbsp;&nbsp; F = NO</p>
        ","j","html-keyboard-response","279","2.1.0","449751","J=YES, F=NO","f55z05cpwq","1","78","85","70","","","","","","","","","scolve","theory1","pseudoword","pseudoword","f","false","",""
"null","<p style=""font-size: 50px;"">+</p>","null","html-keyboard-response","280","2.1.0","450061","J=YES, F=NO","f55z05cpwq","1","78","85","70","","","","","","","","","","","","","","","",""
"null","audio/beep-329314.mp3","null","audio-keyboard-response","281","2.1.0","451592","J=YES, F=NO","f55z05cpwq","1","78","85","70","","","","","","","","","","","","","","","",""
"null","audio/empire.wav","null","audio-keyboard-response","282","2.1.0","452212","J=YES, F=NO","f55z05cpwq","1","78","85","70","","","","","","","","","","","","","","","",""
"507","
          <p id=""word"" style=""font-size: 40px;"">bring</p>
          <p style=""font-size: 16px;"">J = YES &nbsp;&nbsp;&nbsp; F = NO</p>
        ","j","html-keyboard-response","283","2.1.0","452721","J=YES, F=NO","f55z05cpwq","1","78","85","70","","","","","","","","","bring","empire","unrelated","experimental","j","true","",""
"null","<p style=""font-size: 50px;"">+</p>","null","html-keyboard-response","284","2.1.0","453029","J=YES, F=NO","f55z05cpwq","1","78","85","70","","","","","","","","","","","","","","","",""
"null","audio/beep-329314.mp3","null","audio-keyboard-response","285","2.1.0","454553","J=YES, F=NO","f55z05cpwq","1","78","85","70","","","","","","","","","","","","","","","",""
"null","audio/arm.wav","null","audio-keyboard-response","286","2.1.0","455093","J=YES, F=NO","f55z05cpwq","1","78","85","70","","","","","","","","","","","","","","","",""
"586","
          <p id=""word"" style=""font-size: 40px;"">seize</p>
          <p style=""font-size: 16px;"">J = YES &nbsp;&nbsp;&nbsp; F = NO</p>
        ","j","html-keyboard-response","287","2.1.0","455679","J=YES, F=NO","f55z05cpwq","1","78","85","70","","","","","","","","","seize","arm","literal","experimental","j","true","",""
"null","<p style=""font-size: 50px;"">+</p>","null","html-keyboard-response","288","2.1.0","455982","J=YES, F=NO","f55z05cpwq","1","78","85","70","","","","","","","","","","","","","","","",""
"null","audio/beep-329314.mp3","null","audio-keyboard-response","289","2.1.0","457512","J=YES, F=NO","f55z05cpwq","1","78","85","70","","","","","","","","","","","","","","","",""
"null","audio/sand.wav","null","audio-keyboard-response","290","2.1.0","458172","J=YES, F=NO","f55z05cpwq","1","78","85","70","","","","","","","","","","","","","","","",""
"706","
          <p id=""word"" style=""font-size: 40px;"">proted</p>
          <p style=""font-size: 16px;"">J = YES &nbsp;&nbsp;&nbsp; F = NO</p>
        ","f","html-keyboard-response","291","2.1.0","458879","J=YES, F=NO","f55z05cpwq","1","78","85","70","","","","","","","","","proted","sand","pseudoword","pseudoword","f","true","",""
"null","<p style=""font-size: 50px;"">+</p>","null","html-keyboard-response","292","2.1.0","459184","J=YES, F=NO","f55z05cpwq","1","78","85","70","","","","","","","","","","","","","","","",""
"null","audio/beep-329314.mp3","null","audio-keyboard-response","293","2.1.0","460712","J=YES, F=NO","f55z05cpwq","1","78","85","70","","","","","","","","","","","","","","","",""
"null","audio/account1.wav","null","audio-keyboard-response","294","2.1.0","461392","J=YES, F=NO","f55z05cpwq","1","78","85","70","","","","","","","","","","","","","","","",""
"455","
          <p id=""word"" style=""font-size: 40px;"">paint</p>
          <p style=""font-size: 16px;"">J = YES &nbsp;&nbsp;&nbsp; F = NO</p>
        ","j","html-keyboard-response","295","2.1.0","461847","J=YES, F=NO","f55z05cpwq","1","78","85","70","","","","","","","","","paint","account1","filler","filler","j","true","",""
"1175","<p>Excellent! You have finished block 2 of 8.</p>
                     <p>Feel free to take a 30 second break.</p>
                     <p>Press any key when you're ready to continue.</p>","j","html-keyboard-response","296","2.1.0","463023","J=YES, F=NO","f55z05cpwq","1","78","85","70","","","","","","","","","","","","","","","",""
"352","<p>Starting main block 3 of 8. Press any key to continue.</p>","j","html-keyboard-response","297","2.1.0","463376","J=YES, F=NO","f55z05cpwq","1","78","85","70","","","","","","","","","","","","","","","",""
"null","<p style=""font-size: 50px;"">+</p>","null","html-keyboard-response","298","2.1.0","463687","J=YES, F=NO","f55z05cpwq","1","78","85","70","","","","","","","","","","","","","","","",""
"null","audio/beep-329314.mp3","null","audio-keyboard-response","299","2.1.0","465213","J=YES, F=NO","f55z05cpwq","1","78","85","70","","","","","","","","","","","","","","","",""
"null","audio/stain.wav","null","audio-keyboard-response","300","2.1.0","465852","J=YES, F=NO","f55z05cpwq","1","78","85","70","","","","","","","","","","","","","","","",""
"611","
          <p id=""word"" style=""font-size: 40px;"">rumpsied</p>
          <p style=""font-size: 16px;"">J = YES &nbsp;&nbsp;&nbsp; F = NO</p>
        ","f","html-keyboard-response","301","2.1.0","466464","J=YES, F=NO","f55z05cpwq","1","78","85","70","","","","","","","","","rumpsied","stain","pseudoword","pseudoword","f","true","",""
"null","<p style=""font-size: 50px;"">+</p>","null","html-keyboard-response","302","2.1.0","466776","J=YES, F=NO","f55z05cpwq","1","78","85","70","","","","","","","","","","","","","","","",""
"null","audio/beep-329314.mp3","null","audio-keyboard-response","303","2.1.0","468313","J=YES, F=NO","f55z05cpwq","1","78","85","70","","","","","","","","","","","","","","","",""
"null","audio/foe1.wav","null","audio-keyboard-response","304","2.1.0","468833","J=YES, F=NO","f55z05cpwq","1","78","85","70","","","","","","","","","","","","","","","",""
"590","
          <p id=""word"" style=""font-size: 40px;"">conquer</p>
          <p style=""font-size: 16px;"">J = YES &nbsp;&nbsp;&nbsp; F = NO</p>
        ","j","html-keyboard-response","305","2.1.0","469424","J=YES, F=NO","f55z05cpwq","1","78","85","70","","","","","","","","","conquer","foe1","literal","experimental","j","true","",""
"null","<p style=""font-size: 50px;"">+</p>","null","html-keyboard-response","306","2.1.0","469729","J=YES, F=NO","f55z05cpwq","1","78","85","70","","","","","","","","","","","","","","","",""
"null","audio/beep-329314.mp3","null","audio-keyboard-response","307","2.1.0","471252","J=YES, F=NO","f55z05cpwq","1","78","85","70","","","","","","","","","","","","","","","",""
"null","audio/survey1.wav","null","audio-keyboard-response","308","2.1.0","471972","J=YES, F=NO","f55z05cpwq","1","78","85","70","","","","","","","","","","","","","","","",""
"434","
          <p id=""word"" style=""font-size: 40px;"">release</p>
          <p style=""font-size: 16px;"">J = YES &nbsp;&nbsp;&nbsp; F = NO</p>
        ","j","html-keyboard-response","309","2.1.0","472407","J=YES, F=NO","f55z05cpwq","1","78","85","70","","","","","","","","","release","survey1","metaphor","experimental","j","true","",""
"null","<p style=""font-size: 50px;"">+</p>","null","html-keyboard-response","310","2.1.0","472714","J=YES, F=NO","f55z05cpwq","1","78","85","70","","","","","","","","","","","","","","","",""
"null","audio/beep-329314.mp3","null","audio-keyboard-response","311","2.1.0","474252","J=YES, F=NO","f55z05cpwq","1","78","85","70","","","","","","","","","","","","","","","",""
"null","audio/cash1.wav","null","audio-keyboard-response","312","2.1.0","474812","J=YES, F=NO","f55z05cpwq","1","78","85","70","","","","","","","","","","","","","","","",""
"730","
          <p id=""word"" style=""font-size: 40px;"">splear</p>
          <p style=""font-size: 16px;"">J = YES &nbsp;&nbsp;&nbsp; F = NO</p>
        ","f","html-keyboard-response","313","2.1.0","475542","J=YES, F=NO","f55z05cpwq","1","78","85","70","","","","","","","","","splear","cash1","pseudoword","pseudoword","f","true","",""
"null","<p style=""font-size: 50px;"">+</p>","null","html-keyboard-response","314","2.1.0","475844","J=YES, F=NO","f55z05cpwq","1","78","85","70","","","","","","","","","","","","","","","",""
"null","audio/beep-329314.mp3","null","audio-keyboard-response","315","2.1.0","477372","J=YES, F=NO","f55z05cpwq","1","78","85","70","","","","","","","","","","","","","","","",""
"null","audio/bishop1.wav","null","audio-keyboard-response","316","2.1.0","477952","J=YES, F=NO","f55z05cpwq","1","78","85","70","","","","","","","","","","","","","","","",""
"462","
          <p id=""word"" style=""font-size: 40px;"">play</p>
          <p style=""font-size: 16px;"">J = YES &nbsp;&nbsp;&nbsp; F = NO</p>
        ","j","html-keyboard-response","317","2.1.0","478414","J=YES, F=NO","f55z05cpwq","1","78","85","70","","","","","","","","","play","bishop1","filler","filler","j","true","",""
"null","<p style=""font-size: 50px;"">+</p>","null","html-keyboard-response","318","2.1.0","478723","J=YES, F=NO","f55z05cpwq","1","78","85","70","","","","","","","","","","","","","","","",""
"null","audio/beep-329314.mp3","null","audio-keyboard-response","319","2.1.0","480252","J=YES, F=NO","f55z05cpwq","1","78","85","70","","","","","","","","","","","","","","","",""
"null","audio/dollar.wav","null","audio-keyboard-response","320","2.1.0","480632","J=YES, F=NO","f55z05cpwq","1","78","85","70","","","","","","","","","","","","","","","",""
"614","
          <p id=""word"" style=""font-size: 40px;"">gliptism</p>
          <p style=""font-size: 16px;"">J = YES &nbsp;&nbsp;&nbsp; F = NO</p>
        ","f","html-keyboard-response","321","2.1.0","481247","J=YES, F=NO","f55z05cpwq","1","78","85","70","","","","","","","","","gliptism","dollar","pseudoword","pseudoword","f","true","",""
"null","<p style=""font-size: 50px;"">+</p>","null","html-keyboard-response","322","2.1.0","481549","J=YES, F=NO","f55z05cpwq","1","78","85","70","","","","","","","","","","","","","","","",""
"null","audio/beep-329314.mp3","null","audio-keyboard-response","323","2.1.0","483072","J=YES, F=NO","f55z05cpwq","1","78","85","70","","","","","","","","","","","","","","","",""
"null","audio/essence1.wav","null","audio-keyboard-response","324","2.1.0","483752","J=YES, F=NO","f55z05cpwq","1","78","85","70","","","","","","","","","","","","","","","",""
"718","
          <p id=""word"" style=""font-size: 40px;"">grasp</p>
          <p style=""font-size: 16px;"">J = YES &nbsp;&nbsp;&nbsp; F = NO</p>
        ","j","html-keyboard-response","325","2.1.0","484471","J=YES, F=NO","f55z05cpwq","1","78","85","70","","","","","","","","","grasp","essence1","metaphor","experimental","j","true","",""
"null","<p style=""font-size: 50px;"">+</p>","null","html-keyboard-response","326","2.1.0","484787","J=YES, F=NO","f55z05cpwq","1","78","85","70","","","","","","","","","","","","","","","",""
"null","audio/beep-329314.mp3","null","audio-keyboard-response","327","2.1.0","486312","J=YES, F=NO","f55z05cpwq","1","78","85","70","","","","","","","","","","","","","","","",""
"null","audio/budget1.wav","null","audio-keyboard-response","328","2.1.0","486913","J=YES, F=NO","f55z05cpwq","1","78","85","70","","","","","","","","","","","","","","","",""
"558","
          <p id=""word"" style=""font-size: 40px;"">sulist</p>
          <p style=""font-size: 16px;"">J = YES &nbsp;&nbsp;&nbsp; F = NO</p>
        ","f","html-keyboard-response","329","2.1.0","487471","J=YES, F=NO","f55z05cpwq","1","78","85","70","","","","","","","","","sulist","budget1","pseudoword","pseudoword","f","true","",""
"null","<p style=""font-size: 50px;"">+</p>","null","html-keyboard-response","330","2.1.0","487785","J=YES, F=NO","f55z05cpwq","1","78","85","70","","","","","","","","","","","","","","","",""
"null","audio/beep-329314.mp3","null","audio-keyboard-response","331","2.1.0","489312","J=YES, F=NO","f55z05cpwq","1","78","85","70","","","","","","","","","","","","","","","",""
"null","audio/baby.wav","null","audio-keyboard-response","332","2.1.0","489772","J=YES, F=NO","f55z05cpwq","1","78","85","70","","","","","","","","","","","","","","","",""
"434","
          <p id=""word"" style=""font-size: 40px;"">hold</p>
          <p style=""font-size: 16px;"">J = YES &nbsp;&nbsp;&nbsp; F = NO</p>
        ","j","html-keyboard-response","333","2.1.0","490207","J=YES, F=NO","f55z05cpwq","1","78","85","70","","","","","","","","","hold","baby","literal","experimental","j","true","",""
"null","<p style=""font-size: 50px;"">+</p>","null","html-keyboard-response","334","2.1.0","490516","J=YES, F=NO","f55z05cpwq","1","78","85","70","","","","","","","","","","","","","","","",""
"null","audio/beep-329314.mp3","null","audio-keyboard-response","335","2.1.0","492052","J=YES, F=NO","f55z05cpwq","1","78","85","70","","","","","","","","","","","","","","","",""
"null","audio/trust.wav","null","audio-keyboard-response","336","2.1.0","492672","J=YES, F=NO","f55z05cpwq","1","78","85","70","","","","","","","","","","","","","","","",""
"606","
          <p id=""word"" style=""font-size: 40px;"">swint</p>
          <p style=""font-size: 16px;"">J = YES &nbsp;&nbsp;&nbsp; F = NO</p>
        ","f","html-keyboard-response","337","2.1.0","493279","J=YES, F=NO","f55z05cpwq","1","78","85","70","","","","","","","","","swint","trust","pseudoword","pseudoword","f","true","",""
"null","<p style=""font-size: 50px;"">+</p>","null","html-keyboard-response","338","2.1.0","493595","J=YES, F=NO","f55z05cpwq","1","78","85","70","","","","","","","","","","","","","","","",""
"null","audio/beep-329314.mp3","null","audio-keyboard-response","339","2.1.0","495133","J=YES, F=NO","f55z05cpwq","1","78","85","70","","","","","","","","","","","","","","","",""
"null","audio/key1.wav","null","audio-keyboard-response","340","2.1.0","495492","J=YES, F=NO","f55z05cpwq","1","78","85","70","","","","","","","","","","","","","","","",""
"673","
          <p id=""word"" style=""font-size: 40px;"">sminsh</p>
          <p style=""font-size: 16px;"">J = YES &nbsp;&nbsp;&nbsp; F = NO</p>
        ","f","html-keyboard-response","341","2.1.0","496166","J=YES, F=NO","f55z05cpwq","1","78","85","70","","","","","","","","","sminsh","key1","pseudoword","pseudoword","f","true","",""
"null","<p style=""font-size: 50px;"">+</p>","null","html-keyboard-response","342","2.1.0","496471","J=YES, F=NO","f55z05cpwq","1","78","85","70","","","","","","","","","","","","","","","",""
"null","audio/beep-329314.mp3","null","audio-keyboard-response","343","2.1.0","497993","J=YES, F=NO","f55z05cpwq","1","78","85","70","","","","","","","","","","","","","","","",""
"null","audio/pine.wav","null","audio-keyboard-response","344","2.1.0","498473","J=YES, F=NO","f55z05cpwq","1","78","85","70","","","","","","","","","","","","","","","",""
"990","
          <p id=""word"" style=""font-size: 40px;"">crebble</p>
          <p style=""font-size: 16px;"">J = YES &nbsp;&nbsp;&nbsp; F = NO</p>
        ","j","html-keyboard-response","345","2.1.0","499463","J=YES, F=NO","f55z05cpwq","1","78","85","70","","","","","","","","","crebble","pine","pseudoword","pseudoword","f","false","",""
"null","<p style=""font-size: 50px;"">+</p>","null","html-keyboard-response","346","2.1.0","499769","J=YES, F=NO","f55z05cpwq","1","78","85","70","","","","","","","","","","","","","","","",""
"null","audio/beep-329314.mp3","null","audio-keyboard-response","347","2.1.0","501293","J=YES, F=NO","f55z05cpwq","1","78","85","70","","","","","","","","","","","","","","","",""
"null","audio/kettle1.wav","null","audio-keyboard-response","348","2.1.0","501753","J=YES, F=NO","f55z05cpwq","1","78","85","70","","","","","","","","","","","","","","","",""
"558","
          <p id=""word"" style=""font-size: 40px;"">navigate</p>
          <p style=""font-size: 16px;"">J = YES &nbsp;&nbsp;&nbsp; F = NO</p>
        ","j","html-keyboard-response","349","2.1.0","502311","J=YES, F=NO","f55z05cpwq","1","78","85","70","","","","","","","","","navigate","kettle1","unrelated","experimental","j","true","",""
"null","<p style=""font-size: 50px;"">+</p>","null","html-keyboard-response","350","2.1.0","502614","J=YES, F=NO","f55z05cpwq","1","78","85","70","","","","","","","","","","","","","","","",""
"null","audio/beep-329314.mp3","null","audio-keyboard-response","351","2.1.0","504153","J=YES, F=NO","f55z05cpwq","1","78","85","70","","","","","","","","","","","","","","","",""
"null","audio/radio1.wav","null","audio-keyboard-response","352","2.1.0","504733","J=YES, F=NO","f55z05cpwq","1","78","85","70","","","","","","","","","","","","","","","",""
"458","
          <p id=""word"" style=""font-size: 40px;"">spend</p>
          <p style=""font-size: 16px;"">J = YES &nbsp;&nbsp;&nbsp; F = NO</p>
        ","j","html-keyboard-response","353","2.1.0","505192","J=YES, F=NO","f55z05cpwq","1","78","85","70","","","","","","","","","spend","radio1","unrelated","experimental","j","true","",""
"null","<p style=""font-size: 50px;"">+</p>","null","html-keyboard-response","354","2.1.0","505501","J=YES, F=NO","f55z05cpwq","1","78","85","70","","","","","","","","","","","","","","","",""
"null","audio/beep-329314.mp3","null","audio-keyboard-response","355","2.1.0","507033","J=YES, F=NO","f55z05cpwq","1","78","85","70","","","","","","","","","","","","","","","",""
"null","audio/mouth1.wav","null","audio-keyboard-response","356","2.1.0","507793","J=YES, F=NO","f55z05cpwq","1","78","85","70","","","","","","","","","","","","","","","",""
"606","
          <p id=""word"" style=""font-size: 40px;"">spolial</p>
          <p style=""font-size: 16px;"">J = YES &nbsp;&nbsp;&nbsp; F = NO</p>
        ","f","html-keyboard-response","357","2.1.0","508399","J=YES, F=NO","f55z05cpwq","1","78","85","70","","","","","","","","","spolial","mouth1","pseudoword","pseudoword","f","true","",""
"null","<p style=""font-size: 50px;"">+</p>","null","html-keyboard-response","358","2.1.0","508706","J=YES, F=NO","f55z05cpwq","1","78","85","70","","","","","","","","","","","","","","","",""
"null","audio/beep-329314.mp3","null","audio-keyboard-response","359","2.1.0","510233","J=YES, F=NO","f55z05cpwq","1","78","85","70","","","","","","","","","","","","","","","",""
"null","audio/bomb1.wav","null","audio-keyboard-response","360","2.1.0","510613","J=YES, F=NO","f55z05cpwq","1","78","85","70","","","","","","","","","","","","","","","",""
"466","
          <p id=""word"" style=""font-size: 40px;"">drop</p>
          <p style=""font-size: 16px;"">J = YES &nbsp;&nbsp;&nbsp; F = NO</p>
        ","j","html-keyboard-response","361","2.1.0","511080","J=YES, F=NO","f55z05cpwq","1","78","85","70","","","","","","","","","drop","bomb1","literal","experimental","j","true","",""
"1959","<p>Excellent! You have finished block 3 of 8.</p>
                     <p>Feel free to take a 30 second break.</p>
                     <p>Press any key when you're ready to continue.</p>","j","html-keyboard-response","362","2.1.0","513039","J=YES, F=NO","f55z05cpwq","1","78","85","70","","","","","","","","","","","","","","","",""
"488","<p>Starting main block 4 of 8. Press any key to continue.</p>","j","html-keyboard-response","363","2.1.0","513527","J=YES, F=NO","f55z05cpwq","1","78","85","70","","","","","","","","","","","","","","","",""
"null","<p style=""font-size: 50px;"">+</p>","null","html-keyboard-response","364","2.1.0","513828","J=YES, F=NO","f55z05cpwq","1","78","85","70","","","","","","","","","","","","","","","",""
"null","audio/beep-329314.mp3","null","audio-keyboard-response","365","2.1.0","515353","J=YES, F=NO","f55z05cpwq","1","78","85","70","","","","","","","","","","","","","","","",""
"null","audio/ego.wav","null","audio-keyboard-response","366","2.1.0","515893","J=YES, F=NO","f55z05cpwq","1","78","85","70","","","","","","","","","","","","","","","",""
"634","
          <p id=""word"" style=""font-size: 40px;"">bruite</p>
          <p style=""font-size: 16px;"">J = YES &nbsp;&nbsp;&nbsp; F = NO</p>
        ","f","html-keyboard-response","367","2.1.0","516528","J=YES, F=NO","f55z05cpwq","1","78","85","70","","","","","","","","","bruite","ego","pseudoword","pseudoword","f","true","",""
"null","<p style=""font-size: 50px;"">+</p>","null","html-keyboard-response","368","2.1.0","516844","J=YES, F=NO","f55z05cpwq","1","78","85","70","","","","","","","","","","","","","","","",""
"null","audio/beep-329314.mp3","null","audio-keyboard-response","369","2.1.0","518373","J=YES, F=NO","f55z05cpwq","1","78","85","70","","","","","","","","","","","","","","","",""
"null","audio/camera1.wav","null","audio-keyboard-response","370","2.1.0","518853","J=YES, F=NO","f55z05cpwq","1","78","85","70","","","","","","","","","","","","","","","",""
"554","
          <p id=""word"" style=""font-size: 40px;"">stir</p>
          <p style=""font-size: 16px;"">J = YES &nbsp;&nbsp;&nbsp; F = NO</p>
        ","j","html-keyboard-response","371","2.1.0","519407","J=YES, F=NO","f55z05cpwq","1","78","85","70","","","","","","","","","stir","camera1","filler","filler","j","true","",""
"null","<p style=""font-size: 50px;"">+</p>","null","html-keyboard-response","372","2.1.0","519709","J=YES, F=NO","f55z05cpwq","1","78","85","70","","","","","","","","","","","","","","","",""
"null","audio/beep-329314.mp3","null","audio-keyboard-response","373","2.1.0","521233","J=YES, F=NO","f55z05cpwq","1","78","85","70","","","","","","","","","","","","","","","",""
"null","audio/neck.wav","null","audio-keyboard-response","374","2.1.0","521772","J=YES, F=NO","f55z05cpwq","1","78","85","70","","","","","","","","","","","","","","","",""
"null","
          <p id=""word"" style=""font-size: 40px;"">share</p>
          <p style=""font-size: 16px;"">J = YES &nbsp;&nbsp;&nbsp; F = NO</p>
        ","null","html-keyboard-response","375","2.1.0","523279","J=YES, F=NO","f55z05cpwq","1","78","85","70","","","","","","","","","share","neck","unrelated","experimental","j","false","",""
"null","<p style=""font-size: 50px;"">+</p>","null","html-keyboard-response","376","2.1.0","523593","J=YES, F=NO","f55z05cpwq","1","78","85","70","","","","","","","","","","","","","","","",""
"null","audio/beep-329314.mp3","null","audio-keyboard-response","377","2.1.0","525132","J=YES, F=NO","f55z05cpwq","1","78","85","70","","","","","","","","","","","","","","","",""
"null","audio/burden.wav","null","audio-keyboard-response","378","2.1.0","525833","J=YES, F=NO","f55z05cpwq","1","78","85","70","","","","","","","","","","","","","","","",""
"null","
          <p id=""word"" style=""font-size: 40px;"">whotth</p>
          <p style=""font-size: 16px;"">J = YES &nbsp;&nbsp;&nbsp; F = NO</p>
        ","null","html-keyboard-response","379","2.1.0","527348","J=YES, F=NO","f55z05cpwq","1","78","85","70","","","","","","","","","whotth","burden","pseudoword","pseudoword","f","false","",""
"null","<p style=""font-size: 50px;"">+</p>","null","html-keyboard-response","380","2.1.0","527657","J=YES, F=NO","f55z05cpwq","1","78","85","70","","","","","","","","","","","","","","","",""
"null","audio/beep-329314.mp3","null","audio-keyboard-response","381","2.1.0","529193","J=YES, F=NO","f55z05cpwq","1","78","85","70","","","","","","","","","","","","","","","",""
"null","audio/van1.wav","null","audio-keyboard-response","382","2.1.0","529673","J=YES, F=NO","f55z05cpwq","1","78","85","70","","","","","","","","","","","","","","","",""
"534","
          <p id=""word"" style=""font-size: 40px;"">push</p>
          <p style=""font-size: 16px;"">J = YES &nbsp;&nbsp;&nbsp; F = NO</p>
        ","j","html-keyboard-response","383","2.1.0","530207","J=YES, F=NO","f55z05cpwq","1","78","85","70","","","","","","","","","push","van1","filler","filler","j","true","",""
"null","<p style=""font-size: 50px;"">+</p>","null","html-keyboard-response","384","2.1.0","530515","J=YES, F=NO","f55z05cpwq","1","78","85","70","","","","","","","","","","","","","","","",""
"null","audio/beep-329314.mp3","null","audio-keyboard-response","385","2.1.0","532053","J=YES, F=NO","f55z05cpwq","1","78","85","70","","","","","","","","","","","","","","","",""
"null","audio/relief.wav","null","audio-keyboard-response","386","2.1.0","532893","J=YES, F=NO","f55z05cpwq","1","78","85","70","","","","","","","","","","","","","","","",""
"706","
          <p id=""word"" style=""font-size: 40px;"">grigg</p>
          <p style=""font-size: 16px;"">J = YES &nbsp;&nbsp;&nbsp; F = NO</p>
        ","f","html-keyboard-response","387","2.1.0","533600","J=YES, F=NO","f55z05cpwq","1","78","85","70","","","","","","","","","grigg","relief","pseudoword","pseudoword","f","true","",""
"null","<p style=""font-size: 50px;"">+</p>","null","html-keyboard-response","388","2.1.0","533908","J=YES, F=NO","f55z05cpwq","1","78","85","70","","","","","","","","","","","","","","","",""
"null","audio/beep-329314.mp3","null","audio-keyboard-response","389","2.1.0","535433","J=YES, F=NO","f55z05cpwq","1","78","85","70","","","","","","","","","","","","","","","",""
"null","audio/novel.wav","null","audio-keyboard-response","390","2.1.0","535912","J=YES, F=NO","f55z05cpwq","1","78","85","70","","","","","","","","","","","","","","","",""
"455","
          <p id=""word"" style=""font-size: 40px;"">type</p>
          <p style=""font-size: 16px;"">J = YES &nbsp;&nbsp;&nbsp; F = NO</p>
        ","j","html-keyboard-response","391","2.1.0","536367","J=YES, F=NO","f55z05cpwq","1","78","85","70","","","","","","","","","type","novel","filler","filler","j","true","",""
