"rt","stimulus","response","trial_type","trial_index","plugin_version","time_elapsed","response_mapping","subject_id","list_index","lextale_score","lextale_word_score","lextale_nonword_score","success","timeout","failed_images","failed_audio","failed_video","task","isWord","isDummy","target","prime","prime_type","stimulus_type","correct_response","correct","section","question_order"
"22709","
    <div style=""max-width: 800px; margin: auto; text-align: left;"">
      <h2>STANFORD UNIVERSITY</h2>
      <h3>Research Information Sheet</h3>
      <p><strong>Protocol Director:</strong> Robert Hawkins<br>
      <strong>Protocol Title:</strong> Communication and social cognition in natural audiovisual contexts<br>
      <strong>IRB#:</strong> 77226</p>

      <p><strong>DESCRIPTION:</strong> You are invited to participate in a research study about language and communication. The purpose of the research is to understand how you interact and communicate with other people in naturalistic settings as a fluent English speaker. This research will be conducted through the Prolific platform, including participants from the US, UK, and Canada. If you decide to participate in this research, you will play a communication game in a group with one or more partners.</p>

      <p><strong>TIME INVOLVEMENT:</strong> The task will last the amount of time advertised on Prolific. You are free to withdraw from the study at any time.</p>

      <p><strong>RISKS AND BENEFITS:</strong> You may become frustrated if your partner gets distracted, or experience discomfort if other participants in your group send text that is inappropriate for the task. We ask you to please be respectful of other participants you might be interacting with to mitigate these risks. You may also experience discomfort when being asked to discuss or challenge emotionally salient political beliefs. Study data will be stored securely, in compliance with Stanford University standards, minimizing the risk of confidentiality breach. This study advances our scientific understanding of how people communicate and collaborate in naturalistic settings. This study may lead to further insights about what can go wrong in teamwork, suggest potential interventions to overcome these barriers, and help to develop assistive technologies that collaborate with human partners. We cannot and do not guarantee or promise that you will receive any benefits from this study.</p>

      <p><strong>PAYMENTS:</strong> You will receive payment in the amount advertised on Prolific. If you do not complete this study, you will receive prorated payment based on the time that you have spent. Additionally, you may be eligible for bonus payments as described in the instructions.</p>

      <p><strong>PARTICIPANT’S RIGHTS:</strong> If you have read this form and have decided to participate in this project, please understand your participation is voluntary and you have the right to withdraw your consent or discontinue participation at any time without penalty or loss of benefits to which you are otherwise entitled. The alternative is not to participate. You have the right to refuse to answer particular questions. The results of this research study may be presented at scientific or professional meetings or published in scientific journals. Your individual privacy will be maintained in all published and written data resulting from the study. In accordance with scientific norms, the data from this study may be used or shared with other researchers for future research (after removing personally identifying information) without additional consent from you.</p>

      <p><strong>CONTACT INFORMATION:</strong><br>
      Questions: If you have any questions, concerns or complaints about this research, its procedures, risks and benefits, contact the Protocol Director, Robert Hawkins (<a href=""mailto:rdhawkins@stanford.edu"">rdhawkins@stanford.edu</a>, 217-549-6923).<br>
      Independent Contact: If you are not satisfied with how this study is being conducted, or if you have any concerns, complaints, or general questions about the research or your rights as a participant, please contact the Stanford Institutional Review Board (IRB) to speak to someone independent of the research team at 650-723-2480 or toll free at 1-866-680-2906, or email at <a href=""mailto:irbnon-med@stanford.edu"">irbnon-med@stanford.edu</a>. You can also write to the Stanford IRB, Stanford University, 1705 El Camino Real, Palo Alto, CA 94306.</p>

      <p><strong>Please save or print a copy of this page for your records.</strong></p>
      <p>If you agree to participate in this research, click ""Continue"" below.</p>
    </div>
  ","0","html-button-response","0","2.1.0","22717","J=YES, F=NO","f7zd1qzyv5","1","83","85","80","","","","","","","","","","","","","","","",""
"5899","
    <div style=""max-width: 800px; margin: auto; text-align: left;"">
      <h2>Welcome!</h2>
      <p>Thank you for participating in this study. The experiment consists of three parts:</p>
      <ol>
        <li>An English vocabulary test</li>
        <li>A main task in which you will hear and see words, and decide whether the written word is a real English word</li>
        <li>A brief survey about your background</li>
      </ol>
      <p>Each part will be introduced before it begins.</p>
      <p>Please make sure you are in a quiet environment and can hear audio clearly for the final task.</p>
      <p style=""margin-top: 2em;"">Press any key to begin.</p>
    </div>
  "," ","html-keyboard-response","1","2.1.0","28620","J=YES, F=NO","f7zd1qzyv5","1","83","85","80","","","","","","","","","","","","","","","",""
"","","","preload","2","2.1.0","33909","J=YES, F=NO","f7zd1qzyv5","1","83","85","80","true","false","[]","[]","[]","","","","","","","","","","",""
"4018","
    <div style=""max-width: 800px; margin: auto; text-align: left;"">
      <h2>Part 1: Vocabulary Test</h2>
      <p>You will now complete the first part of the study: a short English vocabulary test.</p>
      <p>This test is called <strong>LexTALE</strong> and helps us get a general sense of your English proficiency.</p>
      <p style=""margin-top: 2em;"">Press any key to continue.</p>
    </div>
  "," ","html-keyboard-response","3","2.1.0","37929","J=YES, F=NO","f7zd1qzyv5","1","83","85","80","","","","","","","","","","","","","","","",""
"10272","
    <div style=""max-width: 800px; margin: auto; text-align: left;"">
      <h2>LexTALE Vocabulary Test</h2>
      <p>In this test, you will see a series of letter strings—one at a time.</p>
      <p>Your task is to decide whether each string is a real English word.</p>
      <p><strong>Key responses:</strong></p>
      <ul>
        <li><strong>J</strong> = YES (real English word)</li>
        <li><strong>F</strong> = NO (not a real English word)</li>
      </ul>
      <p>There is no time limit, but please try to be accurate.</p>
      <p style=""margin-top: 2em;"">Press any key to begin.</p>
    </div>
  "," ","html-keyboard-response","4","2.1.0","48203","J=YES, F=NO","f7zd1qzyv5","1","83","85","80","","","","","","","","","","","","","","","",""
"3670","
  <p style=""font-size: 40px;"">platery</p>
  <p style=""font-size: 16px;"">J = YES &nbsp;&nbsp;&nbsp; F = NO</p>
","f","html-keyboard-response","5","2.1.0","51875","J=YES, F=NO","f7zd1qzyv5","1","83","85","80","","","","","","lextale","false","true","","","","","","","",""
"2019","
  <p style=""font-size: 40px;"">denial</p>
  <p style=""font-size: 16px;"">J = YES &nbsp;&nbsp;&nbsp; F = NO</p>
","j","html-keyboard-response","6","2.1.0","53898","J=YES, F=NO","f7zd1qzyv5","1","83","85","80","","","","","","lextale","true","true","","","","","","","",""
"2287","
  <p style=""font-size: 40px;"">marrit</p>
  <p style=""font-size: 16px;"">J = YES &nbsp;&nbsp;&nbsp; F = NO</p>
","f","html-keyboard-response","7","2.1.0","56188","J=YES, F=NO","f7zd1qzyv5","1","83","85","80","","","","","","lextale","false","true","","","","","","","",""
"1517","
  <p style=""font-size: 40px;"">bottle</p>
  <p style=""font-size: 16px;"">J = YES &nbsp;&nbsp;&nbsp; F = NO</p>
","j","html-keyboard-response","8","2.1.0","57707","J=YES, F=NO","f7zd1qzyv5","1","83","85","80","","","","","","lextale","true","false","","","","","","","",""
"1596","
  <p style=""font-size: 40px;"">birst</p>
  <p style=""font-size: 16px;"">J = YES &nbsp;&nbsp;&nbsp; F = NO</p>
","f","html-keyboard-response","9","2.1.0","59305","J=YES, F=NO","f7zd1qzyv5","1","83","85","80","","","","","","lextale","false","false","","","","","","","",""
"943","
  <p style=""font-size: 40px;"">envy</p>
  <p style=""font-size: 16px;"">J = YES &nbsp;&nbsp;&nbsp; F = NO</p>
","j","html-keyboard-response","10","2.1.0","60251","J=YES, F=NO","f7zd1qzyv5","1","83","85","80","","","","","","lextale","true","false","","","","","","","",""
"5905","
  <p style=""font-size: 40px;"">brang</p>
  <p style=""font-size: 16px;"">J = YES &nbsp;&nbsp;&nbsp; F = NO</p>
","f","html-keyboard-response","11","2.1.0","66158","J=YES, F=NO","f7zd1qzyv5","1","83","85","80","","","","","","lextale","false","false","","","","","","","",""
"3583","
  <p style=""font-size: 40px;"">huge</p>
  <p style=""font-size: 16px;"">J = YES &nbsp;&nbsp;&nbsp; F = NO</p>
","j","html-keyboard-response","12","2.1.0","69743","J=YES, F=NO","f7zd1qzyv5","1","83","85","80","","","","","","lextale","true","false","","","","","","","",""
"2632","
  <p style=""font-size: 40px;"">plove</p>
  <p style=""font-size: 16px;"">J = YES &nbsp;&nbsp;&nbsp; F = NO</p>
","f","html-keyboard-response","13","2.1.0","72377","J=YES, F=NO","f7zd1qzyv5","1","83","85","80","","","","","","lextale","false","false","","","","","","","",""
"918","
  <p style=""font-size: 40px;"">border</p>
  <p style=""font-size: 16px;"">J = YES &nbsp;&nbsp;&nbsp; F = NO</p>
","j","html-keyboard-response","14","2.1.0","73297","J=YES, F=NO","f7zd1qzyv5","1","83","85","80","","","","","","lextale","true","false","","","","","","","",""
"1106","
  <p style=""font-size: 40px;"">flimsy</p>
  <p style=""font-size: 16px;"">J = YES &nbsp;&nbsp;&nbsp; F = NO</p>
","j","html-keyboard-response","15","2.1.0","74404","J=YES, F=NO","f7zd1qzyv5","1","83","85","80","","","","","","lextale","true","false","","","","","","","",""
"821","
  <p style=""font-size: 40px;"">drain</p>
  <p style=""font-size: 16px;"">J = YES &nbsp;&nbsp;&nbsp; F = NO</p>
","j","html-keyboard-response","16","2.1.0","75227","J=YES, F=NO","f7zd1qzyv5","1","83","85","80","","","","","","lextale","true","false","","","","","","","",""
"1091","
  <p style=""font-size: 40px;"">twindle</p>
  <p style=""font-size: 16px;"">J = YES &nbsp;&nbsp;&nbsp; F = NO</p>
","j","html-keyboard-response","17","2.1.0","76319","J=YES, F=NO","f7zd1qzyv5","1","83","85","80","","","","","","lextale","false","false","","","","","","","",""
"779","
  <p style=""font-size: 40px;"">propose</p>
  <p style=""font-size: 16px;"">J = YES &nbsp;&nbsp;&nbsp; F = NO</p>
","j","html-keyboard-response","18","2.1.0","77099","J=YES, F=NO","f7zd1qzyv5","1","83","85","80","","","","","","lextale","true","false","","","","","","","",""
"1628","
  <p style=""font-size: 40px;"">forlay</p>
  <p style=""font-size: 16px;"">J = YES &nbsp;&nbsp;&nbsp; F = NO</p>
","f","html-keyboard-response","19","2.1.0","78729","J=YES, F=NO","f7zd1qzyv5","1","83","85","80","","","","","","lextale","false","false","","","","","","","",""
"753","
  <p style=""font-size: 40px;"">tenant</p>
  <p style=""font-size: 16px;"">J = YES &nbsp;&nbsp;&nbsp; F = NO</p>
","j","html-keyboard-response","20","2.1.0","79484","J=YES, F=NO","f7zd1qzyv5","1","83","85","80","","","","","","lextale","true","false","","","","","","","",""
"992","
  <p style=""font-size: 40px;"">strain</p>
  <p style=""font-size: 16px;"">J = YES &nbsp;&nbsp;&nbsp; F = NO</p>
","j","html-keyboard-response","21","2.1.0","80477","J=YES, F=NO","f7zd1qzyv5","1","83","85","80","","","","","","lextale","true","false","","","","","","","",""
"3232","
  <p style=""font-size: 40px;"">holster</p>
  <p style=""font-size: 16px;"">J = YES &nbsp;&nbsp;&nbsp; F = NO</p>
","j","html-keyboard-response","22","2.1.0","83711","J=YES, F=NO","f7zd1qzyv5","1","83","85","80","","","","","","lextale","true","false","","","","","","","",""
"1055","
  <p style=""font-size: 40px;"">hinder</p>
  <p style=""font-size: 16px;"">J = YES &nbsp;&nbsp;&nbsp; F = NO</p>
","j","html-keyboard-response","23","2.1.0","84767","J=YES, F=NO","f7zd1qzyv5","1","83","85","80","","","","","","lextale","true","false","","","","","","","",""
"564","
  <p style=""font-size: 40px;"">swindle</p>
  <p style=""font-size: 16px;"">J = YES &nbsp;&nbsp;&nbsp; F = NO</p>
","j","html-keyboard-response","24","2.1.0","85333","J=YES, F=NO","f7zd1qzyv5","1","83","85","80","","","","","","lextale","true","false","","","","","","","",""
"2254","
  <p style=""font-size: 40px;"">nuder</p>
  <p style=""font-size: 16px;"">J = YES &nbsp;&nbsp;&nbsp; F = NO</p>
","f","html-keyboard-response","25","2.1.0","87588","J=YES, F=NO","f7zd1qzyv5","1","83","85","80","","","","","","lextale","false","false","","","","","","","",""
"685","
  <p style=""font-size: 40px;"">pillow</p>
  <p style=""font-size: 16px;"">J = YES &nbsp;&nbsp;&nbsp; F = NO</p>
","j","html-keyboard-response","26","2.1.0","88274","J=YES, F=NO","f7zd1qzyv5","1","83","85","80","","","","","","lextale","true","false","","","","","","","",""
"2088","
  <p style=""font-size: 40px;"">shumble</p>
  <p style=""font-size: 16px;"">J = YES &nbsp;&nbsp;&nbsp; F = NO</p>
","f","html-keyboard-response","27","2.1.0","90363","J=YES, F=NO","f7zd1qzyv5","1","83","85","80","","","","","","lextale","false","false","","","","","","","",""
"749","
  <p style=""font-size: 40px;"">thirst</p>
  <p style=""font-size: 16px;"">J = YES &nbsp;&nbsp;&nbsp; F = NO</p>
","j","html-keyboard-response","28","2.1.0","91114","J=YES, F=NO","f7zd1qzyv5","1","83","85","80","","","","","","lextale","true","false","","","","","","","",""
"3177","
  <p style=""font-size: 40px;"">unsail</p>
  <p style=""font-size: 16px;"">J = YES &nbsp;&nbsp;&nbsp; F = NO</p>
","f","html-keyboard-response","29","2.1.0","94292","J=YES, F=NO","f7zd1qzyv5","1","83","85","80","","","","","","lextale","false","false","","","","","","","",""
"883","
  <p style=""font-size: 40px;"">rifle</p>
  <p style=""font-size: 16px;"">J = YES &nbsp;&nbsp;&nbsp; F = NO</p>
","j","html-keyboard-response","30","2.1.0","95177","J=YES, F=NO","f7zd1qzyv5","1","83","85","80","","","","","","lextale","true","false","","","","","","","",""
"835","
  <p style=""font-size: 40px;"">mush</p>
  <p style=""font-size: 16px;"">J = YES &nbsp;&nbsp;&nbsp; F = NO</p>
","j","html-keyboard-response","31","2.1.0","96014","J=YES, F=NO","f7zd1qzyv5","1","83","85","80","","","","","","lextale","false","false","","","","","","","",""
"976","
  <p style=""font-size: 40px;"">drench</p>
  <p style=""font-size: 16px;"">J = YES &nbsp;&nbsp;&nbsp; F = NO</p>
","j","html-keyboard-response","32","2.1.0","96991","J=YES, F=NO","f7zd1qzyv5","1","83","85","80","","","","","","lextale","true","false","","","","","","","",""
"1324","
  <p style=""font-size: 40px;"">snirt</p>
  <p style=""font-size: 16px;"">J = YES &nbsp;&nbsp;&nbsp; F = NO</p>
","f","html-keyboard-response","33","2.1.0","98317","J=YES, F=NO","f7zd1qzyv5","1","83","85","80","","","","","","lextale","false","false","","","","","","","",""
"1271","
  <p style=""font-size: 40px;"">bitter</p>
  <p style=""font-size: 16px;"">J = YES &nbsp;&nbsp;&nbsp; F = NO</p>
","j","html-keyboard-response","34","2.1.0","99589","J=YES, F=NO","f7zd1qzyv5","1","83","85","80","","","","","","lextale","true","false","","","","","","","",""
"1684","
  <p style=""font-size: 40px;"">pliff</p>
  <p style=""font-size: 16px;"">J = YES &nbsp;&nbsp;&nbsp; F = NO</p>
","f","html-keyboard-response","35","2.1.0","101275","J=YES, F=NO","f7zd1qzyv5","1","83","85","80","","","","","","lextale","false","false","","","","","","","",""
"744","
  <p style=""font-size: 40px;"">tablet</p>
  <p style=""font-size: 16px;"">J = YES &nbsp;&nbsp;&nbsp; F = NO</p>
","j","html-keyboard-response","36","2.1.0","102020","J=YES, F=NO","f7zd1qzyv5","1","83","85","80","","","","","","lextale","true","false","","","","","","","",""
"847","
  <p style=""font-size: 40px;"">glimmer</p>
  <p style=""font-size: 16px;"">J = YES &nbsp;&nbsp;&nbsp; F = NO</p>
","j","html-keyboard-response","37","2.1.0","102869","J=YES, F=NO","f7zd1qzyv5","1","83","85","80","","","","","","lextale","true","false","","","","","","","",""
"1052","
  <p style=""font-size: 40px;"">slink</p>
  <p style=""font-size: 16px;"">J = YES &nbsp;&nbsp;&nbsp; F = NO</p>
","j","html-keyboard-response","38","2.1.0","103923","J=YES, F=NO","f7zd1qzyv5","1","83","85","80","","","","","","lextale","true","false","","","","","","","",""
"653","
  <p style=""font-size: 40px;"">clever</p>
  <p style=""font-size: 16px;"">J = YES &nbsp;&nbsp;&nbsp; F = NO</p>
","j","html-keyboard-response","39","2.1.0","104577","J=YES, F=NO","f7zd1qzyv5","1","83","85","80","","","","","","lextale","true","false","","","","","","","",""
"1876","
  <p style=""font-size: 40px;"">grum</p>
  <p style=""font-size: 16px;"">J = YES &nbsp;&nbsp;&nbsp; F = NO</p>
","f","html-keyboard-response","40","2.1.0","106454","J=YES, F=NO","f7zd1qzyv5","1","83","85","80","","","","","","lextale","false","false","","","","","","","",""
"817","
  <p style=""font-size: 40px;"">string</p>
  <p style=""font-size: 16px;"">J = YES &nbsp;&nbsp;&nbsp; F = NO</p>
","j","html-keyboard-response","41","2.1.0","107272","J=YES, F=NO","f7zd1qzyv5","1","83","85","80","","","","","","lextale","true","false","","","","","","","",""
"1072","
  <p style=""font-size: 40px;"">plim</p>
  <p style=""font-size: 16px;"">J = YES &nbsp;&nbsp;&nbsp; F = NO</p>
","f","html-keyboard-response","42","2.1.0","108346","J=YES, F=NO","f7zd1qzyv5","1","83","85","80","","","","","","lextale","false","false","","","","","","","",""
"1076","
  <p style=""font-size: 40px;"">cable</p>
  <p style=""font-size: 16px;"">J = YES &nbsp;&nbsp;&nbsp; F = NO</p>
","j","html-keyboard-response","43","2.1.0","109423","J=YES, F=NO","f7zd1qzyv5","1","83","85","80","","","","","","lextale","true","false","","","","","","","",""
"914","
  <p style=""font-size: 40px;"">shrivel</p>
  <p style=""font-size: 16px;"">J = YES &nbsp;&nbsp;&nbsp; F = NO</p>
","j","html-keyboard-response","44","2.1.0","110339","J=YES, F=NO","f7zd1qzyv5","1","83","85","80","","","","","","lextale","true","false","","","","","","","",""
"1143","
  <p style=""font-size: 40px;"">tarnish</p>
  <p style=""font-size: 16px;"">J = YES &nbsp;&nbsp;&nbsp; F = NO</p>
","j","html-keyboard-response","45","2.1.0","111483","J=YES, F=NO","f7zd1qzyv5","1","83","85","80","","","","","","lextale","true","false","","","","","","","",""
"1378","
  <p style=""font-size: 40px;"">blim</p>
  <p style=""font-size: 16px;"">J = YES &nbsp;&nbsp;&nbsp; F = NO</p>
","f","html-keyboard-response","46","2.1.0","112863","J=YES, F=NO","f7zd1qzyv5","1","83","85","80","","","","","","lextale","false","false","","","","","","","",""
"1115","
  <p style=""font-size: 40px;"">stifle</p>
  <p style=""font-size: 16px;"">J = YES &nbsp;&nbsp;&nbsp; F = NO</p>
","j","html-keyboard-response","47","2.1.0","113979","J=YES, F=NO","f7zd1qzyv5","1","83","85","80","","","","","","lextale","true","false","","","","","","","",""
"1134","
  <p style=""font-size: 40px;"">bint</p>
  <p style=""font-size: 16px;"">J = YES &nbsp;&nbsp;&nbsp; F = NO</p>
","f","html-keyboard-response","48","2.1.0","115115","J=YES, F=NO","f7zd1qzyv5","1","83","85","80","","","","","","lextale","false","false","","","","","","","",""
"539","
  <p style=""font-size: 40px;"">purple</p>
  <p style=""font-size: 16px;"">J = YES &nbsp;&nbsp;&nbsp; F = NO</p>
","j","html-keyboard-response","49","2.1.0","115655","J=YES, F=NO","f7zd1qzyv5","1","83","85","80","","","","","","lextale","true","false","","","","","","","",""
"2098","
  <p style=""font-size: 40px;"">wriggle</p>
  <p style=""font-size: 16px;"">J = YES &nbsp;&nbsp;&nbsp; F = NO</p>
","j","html-keyboard-response","50","2.1.0","117754","J=YES, F=NO","f7zd1qzyv5","1","83","85","80","","","","","","lextale","true","false","","","","","","","",""
"861","
  <p style=""font-size: 40px;"">mangle</p>
  <p style=""font-size: 16px;"">J = YES &nbsp;&nbsp;&nbsp; F = NO</p>
","j","html-keyboard-response","51","2.1.0","118616","J=YES, F=NO","f7zd1qzyv5","1","83","85","80","","","","","","lextale","true","false","","","","","","","",""
"1555","
  <p style=""font-size: 40px;"">shramp</p>
  <p style=""font-size: 16px;"">J = YES &nbsp;&nbsp;&nbsp; F = NO</p>
","f","html-keyboard-response","52","2.1.0","120173","J=YES, F=NO","f7zd1qzyv5","1","83","85","80","","","","","","lextale","false","false","","","","","","","",""
"639","
  <p style=""font-size: 40px;"">flirt</p>
  <p style=""font-size: 16px;"">J = YES &nbsp;&nbsp;&nbsp; F = NO</p>
","j","html-keyboard-response","53","2.1.0","120813","J=YES, F=NO","f7zd1qzyv5","1","83","85","80","","","","","","lextale","true","false","","","","","","","",""
"940","
  <p style=""font-size: 40px;"">frip</p>
  <p style=""font-size: 16px;"">J = YES &nbsp;&nbsp;&nbsp; F = NO</p>
","f","html-keyboard-response","54","2.1.0","121754","J=YES, F=NO","f7zd1qzyv5","1","83","85","80","","","","","","lextale","false","false","","","","","","","",""
"762","
  <p style=""font-size: 40px;"">tangle</p>
  <p style=""font-size: 16px;"">J = YES &nbsp;&nbsp;&nbsp; F = NO</p>
","j","html-keyboard-response","55","2.1.0","122518","J=YES, F=NO","f7zd1qzyv5","1","83","85","80","","","","","","lextale","true","false","","","","","","","",""
"2394","
  <p style=""font-size: 40px;"">crumble</p>
  <p style=""font-size: 16px;"">J = YES &nbsp;&nbsp;&nbsp; F = NO</p>
","j","html-keyboard-response","56","2.1.0","124914","J=YES, F=NO","f7zd1qzyv5","1","83","85","80","","","","","","lextale","true","false","","","","","","","",""
"837","
  <p style=""font-size: 40px;"">wrinkle</p>
  <p style=""font-size: 16px;"">J = YES &nbsp;&nbsp;&nbsp; F = NO</p>
","j","html-keyboard-response","57","2.1.0","125752","J=YES, F=NO","f7zd1qzyv5","1","83","85","80","","","","","","lextale","true","false","","","","","","","",""
"1753","
  <p style=""font-size: 40px;"">slumb</p>
  <p style=""font-size: 16px;"">J = YES &nbsp;&nbsp;&nbsp; F = NO</p>
","f","html-keyboard-response","58","2.1.0","127506","J=YES, F=NO","f7zd1qzyv5","1","83","85","80","","","","","","lextale","false","false","","","","","","","",""
"725","
  <p style=""font-size: 40px;"">jungle</p>
  <p style=""font-size: 16px;"">J = YES &nbsp;&nbsp;&nbsp; F = NO</p>
","j","html-keyboard-response","59","2.1.0","128233","J=YES, F=NO","f7zd1qzyv5","1","83","85","80","","","","","","lextale","true","false","","","","","","","",""
"930","
  <p style=""font-size: 40px;"">frolick</p>
  <p style=""font-size: 16px;"">J = YES &nbsp;&nbsp;&nbsp; F = NO</p>
","j","html-keyboard-response","60","2.1.0","129164","J=YES, F=NO","f7zd1qzyv5","1","83","85","80","","","","","","lextale","false","false","","","","","","","",""
"1924","
      <h2>LexTALE Test Completed</h2>
      <p>Your LexTALE vocabulary score is: <strong>83%</strong></p>
      <p>Press any key to continue.</p>
    ","j","html-keyboard-response","61","2.1.0","131089","J=YES, F=NO","f7zd1qzyv5","1","83","85","80","","","","","","","","","","","","","","","",""
"8123","
    <div style=""max-width: 800px; margin: auto; text-align: left;"">
      <h2>Break Time</h2>
      <p>You have completed the first part of the study.</p>
      <p>You may take a short <strong>30-second break</strong> before continuing.</p>
      <p>When you’re ready, press any key to continue to the final task.</p>
    </div>
  "," ","html-keyboard-response","62","2.1.0","139214","J=YES, F=NO","f7zd1qzyv5","1","83","85","80","","","","","","","","","","","","","","","",""
"36054","
    <div style=""max-width: 800px; margin: auto; text-align: left;"">
      <h2>Part 2: Lexical Decision Task</h2>
      <p>You will now begin the second part of the study.</p>
      <p>Each trial will follow this sequence:</p>
      <ul>
        <li>A fixation cross (+) appears at the center of the screen.</li>
        <li>You will hear a short beep followed by a spoken word.</li>
        <li>A written word will appear briefly on the screen.</li>
      </ul>
      <p>Your task is to judge whether the <strong>written word</strong> is a real English word.</p>
      <p style=""margin-top: 1em;""><strong>Key responses:</strong></p>
      <ul>
        <li><strong>J</strong> = YES (real English word)</li>
        <li><strong>F</strong> = NO (not a real English word)</li>
      </ul>
      <p>Please respond as quickly and accurately as you can.</p>
      <p style=""margin-top: 2em;"">Press any key to continue.</p>
    </div>
  ","F3","html-keyboard-response","63","2.1.0","175271","J=YES, F=NO","f7zd1qzyv5","1","83","85","80","","","","","","","","","","","","","","","",""
"176","
    <div style=""max-width: 800px; margin: auto; text-align: left;"">
      <h2>Before You Begin</h2>
      <p>Make sure your sound is turned on.</p>
      <p>You will hear audio during each trial, but your decision should be based only on the <strong>written word</strong> you see on the screen.</p>
      <p><strong>Reminder:</strong></p>
      <ul>
        <li><strong>J</strong> = YES (real English word)</li>
        <li><strong>F</strong> = NO (not a real English word)</li>
      </ul>
      <p style=""margin-top: 2em;"">Press any key when you are ready to begin.</p>
    </div>
  ","F3","html-keyboard-response","64","2.1.0","175449","J=YES, F=NO","f7zd1qzyv5","1","83","85","80","","","","","","","","","","","","","","","",""
"25713","
    <div style=""max-width: 800px; margin: auto; text-align: left;"">
      <h2>Part 2: Practice Trials</h2>
      <p>You will now complete a few <strong>practice trials</strong> to get familiar with the task.</p>
      <p>These trials are <strong>not scored</strong> and are only to help you get used to the format.</p>
      <p style=""margin-top: 2em;"">Press any key to begin.</p>
    </div>
  "," ","html-keyboard-response","65","2.1.0","201163","J=YES, F=NO","f7zd1qzyv5","1","83","85","80","","","","","","","","","","","","","","","",""
"3526","<p>Starting practice block 1 of 2. Press any key to continue.</p>"," ","html-keyboard-response","66","2.1.0","204690","J=YES, F=NO","f7zd1qzyv5","1","83","85","80","","","","","","","","","","","","","","","",""
"null","<p style=""font-size: 50px;"">+</p>","null","html-keyboard-response","67","2.1.0","204999","J=YES, F=NO","f7zd1qzyv5","1","83","85","80","","","","","","","","","","","","","","","",""
"null","audio/beep-329314.mp3","null","audio-keyboard-response","68","2.1.0","206683","J=YES, F=NO","f7zd1qzyv5","1","83","85","80","","","","","","","","","","","","","","","",""
"null","audio/van1.wav","null","audio-keyboard-response","69","2.1.0","207263","J=YES, F=NO","f7zd1qzyv5","1","83","85","80","","","","","","","","","","","","","","","",""
"757","
          <p id=""word"" style=""font-size: 40px;"">push</p>
          <p style=""font-size: 16px;"">J = YES &nbsp;&nbsp;&nbsp; F = NO</p>
        ","j","html-keyboard-response","70","2.1.0","208021","J=YES, F=NO","f7zd1qzyv5","1","83","85","80","","","","","","","","","push","van1","filler","filler","j","true","",""
"null","<p style=""font-size: 50px;"">+</p>","null","html-keyboard-response","71","2.1.0","208331","J=YES, F=NO","f7zd1qzyv5","1","83","85","80","","","","","","","","","","","","","","","",""
"null","audio/beep-329314.mp3","null","audio-keyboard-response","72","2.1.0","209863","J=YES, F=NO","f7zd1qzyv5","1","83","85","80","","","","","","","","","","","","","","","",""
"null","audio/bishop1.wav","null","audio-keyboard-response","73","2.1.0","210562","J=YES, F=NO","f7zd1qzyv5","1","83","85","80","","","","","","","","","","","","","","","",""
"518","
          <p id=""word"" style=""font-size: 40px;"">play</p>
          <p style=""font-size: 16px;"">J = YES &nbsp;&nbsp;&nbsp; F = NO</p>
        ","j","html-keyboard-response","74","2.1.0","211083","J=YES, F=NO","f7zd1qzyv5","1","83","85","80","","","","","","","","","play","bishop1","filler","filler","j","true","",""
"null","<p style=""font-size: 50px;"">+</p>","null","html-keyboard-response","75","2.1.0","211398","J=YES, F=NO","f7zd1qzyv5","1","83","85","80","","","","","","","","","","","","","","","",""
"null","audio/beep-329314.mp3","null","audio-keyboard-response","76","2.1.0","212923","J=YES, F=NO","f7zd1qzyv5","1","83","85","80","","","","","","","","","","","","","","","",""
"null","audio/kettle1.wav","null","audio-keyboard-response","77","2.1.0","213443","J=YES, F=NO","f7zd1qzyv5","1","83","85","80","","","","","","","","","","","","","","","",""
"591","
          <p id=""word"" style=""font-size: 40px;"">wrap</p>
          <p style=""font-size: 16px;"">J = YES &nbsp;&nbsp;&nbsp; F = NO</p>
        ","j","html-keyboard-response","78","2.1.0","214035","J=YES, F=NO","f7zd1qzyv5","1","83","85","80","","","","","","","","","wrap","kettle1","filler","filler","j","true","",""
"null","<p style=""font-size: 50px;"">+</p>","null","html-keyboard-response","79","2.1.0","214345","J=YES, F=NO","f7zd1qzyv5","1","83","85","80","","","","","","","","","","","","","","","",""
"null","audio/beep-329314.mp3","null","audio-keyboard-response","80","2.1.0","215885","J=YES, F=NO","f7zd1qzyv5","1","83","85","80","","","","","","","","","","","","","","","",""
"null","audio/brain.wav","null","audio-keyboard-response","81","2.1.0","216384","J=YES, F=NO","f7zd1qzyv5","1","83","85","80","","","","","","","","","","","","","","","",""
"561","
          <p id=""word"" style=""font-size: 40px;"">throw</p>
          <p style=""font-size: 16px;"">J = YES &nbsp;&nbsp;&nbsp; F = NO</p>
        ","j","html-keyboard-response","82","2.1.0","216946","J=YES, F=NO","f7zd1qzyv5","1","83","85","80","","","","","","","","","throw","brain","filler","filler","j","true","",""
"null","<p style=""font-size: 50px;"">+</p>","null","html-keyboard-response","83","2.1.0","217249","J=YES, F=NO","f7zd1qzyv5","1","83","85","80","","","","","","","","","","","","","","","",""
"null","audio/beep-329314.mp3","null","audio-keyboard-response","84","2.1.0","218786","J=YES, F=NO","f7zd1qzyv5","1","83","85","80","","","","","","","","","","","","","","","",""
"null","audio/butter1.wav","null","audio-keyboard-response","85","2.1.0","219284","J=YES, F=NO","f7zd1qzyv5","1","83","85","80","","","","","","","","","","","","","","","",""
"528","
          <p id=""word"" style=""font-size: 40px;"">chew</p>
          <p style=""font-size: 16px;"">J = YES &nbsp;&nbsp;&nbsp; F = NO</p>
        ","j","html-keyboard-response","86","2.1.0","219814","J=YES, F=NO","f7zd1qzyv5","1","83","85","80","","","","","","","","","chew","butter1","filler","filler","j","true","",""
"null","<p style=""font-size: 50px;"">+</p>","null","html-keyboard-response","87","2.1.0","220133","J=YES, F=NO","f7zd1qzyv5","1","83","85","80","","","","","","","","","","","","","","","",""
"null","audio/beep-329314.mp3","null","audio-keyboard-response","88","2.1.0","221664","J=YES, F=NO","f7zd1qzyv5","1","83","85","80","","","","","","","","","","","","","","","",""
"null","audio/gift1.wav","null","audio-keyboard-response","89","2.1.0","222143","J=YES, F=NO","f7zd1qzyv5","1","83","85","80","","","","","","","","","","","","","","","",""
"707","
          <p id=""word"" style=""font-size: 40px;"">protsh</p>
          <p style=""font-size: 16px;"">J = YES &nbsp;&nbsp;&nbsp; F = NO</p>
        ","f","html-keyboard-response","90","2.1.0","222851","J=YES, F=NO","f7zd1qzyv5","1","83","85","80","","","","","","","","","protsh","gift1","pseudoword","pseudoword","f","true","",""
"null","<p style=""font-size: 50px;"">+</p>","null","html-keyboard-response","91","2.1.0","223164","J=YES, F=NO","f7zd1qzyv5","1","83","85","80","","","","","","","","","","","","","","","",""
"null","audio/beep-329314.mp3","null","audio-keyboard-response","92","2.1.0","224704","J=YES, F=NO","f7zd1qzyv5","1","83","85","80","","","","","","","","","","","","","","","",""
"null","audio/client1.wav","null","audio-keyboard-response","93","2.1.0","225464","J=YES, F=NO","f7zd1qzyv5","1","83","85","80","","","","","","","","","","","","","","","",""
"798","
          <p id=""word"" style=""font-size: 40px;"">droothe</p>
          <p style=""font-size: 16px;"">J = YES &nbsp;&nbsp;&nbsp; F = NO</p>
        ","f","html-keyboard-response","94","2.1.0","226264","J=YES, F=NO","f7zd1qzyv5","1","83","85","80","","","","","","","","","droothe","client1","pseudoword","pseudoword","f","true","",""
"null","<p style=""font-size: 50px;"">+</p>","null","html-keyboard-response","95","2.1.0","226579","J=YES, F=NO","f7zd1qzyv5","1","83","85","80","","","","","","","","","","","","","","","",""
"null","audio/beep-329314.mp3","null","audio-keyboard-response","96","2.1.0","228104","J=YES, F=NO","f7zd1qzyv5","1","83","85","80","","","","","","","","","","","","","","","",""
"null","audio/alarm1.wav","null","audio-keyboard-response","97","2.1.0","228704","J=YES, F=NO","f7zd1qzyv5","1","83","85","80","","","","","","","","","","","","","","","",""
"1248","
          <p id=""word"" style=""font-size: 40px;"">swetp</p>
          <p style=""font-size: 16px;"">J = YES &nbsp;&nbsp;&nbsp; F = NO</p>
        ","f","html-keyboard-response","98","2.1.0","229954","J=YES, F=NO","f7zd1qzyv5","1","83","85","80","","","","","","","","","swetp","alarm1","pseudoword","pseudoword","f","true","",""
"null","<p style=""font-size: 50px;"">+</p>","null","html-keyboard-response","99","2.1.0","230264","J=YES, F=NO","f7zd1qzyv5","1","83","85","80","","","","","","","","","","","","","","","",""
"null","audio/beep-329314.mp3","null","audio-keyboard-response","100","2.1.0","231804","J=YES, F=NO","f7zd1qzyv5","1","83","85","80","","","","","","","","","","","","","","","",""
"null","audio/arm.wav","null","audio-keyboard-response","101","2.1.0","232364","J=YES, F=NO","f7zd1qzyv5","1","83","85","80","","","","","","","","","","","","","","","",""
"503","
          <p id=""word"" style=""font-size: 40px;"">fold</p>
          <p style=""font-size: 16px;"">J = YES &nbsp;&nbsp;&nbsp; F = NO</p>
        ","j","html-keyboard-response","102","2.1.0","232869","J=YES, F=NO","f7zd1qzyv5","1","83","85","80","","","","","","","","","fold","arm","filler","filler","j","true","",""
"null","<p style=""font-size: 50px;"">+</p>","null","html-keyboard-response","103","2.1.0","233179","J=YES, F=NO","f7zd1qzyv5","1","83","85","80","","","","","","","","","","","","","","","",""
"null","audio/beep-329314.mp3","null","audio-keyboard-response","104","2.1.0","234704","J=YES, F=NO","f7zd1qzyv5","1","83","85","80","","","","","","","","","","","","","","","",""
"null","audio/key1.wav","null","audio-keyboard-response","105","2.1.0","235083","J=YES, F=NO","f7zd1qzyv5","1","83","85","80","","","","","","","","","","","","","","","",""
"666","
          <p id=""word"" style=""font-size: 40px;"">sminsh</p>
          <p style=""font-size: 16px;"">J = YES &nbsp;&nbsp;&nbsp; F = NO</p>
        ","f","html-keyboard-response","106","2.1.0","235750","J=YES, F=NO","f7zd1qzyv5","1","83","85","80","","","","","","","","","sminsh","key1","pseudoword","pseudoword","f","true","",""
"null","<p style=""font-size: 50px;"">+</p>","null","html-keyboard-response","107","2.1.0","236064","J=YES, F=NO","f7zd1qzyv5","1","83","85","80","","","","","","","","","","","","","","","",""
"null","audio/beep-329314.mp3","null","audio-keyboard-response","108","2.1.0","237603","J=YES, F=NO","f7zd1qzyv5","1","83","85","80","","","","","","","","","","","","","","","",""
"null","audio/empire.wav","null","audio-keyboard-response","109","2.1.0","238244","J=YES, F=NO","f7zd1qzyv5","1","83","85","80","","","","","","","","","","","","","","","",""
"686","
          <p id=""word"" style=""font-size: 40px;"">slorby</p>
          <p style=""font-size: 16px;"">J = YES &nbsp;&nbsp;&nbsp; F = NO</p>
        ","f","html-keyboard-response","110","2.1.0","238931","J=YES, F=NO","f7zd1qzyv5","1","83","85","80","","","","","","","","","slorby","empire","pseudoword","pseudoword","f","true","",""
"null","<p style=""font-size: 50px;"">+</p>","null","html-keyboard-response","111","2.1.0","239245","J=YES, F=NO","f7zd1qzyv5","1","83","85","80","","","","","","","","","","","","","","","",""
"null","audio/beep-329314.mp3","null","audio-keyboard-response","112","2.1.0","240784","J=YES, F=NO","f7zd1qzyv5","1","83","85","80","","","","","","","","","","","","","","","",""
"null","audio/noise1.wav","null","audio-keyboard-response","113","2.1.0","241463","J=YES, F=NO","f7zd1qzyv5","1","83","85","80","","","","","","","","","","","","","","","",""
"754","
          <p id=""word"" style=""font-size: 40px;"">slintered</p>
          <p style=""font-size: 16px;"">J = YES &nbsp;&nbsp;&nbsp; F = NO</p>
        ","f","html-keyboard-response","114","2.1.0","242219","J=YES, F=NO","f7zd1qzyv5","1","83","85","80","","","","","","","","","slintered","noise1","pseudoword","pseudoword","f","true","",""
"4627","<p>Starting practice block 2 of 2. Press any key to continue.</p>"," ","html-keyboard-response","115","2.1.0","246847","J=YES, F=NO","f7zd1qzyv5","1","83","85","80","","","","","","","","","","","","","","","",""
"null","<p style=""font-size: 50px;"">+</p>","null","html-keyboard-response","116","2.1.0","247162","J=YES, F=NO","f7zd1qzyv5","1","83","85","80","","","","","","","","","","","","","","","",""
"null","audio/beep-329314.mp3","null","audio-keyboard-response","117","2.1.0","248705","J=YES, F=NO","f7zd1qzyv5","1","83","85","80","","","","","","","","","","","","","","","",""
"null","audio/camera1.wav","null","audio-keyboard-response","118","2.1.0","249264","J=YES, F=NO","f7zd1qzyv5","1","83","85","80","","","","","","","","","","","","","","","",""
"738","
          <p id=""word"" style=""font-size: 40px;"">stir</p>
          <p style=""font-size: 16px;"">J = YES &nbsp;&nbsp;&nbsp; F = NO</p>
        ","j","html-keyboard-response","119","2.1.0","250003","J=YES, F=NO","f7zd1qzyv5","1","83","85","80","","","","","","","","","stir","camera1","filler","filler","j","true","",""
"null","<p style=""font-size: 50px;"">+</p>","null","html-keyboard-response","120","2.1.0","250314","J=YES, F=NO","f7zd1qzyv5","1","83","85","80","","","","","","","","","","","","","","","",""
"null","audio/beep-329314.mp3","null","audio-keyboard-response","121","2.1.0","251843","J=YES, F=NO","f7zd1qzyv5","1","83","85","80","","","","","","","","","","","","","","","",""
"null","audio/birth1.wav","null","audio-keyboard-response","122","2.1.0","252463","J=YES, F=NO","f7zd1qzyv5","1","83","85","80","","","","","","","","","","","","","","","",""
"541","
          <p id=""word"" style=""font-size: 40px;"">peel</p>
          <p style=""font-size: 16px;"">J = YES &nbsp;&nbsp;&nbsp; F = NO</p>
        ","j","html-keyboard-response","123","2.1.0","253006","J=YES, F=NO","f7zd1qzyv5","1","83","85","80","","","","","","","","","peel","birth1","filler","filler","j","true","",""
"null","<p style=""font-size: 50px;"">+</p>","null","html-keyboard-response","124","2.1.0","253313","J=YES, F=NO","f7zd1qzyv5","1","83","85","80","","","","","","","","","","","","","","","",""
"null","audio/beep-329314.mp3","null","audio-keyboard-response","125","2.1.0","254842","J=YES, F=NO","f7zd1qzyv5","1","83","85","80","","","","","","","","","","","","","","","",""
"null","audio/corpse1.wav","null","audio-keyboard-response","126","2.1.0","255462","J=YES, F=NO","f7zd1qzyv5","1","83","85","80","","","","","","","","","","","","","","","",""
"561","
          <p id=""word"" style=""font-size: 40px;"">glonet</p>
          <p style=""font-size: 16px;"">J = YES &nbsp;&nbsp;&nbsp; F = NO</p>
        ","f","html-keyboard-response","127","2.1.0","256025","J=YES, F=NO","f7zd1qzyv5","1","83","85","80","","","","","","","","","glonet","corpse1","pseudoword","pseudoword","f","true","",""
"null","<p style=""font-size: 50px;"">+</p>","null","html-keyboard-response","128","2.1.0","256333","J=YES, F=NO","f7zd1qzyv5","1","83","85","80","","","","","","","","","","","","","","","",""
"null","audio/beep-329314.mp3","null","audio-keyboard-response","129","2.1.0","257863","J=YES, F=NO","f7zd1qzyv5","1","83","85","80","","","","","","","","","","","","","","","",""
"null","audio/bridge.wav","null","audio-keyboard-response","130","2.1.0","258424","J=YES, F=NO","f7zd1qzyv5","1","83","85","80","","","","","","","","","","","","","","","",""
"576","
          <p id=""word"" style=""font-size: 40px;"">crack</p>
          <p style=""font-size: 16px;"">J = YES &nbsp;&nbsp;&nbsp; F = NO</p>
        ","j","html-keyboard-response","131","2.1.0","259002","J=YES, F=NO","f7zd1qzyv5","1","83","85","80","","","","","","","","","crack","bridge","filler","filler","j","true","",""
"null","<p style=""font-size: 50px;"">+</p>","null","html-keyboard-response","132","2.1.0","259314","J=YES, F=NO","f7zd1qzyv5","1","83","85","80","","","","","","","","","","","","","","","",""
"null","audio/beep-329314.mp3","null","audio-keyboard-response","133","2.1.0","260844","J=YES, F=NO","f7zd1qzyv5","1","83","85","80","","","","","","","","","","","","","","","",""
"null","audio/hawk1.wav","null","audio-keyboard-response","134","2.1.0","261504","J=YES, F=NO","f7zd1qzyv5","1","83","85","80","","","","","","","","","","","","","","","",""
"680","
          <p id=""word"" style=""font-size: 40px;"">ostach</p>
          <p style=""font-size: 16px;"">J = YES &nbsp;&nbsp;&nbsp; F = NO</p>
        ","f","html-keyboard-response","135","2.1.0","262185","J=YES, F=NO","f7zd1qzyv5","1","83","85","80","","","","","","","","","ostach","hawk1","pseudoword","pseudoword","f","true","",""
"null","<p style=""font-size: 50px;"">+</p>","null","html-keyboard-response","136","2.1.0","262496","J=YES, F=NO","f7zd1qzyv5","1","83","85","80","","","","","","","","","","","","","","","",""
"null","audio/beep-329314.mp3","null","audio-keyboard-response","137","2.1.0","264024","J=YES, F=NO","f7zd1qzyv5","1","83","85","80","","","","","","","","","","","","","","","",""
"null","audio/vehicle1.wav","null","audio-keyboard-response","138","2.1.0","264743","J=YES, F=NO","f7zd1qzyv5","1","83","85","80","","","","","","","","","","","","","","","",""
"643","
          <p id=""word"" style=""font-size: 40px;"">dropt</p>
          <p style=""font-size: 16px;"">J = YES &nbsp;&nbsp;&nbsp; F = NO</p>
        ","f","html-keyboard-response","139","2.1.0","265387","J=YES, F=NO","f7zd1qzyv5","1","83","85","80","","","","","","","","","dropt","vehicle1","pseudoword","pseudoword","f","true","",""
"null","<p style=""font-size: 50px;"">+</p>","null","html-keyboard-response","140","2.1.0","265698","J=YES, F=NO","f7zd1qzyv5","1","83","85","80","","","","","","","","","","","","","","","",""
"null","audio/beep-329314.mp3","null","audio-keyboard-response","141","2.1.0","267224","J=YES, F=NO","f7zd1qzyv5","1","83","85","80","","","","","","","","","","","","","","","",""
"null","audio/floor.wav","null","audio-keyboard-response","142","2.1.0","267784","J=YES, F=NO","f7zd1qzyv5","1","83","85","80","","","","","","","","","","","","","","","",""
"594","
          <p id=""word"" style=""font-size: 40px;"">mop</p>
          <p style=""font-size: 16px;"">J = YES &nbsp;&nbsp;&nbsp; F = NO</p>
        ","j","html-keyboard-response","143","2.1.0","268380","J=YES, F=NO","f7zd1qzyv5","1","83","85","80","","","","","","","","","mop","floor","filler","filler","j","true","",""
"null","<p style=""font-size: 50px;"">+</p>","null","html-keyboard-response","144","2.1.0","268694","J=YES, F=NO","f7zd1qzyv5","1","83","85","80","","","","","","","","","","","","","","","",""
"null","audio/beep-329314.mp3","null","audio-keyboard-response","145","2.1.0","270224","J=YES, F=NO","f7zd1qzyv5","1","83","85","80","","","","","","","","","","","","","","","",""
"null","audio/cash1.wav","null","audio-keyboard-response","146","2.1.0","270864","J=YES, F=NO","f7zd1qzyv5","1","83","85","80","","","","","","","","","","","","","","","",""
"705","
          <p id=""word"" style=""font-size: 40px;"">splear</p>
          <p style=""font-size: 16px;"">J = YES &nbsp;&nbsp;&nbsp; F = NO</p>
        ","f","html-keyboard-response","147","2.1.0","271570","J=YES, F=NO","f7zd1qzyv5","1","83","85","80","","","","","","","","","splear","cash1","pseudoword","pseudoword","f","true","",""
"null","<p style=""font-size: 50px;"">+</p>","null","html-keyboard-response","148","2.1.0","271881","J=YES, F=NO","f7zd1qzyv5","1","83","85","80","","","","","","","","","","","","","","","",""
"null","audio/beep-329314.mp3","null","audio-keyboard-response","149","2.1.0","273424","J=YES, F=NO","f7zd1qzyv5","1","83","85","80","","","","","","","","","","","","","","","",""
"null","audio/tomato.wav","null","audio-keyboard-response","150","2.1.0","274103","J=YES, F=NO","f7zd1qzyv5","1","83","85","80","","","","","","","","","","","","","","","",""
"759","
          <p id=""word"" style=""font-size: 40px;"">gladies</p>
          <p style=""font-size: 16px;"">J = YES &nbsp;&nbsp;&nbsp; F = NO</p>
        ","f","html-keyboard-response","151","2.1.0","274864","J=YES, F=NO","f7zd1qzyv5","1","83","85","80","","","","","","","","","gladies","tomato","pseudoword","pseudoword","f","true","",""
"null","<p style=""font-size: 50px;"">+</p>","null","html-keyboard-response","152","2.1.0","275165","J=YES, F=NO","f7zd1qzyv5","1","83","85","80","","","","","","","","","","","","","","","",""
"null","audio/beep-329314.mp3","null","audio-keyboard-response","153","2.1.0","276704","J=YES, F=NO","f7zd1qzyv5","1","83","85","80","","","","","","","","","","","","","","","",""
"null","audio/breath.wav","null","audio-keyboard-response","154","2.1.0","277285","J=YES, F=NO","f7zd1qzyv5","1","83","85","80","","","","","","","","","","","","","","","",""
"577","
          <p id=""word"" style=""font-size: 40px;"">twets</p>
          <p style=""font-size: 16px;"">J = YES &nbsp;&nbsp;&nbsp; F = NO</p>
        ","f","html-keyboard-response","155","2.1.0","277863","J=YES, F=NO","f7zd1qzyv5","1","83","85","80","","","","","","","","","twets","breath","pseudoword","pseudoword","f","true","",""
"null","<p style=""font-size: 50px;"">+</p>","null","html-keyboard-response","156","2.1.0","278165","J=YES, F=NO","f7zd1qzyv5","1","83","85","80","","","","","","","","","","","","","","","",""
"null","audio/beep-329314.mp3","null","audio-keyboard-response","157","2.1.0","279704","J=YES, F=NO","f7zd1qzyv5","1","83","85","80","","","","","","","","","","","","","","","",""
"null","audio/age1.wav","null","audio-keyboard-response","158","2.1.0","280264","J=YES, F=NO","f7zd1qzyv5","1","83","85","80","","","","","","","","","","","","","","","",""
"606","
          <p id=""word"" style=""font-size: 40px;"">bake</p>
          <p style=""font-size: 16px;"">J = YES &nbsp;&nbsp;&nbsp; F = NO</p>
        ","j","html-keyboard-response","159","2.1.0","280872","J=YES, F=NO","f7zd1qzyv5","1","83","85","80","","","","","","","","","bake","age1","filler","filler","j","true","",""
"null","<p style=""font-size: 50px;"">+</p>","null","html-keyboard-response","160","2.1.0","281183","J=YES, F=NO","f7zd1qzyv5","1","83","85","80","","","","","","","","","","","","","","","",""
"null","audio/beep-329314.mp3","null","audio-keyboard-response","161","2.1.0","282723","J=YES, F=NO","f7zd1qzyv5","1","83","85","80","","","","","","","","","","","","","","","",""
"null","audio/menu.wav","null","audio-keyboard-response","162","2.1.0","283364","J=YES, F=NO","f7zd1qzyv5","1","83","85","80","","","","","","","","","","","","","","","",""
"578","
          <p id=""word"" style=""font-size: 40px;"">slice</p>
          <p style=""font-size: 16px;"">J = YES &nbsp;&nbsp;&nbsp; F = NO</p>
        ","j","html-keyboard-response","163","2.1.0","283944","J=YES, F=NO","f7zd1qzyv5","1","83","85","80","","","","","","","","","slice","menu","filler","filler","j","true","",""
"15945","
    <div style=""max-width: 800px; margin: auto; text-align: left;"">
      <h2>Part 2: Main Trials</h2>
      <p>Great job on the practice trials!</p>
      <p>You will now begin the <strong>main set of trials</strong>.</p>
      <p>Remember your key assignments:</p>
      <ul>
        <li><strong>J</strong> = YES (real English word)</li>
        <li><strong>F</strong> = NO (not a real English word)</li>
      </ul>
      <p>Try to respond as <strong>quickly and accurately</strong> as possible.</p>
      <p style=""margin-top: 2em;"">Press any key to begin the main trials.</p>
    </div>
  ","j","html-keyboard-response","164","2.1.0","299890","J=YES, F=NO","f7zd1qzyv5","1","83","85","80","","","","","","","","","","","","","","","",""
"2839","<p>Starting main block 1 of 8. Press any key to continue.</p>","j","html-keyboard-response","165","2.1.0","302731","J=YES, F=NO","f7zd1qzyv5","1","83","85","80","","","","","","","","","","","","","","","",""
"null","<p style=""font-size: 50px;"">+</p>","null","html-keyboard-response","166","2.1.0","303047","J=YES, F=NO","f7zd1qzyv5","1","83","85","80","","","","","","","","","","","","","","","",""
"null","audio/beep-329314.mp3","null","audio-keyboard-response","167","2.1.0","304825","J=YES, F=NO","f7zd1qzyv5","1","83","85","80","","","","","","","","","","","","","","","",""
"null","audio/foot1.wav","null","audio-keyboard-response","168","2.1.0","305456","J=YES, F=NO","f7zd1qzyv5","1","83","85","80","","","","","","","","","","","","","","","",""
"515","
          <p id=""word"" style=""font-size: 40px;"">close</p>
          <p style=""font-size: 16px;"">J = YES &nbsp;&nbsp;&nbsp; F = NO</p>
        ","j","html-keyboard-response","169","2.1.0","305972","J=YES, F=NO","f7zd1qzyv5","1","83","85","80","","","","","","","","","close","foot1","unrelated","experimental","j","true","",""
"null","<p style=""font-size: 50px;"">+</p>","null","html-keyboard-response","170","2.1.0","306282","J=YES, F=NO","f7zd1qzyv5","1","83","85","80","","","","","","","","","","","","","","","",""
"null","audio/beep-329314.mp3","null","audio-keyboard-response","171","2.1.0","307825","J=YES, F=NO","f7zd1qzyv5","1","83","85","80","","","","","","","","","","","","","","","",""
"null","audio/emotion.wav","null","audio-keyboard-response","172","2.1.0","308476","J=YES, F=NO","f7zd1qzyv5","1","83","85","80","","","","","","","","","","","","","","","",""
"522","
          <p id=""word"" style=""font-size: 40px;"">devering</p>
          <p style=""font-size: 16px;"">J = YES &nbsp;&nbsp;&nbsp; F = NO</p>
        ","j","html-keyboard-response","173","2.1.0","308999","J=YES, F=NO","f7zd1qzyv5","1","83","85","80","","","","","","","","","devering","emotion","pseudoword","pseudoword","f","false","",""
"null","<p style=""font-size: 50px;"">+</p>","null","html-keyboard-response","174","2.1.0","309314","J=YES, F=NO","f7zd1qzyv5","1","83","85","80","","","","","","","","","","","","","","","",""
"null","audio/beep-329314.mp3","null","audio-keyboard-response","175","2.1.0","310846","J=YES, F=NO","f7zd1qzyv5","1","83","85","80","","","","","","","","","","","","","","","",""
"null","audio/ground.wav","null","audio-keyboard-response","176","2.1.0","311616","J=YES, F=NO","f7zd1qzyv5","1","83","85","80","","","","","","","","","","","","","","","",""
"656","
          <p id=""word"" style=""font-size: 40px;"">touch</p>
          <p style=""font-size: 16px;"">J = YES &nbsp;&nbsp;&nbsp; F = NO</p>
        ","j","html-keyboard-response","177","2.1.0","312274","J=YES, F=NO","f7zd1qzyv5","1","83","85","80","","","","","","","","","touch","ground","literal","experimental","j","true","",""
"null","<p style=""font-size: 50px;"">+</p>","null","html-keyboard-response","178","2.1.0","312581","J=YES, F=NO","f7zd1qzyv5","1","83","85","80","","","","","","","","","","","","","","","",""
"null","audio/beep-329314.mp3","null","audio-keyboard-response","179","2.1.0","314104","J=YES, F=NO","f7zd1qzyv5","1","83","85","80","","","","","","","","","","","","","","","",""
"null","audio/dollar.wav","null","audio-keyboard-response","180","2.1.0","314495","J=YES, F=NO","f7zd1qzyv5","1","83","85","80","","","","","","","","","","","","","","","",""
"513","
          <p id=""word"" style=""font-size: 40px;"">save</p>
          <p style=""font-size: 16px;"">J = YES &nbsp;&nbsp;&nbsp; F = NO</p>
        ","j","html-keyboard-response","181","2.1.0","315010","J=YES, F=NO","f7zd1qzyv5","1","83","85","80","","","","","","","","","save","dollar","literal","experimental","j","true","",""
"null","<p style=""font-size: 50px;"">+</p>","null","html-keyboard-response","182","2.1.0","315326","J=YES, F=NO","f7zd1qzyv5","1","83","85","80","","","","","","","","","","","","","","","",""
"null","audio/beep-329314.mp3","null","audio-keyboard-response","183","2.1.0","316864","J=YES, F=NO","f7zd1qzyv5","1","83","85","80","","","","","","","","","","","","","","","",""
"null","audio/handle.wav","null","audio-keyboard-response","184","2.1.0","317494","J=YES, F=NO","f7zd1qzyv5","1","83","85","80","","","","","","","","","","","","","","","",""
"528","
          <p id=""word"" style=""font-size: 40px;"">moutes</p>
          <p style=""font-size: 16px;"">J = YES &nbsp;&nbsp;&nbsp; F = NO</p>
        ","f","html-keyboard-response","185","2.1.0","318024","J=YES, F=NO","f7zd1qzyv5","1","83","85","80","","","","","","","","","moutes","handle","pseudoword","pseudoword","f","true","",""
"null","<p style=""font-size: 50px;"">+</p>","null","html-keyboard-response","186","2.1.0","318327","J=YES, F=NO","f7zd1qzyv5","1","83","85","80","","","","","","","","","","","","","","","",""
"null","audio/beep-329314.mp3","null","audio-keyboard-response","187","2.1.0","319864","J=YES, F=NO","f7zd1qzyv5","1","83","85","80","","","","","","","","","","","","","","","",""
"null","audio/survey1.wav","null","audio-keyboard-response","188","2.1.0","320594","J=YES, F=NO","f7zd1qzyv5","1","83","85","80","","","","","","","","","","","","","","","",""
"579","
          <p id=""word"" style=""font-size: 40px;"">imploth</p>
          <p style=""font-size: 16px;"">J = YES &nbsp;&nbsp;&nbsp; F = NO</p>
        ","f","html-keyboard-response","189","2.1.0","321174","J=YES, F=NO","f7zd1qzyv5","1","83","85","80","","","","","","","","","imploth","survey1","pseudoword","pseudoword","f","true","",""
"null","<p style=""font-size: 50px;"">+</p>","null","html-keyboard-response","190","2.1.0","321479","J=YES, F=NO","f7zd1qzyv5","1","83","85","80","","","","","","","","","","","","","","","",""
"null","audio/beep-329314.mp3","null","audio-keyboard-response","191","2.1.0","323005","J=YES, F=NO","f7zd1qzyv5","1","83","85","80","","","","","","","","","","","","","","","",""
"null","audio/foot1.wav","null","audio-keyboard-response","192","2.1.0","323536","J=YES, F=NO","f7zd1qzyv5","1","83","85","80","","","","","","","","","","","","","","","",""
"677","
          <p id=""word"" style=""font-size: 40px;"">thrutt</p>
          <p style=""font-size: 16px;"">J = YES &nbsp;&nbsp;&nbsp; F = NO</p>
        ","f","html-keyboard-response","193","2.1.0","324215","J=YES, F=NO","f7zd1qzyv5","1","83","85","80","","","","","","","","","thrutt","foot1","pseudoword","pseudoword","f","true","",""
"null","<p style=""font-size: 50px;"">+</p>","null","html-keyboard-response","194","2.1.0","324529","J=YES, F=NO","f7zd1qzyv5","1","83","85","80","","","","","","","","","","","","","","","",""
"null","audio/beep-329314.mp3","null","audio-keyboard-response","195","2.1.0","326065","J=YES, F=NO","f7zd1qzyv5","1","83","85","80","","","","","","","","","","","","","","","",""
"null","audio/purpose.wav","null","audio-keyboard-response","196","2.1.0","326735","J=YES, F=NO","f7zd1qzyv5","1","83","85","80","","","","","","","","","","","","","","","",""
"629","
          <p id=""word"" style=""font-size: 40px;"">whigm</p>
          <p style=""font-size: 16px;"">J = YES &nbsp;&nbsp;&nbsp; F = NO</p>
        ","f","html-keyboard-response","197","2.1.0","327366","J=YES, F=NO","f7zd1qzyv5","1","83","85","80","","","","","","","","","whigm","purpose","pseudoword","pseudoword","f","true","",""
"null","<p style=""font-size: 50px;"">+</p>","null","html-keyboard-response","198","2.1.0","327679","J=YES, F=NO","f7zd1qzyv5","1","83","85","80","","","","","","","","","","","","","","","",""
"null","audio/beep-329314.mp3","null","audio-keyboard-response","199","2.1.0","329204","J=YES, F=NO","f7zd1qzyv5","1","83","85","80","","","","","","","","","","","","","","","",""
"null","audio/lion1.wav","null","audio-keyboard-response","200","2.1.0","329754","J=YES, F=NO","f7zd1qzyv5","1","83","85","80","","","","","","","","","","","","","","","",""
"503","
          <p id=""word"" style=""font-size: 40px;"">wrestle</p>
          <p style=""font-size: 16px;"">J = YES &nbsp;&nbsp;&nbsp; F = NO</p>
        ","j","html-keyboard-response","201","2.1.0","330258","J=YES, F=NO","f7zd1qzyv5","1","83","85","80","","","","","","","","","wrestle","lion1","literal","experimental","j","true","",""
"null","<p style=""font-size: 50px;"">+</p>","null","html-keyboard-response","202","2.1.0","330574","J=YES, F=NO","f7zd1qzyv5","1","83","85","80","","","","","","","","","","","","","","","",""
"null","audio/beep-329314.mp3","null","audio-keyboard-response","203","2.1.0","332104","J=YES, F=NO","f7zd1qzyv5","1","83","85","80","","","","","","","","","","","","","","","",""
"null","audio/card1.wav","null","audio-keyboard-response","204","2.1.0","332655","J=YES, F=NO","f7zd1qzyv5","1","83","85","80","","","","","","","","","","","","","","","",""
"789","
          <p id=""word"" style=""font-size: 40px;"">land</p>
          <p style=""font-size: 16px;"">J = YES &nbsp;&nbsp;&nbsp; F = NO</p>
        ","j","html-keyboard-response","205","2.1.0","333446","J=YES, F=NO","f7zd1qzyv5","1","83","85","80","","","","","","","","","land","card1","unrelated","experimental","j","true","",""
"null","<p style=""font-size: 50px;"">+</p>","null","html-keyboard-response","206","2.1.0","333765","J=YES, F=NO","f7zd1qzyv5","1","83","85","80","","","","","","","","","","","","","","","",""
"null","audio/beep-329314.mp3","null","audio-keyboard-response","207","2.1.0","335305","J=YES, F=NO","f7zd1qzyv5","1","83","85","80","","","","","","","","","","","","","","","",""
"null","audio/survey1.wav","null","audio-keyboard-response","208","2.1.0","336016","J=YES, F=NO","f7zd1qzyv5","1","83","85","80","","","","","","","","","","","","","","","",""
"577","
          <p id=""word"" style=""font-size: 40px;"">release</p>
          <p style=""font-size: 16px;"">J = YES &nbsp;&nbsp;&nbsp; F = NO</p>
        ","j","html-keyboard-response","209","2.1.0","336595","J=YES, F=NO","f7zd1qzyv5","1","83","85","80","","","","","","","","","release","survey1","metaphor","experimental","j","true","",""
"null","<p style=""font-size: 50px;"">+</p>","null","html-keyboard-response","210","2.1.0","336896","J=YES, F=NO","f7zd1qzyv5","1","83","85","80","","","","","","","","","","","","","","","",""
"null","audio/beep-329314.mp3","null","audio-keyboard-response","211","2.1.0","338425","J=YES, F=NO","f7zd1qzyv5","1","83","85","80","","","","","","","","","","","","","","","",""
"null","audio/strength.wav","null","audio-keyboard-response","212","2.1.0","339156","J=YES, F=NO","f7zd1qzyv5","1","83","85","80","","","","","","","","","","","","","","","",""
"569","
          <p id=""word"" style=""font-size: 40px;"">possess</p>
          <p style=""font-size: 16px;"">J = YES &nbsp;&nbsp;&nbsp; F = NO</p>
        ","j","html-keyboard-response","213","2.1.0","339726","J=YES, F=NO","f7zd1qzyv5","1","83","85","80","","","","","","","","","possess","strength","metaphor","experimental","j","true","",""
"null","<p style=""font-size: 50px;"">+</p>","null","html-keyboard-response","214","2.1.0","340031","J=YES, F=NO","f7zd1qzyv5","1","83","85","80","","","","","","","","","","","","","","","",""
"null","audio/beep-329314.mp3","null","audio-keyboard-response","215","2.1.0","341566","J=YES, F=NO","f7zd1qzyv5","1","83","85","80","","","","","","","","","","","","","","","",""
"null","audio/ankle1.wav","null","audio-keyboard-response","216","2.1.0","342096","J=YES, F=NO","f7zd1qzyv5","1","83","85","80","","","","","","","","","","","","","","","",""
"508","
          <p id=""word"" style=""font-size: 40px;"">kick</p>
          <p style=""font-size: 16px;"">J = YES &nbsp;&nbsp;&nbsp; F = NO</p>
        ","j","html-keyboard-response","217","2.1.0","342605","J=YES, F=NO","f7zd1qzyv5","1","83","85","80","","","","","","","","","kick","ankle1","filler","filler","j","true","",""
"null","<p style=""font-size: 50px;"">+</p>","null","html-keyboard-response","218","2.1.0","342914","J=YES, F=NO","f7zd1qzyv5","1","83","85","80","","","","","","","","","","","","","","","",""
"null","audio/beep-329314.mp3","null","audio-keyboard-response","219","2.1.0","344445","J=YES, F=NO","f7zd1qzyv5","1","83","85","80","","","","","","","","","","","","","","","",""
"null","audio/foe1.wav","null","audio-keyboard-response","220","2.1.0","344975","J=YES, F=NO","f7zd1qzyv5","1","83","85","80","","","","","","","","","","","","","","","",""
"656","
          <p id=""word"" style=""font-size: 40px;"">conquer</p>
          <p style=""font-size: 16px;"">J = YES &nbsp;&nbsp;&nbsp; F = NO</p>
        ","j","html-keyboard-response","221","2.1.0","345634","J=YES, F=NO","f7zd1qzyv5","1","83","85","80","","","","","","","","","conquer","foe1","literal","experimental","j","true","",""
"null","<p style=""font-size: 50px;"">+</p>","null","html-keyboard-response","222","2.1.0","345945","J=YES, F=NO","f7zd1qzyv5","1","83","85","80","","","","","","","","","","","","","","","",""
"null","audio/beep-329314.mp3","null","audio-keyboard-response","223","2.1.0","347486","J=YES, F=NO","f7zd1qzyv5","1","83","85","80","","","","","","","","","","","","","","","",""
"null","audio/pine.wav","null","audio-keyboard-response","224","2.1.0","347995","J=YES, F=NO","f7zd1qzyv5","1","83","85","80","","","","","","","","","","","","","","","",""
"613","
          <p id=""word"" style=""font-size: 40px;"">weave</p>
          <p style=""font-size: 16px;"">J = YES &nbsp;&nbsp;&nbsp; F = NO</p>
        ","j","html-keyboard-response","225","2.1.0","348608","J=YES, F=NO","f7zd1qzyv5","1","83","85","80","","","","","","","","","weave","pine","unrelated","experimental","j","true","",""
"null","<p style=""font-size: 50px;"">+</p>","null","html-keyboard-response","226","2.1.0","348912","J=YES, F=NO","f7zd1qzyv5","1","83","85","80","","","","","","","","","","","","","","","",""
"null","audio/beep-329314.mp3","null","audio-keyboard-response","227","2.1.0","350446","J=YES, F=NO","f7zd1qzyv5","1","83","85","80","","","","","","","","","","","","","","","",""
"null","audio/flaw.wav","null","audio-keyboard-response","228","2.1.0","351096","J=YES, F=NO","f7zd1qzyv5","1","83","85","80","","","","","","","","","","","","","","","",""
"636","
          <p id=""word"" style=""font-size: 40px;"">thwool</p>
          <p style=""font-size: 16px;"">J = YES &nbsp;&nbsp;&nbsp; F = NO</p>
        ","f","html-keyboard-response","229","2.1.0","351734","J=YES, F=NO","f7zd1qzyv5","1","83","85","80","","","","","","","","","thwool","flaw","pseudoword","pseudoword","f","true","",""
"2924","<p>Excellent! You have finished block 1 of 8.</p>
                     <p>Feel free to take a 30 second break.</p>
                     <p>Press any key when you're ready to continue.</p>","j","html-keyboard-response","230","2.1.0","354659","J=YES, F=NO","f7zd1qzyv5","1","83","85","80","","","","","","","","","","","","","","","",""
"1264","<p>Starting main block 2 of 8. Press any key to continue.</p>","j","html-keyboard-response","231","2.1.0","355923","J=YES, F=NO","f7zd1qzyv5","1","83","85","80","","","","","","","","","","","","","","","",""
"null","<p style=""font-size: 50px;"">+</p>","null","html-keyboard-response","232","2.1.0","356229","J=YES, F=NO","f7zd1qzyv5","1","83","85","80","","","","","","","","","","","","","","","",""
"null","audio/beep-329314.mp3","null","audio-keyboard-response","233","2.1.0","357765","J=YES, F=NO","f7zd1qzyv5","1","83","85","80","","","","","","","","","","","","","","","",""
"null","audio/uncle1.wav","null","audio-keyboard-response","234","2.1.0","358236","J=YES, F=NO","f7zd1qzyv5","1","83","85","80","","","","","","","","","","","","","","","",""
"634","
          <p id=""word"" style=""font-size: 40px;"">dramble</p>
          <p style=""font-size: 16px;"">J = YES &nbsp;&nbsp;&nbsp; F = NO</p>
        ","f","html-keyboard-response","235","2.1.0","358873","J=YES, F=NO","f7zd1qzyv5","1","83","85","80","","","","","","","","","dramble","uncle1","pseudoword","pseudoword","f","true","",""
"null","<p style=""font-size: 50px;"">+</p>","null","html-keyboard-response","236","2.1.0","359180","J=YES, F=NO","f7zd1qzyv5","1","83","85","80","","","","","","","","","","","","","","","",""
"null","audio/beep-329314.mp3","null","audio-keyboard-response","237","2.1.0","360705","J=YES, F=NO","f7zd1qzyv5","1","83","85","80","","","","","","","","","","","","","","","",""
"null","audio/age1.wav","null","audio-keyboard-response","238","2.1.0","361237","J=YES, F=NO","f7zd1qzyv5","1","83","85","80","","","","","","","","","","","","","","","",""
"597","
          <p id=""word"" style=""font-size: 40px;"">lachry</p>
          <p style=""font-size: 16px;"">J = YES &nbsp;&nbsp;&nbsp; F = NO</p>
        ","f","html-keyboard-response","239","2.1.0","361835","J=YES, F=NO","f7zd1qzyv5","1","83","85","80","","","","","","","","","lachry","age1","pseudoword","pseudoword","f","true","",""
"null","<p style=""font-size: 50px;"">+</p>","null","html-keyboard-response","240","2.1.0","362144","J=YES, F=NO","f7zd1qzyv5","1","83","85","80","","","","","","","","","","","","","","","",""
"null","audio/beep-329314.mp3","null","audio-keyboard-response","241","2.1.0","363684","J=YES, F=NO","f7zd1qzyv5","1","83","85","80","","","","","","","","","","","","","","","",""
"null","audio/alarm1.wav","null","audio-keyboard-response","242","2.1.0","364255","J=YES, F=NO","f7zd1qzyv5","1","83","85","80","","","","","","","","","","","","","","","",""
"489","
          <p id=""word"" style=""font-size: 40px;"">lock</p>
          <p style=""font-size: 16px;"">J = YES &nbsp;&nbsp;&nbsp; F = NO</p>
        ","j","html-keyboard-response","243","2.1.0","364745","J=YES, F=NO","f7zd1qzyv5","1","83","85","80","","","","","","","","","lock","alarm1","filler","filler","j","true","",""
"null","<p style=""font-size: 50px;"">+</p>","null","html-keyboard-response","244","2.1.0","365062","J=YES, F=NO","f7zd1qzyv5","1","83","85","80","","","","","","","","","","","","","","","",""
"null","audio/beep-329314.mp3","null","audio-keyboard-response","245","2.1.0","366604","J=YES, F=NO","f7zd1qzyv5","1","83","85","80","","","","","","","","","","","","","","","",""
"null","audio/farm1.wav","null","audio-keyboard-response","246","2.1.0","367174","J=YES, F=NO","f7zd1qzyv5","1","83","85","80","","","","","","","","","","","","","","","",""
"631","
          <p id=""word"" style=""font-size: 40px;"">catch</p>
          <p style=""font-size: 16px;"">J = YES &nbsp;&nbsp;&nbsp; F = NO</p>
        ","j","html-keyboard-response","247","2.1.0","367806","J=YES, F=NO","f7zd1qzyv5","1","83","85","80","","","","","","","","","catch","farm1","unrelated","experimental","j","true","",""
"null","<p style=""font-size: 50px;"">+</p>","null","html-keyboard-response","248","2.1.0","368115","J=YES, F=NO","f7zd1qzyv5","1","83","85","80","","","","","","","","","","","","","","","",""
"null","audio/beep-329314.mp3","null","audio-keyboard-response","249","2.1.0","369646","J=YES, F=NO","f7zd1qzyv5","1","83","85","80","","","","","","","","","","","","","","","",""
"null","audio/arm.wav","null","audio-keyboard-response","250","2.1.0","370175","J=YES, F=NO","f7zd1qzyv5","1","83","85","80","","","","","","","","","","","","","","","",""
"603","
          <p id=""word"" style=""font-size: 40px;"">pigne</p>
          <p style=""font-size: 16px;"">J = YES &nbsp;&nbsp;&nbsp; F = NO</p>
        ","f","html-keyboard-response","251","2.1.0","370780","J=YES, F=NO","f7zd1qzyv5","1","83","85","80","","","","","","","","","pigne","arm","pseudoword","pseudoword","f","true","",""
"null","<p style=""font-size: 50px;"">+</p>","null","html-keyboard-response","252","2.1.0","371095","J=YES, F=NO","f7zd1qzyv5","1","83","85","80","","","","","","","","","","","","","","","",""
"null","audio/beep-329314.mp3","null","audio-keyboard-response","253","2.1.0","372626","J=YES, F=NO","f7zd1qzyv5","1","83","85","80","","","","","","","","","","","","","","","",""
"null","audio/terrain.wav","null","audio-keyboard-response","254","2.1.0","373235","J=YES, F=NO","f7zd1qzyv5","1","83","85","80","","","","","","","","","","","","","","","",""
"613","
          <p id=""word"" style=""font-size: 40px;"">twist</p>
          <p style=""font-size: 16px;"">J = YES &nbsp;&nbsp;&nbsp; F = NO</p>
        ","j","html-keyboard-response","255","2.1.0","373850","J=YES, F=NO","f7zd1qzyv5","1","83","85","80","","","","","","","","","twist","terrain","filler","filler","j","true","",""
"null","<p style=""font-size: 50px;"">+</p>","null","html-keyboard-response","256","2.1.0","374158","J=YES, F=NO","f7zd1qzyv5","1","83","85","80","","","","","","","","","","","","","","","",""
"null","audio/beep-329314.mp3","null","audio-keyboard-response","257","2.1.0","375684","J=YES, F=NO","f7zd1qzyv5","1","83","85","80","","","","","","","","","","","","","","","",""
"null","audio/price.wav","null","audio-keyboard-response","258","2.1.0","376314","J=YES, F=NO","f7zd1qzyv5","1","83","85","80","","","","","","","","","","","","","","","",""
"528","
          <p id=""word"" style=""font-size: 40px;"">drop</p>
          <p style=""font-size: 16px;"">J = YES &nbsp;&nbsp;&nbsp; F = NO</p>
        ","j","html-keyboard-response","259","2.1.0","376844","J=YES, F=NO","f7zd1qzyv5","1","83","85","80","","","","","","","","","drop","price","metaphor","experimental","j","true","",""
"null","<p style=""font-size: 50px;"">+</p>","null","html-keyboard-response","260","2.1.0","377145","J=YES, F=NO","f7zd1qzyv5","1","83","85","80","","","","","","","","","","","","","","","",""
"null","audio/beep-329314.mp3","null","audio-keyboard-response","261","2.1.0","378685","J=YES, F=NO","f7zd1qzyv5","1","83","85","80","","","","","","","","","","","","","","","",""
"null","audio/promise1.wav","null","audio-keyboard-response","262","2.1.0","379315","J=YES, F=NO","f7zd1qzyv5","1","83","85","80","","","","","","","","","","","","","","","",""
"523","
          <p id=""word"" style=""font-size: 40px;"">break</p>
          <p style=""font-size: 16px;"">J = YES &nbsp;&nbsp;&nbsp; F = NO</p>
        ","j","html-keyboard-response","263","2.1.0","379840","J=YES, F=NO","f7zd1qzyv5","1","83","85","80","","","","","","","","","break","promise1","metaphor","experimental","j","true","",""
"null","<p style=""font-size: 50px;"">+</p>","null","html-keyboard-response","264","2.1.0","380146","J=YES, F=NO","f7zd1qzyv5","1","83","85","80","","","","","","","","","","","","","","","",""
"null","audio/beep-329314.mp3","null","audio-keyboard-response","265","2.1.0","381685","J=YES, F=NO","f7zd1qzyv5","1","83","85","80","","","","","","","","","","","","","","","",""
"null","audio/road.wav","null","audio-keyboard-response","266","2.1.0","382136","J=YES, F=NO","f7zd1qzyv5","1","83","85","80","","","","","","","","","","","","","","","",""
"797","
          <p id=""word"" style=""font-size: 40px;"">wappings</p>
          <p style=""font-size: 16px;"">J = YES &nbsp;&nbsp;&nbsp; F = NO</p>
        ","f","html-keyboard-response","267","2.1.0","382934","J=YES, F=NO","f7zd1qzyv5","1","83","85","80","","","","","","","","","wappings","road","pseudoword","pseudoword","f","true","",""
"null","<p style=""font-size: 50px;"">+</p>","null","html-keyboard-response","268","2.1.0","383245","J=YES, F=NO","f7zd1qzyv5","1","83","85","80","","","","","","","","","","","","","","","",""
"null","audio/beep-329314.mp3","null","audio-keyboard-response","269","2.1.0","384785","J=YES, F=NO","f7zd1qzyv5","1","83","85","80","","","","","","","","","","","","","","","",""
"null","audio/age1.wav","null","audio-keyboard-response","270","2.1.0","385315","J=YES, F=NO","f7zd1qzyv5","1","83","85","80","","","","","","","","","","","","","","","",""
"528","
          <p id=""word"" style=""font-size: 40px;"">seize</p>
          <p style=""font-size: 16px;"">J = YES &nbsp;&nbsp;&nbsp; F = NO</p>
        ","j","html-keyboard-response","271","2.1.0","385844","J=YES, F=NO","f7zd1qzyv5","1","83","85","80","","","","","","","","","seize","age1","unrelated","experimental","j","true","",""
"null","<p style=""font-size: 50px;"">+</p>","null","html-keyboard-response","272","2.1.0","386146","J=YES, F=NO","f7zd1qzyv5","1","83","85","80","","","","","","","","","","","","","","","",""
"null","audio/beep-329314.mp3","null","audio-keyboard-response","273","2.1.0","387685","J=YES, F=NO","f7zd1qzyv5","1","83","85","80","","","","","","","","","","","","","","","",""
"null","audio/roof1.wav","null","audio-keyboard-response","274","2.1.0","388235","J=YES, F=NO","f7zd1qzyv5","1","83","85","80","","","","","","","","","","","","","","","",""
"604","
          <p id=""word"" style=""font-size: 40px;"">wronb</p>
          <p style=""font-size: 16px;"">J = YES &nbsp;&nbsp;&nbsp; F = NO</p>
        ","f","html-keyboard-response","275","2.1.0","388840","J=YES, F=NO","f7zd1qzyv5","1","83","85","80","","","","","","","","","wronb","roof1","pseudoword","pseudoword","f","true","",""
"null","<p style=""font-size: 50px;"">+</p>","null","html-keyboard-response","276","2.1.0","389145","J=YES, F=NO","f7zd1qzyv5","1","83","85","80","","","","","","","","","","","","","","","",""
"null","audio/beep-329314.mp3","null","audio-keyboard-response","277","2.1.0","390686","J=YES, F=NO","f7zd1qzyv5","1","83","85","80","","","","","","","","","","","","","","","",""
"null","audio/foe1.wav","null","audio-keyboard-response","278","2.1.0","391175","J=YES, F=NO","f7zd1qzyv5","1","83","85","80","","","","","","","","","","","","","","","",""
"651","
          <p id=""word"" style=""font-size: 40px;"">creth</p>
          <p style=""font-size: 16px;"">J = YES &nbsp;&nbsp;&nbsp; F = NO</p>
        ","f","html-keyboard-response","279","2.1.0","391828","J=YES, F=NO","f7zd1qzyv5","1","83","85","80","","","","","","","","","creth","foe1","pseudoword","pseudoword","f","true","",""
"null","<p style=""font-size: 50px;"">+</p>","null","html-keyboard-response","280","2.1.0","392143","J=YES, F=NO","f7zd1qzyv5","1","83","85","80","","","","","","","","","","","","","","","",""
"null","audio/beep-329314.mp3","null","audio-keyboard-response","281","2.1.0","393686","J=YES, F=NO","f7zd1qzyv5","1","83","85","80","","","","","","","","","","","","","","","",""
"null","audio/flaw.wav","null","audio-keyboard-response","282","2.1.0","394295","J=YES, F=NO","f7zd1qzyv5","1","83","85","80","","","","","","","","","","","","","","","",""
"575","
          <p id=""word"" style=""font-size: 40px;"">hide</p>
          <p style=""font-size: 16px;"">J = YES &nbsp;&nbsp;&nbsp; F = NO</p>
        ","j","html-keyboard-response","283","2.1.0","394872","J=YES, F=NO","f7zd1qzyv5","1","83","85","80","","","","","","","","","hide","flaw","metaphor","experimental","j","true","",""
"null","<p style=""font-size: 50px;"">+</p>","null","html-keyboard-response","284","2.1.0","395182","J=YES, F=NO","f7zd1qzyv5","1","83","85","80","","","","","","","","","","","","","","","",""
"null","audio/beep-329314.mp3","null","audio-keyboard-response","285","2.1.0","396706","J=YES, F=NO","f7zd1qzyv5","1","83","85","80","","","","","","","","","","","","","","","",""
"null","audio/weapon.wav","null","audio-keyboard-response","286","2.1.0","397455","J=YES, F=NO","f7zd1qzyv5","1","83","85","80","","","","","","","","","","","","","","","",""
"432","
          <p id=""word"" style=""font-size: 40px;"">carry</p>
          <p style=""font-size: 16px;"">J = YES &nbsp;&nbsp;&nbsp; F = NO</p>
        ","j","html-keyboard-response","287","2.1.0","397889","J=YES, F=NO","f7zd1qzyv5","1","83","85","80","","","","","","","","","carry","weapon","literal","experimental","j","true","",""
"null","<p style=""font-size: 50px;"">+</p>","null","html-keyboard-response","288","2.1.0","398194","J=YES, F=NO","f7zd1qzyv5","1","83","85","80","","","","","","","","","","","","","","","",""
"null","audio/beep-329314.mp3","null","audio-keyboard-response","289","2.1.0","399726","J=YES, F=NO","f7zd1qzyv5","1","83","85","80","","","","","","","","","","","","","","","",""
"null","audio/brain.wav","null","audio-keyboard-response","290","2.1.0","400195","J=YES, F=NO","f7zd1qzyv5","1","83","85","80","","","","","","","","","","","","","","","",""
"517","
          <p id=""word"" style=""font-size: 40px;"">flood</p>
          <p style=""font-size: 16px;"">J = YES &nbsp;&nbsp;&nbsp; F = NO</p>
        ","j","html-keyboard-response","291","2.1.0","400713","J=YES, F=NO","f7zd1qzyv5","1","83","85","80","","","","","","","","","flood","brain","metaphor","experimental","j","true","",""
"null","<p style=""font-size: 50px;"">+</p>","null","html-keyboard-response","292","2.1.0","401029","J=YES, F=NO","f7zd1qzyv5","1","83","85","80","","","","","","","","","","","","","","","",""
"null","audio/beep-329314.mp3","null","audio-keyboard-response","293","2.1.0","402564","J=YES, F=NO","f7zd1qzyv5","1","83","85","80","","","","","","","","","","","","","","","",""
"null","audio/grass.wav","null","audio-keyboard-response","294","2.1.0","403215","J=YES, F=NO","f7zd1qzyv5","1","83","85","80","","","","","","","","","","","","","","","",""
"668","
          <p id=""word"" style=""font-size: 40px;"">milames</p>
          <p style=""font-size: 16px;"">J = YES &nbsp;&nbsp;&nbsp; F = NO</p>
        ","f","html-keyboard-response","295","2.1.0","403885","J=YES, F=NO","f7zd1qzyv5","1","83","85","80","","","","","","","","","milames","grass","pseudoword","pseudoword","f","true","",""
"32995","<p>Excellent! You have finished block 2 of 8.</p>
                     <p>Feel free to take a 30 second break.</p>
                     <p>Press any key when you're ready to continue.</p>","j","html-keyboard-response","296","2.1.0","436882","J=YES, F=NO","f7zd1qzyv5","1","83","85","80","","","","","","","","","","","","","","","",""
"1268","<p>Starting main block 3 of 8. Press any key to continue.</p>","j","html-keyboard-response","297","2.1.0","438151","J=YES, F=NO","f7zd1qzyv5","1","83","85","80","","","","","","","","","","","","","","","",""
"null","<p style=""font-size: 50px;"">+</p>","null","html-keyboard-response","298","2.1.0","438462","J=YES, F=NO","f7zd1qzyv5","1","83","85","80","","","","","","","","","","","","","","","",""
"null","audio/beep-329314.mp3","null","audio-keyboard-response","299","2.1.0","440440","J=YES, F=NO","f7zd1qzyv5","1","83","85","80","","","","","","","","","","","","","","","",""
"null","audio/ego.wav","null","audio-keyboard-response","300","2.1.0","441089","J=YES, F=NO","f7zd1qzyv5","1","83","85","80","","","","","","","","","","","","","","","",""
"430","
          <p id=""word"" style=""font-size: 40px;"">feed</p>
          <p style=""font-size: 16px;"">J = YES &nbsp;&nbsp;&nbsp; F = NO</p>
        ","j","html-keyboard-response","301","2.1.0","441521","J=YES, F=NO","f7zd1qzyv5","1","83","85","80","","","","","","","","","feed","ego","metaphor","experimental","j","true","",""
"null","<p style=""font-size: 50px;"">+</p>","null","html-keyboard-response","302","2.1.0","441828","J=YES, F=NO","f7zd1qzyv5","1","83","85","80","","","","","","","","","","","","","","","",""
"null","audio/beep-329314.mp3","null","audio-keyboard-response","303","2.1.0","443359","J=YES, F=NO","f7zd1qzyv5","1","83","85","80","","","","","","","","","","","","","","","",""
"null","audio/topic.wav","null","audio-keyboard-response","304","2.1.0","443990","J=YES, F=NO","f7zd1qzyv5","1","83","85","80","","","","","","","","","","","","","","","",""
"647","
          <p id=""word"" style=""font-size: 40px;"">infortuitist</p>
          <p style=""font-size: 16px;"">J = YES &nbsp;&nbsp;&nbsp; F = NO</p>
        ","f","html-keyboard-response","305","2.1.0","444639","J=YES, F=NO","f7zd1qzyv5","1","83","85","80","","","","","","","","","infortuitist","topic","pseudoword","pseudoword","f","true","",""
"null","<p style=""font-size: 50px;"">+</p>","null","html-keyboard-response","306","2.1.0","444945","J=YES, F=NO","f7zd1qzyv5","1","83","85","80","","","","","","","","","","","","","","","",""
"null","audio/beep-329314.mp3","null","audio-keyboard-response","307","2.1.0","446479","J=YES, F=NO","f7zd1qzyv5","1","83","85","80","","","","","","","","","","","","","","","",""
"null","audio/terrain.wav","null","audio-keyboard-response","308","2.1.0","447050","J=YES, F=NO","f7zd1qzyv5","1","83","85","80","","","","","","","","","","","","","","","",""
"498","
          <p id=""word"" style=""font-size: 40px;"">navigate</p>
          <p style=""font-size: 16px;"">J = YES &nbsp;&nbsp;&nbsp; F = NO</p>
        ","j","html-keyboard-response","309","2.1.0","447550","J=YES, F=NO","f7zd1qzyv5","1","83","85","80","","","","","","","","","navigate","terrain","literal","experimental","j","true","",""
"null","<p style=""font-size: 50px;"">+</p>","null","html-keyboard-response","310","2.1.0","447861","J=YES, F=NO","f7zd1qzyv5","1","83","85","80","","","","","","","","","","","","","","","",""
"null","audio/beep-329314.mp3","null","audio-keyboard-response","311","2.1.0","449399","J=YES, F=NO","f7zd1qzyv5","1","83","85","80","","","","","","","","","","","","","","","",""
"null","audio/sugar1.wav","null","audio-keyboard-response","312","2.1.0","449889","J=YES, F=NO","f7zd1qzyv5","1","83","85","80","","","","","","","","","","","","","","","",""
"466","
          <p id=""word"" style=""font-size: 40px;"">approach</p>
          <p style=""font-size: 16px;"">J = YES &nbsp;&nbsp;&nbsp; F = NO</p>
        ","j","html-keyboard-response","313","2.1.0","450357","J=YES, F=NO","f7zd1qzyv5","1","83","85","80","","","","","","","","","approach","sugar1","unrelated","experimental","j","true","",""
"null","<p style=""font-size: 50px;"">+</p>","null","html-keyboard-response","314","2.1.0","450675","J=YES, F=NO","f7zd1qzyv5","1","83","85","80","","","","","","","","","","","","","","","",""
"null","audio/beep-329314.mp3","null","audio-keyboard-response","315","2.1.0","452199","J=YES, F=NO","f7zd1qzyv5","1","83","85","80","","","","","","","","","","","","","","","",""
"null","audio/effort.wav","null","audio-keyboard-response","316","2.1.0","452788","J=YES, F=NO","f7zd1qzyv5","1","83","85","80","","","","","","","","","","","","","","","",""
"524","
          <p id=""word"" style=""font-size: 40px;"">whonk</p>
          <p style=""font-size: 16px;"">J = YES &nbsp;&nbsp;&nbsp; F = NO</p>
        ","f","html-keyboard-response","317","2.1.0","453314","J=YES, F=NO","f7zd1qzyv5","1","83","85","80","","","","","","","","","whonk","effort","pseudoword","pseudoword","f","true","",""
"null","<p style=""font-size: 50px;"">+</p>","null","html-keyboard-response","318","2.1.0","453625","J=YES, F=NO","f7zd1qzyv5","1","83","85","80","","","","","","","","","","","","","","","",""
"null","audio/beep-329314.mp3","null","audio-keyboard-response","319","2.1.0","455160","J=YES, F=NO","f7zd1qzyv5","1","83","85","80","","","","","","","","","","","","","","","",""
"null","audio/cloud1.wav","null","audio-keyboard-response","320","2.1.0","455709","J=YES, F=NO","f7zd1qzyv5","1","83","85","80","","","","","","","","","","","","","","","",""
"650","
          <p id=""word"" style=""font-size: 40px;"">brotant</p>
          <p style=""font-size: 16px;"">J = YES &nbsp;&nbsp;&nbsp; F = NO</p>
        ","f","html-keyboard-response","321","2.1.0","456362","J=YES, F=NO","f7zd1qzyv5","1","83","85","80","","","","","","","","","brotant","cloud1","pseudoword","pseudoword","f","true","",""
"null","<p style=""font-size: 50px;"">+</p>","null","html-keyboard-response","322","2.1.0","456678","J=YES, F=NO","f7zd1qzyv5","1","83","85","80","","","","","","","","","","","","","","","",""
"null","audio/beep-329314.mp3","null","audio-keyboard-response","323","2.1.0","458219","J=YES, F=NO","f7zd1qzyv5","1","83","85","80","","","","","","","","","","","","","","","",""
"null","audio/planet1.wav","null","audio-keyboard-response","324","2.1.0","458808","J=YES, F=NO","f7zd1qzyv5","1","83","85","80","","","","","","","","","","","","","","","",""
"1060","
          <p id=""word"" style=""font-size: 40px;"">cratched</p>
          <p style=""font-size: 16px;"">J = YES &nbsp;&nbsp;&nbsp; F = NO</p>
        ","f","html-keyboard-response","325","2.1.0","459869","J=YES, F=NO","f7zd1qzyv5","1","83","85","80","","","","","","","","","cratched","planet1","pseudoword","pseudoword","f","true","",""
"null","<p style=""font-size: 50px;"">+</p>","null","html-keyboard-response","326","2.1.0","460177","J=YES, F=NO","f7zd1qzyv5","1","83","85","80","","","","","","","","","","","","","","","",""
"null","audio/beep-329314.mp3","null","audio-keyboard-response","327","2.1.0","461719","J=YES, F=NO","f7zd1qzyv5","1","83","85","80","","","","","","","","","","","","","","","",""
"null","audio/hotel1.wav","null","audio-keyboard-response","328","2.1.0","462369","J=YES, F=NO","f7zd1qzyv5","1","83","85","80","","","","","","","","","","","","","","","",""
"1168","
          <p id=""word"" style=""font-size: 40px;"">flanter</p>
          <p style=""font-size: 16px;"">J = YES &nbsp;&nbsp;&nbsp; F = NO</p>
        ","j","html-keyboard-response","329","2.1.0","463538","J=YES, F=NO","f7zd1qzyv5","1","83","85","80","","","","","","","","","flanter","hotel1","pseudoword","pseudoword","f","false","",""
"null","<p style=""font-size: 50px;"">+</p>","null","html-keyboard-response","330","2.1.0","463841","J=YES, F=NO","f7zd1qzyv5","1","83","85","80","","","","","","","","","","","","","","","",""
"null","audio/beep-329314.mp3","null","audio-keyboard-response","331","2.1.0","465380","J=YES, F=NO","f7zd1qzyv5","1","83","85","80","","","","","","","","","","","","","","","",""
"null","audio/ankle1.wav","null","audio-keyboard-response","332","2.1.0","465889","J=YES, F=NO","f7zd1qzyv5","1","83","85","80","","","","","","","","","","","","","","","",""
"757","
          <p id=""word"" style=""font-size: 40px;"">switm</p>
          <p style=""font-size: 16px;"">J = YES &nbsp;&nbsp;&nbsp; F = NO</p>
        ","f","html-keyboard-response","333","2.1.0","466648","J=YES, F=NO","f7zd1qzyv5","1","83","85","80","","","","","","","","","switm","ankle1","pseudoword","pseudoword","f","true","",""
"null","<p style=""font-size: 50px;"">+</p>","null","html-keyboard-response","334","2.1.0","466957","J=YES, F=NO","f7zd1qzyv5","1","83","85","80","","","","","","","","","","","","","","","",""
"null","audio/beep-329314.mp3","null","audio-keyboard-response","335","2.1.0","468500","J=YES, F=NO","f7zd1qzyv5","1","83","85","80","","","","","","","","","","","","","","","",""
"null","audio/baby.wav","null","audio-keyboard-response","336","2.1.0","468968","J=YES, F=NO","f7zd1qzyv5","1","83","85","80","","","","","","","","","","","","","","","",""
"720","
          <p id=""word"" style=""font-size: 40px;"">lift</p>
          <p style=""font-size: 16px;"">J = YES &nbsp;&nbsp;&nbsp; F = NO</p>
        ","j","html-keyboard-response","337","2.1.0","469690","J=YES, F=NO","f7zd1qzyv5","1","83","85","80","","","","","","","","","lift","baby","filler","filler","j","true","",""
"null","<p style=""font-size: 50px;"">+</p>","null","html-keyboard-response","338","2.1.0","469995","J=YES, F=NO","f7zd1qzyv5","1","83","85","80","","","","","","","","","","","","","","","",""
"null","audio/beep-329314.mp3","null","audio-keyboard-response","339","2.1.0","471519","J=YES, F=NO","f7zd1qzyv5","1","83","85","80","","","","","","","","","","","","","","","",""
"null","audio/show.wav","null","audio-keyboard-response","340","2.1.0","472089","J=YES, F=NO","f7zd1qzyv5","1","83","85","80","","","","","","","","","","","","","","","",""
"1298","
          <p id=""word"" style=""font-size: 40px;"">smark</p>
          <p style=""font-size: 16px;"">J = YES &nbsp;&nbsp;&nbsp; F = NO</p>
        ","f","html-keyboard-response","341","2.1.0","473389","J=YES, F=NO","f7zd1qzyv5","1","83","85","80","","","","","","","","","smark","show","pseudoword","pseudoword","f","true","",""
"null","<p style=""font-size: 50px;"">+</p>","null","html-keyboard-response","342","2.1.0","473693","J=YES, F=NO","f7zd1qzyv5","1","83","85","80","","","","","","","","","","","","","","","",""
"null","audio/beep-329314.mp3","null","audio-keyboard-response","343","2.1.0","475219","J=YES, F=NO","f7zd1qzyv5","1","83","85","80","","","","","","","","","","","","","","","",""
"null","audio/pattern.wav","null","audio-keyboard-response","344","2.1.0","475729","J=YES, F=NO","f7zd1qzyv5","1","83","85","80","","","","","","","","","","","","","","","",""
"599","
          <p id=""word"" style=""font-size: 40px;"">defeat</p>
          <p style=""font-size: 16px;"">J = YES &nbsp;&nbsp;&nbsp; F = NO</p>
        ","j","html-keyboard-response","345","2.1.0","476330","J=YES, F=NO","f7zd1qzyv5","1","83","85","80","","","","","","","","","defeat","pattern","unrelated","experimental","j","true","",""
"null","<p style=""font-size: 50px;"">+</p>","null","html-keyboard-response","346","2.1.0","476641","J=YES, F=NO","f7zd1qzyv5","1","83","85","80","","","","","","","","","","","","","","","",""
"null","audio/beep-329314.mp3","null","audio-keyboard-response","347","2.1.0","478180","J=YES, F=NO","f7zd1qzyv5","1","83","85","80","","","","","","","","","","","","","","","",""
"null","audio/pig.wav","null","audio-keyboard-response","348","2.1.0","478569","J=YES, F=NO","f7zd1qzyv5","1","83","85","80","","","","","","","","","","","","","","","",""
"698","
          <p id=""word"" style=""font-size: 40px;"">tirlike</p>
          <p style=""font-size: 16px;"">J = YES &nbsp;&nbsp;&nbsp; F = NO</p>
        ","f","html-keyboard-response","349","2.1.0","479269","J=YES, F=NO","f7zd1qzyv5","1","83","85","80","","","","","","","","","tirlike","pig","pseudoword","pseudoword","f","true","",""
"null","<p style=""font-size: 50px;"">+</p>","null","html-keyboard-response","350","2.1.0","479576","J=YES, F=NO","f7zd1qzyv5","1","83","85","80","","","","","","","","","","","","","","","",""
"null","audio/beep-329314.mp3","null","audio-keyboard-response","351","2.1.0","481099","J=YES, F=NO","f7zd1qzyv5","1","83","85","80","","","","","","","","","","","","","","","",""
"null","audio/pain1.wav","null","audio-keyboard-response","352","2.1.0","481550","J=YES, F=NO","f7zd1qzyv5","1","83","85","80","","","","","","","","","","","","","","","",""
"559","
          <p id=""word"" style=""font-size: 40px;"">sell</p>
          <p style=""font-size: 16px;"">J = YES &nbsp;&nbsp;&nbsp; F = NO</p>
        ","j","html-keyboard-response","353","2.1.0","482110","J=YES, F=NO","f7zd1qzyv5","1","83","85","80","","","","","","","","","sell","pain1","unrelated","experimental","j","true","",""
"null","<p style=""font-size: 50px;"">+</p>","null","html-keyboard-response","354","2.1.0","482424","J=YES, F=NO","f7zd1qzyv5","1","83","85","80","","","","","","","","","","","","","","","",""
"null","audio/beep-329314.mp3","null","audio-keyboard-response","355","2.1.0","483959","J=YES, F=NO","f7zd1qzyv5","1","83","85","80","","","","","","","","","","","","","","","",""
"null","audio/mile1.wav","null","audio-keyboard-response","356","2.1.0","484469","J=YES, F=NO","f7zd1qzyv5","1","83","85","80","","","","","","","","","","","","","","","",""
"705","
          <p id=""word"" style=""font-size: 40px;"">writch</p>
          <p style=""font-size: 16px;"">J = YES &nbsp;&nbsp;&nbsp; F = NO</p>
        ","f","html-keyboard-response","357","2.1.0","485175","J=YES, F=NO","f7zd1qzyv5","1","83","85","80","","","","","","","","","writch","mile1","pseudoword","pseudoword","f","true","",""
"null","<p style=""font-size: 50px;"">+</p>","null","html-keyboard-response","358","2.1.0","485492","J=YES, F=NO","f7zd1qzyv5","1","83","85","80","","","","","","","","","","","","","","","",""
"null","audio/beep-329314.mp3","null","audio-keyboard-response","359","2.1.0","487020","J=YES, F=NO","f7zd1qzyv5","1","83","85","80","","","","","","","","","","","","","","","",""
"null","audio/sand.wav","null","audio-keyboard-response","360","2.1.0","487689","J=YES, F=NO","f7zd1qzyv5","1","83","85","80","","","","","","","","","","","","","","","",""
"737","
          <p id=""word"" style=""font-size: 40px;"">proted</p>
          <p style=""font-size: 16px;"">J = YES &nbsp;&nbsp;&nbsp; F = NO</p>
        ","f","html-keyboard-response","361","2.1.0","488427","J=YES, F=NO","f7zd1qzyv5","1","83","85","80","","","","","","","","","proted","sand","pseudoword","pseudoword","f","true","",""
"1447","<p>Excellent! You have finished block 3 of 8.</p>
                     <p>Feel free to take a 30 second break.</p>
                     <p>Press any key when you're ready to continue.</p>","j","html-keyboard-response","362","2.1.0","489876","J=YES, F=NO","f7zd1qzyv5","1","83","85","80","","","","","","","","","","","","","","","",""
"873","<p>Starting main block 4 of 8. Press any key to continue.</p>","j","html-keyboard-response","363","2.1.0","490751","J=YES, F=NO","f7zd1qzyv5","1","83","85","80","","","","","","","","","","","","","","","",""
"null","<p style=""font-size: 50px;"">+</p>","null","html-keyboard-response","364","2.1.0","491054","J=YES, F=NO","f7zd1qzyv5","1","83","85","80","","","","","","","","","","","","","","","",""
"null","audio/beep-329314.mp3","null","audio-keyboard-response","365","2.1.0","492578","J=YES, F=NO","f7zd1qzyv5","1","83","85","80","","","","","","","","","","","","","","","",""
"null","audio/voice.wav","null","audio-keyboard-response","366","2.1.0","493170","J=YES, F=NO","f7zd1qzyv5","1","83","85","80","","","","","","","","","","","","","","","",""
"608","
          <p id=""word"" style=""font-size: 40px;"">grintle</p>
          <p style=""font-size: 16px;"">J = YES &nbsp;&nbsp;&nbsp; F = NO</p>
        ","f","html-keyboard-response","367","2.1.0","493779","J=YES, F=NO","f7zd1qzyv5","1","83","85","80","","","","","","","","","grintle","voice","pseudoword","pseudoword","f","true","",""
"null","<p style=""font-size: 50px;"">+</p>","null","html-keyboard-response","368","2.1.0","494089","J=YES, F=NO","f7zd1qzyv5","1","83","85","80","","","","","","","","","","","","","","","",""
"null","audio/beep-329314.mp3","null","audio-keyboard-response","369","2.1.0","495620","J=YES, F=NO","f7zd1qzyv5","1","83","85","80","","","","","","","","","","","","","","","",""
"null","audio/life1.wav","null","audio-keyboard-response","370","2.1.0","496189","J=YES, F=NO","f7zd1qzyv5","1","83","85","80","","","","","","","","","","","","","","","",""
"600","
          <p id=""word"" style=""font-size: 40px;"">flimch</p>
          <p style=""font-size: 16px;"">J = YES &nbsp;&nbsp;&nbsp; F = NO</p>
        ","f","html-keyboard-response","371","2.1.0","496791","J=YES, F=NO","f7zd1qzyv5","1","83","85","80","","","","","","","","","flimch","life1","pseudoword","pseudoword","f","true","",""
"null","<p style=""font-size: 50px;"">+</p>","null","html-keyboard-response","372","2.1.0","497107","J=YES, F=NO","f7zd1qzyv5","1","83","85","80","","","","","","","","","","","","","","","",""
"null","audio/beep-329314.mp3","null","audio-keyboard-response","373","2.1.0","498638","J=YES, F=NO","f7zd1qzyv5","1","83","85","80","","","","","","","","","","","","","","","",""
"null","audio/neck.wav","null","audio-keyboard-response","374","2.1.0","499189","J=YES, F=NO","f7zd1qzyv5","1","83","85","80","","","","","","","","","","","","","","","",""
"616","
          <p id=""word"" style=""font-size: 40px;"">werling</p>
          <p style=""font-size: 16px;"">J = YES &nbsp;&nbsp;&nbsp; F = NO</p>
        ","f","html-keyboard-response","375","2.1.0","499807","J=YES, F=NO","f7zd1qzyv5","1","83","85","80","","","","","","","","","werling","neck","pseudoword","pseudoword","f","true","",""
"null","<p style=""font-size: 50px;"">+</p>","null","html-keyboard-response","376","2.1.0","500123","J=YES, F=NO","f7zd1qzyv5","1","83","85","80","","","","","","","","","","","","","","","",""
"null","audio/beep-329314.mp3","null","audio-keyboard-response","377","2.1.0","501659","J=YES, F=NO","f7zd1qzyv5","1","83","85","80","","","","","","","","","","","","","","","",""
"null","audio/beach1.wav","null","audio-keyboard-response","378","2.1.0","502268","J=YES, F=NO","f7zd1qzyv5","1","83","85","80","","","","","","","","","","","","","","","",""
"556","
          <p id=""word"" style=""font-size: 40px;"">drive</p>
          <p style=""font-size: 16px;"">J = YES &nbsp;&nbsp;&nbsp; F = NO</p>
        ","j","html-keyboard-response","379","2.1.0","502826","J=YES, F=NO","f7zd1qzyv5","1","83","85","80","","","","","","","","","drive","beach1","filler","filler","j","true","",""
"null","<p style=""font-size: 50px;"">+</p>","null","html-keyboard-response","380","2.1.0","503142","J=YES, F=NO","f7zd1qzyv5","1","83","85","80","","","","","","","","","","","","","","","",""
"null","audio/beep-329314.mp3","null","audio-keyboard-response","381","2.1.0","504679","J=YES, F=NO","f7zd1qzyv5","1","83","85","80","","","","","","","","","","","","","","","",""
"null","audio/tunnel.wav","null","audio-keyboard-response","382","2.1.0","505108","J=YES, F=NO","f7zd1qzyv5","1","83","85","80","","","","","","","","","","","","","","","",""
"631","
          <p id=""word"" style=""font-size: 40px;"">gred</p>
          <p style=""font-size: 16px;"">J = YES &nbsp;&nbsp;&nbsp; F = NO</p>
        ","f","html-keyboard-response","383","2.1.0","505741","J=YES, F=NO","f7zd1qzyv5","1","83","85","80","","","","","","","","","gred","tunnel","pseudoword","pseudoword","f","true","",""
"null","<p style=""font-size: 50px;"">+</p>","null","html-keyboard-response","384","2.1.0","506057","J=YES, F=NO","f7zd1qzyv5","1","83","85","80","","","","","","","","","","","","","","","",""
"null","audio/beep-329314.mp3","null","audio-keyboard-response","385","2.1.0","507598","J=YES, F=NO","f7zd1qzyv5","1","83","85","80","","","","","","","","","","","","","","","",""
"null","audio/tomato.wav","null","audio-keyboard-response","386","2.1.0","508249","J=YES, F=NO","f7zd1qzyv5","1","83","85","80","","","","","","","","","","","","","","","",""
"488","
          <p id=""word"" style=""font-size: 40px;"">grow</p>
          <p style=""font-size: 16px;"">J = YES &nbsp;&nbsp;&nbsp; F = NO</p>
        ","j","html-keyboard-response","387","2.1.0","508739","J=YES, F=NO","f7zd1qzyv5","1","83","85","80","","","","","","","","","grow","tomato","literal","experimental","j","true","",""
"null","<p style=""font-size: 50px;"">+</p>","null","html-keyboard-response","388","2.1.0","509044","J=YES, F=NO","f7zd1qzyv5","1","83","85","80","","","","","","","","","","","","","","","",""
"null","audio/beep-329314.mp3","null","audio-keyboard-response","389","2.1.0","510578","J=YES, F=NO","f7zd1qzyv5","1","83","85","80","","","","","","","","","","","","","","","",""
"null","audio/breath.wav","null","audio-keyboard-response","390","2.1.0","511129","J=YES, F=NO","f7zd1qzyv5","1","83","85","80","","","","","","","","","","","","","","","",""
"524","
          <p id=""word"" style=""font-size: 40px;"">pack</p>
          <p style=""font-size: 16px;"">J = YES &nbsp;&nbsp;&nbsp; F = NO</p>
        ","j","html-keyboard-response","391","2.1.0","511654","J=YES, F=NO","f7zd1qzyv5","1","83","85","80","","","","","","","","","pack","breath","filler","filler","j","true","",""
