"rt","stimulus","response","trial_type","trial_index","plugin_version","time_elapsed","response_mapping","subject_id","list_index","lextale_score","lextale_word_score","lextale_nonword_score","success","timeout","failed_images","failed_audio","failed_video","task","isWord","isDummy","target","prime","prime_type","stimulus_type","correct_response","correct","section","question_order"
"2250","
    <div style=""max-width: 800px; margin: auto; text-align: left;"">
      <h2>STANFORD UNIVERSITY</h2>
      <h3>Research Information Sheet</h3>
      <p><strong>Protocol Director:</strong> Robert Hawkins<br>
      <strong>Protocol Title:</strong> Communication and social cognition in natural audiovisual contexts<br>
      <strong>IRB#:</strong> 77226</p>

      <p><strong>DESCRIPTION:</strong> You are invited to participate in a research study about language and communication. The purpose of the research is to understand how you interact and communicate with other people in naturalistic settings as a fluent English speaker. This research will be conducted through the Prolific platform, including participants from the US, UK, and Canada. If you decide to participate in this research, you will play a communication game in a group with one or more partners.</p>

      <p><strong>TIME INVOLVEMENT:</strong> The task will last the amount of time advertised on Prolific. You are free to withdraw from the study at any time.</p>

      <p><strong>RISKS AND BENEFITS:</strong> You may become frustrated if your partner gets distracted, or experience discomfort if other participants in your group send text that is inappropriate for the task. We ask you to please be respectful of other participants you might be interacting with to mitigate these risks. You may also experience discomfort when being asked to discuss or challenge emotionally salient political beliefs. Study data will be stored securely, in compliance with Stanford University standards, minimizing the risk of confidentiality breach. This study advances our scientific understanding of how people communicate and collaborate in naturalistic settings. This study may lead to further insights about what can go wrong in teamwork, suggest potential interventions to overcome these barriers, and help to develop assistive technologies that collaborate with human partners. We cannot and do not guarantee or promise that you will receive any benefits from this study.</p>

      <p><strong>PAYMENTS:</strong> You will receive payment in the amount advertised on Prolific. If you do not complete this study, you will receive prorated payment based on the time that you have spent. Additionally, you may be eligible for bonus payments as described in the instructions.</p>

      <p><strong>PARTICIPANT’S RIGHTS:</strong> If you have read this form and have decided to participate in this project, please understand your participation is voluntary and you have the right to withdraw your consent or discontinue participation at any time without penalty or loss of benefits to which you are otherwise entitled. The alternative is not to participate. You have the right to refuse to answer particular questions. The results of this research study may be presented at scientific or professional meetings or published in scientific journals. Your individual privacy will be maintained in all published and written data resulting from the study. In accordance with scientific norms, the data from this study may be used or shared with other researchers for future research (after removing personally identifying information) without additional consent from you.</p>

      <p><strong>CONTACT INFORMATION:</strong><br>
      Questions: If you have any questions, concerns or complaints about this research, its procedures, risks and benefits, contact the Protocol Director, Robert Hawkins (<a href=""mailto:rdhawkins@stanford.edu"">rdhawkins@stanford.edu</a>, 217-549-6923).<br>
      Independent Contact: If you are not satisfied with how this study is being conducted, or if you have any concerns, complaints, or general questions about the research or your rights as a participant, please contact the Stanford Institutional Review Board (IRB) to speak to someone independent of the research team at 650-723-2480 or toll free at 1-866-680-2906, or email at <a href=""mailto:irbnon-med@stanford.edu"">irbnon-med@stanford.edu</a>. You can also write to the Stanford IRB, Stanford University, 1705 El Camino Real, Palo Alto, CA 94306.</p>

      <p><strong>Please save or print a copy of this page for your records.</strong></p>
      <p>If you agree to participate in this research, click ""Continue"" below.</p>
    </div>
  ","0","html-button-response","0","2.1.0","2261","F=YES, J=NO","f9jsp3hgx5","0","63","65","60","","","","","","","","","","","","","","","",""
"12387","
    <div style=""max-width: 800px; margin: auto; text-align: left;"">
      <h2>Welcome!</h2>
      <p>Thank you for participating in this study. The experiment consists of three parts:</p>
      <ol>
        <li>An English vocabulary test</li>
        <li>A main task in which you will hear and see words, and decide whether the written word is a real English word</li>
        <li>A brief survey about your background</li>
      </ol>
      <p>Each part will be introduced before it begins.</p>
      <p>Please make sure you are in a quiet environment and can hear audio clearly for the final task.</p>
      <p style=""margin-top: 2em;"">Press any key to begin.</p>
    </div>
  ","f","html-keyboard-response","1","2.1.0","14652","F=YES, J=NO","f9jsp3hgx5","0","63","65","60","","","","","","","","","","","","","","","",""
"","","","preload","2","2.1.0","15923","F=YES, J=NO","f9jsp3hgx5","0","63","65","60","true","false","[]","[]","[]","","","","","","","","","","",""
"4014","
    <div style=""max-width: 800px; margin: auto; text-align: left;"">
      <h2>Part 1: Vocabulary Test</h2>
      <p>You will now complete the first part of the study: a short English vocabulary test.</p>
      <p>This test is called <strong>LexTALE</strong> and helps us get a general sense of your English proficiency.</p>
      <p style=""margin-top: 2em;"">Press any key to continue.</p>
    </div>
  ","d","html-keyboard-response","3","2.1.0","19939","F=YES, J=NO","f9jsp3hgx5","0","63","65","60","","","","","","","","","","","","","","","",""
"22443","
    <div style=""max-width: 800px; margin: auto; text-align: left;"">
      <h2>LexTALE Vocabulary Test</h2>
      <p>In this test, you will see a series of letter strings—one at a time.</p>
      <p>Your task is to decide whether each string is a real English word.</p>
      <p><strong>Key responses:</strong></p>
      <ul>
        <li><strong>F</strong> = YES (real English word)</li>
        <li><strong>J</strong> = NO (not a real English word)</li>
      </ul>
      <p>There is no time limit, but please try to be accurate.</p>
      <p style=""margin-top: 2em;"">Press any key to begin.</p>
    </div>
  "," ","html-keyboard-response","4","2.1.0","42383","F=YES, J=NO","f9jsp3hgx5","0","63","65","60","","","","","","","","","","","","","","","",""
"1944","
  <p style=""font-size: 40px;"">platery</p>
  <p style=""font-size: 16px;"">F = YES &nbsp;&nbsp;&nbsp; J = NO</p>
","f","html-keyboard-response","5","2.1.0","44327","F=YES, J=NO","f9jsp3hgx5","0","63","65","60","","","","","","lextale","false","true","","","","","","","",""
"1169","
  <p style=""font-size: 40px;"">denial</p>
  <p style=""font-size: 16px;"">F = YES &nbsp;&nbsp;&nbsp; J = NO</p>
","f","html-keyboard-response","6","2.1.0","45497","F=YES, J=NO","f9jsp3hgx5","0","63","65","60","","","","","","lextale","true","true","","","","","","","",""
"1020","
  <p style=""font-size: 40px;"">marrit</p>
  <p style=""font-size: 16px;"">F = YES &nbsp;&nbsp;&nbsp; J = NO</p>
","j","html-keyboard-response","7","2.1.0","46518","F=YES, J=NO","f9jsp3hgx5","0","63","65","60","","","","","","lextale","false","true","","","","","","","",""
"3107","
  <p style=""font-size: 40px;"">bottle</p>
  <p style=""font-size: 16px;"">F = YES &nbsp;&nbsp;&nbsp; J = NO</p>
","f","html-keyboard-response","8","2.1.0","49626","F=YES, J=NO","f9jsp3hgx5","0","63","65","60","","","","","","lextale","true","false","","","","","","","",""
"1339","
  <p style=""font-size: 40px;"">birst</p>
  <p style=""font-size: 16px;"">F = YES &nbsp;&nbsp;&nbsp; J = NO</p>
","j","html-keyboard-response","9","2.1.0","50966","F=YES, J=NO","f9jsp3hgx5","0","63","65","60","","","","","","lextale","false","false","","","","","","","",""
"895","
  <p style=""font-size: 40px;"">envy</p>
  <p style=""font-size: 16px;"">F = YES &nbsp;&nbsp;&nbsp; J = NO</p>
","f","html-keyboard-response","10","2.1.0","51862","F=YES, J=NO","f9jsp3hgx5","0","63","65","60","","","","","","lextale","true","false","","","","","","","",""
"1209","
  <p style=""font-size: 40px;"">brang</p>
  <p style=""font-size: 16px;"">F = YES &nbsp;&nbsp;&nbsp; J = NO</p>
","f","html-keyboard-response","11","2.1.0","53071","F=YES, J=NO","f9jsp3hgx5","0","63","65","60","","","","","","lextale","false","false","","","","","","","",""
"706","
  <p style=""font-size: 40px;"">huge</p>
  <p style=""font-size: 16px;"">F = YES &nbsp;&nbsp;&nbsp; J = NO</p>
","f","html-keyboard-response","12","2.1.0","53778","F=YES, J=NO","f9jsp3hgx5","0","63","65","60","","","","","","lextale","true","false","","","","","","","",""
"992","
  <p style=""font-size: 40px;"">plove</p>
  <p style=""font-size: 16px;"">F = YES &nbsp;&nbsp;&nbsp; J = NO</p>
","f","html-keyboard-response","13","2.1.0","54770","F=YES, J=NO","f9jsp3hgx5","0","63","65","60","","","","","","lextale","false","false","","","","","","","",""
"650","
  <p style=""font-size: 40px;"">border</p>
  <p style=""font-size: 16px;"">F = YES &nbsp;&nbsp;&nbsp; J = NO</p>
","f","html-keyboard-response","14","2.1.0","55420","F=YES, J=NO","f9jsp3hgx5","0","63","65","60","","","","","","lextale","true","false","","","","","","","",""
"1636","
  <p style=""font-size: 40px;"">flimsy</p>
  <p style=""font-size: 16px;"">F = YES &nbsp;&nbsp;&nbsp; J = NO</p>
","j","html-keyboard-response","15","2.1.0","57057","F=YES, J=NO","f9jsp3hgx5","0","63","65","60","","","","","","lextale","true","false","","","","","","","",""
"775","
  <p style=""font-size: 40px;"">drain</p>
  <p style=""font-size: 16px;"">F = YES &nbsp;&nbsp;&nbsp; J = NO</p>
","f","html-keyboard-response","16","2.1.0","57833","F=YES, J=NO","f9jsp3hgx5","0","63","65","60","","","","","","lextale","true","false","","","","","","","",""
"1146","
  <p style=""font-size: 40px;"">twindle</p>
  <p style=""font-size: 16px;"">F = YES &nbsp;&nbsp;&nbsp; J = NO</p>
","j","html-keyboard-response","17","2.1.0","58979","F=YES, J=NO","f9jsp3hgx5","0","63","65","60","","","","","","lextale","false","false","","","","","","","",""
"839","
  <p style=""font-size: 40px;"">propose</p>
  <p style=""font-size: 16px;"">F = YES &nbsp;&nbsp;&nbsp; J = NO</p>
","f","html-keyboard-response","18","2.1.0","59818","F=YES, J=NO","f9jsp3hgx5","0","63","65","60","","","","","","lextale","true","false","","","","","","","",""
"1789","
  <p style=""font-size: 40px;"">forlay</p>
  <p style=""font-size: 16px;"">F = YES &nbsp;&nbsp;&nbsp; J = NO</p>
","j","html-keyboard-response","19","2.1.0","61608","F=YES, J=NO","f9jsp3hgx5","0","63","65","60","","","","","","lextale","false","false","","","","","","","",""
"2242","
  <p style=""font-size: 40px;"">tenant</p>
  <p style=""font-size: 16px;"">F = YES &nbsp;&nbsp;&nbsp; J = NO</p>
","j","html-keyboard-response","20","2.1.0","63850","F=YES, J=NO","f9jsp3hgx5","0","63","65","60","","","","","","lextale","true","false","","","","","","","",""
"934","
  <p style=""font-size: 40px;"">strain</p>
  <p style=""font-size: 16px;"">F = YES &nbsp;&nbsp;&nbsp; J = NO</p>
","f","html-keyboard-response","21","2.1.0","64785","F=YES, J=NO","f9jsp3hgx5","0","63","65","60","","","","","","lextale","true","false","","","","","","","",""
"706","
  <p style=""font-size: 40px;"">holster</p>
  <p style=""font-size: 16px;"">F = YES &nbsp;&nbsp;&nbsp; J = NO</p>
","f","html-keyboard-response","22","2.1.0","65492","F=YES, J=NO","f9jsp3hgx5","0","63","65","60","","","","","","lextale","true","false","","","","","","","",""
"2377","
  <p style=""font-size: 40px;"">hinder</p>
  <p style=""font-size: 16px;"">F = YES &nbsp;&nbsp;&nbsp; J = NO</p>
","j","html-keyboard-response","23","2.1.0","67870","F=YES, J=NO","f9jsp3hgx5","0","63","65","60","","","","","","lextale","true","false","","","","","","","",""
"3531","
  <p style=""font-size: 40px;"">swindle</p>
  <p style=""font-size: 16px;"">F = YES &nbsp;&nbsp;&nbsp; J = NO</p>
","f","html-keyboard-response","24","2.1.0","71401","F=YES, J=NO","f9jsp3hgx5","0","63","65","60","","","","","","lextale","true","false","","","","","","","",""
"877","
  <p style=""font-size: 40px;"">nuder</p>
  <p style=""font-size: 16px;"">F = YES &nbsp;&nbsp;&nbsp; J = NO</p>
","j","html-keyboard-response","25","2.1.0","72279","F=YES, J=NO","f9jsp3hgx5","0","63","65","60","","","","","","lextale","false","false","","","","","","","",""
"724","
  <p style=""font-size: 40px;"">pillow</p>
  <p style=""font-size: 16px;"">F = YES &nbsp;&nbsp;&nbsp; J = NO</p>
","f","html-keyboard-response","26","2.1.0","73003","F=YES, J=NO","f9jsp3hgx5","0","63","65","60","","","","","","lextale","true","false","","","","","","","",""
"1620","
  <p style=""font-size: 40px;"">shumble</p>
  <p style=""font-size: 16px;"">F = YES &nbsp;&nbsp;&nbsp; J = NO</p>
","j","html-keyboard-response","27","2.1.0","74623","F=YES, J=NO","f9jsp3hgx5","0","63","65","60","","","","","","lextale","false","false","","","","","","","",""
"599","
  <p style=""font-size: 40px;"">thirst</p>
  <p style=""font-size: 16px;"">F = YES &nbsp;&nbsp;&nbsp; J = NO</p>
","f","html-keyboard-response","28","2.1.0","75222","F=YES, J=NO","f9jsp3hgx5","0","63","65","60","","","","","","lextale","true","false","","","","","","","",""
"820","
  <p style=""font-size: 40px;"">unsail</p>
  <p style=""font-size: 16px;"">F = YES &nbsp;&nbsp;&nbsp; J = NO</p>
","f","html-keyboard-response","29","2.1.0","76043","F=YES, J=NO","f9jsp3hgx5","0","63","65","60","","","","","","lextale","false","false","","","","","","","",""
"2572","
  <p style=""font-size: 40px;"">rifle</p>
  <p style=""font-size: 16px;"">F = YES &nbsp;&nbsp;&nbsp; J = NO</p>
","f","html-keyboard-response","30","2.1.0","78615","F=YES, J=NO","f9jsp3hgx5","0","63","65","60","","","","","","lextale","true","false","","","","","","","",""
"2167","
  <p style=""font-size: 40px;"">mush</p>
  <p style=""font-size: 16px;"">F = YES &nbsp;&nbsp;&nbsp; J = NO</p>
","f","html-keyboard-response","31","2.1.0","80782","F=YES, J=NO","f9jsp3hgx5","0","63","65","60","","","","","","lextale","false","false","","","","","","","",""
"924","
  <p style=""font-size: 40px;"">drench</p>
  <p style=""font-size: 16px;"">F = YES &nbsp;&nbsp;&nbsp; J = NO</p>
","f","html-keyboard-response","32","2.1.0","81706","F=YES, J=NO","f9jsp3hgx5","0","63","65","60","","","","","","lextale","true","false","","","","","","","",""
"1117","
  <p style=""font-size: 40px;"">snirt</p>
  <p style=""font-size: 16px;"">F = YES &nbsp;&nbsp;&nbsp; J = NO</p>
","j","html-keyboard-response","33","2.1.0","82824","F=YES, J=NO","f9jsp3hgx5","0","63","65","60","","","","","","lextale","false","false","","","","","","","",""
"736","
  <p style=""font-size: 40px;"">bitter</p>
  <p style=""font-size: 16px;"">F = YES &nbsp;&nbsp;&nbsp; J = NO</p>
","f","html-keyboard-response","34","2.1.0","83560","F=YES, J=NO","f9jsp3hgx5","0","63","65","60","","","","","","lextale","true","false","","","","","","","",""
"736","
  <p style=""font-size: 40px;"">pliff</p>
  <p style=""font-size: 16px;"">F = YES &nbsp;&nbsp;&nbsp; J = NO</p>
","j","html-keyboard-response","35","2.1.0","84296","F=YES, J=NO","f9jsp3hgx5","0","63","65","60","","","","","","lextale","false","false","","","","","","","",""
"616","
  <p style=""font-size: 40px;"">tablet</p>
  <p style=""font-size: 16px;"">F = YES &nbsp;&nbsp;&nbsp; J = NO</p>
","f","html-keyboard-response","36","2.1.0","84912","F=YES, J=NO","f9jsp3hgx5","0","63","65","60","","","","","","lextale","true","false","","","","","","","",""
"2651","
  <p style=""font-size: 40px;"">glimmer</p>
  <p style=""font-size: 16px;"">F = YES &nbsp;&nbsp;&nbsp; J = NO</p>
","j","html-keyboard-response","37","2.1.0","87564","F=YES, J=NO","f9jsp3hgx5","0","63","65","60","","","","","","lextale","true","false","","","","","","","",""
"1408","
  <p style=""font-size: 40px;"">slink</p>
  <p style=""font-size: 16px;"">F = YES &nbsp;&nbsp;&nbsp; J = NO</p>
","j","html-keyboard-response","38","2.1.0","88972","F=YES, J=NO","f9jsp3hgx5","0","63","65","60","","","","","","lextale","true","false","","","","","","","",""
"605","
  <p style=""font-size: 40px;"">clever</p>
  <p style=""font-size: 16px;"">F = YES &nbsp;&nbsp;&nbsp; J = NO</p>
","f","html-keyboard-response","39","2.1.0","89577","F=YES, J=NO","f9jsp3hgx5","0","63","65","60","","","","","","lextale","true","false","","","","","","","",""
"1077","
  <p style=""font-size: 40px;"">grum</p>
  <p style=""font-size: 16px;"">F = YES &nbsp;&nbsp;&nbsp; J = NO</p>
","f","html-keyboard-response","40","2.1.0","90655","F=YES, J=NO","f9jsp3hgx5","0","63","65","60","","","","","","lextale","false","false","","","","","","","",""
"542","
  <p style=""font-size: 40px;"">string</p>
  <p style=""font-size: 16px;"">F = YES &nbsp;&nbsp;&nbsp; J = NO</p>
","f","html-keyboard-response","41","2.1.0","91197","F=YES, J=NO","f9jsp3hgx5","0","63","65","60","","","","","","lextale","true","false","","","","","","","",""
"888","
  <p style=""font-size: 40px;"">plim</p>
  <p style=""font-size: 16px;"">F = YES &nbsp;&nbsp;&nbsp; J = NO</p>
","j","html-keyboard-response","42","2.1.0","92086","F=YES, J=NO","f9jsp3hgx5","0","63","65","60","","","","","","lextale","false","false","","","","","","","",""
"610","
  <p style=""font-size: 40px;"">cable</p>
  <p style=""font-size: 16px;"">F = YES &nbsp;&nbsp;&nbsp; J = NO</p>
","f","html-keyboard-response","43","2.1.0","92697","F=YES, J=NO","f9jsp3hgx5","0","63","65","60","","","","","","lextale","true","false","","","","","","","",""
"935","
  <p style=""font-size: 40px;"">shrivel</p>
  <p style=""font-size: 16px;"">F = YES &nbsp;&nbsp;&nbsp; J = NO</p>
","j","html-keyboard-response","44","2.1.0","93632","F=YES, J=NO","f9jsp3hgx5","0","63","65","60","","","","","","lextale","true","false","","","","","","","",""
"1055","
  <p style=""font-size: 40px;"">tarnish</p>
  <p style=""font-size: 16px;"">F = YES &nbsp;&nbsp;&nbsp; J = NO</p>
","j","html-keyboard-response","45","2.1.0","94687","F=YES, J=NO","f9jsp3hgx5","0","63","65","60","","","","","","lextale","true","false","","","","","","","",""
"20326","
  <p style=""font-size: 40px;"">blim</p>
  <p style=""font-size: 16px;"">F = YES &nbsp;&nbsp;&nbsp; J = NO</p>
","j","html-keyboard-response","46","2.1.0","115014","F=YES, J=NO","f9jsp3hgx5","0","63","65","60","","","","","","lextale","false","false","","","","","","","",""
"14979","
  <p style=""font-size: 40px;"">stifle</p>
  <p style=""font-size: 16px;"">F = YES &nbsp;&nbsp;&nbsp; J = NO</p>
","f","html-keyboard-response","47","2.1.0","129993","F=YES, J=NO","f9jsp3hgx5","0","63","65","60","","","","","","lextale","true","false","","","","","","","",""
"3667","
  <p style=""font-size: 40px;"">bint</p>
  <p style=""font-size: 16px;"">F = YES &nbsp;&nbsp;&nbsp; J = NO</p>
","j","html-keyboard-response","48","2.1.0","133660","F=YES, J=NO","f9jsp3hgx5","0","63","65","60","","","","","","lextale","false","false","","","","","","","",""
"849","
  <p style=""font-size: 40px;"">purple</p>
  <p style=""font-size: 16px;"">F = YES &nbsp;&nbsp;&nbsp; J = NO</p>
","f","html-keyboard-response","49","2.1.0","134510","F=YES, J=NO","f9jsp3hgx5","0","63","65","60","","","","","","lextale","true","false","","","","","","","",""
"1278","
  <p style=""font-size: 40px;"">wriggle</p>
  <p style=""font-size: 16px;"">F = YES &nbsp;&nbsp;&nbsp; J = NO</p>
","f","html-keyboard-response","50","2.1.0","135788","F=YES, J=NO","f9jsp3hgx5","0","63","65","60","","","","","","lextale","true","false","","","","","","","",""
"4944","
  <p style=""font-size: 40px;"">mangle</p>
  <p style=""font-size: 16px;"">F = YES &nbsp;&nbsp;&nbsp; J = NO</p>
","j","html-keyboard-response","51","2.1.0","140732","F=YES, J=NO","f9jsp3hgx5","0","63","65","60","","","","","","lextale","true","false","","","","","","","",""
"4556","
  <p style=""font-size: 40px;"">shramp</p>
  <p style=""font-size: 16px;"">F = YES &nbsp;&nbsp;&nbsp; J = NO</p>
","f","html-keyboard-response","52","2.1.0","145288","F=YES, J=NO","f9jsp3hgx5","0","63","65","60","","","","","","lextale","false","false","","","","","","","",""
"946","
  <p style=""font-size: 40px;"">flirt</p>
  <p style=""font-size: 16px;"">F = YES &nbsp;&nbsp;&nbsp; J = NO</p>
","f","html-keyboard-response","53","2.1.0","146235","F=YES, J=NO","f9jsp3hgx5","0","63","65","60","","","","","","lextale","true","false","","","","","","","",""
"1899","
  <p style=""font-size: 40px;"">frip</p>
  <p style=""font-size: 16px;"">F = YES &nbsp;&nbsp;&nbsp; J = NO</p>
","j","html-keyboard-response","54","2.1.0","148134","F=YES, J=NO","f9jsp3hgx5","0","63","65","60","","","","","","lextale","false","false","","","","","","","",""
"4032","
  <p style=""font-size: 40px;"">tangle</p>
  <p style=""font-size: 16px;"">F = YES &nbsp;&nbsp;&nbsp; J = NO</p>
","f","html-keyboard-response","55","2.1.0","152166","F=YES, J=NO","f9jsp3hgx5","0","63","65","60","","","","","","lextale","true","false","","","","","","","",""
"3112","
  <p style=""font-size: 40px;"">crumble</p>
  <p style=""font-size: 16px;"">F = YES &nbsp;&nbsp;&nbsp; J = NO</p>
","f","html-keyboard-response","56","2.1.0","155279","F=YES, J=NO","f9jsp3hgx5","0","63","65","60","","","","","","lextale","true","false","","","","","","","",""
"3006","
  <p style=""font-size: 40px;"">wrinkle</p>
  <p style=""font-size: 16px;"">F = YES &nbsp;&nbsp;&nbsp; J = NO</p>
","f","html-keyboard-response","57","2.1.0","158285","F=YES, J=NO","f9jsp3hgx5","0","63","65","60","","","","","","lextale","true","false","","","","","","","",""
"2868","
  <p style=""font-size: 40px;"">slumb</p>
  <p style=""font-size: 16px;"">F = YES &nbsp;&nbsp;&nbsp; J = NO</p>
","f","html-keyboard-response","58","2.1.0","161153","F=YES, J=NO","f9jsp3hgx5","0","63","65","60","","","","","","lextale","false","false","","","","","","","",""
"1238","
  <p style=""font-size: 40px;"">jungle</p>
  <p style=""font-size: 16px;"">F = YES &nbsp;&nbsp;&nbsp; J = NO</p>
","f","html-keyboard-response","59","2.1.0","162391","F=YES, J=NO","f9jsp3hgx5","0","63","65","60","","","","","","lextale","true","false","","","","","","","",""
"3238","
  <p style=""font-size: 40px;"">frolick</p>
  <p style=""font-size: 16px;"">F = YES &nbsp;&nbsp;&nbsp; J = NO</p>
","j","html-keyboard-response","60","2.1.0","165630","F=YES, J=NO","f9jsp3hgx5","0","63","65","60","","","","","","lextale","false","false","","","","","","","",""
"5068","
      <h2>LexTALE Test Completed</h2>
      <p>Your LexTALE vocabulary score is: <strong>63%</strong></p>
      <p>Press any key to continue.</p>
    ","j","html-keyboard-response","61","2.1.0","170699","F=YES, J=NO","f9jsp3hgx5","0","63","65","60","","","","","","","","","","","","","","","",""
"5885","
    <div style=""max-width: 800px; margin: auto; text-align: left;"">
      <h2>Break Time</h2>
      <p>You have completed the first part of the study.</p>
      <p>You may take a short <strong>30-second break</strong> before continuing.</p>
      <p>When you’re ready, press any key to continue to the final task.</p>
    </div>
  ","j","html-keyboard-response","62","2.1.0","176585","F=YES, J=NO","f9jsp3hgx5","0","63","65","60","","","","","","","","","","","","","","","",""
"6717","
    <div style=""max-width: 800px; margin: auto; text-align: left;"">
      <h2>Part 2: Lexical Decision Task</h2>
      <p>You will now begin the second part of the study.</p>
      <p>Each trial will follow this sequence:</p>
      <ul>
        <li>A fixation cross (+) appears at the center of the screen.</li>
        <li>You will hear a short beep followed by a spoken word.</li>
        <li>A written word will appear briefly on the screen.</li>
      </ul>
      <p>Your task is to judge whether the <strong>written word</strong> is a real English word.</p>
      <p style=""margin-top: 1em;""><strong>Key responses:</strong></p>
      <ul>
        <li><strong>F</strong> = YES (real English word)</li>
        <li><strong>J</strong> = NO (not a real English word)</li>
      </ul>
      <p>Please respond as quickly and accurately as you can.</p>
      <p style=""margin-top: 2em;"">Press any key to continue.</p>
    </div>
  ","j","html-keyboard-response","63","2.1.0","183303","F=YES, J=NO","f9jsp3hgx5","0","63","65","60","","","","","","","","","","","","","","","",""
"8342","
    <div style=""max-width: 800px; margin: auto; text-align: left;"">
      <h2>Before You Begin</h2>
      <p>Make sure your sound is turned on.</p>
      <p>You will hear audio during each trial, but your decision should be based only on the <strong>written word</strong> you see on the screen.</p>
      <p><strong>Reminder:</strong></p>
      <ul>
        <li><strong>F</strong> = YES (real English word)</li>
        <li><strong>J</strong> = NO (not a real English word)</li>
      </ul>
      <p style=""margin-top: 2em;"">Press any key when you are ready to begin.</p>
    </div>
  "," ","html-keyboard-response","64","2.1.0","191646","F=YES, J=NO","f9jsp3hgx5","0","63","65","60","","","","","","","","","","","","","","","",""
"3803","
    <div style=""max-width: 800px; margin: auto; text-align: left;"">
      <h2>Part 2: Practice Trials</h2>
      <p>You will now complete a few <strong>practice trials</strong> to get familiar with the task.</p>
      <p>These trials are <strong>not scored</strong> and are only to help you get used to the format.</p>
      <p style=""margin-top: 2em;"">Press any key to begin.</p>
    </div>
  "," ","html-keyboard-response","65","2.1.0","195450","F=YES, J=NO","f9jsp3hgx5","0","63","65","60","","","","","","","","","","","","","","","",""
"1778","<p>Starting practice block 1 of 2. Press any key to continue.</p>"," ","html-keyboard-response","66","2.1.0","197228","F=YES, J=NO","f9jsp3hgx5","0","63","65","60","","","","","","","","","","","","","","","",""
"null","<p style=""font-size: 50px;"">+</p>","null","html-keyboard-response","67","2.1.0","197532","F=YES, J=NO","f9jsp3hgx5","0","63","65","60","","","","","","","","","","","","","","","",""
"null","audio/beep-329314.mp3","null","audio-keyboard-response","68","2.1.0","199086","F=YES, J=NO","f9jsp3hgx5","0","63","65","60","","","","","","","","","","","","","","","",""
"null","audio/camera1.wav","null","audio-keyboard-response","69","2.1.0","199576","F=YES, J=NO","f9jsp3hgx5","0","63","65","60","","","","","","","","","","","","","","","",""
"null","
          <p id=""word"" style=""font-size: 40px;"">stir</p>
          <p style=""font-size: 16px;"">F = YES &nbsp;&nbsp;&nbsp; J = NO</p>
        ","null","html-keyboard-response","70","2.1.0","201078","F=YES, J=NO","f9jsp3hgx5","0","63","65","60","","","","","","","","","stir","camera1","filler","filler","f","false","",""
"null","<p style=""font-size: 50px;"">+</p>","null","html-keyboard-response","71","2.1.0","201388","F=YES, J=NO","f9jsp3hgx5","0","63","65","60","","","","","","","","","","","","","","","",""
"null","audio/beep-329314.mp3","null","audio-keyboard-response","72","2.1.0","202975","F=YES, J=NO","f9jsp3hgx5","0","63","65","60","","","","","","","","","","","","","","","",""
"null","audio/baby.wav","null","audio-keyboard-response","73","2.1.0","203463","F=YES, J=NO","f9jsp3hgx5","0","63","65","60","","","","","","","","","","","","","","","",""
"1048","
          <p id=""word"" style=""font-size: 40px;"">lift</p>
          <p style=""font-size: 16px;"">F = YES &nbsp;&nbsp;&nbsp; J = NO</p>
        ","j","html-keyboard-response","74","2.1.0","204511","F=YES, J=NO","f9jsp3hgx5","0","63","65","60","","","","","","","","","lift","baby","filler","filler","f","false","",""
"null","<p style=""font-size: 50px;"">+</p>","null","html-keyboard-response","75","2.1.0","204814","F=YES, J=NO","f9jsp3hgx5","0","63","65","60","","","","","","","","","","","","","","","",""
"null","audio/beep-329314.mp3","null","audio-keyboard-response","76","2.1.0","206353","F=YES, J=NO","f9jsp3hgx5","0","63","65","60","","","","","","","","","","","","","","","",""
"null","audio/desire.wav","null","audio-keyboard-response","77","2.1.0","206983","F=YES, J=NO","f9jsp3hgx5","0","63","65","60","","","","","","","","","","","","","","","",""
"663","
          <p id=""word"" style=""font-size: 40px;"">nophed</p>
          <p style=""font-size: 16px;"">F = YES &nbsp;&nbsp;&nbsp; J = NO</p>
        ","j","html-keyboard-response","78","2.1.0","207647","F=YES, J=NO","f9jsp3hgx5","0","63","65","60","","","","","","","","","nophed","desire","pseudoword","pseudoword","j","true","",""
"null","<p style=""font-size: 50px;"">+</p>","null","html-keyboard-response","79","2.1.0","207959","F=YES, J=NO","f9jsp3hgx5","0","63","65","60","","","","","","","","","","","","","","","",""
"null","audio/beep-329314.mp3","null","audio-keyboard-response","80","2.1.0","209493","F=YES, J=NO","f9jsp3hgx5","0","63","65","60","","","","","","","","","","","","","","","",""
"null","audio/window1.wav","null","audio-keyboard-response","81","2.1.0","210243","F=YES, J=NO","f9jsp3hgx5","0","63","65","60","","","","","","","","","","","","","","","",""
"603","
          <p id=""word"" style=""font-size: 40px;"">toss</p>
          <p style=""font-size: 16px;"">F = YES &nbsp;&nbsp;&nbsp; J = NO</p>
        ","j","html-keyboard-response","82","2.1.0","210846","F=YES, J=NO","f9jsp3hgx5","0","63","65","60","","","","","","","","","toss","window1","filler","filler","f","false","",""
"null","<p style=""font-size: 50px;"">+</p>","null","html-keyboard-response","83","2.1.0","211154","F=YES, J=NO","f9jsp3hgx5","0","63","65","60","","","","","","","","","","","","","","","",""
"null","audio/beep-329314.mp3","null","audio-keyboard-response","84","2.1.0","212693","F=YES, J=NO","f9jsp3hgx5","0","63","65","60","","","","","","","","","","","","","","","",""
"null","audio/cancer1.wav","null","audio-keyboard-response","85","2.1.0","213383","F=YES, J=NO","f9jsp3hgx5","0","63","65","60","","","","","","","","","","","","","","","",""
"491","
          <p id=""word"" style=""font-size: 40px;"">draw</p>
          <p style=""font-size: 16px;"">F = YES &nbsp;&nbsp;&nbsp; J = NO</p>
        ","f","html-keyboard-response","86","2.1.0","213874","F=YES, J=NO","f9jsp3hgx5","0","63","65","60","","","","","","","","","draw","cancer1","filler","filler","f","true","",""
"null","<p style=""font-size: 50px;"">+</p>","null","html-keyboard-response","87","2.1.0","214190","F=YES, J=NO","f9jsp3hgx5","0","63","65","60","","","","","","","","","","","","","","","",""
"null","audio/beep-329314.mp3","null","audio-keyboard-response","88","2.1.0","215713","F=YES, J=NO","f9jsp3hgx5","0","63","65","60","","","","","","","","","","","","","","","",""
"null","audio/burden.wav","null","audio-keyboard-response","89","2.1.0","216223","F=YES, J=NO","f9jsp3hgx5","0","63","65","60","","","","","","","","","","","","","","","",""
"524","
          <p id=""word"" style=""font-size: 40px;"">whotth</p>
          <p style=""font-size: 16px;"">F = YES &nbsp;&nbsp;&nbsp; J = NO</p>
        ","j","html-keyboard-response","90","2.1.0","216748","F=YES, J=NO","f9jsp3hgx5","0","63","65","60","","","","","","","","","whotth","burden","pseudoword","pseudoword","j","true","",""
"null","<p style=""font-size: 50px;"">+</p>","null","html-keyboard-response","91","2.1.0","217059","F=YES, J=NO","f9jsp3hgx5","0","63","65","60","","","","","","","","","","","","","","","",""
"null","audio/beep-329314.mp3","null","audio-keyboard-response","92","2.1.0","218593","F=YES, J=NO","f9jsp3hgx5","0","63","65","60","","","","","","","","","","","","","","","",""
"null","audio/floor.wav","null","audio-keyboard-response","93","2.1.0","219163","F=YES, J=NO","f9jsp3hgx5","0","63","65","60","","","","","","","","","","","","","","","",""
"528","
          <p id=""word"" style=""font-size: 40px;"">mop</p>
          <p style=""font-size: 16px;"">F = YES &nbsp;&nbsp;&nbsp; J = NO</p>
        ","f","html-keyboard-response","94","2.1.0","219691","F=YES, J=NO","f9jsp3hgx5","0","63","65","60","","","","","","","","","mop","floor","filler","filler","f","true","",""
"null","<p style=""font-size: 50px;"">+</p>","null","html-keyboard-response","95","2.1.0","220003","F=YES, J=NO","f9jsp3hgx5","0","63","65","60","","","","","","","","","","","","","","","",""
"null","audio/beep-329314.mp3","null","audio-keyboard-response","96","2.1.0","221533","F=YES, J=NO","f9jsp3hgx5","0","63","65","60","","","","","","","","","","","","","","","",""
"null","audio/pig.wav","null","audio-keyboard-response","97","2.1.0","221924","F=YES, J=NO","f9jsp3hgx5","0","63","65","60","","","","","","","","","","","","","","","",""
"743","
          <p id=""word"" style=""font-size: 40px;"">tirlike</p>
          <p style=""font-size: 16px;"">F = YES &nbsp;&nbsp;&nbsp; J = NO</p>
        ","j","html-keyboard-response","98","2.1.0","222667","F=YES, J=NO","f9jsp3hgx5","0","63","65","60","","","","","","","","","tirlike","pig","pseudoword","pseudoword","j","true","",""
"null","<p style=""font-size: 50px;"">+</p>","null","html-keyboard-response","99","2.1.0","222968","F=YES, J=NO","f9jsp3hgx5","0","63","65","60","","","","","","","","","","","","","","","",""
"null","audio/beep-329314.mp3","null","audio-keyboard-response","100","2.1.0","224493","F=YES, J=NO","f9jsp3hgx5","0","63","65","60","","","","","","","","","","","","","","","",""
"null","audio/account1.wav","null","audio-keyboard-response","101","2.1.0","225203","F=YES, J=NO","f9jsp3hgx5","0","63","65","60","","","","","","","","","","","","","","","",""
"475","
          <p id=""word"" style=""font-size: 40px;"">paint</p>
          <p style=""font-size: 16px;"">F = YES &nbsp;&nbsp;&nbsp; J = NO</p>
        ","f","html-keyboard-response","102","2.1.0","225678","F=YES, J=NO","f9jsp3hgx5","0","63","65","60","","","","","","","","","paint","account1","filler","filler","f","true","",""
"null","<p style=""font-size: 50px;"">+</p>","null","html-keyboard-response","103","2.1.0","225980","F=YES, J=NO","f9jsp3hgx5","0","63","65","60","","","","","","","","","","","","","","","",""
"null","audio/beep-329314.mp3","null","audio-keyboard-response","104","2.1.0","227514","F=YES, J=NO","f9jsp3hgx5","0","63","65","60","","","","","","","","","","","","","","","",""
"null","audio/cloud1.wav","null","audio-keyboard-response","105","2.1.0","228083","F=YES, J=NO","f9jsp3hgx5","0","63","65","60","","","","","","","","","","","","","","","",""
"713","
          <p id=""word"" style=""font-size: 40px;"">brotant</p>
          <p style=""font-size: 16px;"">F = YES &nbsp;&nbsp;&nbsp; J = NO</p>
        ","j","html-keyboard-response","106","2.1.0","228797","F=YES, J=NO","f9jsp3hgx5","0","63","65","60","","","","","","","","","brotant","cloud1","pseudoword","pseudoword","j","true","",""
"null","<p style=""font-size: 50px;"">+</p>","null","html-keyboard-response","107","2.1.0","229113","F=YES, J=NO","f9jsp3hgx5","0","63","65","60","","","","","","","","","","","","","","","",""
"null","audio/beep-329314.mp3","null","audio-keyboard-response","108","2.1.0","230653","F=YES, J=NO","f9jsp3hgx5","0","63","65","60","","","","","","","","","","","","","","","",""
"null","audio/strength.wav","null","audio-keyboard-response","109","2.1.0","231403","F=YES, J=NO","f9jsp3hgx5","0","63","65","60","","","","","","","","","","","","","","","",""
"525","
          <p id=""word"" style=""font-size: 40px;"">plabet</p>
          <p style=""font-size: 16px;"">F = YES &nbsp;&nbsp;&nbsp; J = NO</p>
        ","j","html-keyboard-response","110","2.1.0","231928","F=YES, J=NO","f9jsp3hgx5","0","63","65","60","","","","","","","","","plabet","strength","pseudoword","pseudoword","j","true","",""
"null","<p style=""font-size: 50px;"">+</p>","null","html-keyboard-response","111","2.1.0","232244","F=YES, J=NO","f9jsp3hgx5","0","63","65","60","","","","","","","","","","","","","","","",""
"null","audio/beep-329314.mp3","null","audio-keyboard-response","112","2.1.0","233773","F=YES, J=NO","f9jsp3hgx5","0","63","65","60","","","","","","","","","","","","","","","",""
"null","audio/trout1.wav","null","audio-keyboard-response","113","2.1.0","234383","F=YES, J=NO","f9jsp3hgx5","0","63","65","60","","","","","","","","","","","","","","","",""
"475","
          <p id=""word"" style=""font-size: 40px;"">spimt</p>
          <p style=""font-size: 16px;"">F = YES &nbsp;&nbsp;&nbsp; J = NO</p>
        ","f","html-keyboard-response","114","2.1.0","234859","F=YES, J=NO","f9jsp3hgx5","0","63","65","60","","","","","","","","","spimt","trout1","pseudoword","pseudoword","j","false","",""
"1044","<p>Starting practice block 2 of 2. Press any key to continue.</p>"," ","html-keyboard-response","115","2.1.0","235903","F=YES, J=NO","f9jsp3hgx5","0","63","65","60","","","","","","","","","","","","","","","",""
"null","<p style=""font-size: 50px;"">+</p>","null","html-keyboard-response","116","2.1.0","236219","F=YES, J=NO","f9jsp3hgx5","0","63","65","60","","","","","","","","","","","","","","","",""
"null","audio/beep-329314.mp3","null","audio-keyboard-response","117","2.1.0","237753","F=YES, J=NO","f9jsp3hgx5","0","63","65","60","","","","","","","","","","","","","","","",""
"null","audio/stain.wav","null","audio-keyboard-response","118","2.1.0","238423","F=YES, J=NO","f9jsp3hgx5","0","63","65","60","","","","","","","","","","","","","","","",""
"473","
          <p id=""word"" style=""font-size: 40px;"">rumpsied</p>
          <p style=""font-size: 16px;"">F = YES &nbsp;&nbsp;&nbsp; J = NO</p>
        ","j","html-keyboard-response","119","2.1.0","238896","F=YES, J=NO","f9jsp3hgx5","0","63","65","60","","","","","","","","","rumpsied","stain","pseudoword","pseudoword","j","true","",""
"null","<p style=""font-size: 50px;"">+</p>","null","html-keyboard-response","120","2.1.0","239205","F=YES, J=NO","f9jsp3hgx5","0","63","65","60","","","","","","","","","","","","","","","",""
"null","audio/beep-329314.mp3","null","audio-keyboard-response","121","2.1.0","240733","F=YES, J=NO","f9jsp3hgx5","0","63","65","60","","","","","","","","","","","","","","","",""
"null","audio/prisoner.wav","null","audio-keyboard-response","122","2.1.0","241263","F=YES, J=NO","f9jsp3hgx5","0","63","65","60","","","","","","","","","","","","","","","",""
"513","
          <p id=""word"" style=""font-size: 40px;"">egotian</p>
          <p style=""font-size: 16px;"">F = YES &nbsp;&nbsp;&nbsp; J = NO</p>
        ","f","html-keyboard-response","123","2.1.0","241776","F=YES, J=NO","f9jsp3hgx5","0","63","65","60","","","","","","","","","egotian","prisoner","pseudoword","pseudoword","j","false","",""
"null","<p style=""font-size: 50px;"">+</p>","null","html-keyboard-response","124","2.1.0","242086","F=YES, J=NO","f9jsp3hgx5","0","63","65","60","","","","","","","","","","","","","","","",""
"null","audio/beep-329314.mp3","null","audio-keyboard-response","125","2.1.0","243613","F=YES, J=NO","f9jsp3hgx5","0","63","65","60","","","","","","","","","","","","","","","",""
"null","audio/radio1.wav","null","audio-keyboard-response","126","2.1.0","244223","F=YES, J=NO","f9jsp3hgx5","0","63","65","60","","","","","","","","","","","","","","","",""
"507","
          <p id=""word"" style=""font-size: 40px;"">blanter</p>
          <p style=""font-size: 16px;"">F = YES &nbsp;&nbsp;&nbsp; J = NO</p>
        ","j","html-keyboard-response","127","2.1.0","244730","F=YES, J=NO","f9jsp3hgx5","0","63","65","60","","","","","","","","","blanter","radio1","pseudoword","pseudoword","j","true","",""
"null","<p style=""font-size: 50px;"">+</p>","null","html-keyboard-response","128","2.1.0","245044","F=YES, J=NO","f9jsp3hgx5","0","63","65","60","","","","","","","","","","","","","","","",""
"null","audio/beep-329314.mp3","null","audio-keyboard-response","129","2.1.0","246573","F=YES, J=NO","f9jsp3hgx5","0","63","65","60","","","","","","","","","","","","","","","",""
"null","audio/uncle1.wav","null","audio-keyboard-response","130","2.1.0","247063","F=YES, J=NO","f9jsp3hgx5","0","63","65","60","","","","","","","","","","","","","","","",""
"581","
          <p id=""word"" style=""font-size: 40px;"">dramble</p>
          <p style=""font-size: 16px;"">F = YES &nbsp;&nbsp;&nbsp; J = NO</p>
        ","f","html-keyboard-response","131","2.1.0","247644","F=YES, J=NO","f9jsp3hgx5","0","63","65","60","","","","","","","","","dramble","uncle1","pseudoword","pseudoword","j","false","",""
"null","<p style=""font-size: 50px;"">+</p>","null","html-keyboard-response","132","2.1.0","247959","F=YES, J=NO","f9jsp3hgx5","0","63","65","60","","","","","","","","","","","","","","","",""
"null","audio/beep-329314.mp3","null","audio-keyboard-response","133","2.1.0","249493","F=YES, J=NO","f9jsp3hgx5","0","63","65","60","","","","","","","","","","","","","","","",""
"null","audio/alarm1.wav","null","audio-keyboard-response","134","2.1.0","250083","F=YES, J=NO","f9jsp3hgx5","0","63","65","60","","","","","","","","","","","","","","","",""
"498","
          <p id=""word"" style=""font-size: 40px;"">lock</p>
          <p style=""font-size: 16px;"">F = YES &nbsp;&nbsp;&nbsp; J = NO</p>
        ","j","html-keyboard-response","135","2.1.0","250581","F=YES, J=NO","f9jsp3hgx5","0","63","65","60","","","","","","","","","lock","alarm1","filler","filler","f","false","",""
"null","<p style=""font-size: 50px;"">+</p>","null","html-keyboard-response","136","2.1.0","250886","F=YES, J=NO","f9jsp3hgx5","0","63","65","60","","","","","","","","","","","","","","","",""
"null","audio/beep-329314.mp3","null","audio-keyboard-response","137","2.1.0","252413","F=YES, J=NO","f9jsp3hgx5","0","63","65","60","","","","","","","","","","","","","","","",""
"null","audio/truth1.wav","null","audio-keyboard-response","138","2.1.0","252983","F=YES, J=NO","f9jsp3hgx5","0","63","65","60","","","","","","","","","","","","","","","",""
"626","
          <p id=""word"" style=""font-size: 40px;"">calitom</p>
          <p style=""font-size: 16px;"">F = YES &nbsp;&nbsp;&nbsp; J = NO</p>
        ","j","html-keyboard-response","139","2.1.0","253609","F=YES, J=NO","f9jsp3hgx5","0","63","65","60","","","","","","","","","calitom","truth1","pseudoword","pseudoword","j","true","",""
"null","<p style=""font-size: 50px;"">+</p>","null","html-keyboard-response","140","2.1.0","253924","F=YES, J=NO","f9jsp3hgx5","0","63","65","60","","","","","","","","","","","","","","","",""
"null","audio/beep-329314.mp3","null","audio-keyboard-response","141","2.1.0","255453","F=YES, J=NO","f9jsp3hgx5","0","63","65","60","","","","","","","","","","","","","","","",""
"null","audio/breath.wav","null","audio-keyboard-response","142","2.1.0","256043","F=YES, J=NO","f9jsp3hgx5","0","63","65","60","","","","","","","","","","","","","","","",""
"514","
          <p id=""word"" style=""font-size: 40px;"">twets</p>
          <p style=""font-size: 16px;"">F = YES &nbsp;&nbsp;&nbsp; J = NO</p>
        ","f","html-keyboard-response","143","2.1.0","256557","F=YES, J=NO","f9jsp3hgx5","0","63","65","60","","","","","","","","","twets","breath","pseudoword","pseudoword","j","false","",""
"null","<p style=""font-size: 50px;"">+</p>","null","html-keyboard-response","144","2.1.0","256871","F=YES, J=NO","f9jsp3hgx5","0","63","65","60","","","","","","","","","","","","","","","",""
"null","audio/beep-329314.mp3","null","audio-keyboard-response","145","2.1.0","258393","F=YES, J=NO","f9jsp3hgx5","0","63","65","60","","","","","","","","","","","","","","","",""
"null","audio/brain.wav","null","audio-keyboard-response","146","2.1.0","258883","F=YES, J=NO","f9jsp3hgx5","0","63","65","60","","","","","","","","","","","","","","","",""
"633","
          <p id=""word"" style=""font-size: 40px;"">throw</p>
          <p style=""font-size: 16px;"">F = YES &nbsp;&nbsp;&nbsp; J = NO</p>
        ","f","html-keyboard-response","147","2.1.0","259517","F=YES, J=NO","f9jsp3hgx5","0","63","65","60","","","","","","","","","throw","brain","filler","filler","f","true","",""
"null","<p style=""font-size: 50px;"">+</p>","null","html-keyboard-response","148","2.1.0","259828","F=YES, J=NO","f9jsp3hgx5","0","63","65","60","","","","","","","","","","","","","","","",""
"null","audio/beep-329314.mp3","null","audio-keyboard-response","149","2.1.0","261353","F=YES, J=NO","f9jsp3hgx5","0","63","65","60","","","","","","","","","","","","","","","",""
"null","audio/butter1.wav","null","audio-keyboard-response","150","2.1.0","261943","F=YES, J=NO","f9jsp3hgx5","0","63","65","60","","","","","","","","","","","","","","","",""
"663","
          <p id=""word"" style=""font-size: 40px;"">chew</p>
          <p style=""font-size: 16px;"">F = YES &nbsp;&nbsp;&nbsp; J = NO</p>
        ","f","html-keyboard-response","151","2.1.0","262607","F=YES, J=NO","f9jsp3hgx5","0","63","65","60","","","","","","","","","chew","butter1","filler","filler","f","true","",""
"null","<p style=""font-size: 50px;"">+</p>","null","html-keyboard-response","152","2.1.0","262910","F=YES, J=NO","f9jsp3hgx5","0","63","65","60","","","","","","","","","","","","","","","",""
"null","audio/beep-329314.mp3","null","audio-keyboard-response","153","2.1.0","264433","F=YES, J=NO","f9jsp3hgx5","0","63","65","60","","","","","","","","","","","","","","","",""
"null","audio/beach1.wav","null","audio-keyboard-response","154","2.1.0","265043","F=YES, J=NO","f9jsp3hgx5","0","63","65","60","","","","","","","","","","","","","","","",""
"483","
          <p id=""word"" style=""font-size: 40px;"">drive</p>
          <p style=""font-size: 16px;"">F = YES &nbsp;&nbsp;&nbsp; J = NO</p>
        ","f","html-keyboard-response","155","2.1.0","265527","F=YES, J=NO","f9jsp3hgx5","0","63","65","60","","","","","","","","","drive","beach1","filler","filler","f","true","",""
"null","<p style=""font-size: 50px;"">+</p>","null","html-keyboard-response","156","2.1.0","265839","F=YES, J=NO","f9jsp3hgx5","0","63","65","60","","","","","","","","","","","","","","","",""
"null","audio/beep-329314.mp3","null","audio-keyboard-response","157","2.1.0","267373","F=YES, J=NO","f9jsp3hgx5","0","63","65","60","","","","","","","","","","","","","","","",""
"null","audio/battle1.wav","null","audio-keyboard-response","158","2.1.0","267864","F=YES, J=NO","f9jsp3hgx5","0","63","65","60","","","","","","","","","","","","","","","",""
"804","
          <p id=""word"" style=""font-size: 40px;"">boil</p>
          <p style=""font-size: 16px;"">F = YES &nbsp;&nbsp;&nbsp; J = NO</p>
        ","f","html-keyboard-response","159","2.1.0","268668","F=YES, J=NO","f9jsp3hgx5","0","63","65","60","","","","","","","","","boil","battle1","filler","filler","f","true","",""
"null","<p style=""font-size: 50px;"">+</p>","null","html-keyboard-response","160","2.1.0","268969","F=YES, J=NO","f9jsp3hgx5","0","63","65","60","","","","","","","","","","","","","","","",""
"null","audio/beep-329314.mp3","null","audio-keyboard-response","161","2.1.0","270493","F=YES, J=NO","f9jsp3hgx5","0","63","65","60","","","","","","","","","","","","","","","",""
"null","audio/novel.wav","null","audio-keyboard-response","162","2.1.0","271023","F=YES, J=NO","f9jsp3hgx5","0","63","65","60","","","","","","","","","","","","","","","",""
"479","
          <p id=""word"" style=""font-size: 40px;"">type</p>
          <p style=""font-size: 16px;"">F = YES &nbsp;&nbsp;&nbsp; J = NO</p>
        ","f","html-keyboard-response","163","2.1.0","271503","F=YES, J=NO","f9jsp3hgx5","0","63","65","60","","","","","","","","","type","novel","filler","filler","f","true","",""
"1413","
    <div style=""max-width: 800px; margin: auto; text-align: left;"">
      <h2>Part 2: Main Trials</h2>
      <p>Great job on the practice trials!</p>
      <p>You will now begin the <strong>main set of trials</strong>.</p>
      <p>Remember your key assignments:</p>
      <ul>
        <li><strong>F</strong> = YES (real English word)</li>
        <li><strong>J</strong> = NO (not a real English word)</li>
      </ul>
      <p>Try to respond as <strong>quickly and accurately</strong> as possible.</p>
      <p style=""margin-top: 2em;"">Press any key to begin the main trials.</p>
    </div>
  "," ","html-keyboard-response","164","2.1.0","272917","F=YES, J=NO","f9jsp3hgx5","0","63","65","60","","","","","","","","","","","","","","","",""
"7018","<p>Starting main block 1 of 8. Press any key to continue.</p>"," ","html-keyboard-response","165","2.1.0","279935","F=YES, J=NO","f9jsp3hgx5","0","63","65","60","","","","","","","","","","","","","","","",""
"null","<p style=""font-size: 50px;"">+</p>","null","html-keyboard-response","166","2.1.0","280240","F=YES, J=NO","f9jsp3hgx5","0","63","65","60","","","","","","","","","","","","","","","",""
"null","audio/beep-329314.mp3","null","audio-keyboard-response","167","2.1.0","281773","F=YES, J=NO","f9jsp3hgx5","0","63","65","60","","","","","","","","","","","","","","","",""
"null","audio/topic.wav","null","audio-keyboard-response","168","2.1.0","282303","F=YES, J=NO","f9jsp3hgx5","0","63","65","60","","","","","","","","","","","","","","","",""
"826","
          <p id=""word"" style=""font-size: 40px;"">infortuitist</p>
          <p style=""font-size: 16px;"">F = YES &nbsp;&nbsp;&nbsp; J = NO</p>
        ","f","html-keyboard-response","169","2.1.0","283129","F=YES, J=NO","f9jsp3hgx5","0","63","65","60","","","","","","","","","infortuitist","topic","pseudoword","pseudoword","j","false","",""
"null","<p style=""font-size: 50px;"">+</p>","null","html-keyboard-response","170","2.1.0","283445","F=YES, J=NO","f9jsp3hgx5","0","63","65","60","","","","","","","","","","","","","","","",""
"null","audio/beep-329314.mp3","null","audio-keyboard-response","171","2.1.0","284973","F=YES, J=NO","f9jsp3hgx5","0","63","65","60","","","","","","","","","","","","","","","",""
"null","audio/roof1.wav","null","audio-keyboard-response","172","2.1.0","285523","F=YES, J=NO","f9jsp3hgx5","0","63","65","60","","","","","","","","","","","","","","","",""
"747","
          <p id=""word"" style=""font-size: 40px;"">wronb</p>
          <p style=""font-size: 16px;"">F = YES &nbsp;&nbsp;&nbsp; J = NO</p>
        ","j","html-keyboard-response","173","2.1.0","286271","F=YES, J=NO","f9jsp3hgx5","0","63","65","60","","","","","","","","","wronb","roof1","pseudoword","pseudoword","j","true","",""
"null","<p style=""font-size: 50px;"">+</p>","null","html-keyboard-response","174","2.1.0","286586","F=YES, J=NO","f9jsp3hgx5","0","63","65","60","","","","","","","","","","","","","","","",""
"null","audio/beep-329314.mp3","null","audio-keyboard-response","175","2.1.0","288113","F=YES, J=NO","f9jsp3hgx5","0","63","65","60","","","","","","","","","","","","","","","",""
"null","audio/noise1.wav","null","audio-keyboard-response","176","2.1.0","288723","F=YES, J=NO","f9jsp3hgx5","0","63","65","60","","","","","","","","","","","","","","","",""
"558","
          <p id=""word"" style=""font-size: 40px;"">build</p>
          <p style=""font-size: 16px;"">F = YES &nbsp;&nbsp;&nbsp; J = NO</p>
        ","f","html-keyboard-response","177","2.1.0","289282","F=YES, J=NO","f9jsp3hgx5","0","63","65","60","","","","","","","","","build","noise1","unrelated","experimental","f","true","",""
"null","<p style=""font-size: 50px;"">+</p>","null","html-keyboard-response","178","2.1.0","289591","F=YES, J=NO","f9jsp3hgx5","0","63","65","60","","","","","","","","","","","","","","","",""
"null","audio/beep-329314.mp3","null","audio-keyboard-response","179","2.1.0","291113","F=YES, J=NO","f9jsp3hgx5","0","63","65","60","","","","","","","","","","","","","","","",""
"null","audio/fence.wav","null","audio-keyboard-response","180","2.1.0","291763","F=YES, J=NO","f9jsp3hgx5","0","63","65","60","","","","","","","","","","","","","","","",""
"717","
          <p id=""word"" style=""font-size: 40px;"">trim</p>
          <p style=""font-size: 16px;"">F = YES &nbsp;&nbsp;&nbsp; J = NO</p>
        ","j","html-keyboard-response","181","2.1.0","292480","F=YES, J=NO","f9jsp3hgx5","0","63","65","60","","","","","","","","","trim","fence","filler","filler","f","false","",""
"null","<p style=""font-size: 50px;"">+</p>","null","html-keyboard-response","182","2.1.0","292793","F=YES, J=NO","f9jsp3hgx5","0","63","65","60","","","","","","","","","","","","","","","",""
"null","audio/beep-329314.mp3","null","audio-keyboard-response","183","2.1.0","294333","F=YES, J=NO","f9jsp3hgx5","0","63","65","60","","","","","","","","","","","","","","","",""
"null","audio/skin1.wav","null","audio-keyboard-response","184","2.1.0","294903","F=YES, J=NO","f9jsp3hgx5","0","63","65","60","","","","","","","","","","","","","","","",""
"634","
          <p id=""word"" style=""font-size: 40px;"">expose</p>
          <p style=""font-size: 16px;"">F = YES &nbsp;&nbsp;&nbsp; J = NO</p>
        ","f","html-keyboard-response","185","2.1.0","295537","F=YES, J=NO","f9jsp3hgx5","0","63","65","60","","","","","","","","","expose","skin1","literal","experimental","f","true","",""
"null","<p style=""font-size: 50px;"">+</p>","null","html-keyboard-response","186","2.1.0","295847","F=YES, J=NO","f9jsp3hgx5","0","63","65","60","","","","","","","","","","","","","","","",""
"null","audio/beep-329314.mp3","null","audio-keyboard-response","187","2.1.0","297373","F=YES, J=NO","f9jsp3hgx5","0","63","65","60","","","","","","","","","","","","","","","",""
"null","audio/tomato.wav","null","audio-keyboard-response","188","2.1.0","298043","F=YES, J=NO","f9jsp3hgx5","0","63","65","60","","","","","","","","","","","","","","","",""
"562","
          <p id=""word"" style=""font-size: 40px;"">gladies</p>
          <p style=""font-size: 16px;"">F = YES &nbsp;&nbsp;&nbsp; J = NO</p>
        ","f","html-keyboard-response","189","2.1.0","298606","F=YES, J=NO","f9jsp3hgx5","0","63","65","60","","","","","","","","","gladies","tomato","pseudoword","pseudoword","j","false","",""
"null","<p style=""font-size: 50px;"">+</p>","null","html-keyboard-response","190","2.1.0","298916","F=YES, J=NO","f9jsp3hgx5","0","63","65","60","","","","","","","","","","","","","","","",""
"null","audio/beep-329314.mp3","null","audio-keyboard-response","191","2.1.0","300453","F=YES, J=NO","f9jsp3hgx5","0","63","65","60","","","","","","","","","","","","","","","",""
"null","audio/mouth1.wav","null","audio-keyboard-response","192","2.1.0","301023","F=YES, J=NO","f9jsp3hgx5","0","63","65","60","","","","","","","","","","","","","","","",""
"643","
          <p id=""word"" style=""font-size: 40px;"">spolial</p>
          <p style=""font-size: 16px;"">F = YES &nbsp;&nbsp;&nbsp; J = NO</p>
        ","j","html-keyboard-response","193","2.1.0","301667","F=YES, J=NO","f9jsp3hgx5","0","63","65","60","","","","","","","","","spolial","mouth1","pseudoword","pseudoword","j","true","",""
"null","<p style=""font-size: 50px;"">+</p>","null","html-keyboard-response","194","2.1.0","301975","F=YES, J=NO","f9jsp3hgx5","0","63","65","60","","","","","","","","","","","","","","","",""
"null","audio/beep-329314.mp3","null","audio-keyboard-response","195","2.1.0","303514","F=YES, J=NO","f9jsp3hgx5","0","63","65","60","","","","","","","","","","","","","","","",""
"null","audio/plot1.wav","null","audio-keyboard-response","196","2.1.0","304063","F=YES, J=NO","f9jsp3hgx5","0","63","65","60","","","","","","","","","","","","","","","",""
"592","
          <p id=""word"" style=""font-size: 40px;"">glenter</p>
          <p style=""font-size: 16px;"">F = YES &nbsp;&nbsp;&nbsp; J = NO</p>
        ","f","html-keyboard-response","197","2.1.0","304655","F=YES, J=NO","f9jsp3hgx5","0","63","65","60","","","","","","","","","glenter","plot1","pseudoword","pseudoword","j","false","",""
"null","<p style=""font-size: 50px;"">+</p>","null","html-keyboard-response","198","2.1.0","304962","F=YES, J=NO","f9jsp3hgx5","0","63","65","60","","","","","","","","","","","","","","","",""
"null","audio/beep-329314.mp3","null","audio-keyboard-response","199","2.1.0","306494","F=YES, J=NO","f9jsp3hgx5","0","63","65","60","","","","","","","","","","","","","","","",""
"null","audio/corpse1.wav","null","audio-keyboard-response","200","2.1.0","307123","F=YES, J=NO","f9jsp3hgx5","0","63","65","60","","","","","","","","","","","","","","","",""
"491","
          <p id=""word"" style=""font-size: 40px;"">bury</p>
          <p style=""font-size: 16px;"">F = YES &nbsp;&nbsp;&nbsp; J = NO</p>
        ","f","html-keyboard-response","201","2.1.0","307615","F=YES, J=NO","f9jsp3hgx5","0","63","65","60","","","","","","","","","bury","corpse1","literal","experimental","f","true","",""
"null","<p style=""font-size: 50px;"">+</p>","null","html-keyboard-response","202","2.1.0","307928","F=YES, J=NO","f9jsp3hgx5","0","63","65","60","","","","","","","","","","","","","","","",""
"null","audio/beep-329314.mp3","null","audio-keyboard-response","203","2.1.0","309455","F=YES, J=NO","f9jsp3hgx5","0","63","65","60","","","","","","","","","","","","","","","",""
"null","audio/death1.wav","null","audio-keyboard-response","204","2.1.0","309943","F=YES, J=NO","f9jsp3hgx5","0","63","65","60","","","","","","","","","","","","","","","",""
"516","
          <p id=""word"" style=""font-size: 40px;"">conquer</p>
          <p style=""font-size: 16px;"">F = YES &nbsp;&nbsp;&nbsp; J = NO</p>
        ","f","html-keyboard-response","205","2.1.0","310460","F=YES, J=NO","f9jsp3hgx5","0","63","65","60","","","","","","","","","conquer","death1","metaphor","experimental","f","true","",""
"null","<p style=""font-size: 50px;"">+</p>","null","html-keyboard-response","206","2.1.0","310770","F=YES, J=NO","f9jsp3hgx5","0","63","65","60","","","","","","","","","","","","","","","",""
"null","audio/beep-329314.mp3","null","audio-keyboard-response","207","2.1.0","312294","F=YES, J=NO","f9jsp3hgx5","0","63","65","60","","","","","","","","","","","","","","","",""
"null","audio/ego.wav","null","audio-keyboard-response","208","2.1.0","312843","F=YES, J=NO","f9jsp3hgx5","0","63","65","60","","","","","","","","","","","","","","","",""
"655","
          <p id=""word"" style=""font-size: 40px;"">bruite</p>
          <p style=""font-size: 16px;"">F = YES &nbsp;&nbsp;&nbsp; J = NO</p>
        ","j","html-keyboard-response","209","2.1.0","313499","F=YES, J=NO","f9jsp3hgx5","0","63","65","60","","","","","","","","","bruite","ego","pseudoword","pseudoword","j","true","",""
"null","<p style=""font-size: 50px;"">+</p>","null","html-keyboard-response","210","2.1.0","313808","F=YES, J=NO","f9jsp3hgx5","0","63","65","60","","","","","","","","","","","","","","","",""
"null","audio/beep-329314.mp3","null","audio-keyboard-response","211","2.1.0","315334","F=YES, J=NO","f9jsp3hgx5","0","63","65","60","","","","","","","","","","","","","","","",""
"null","audio/demon1.wav","null","audio-keyboard-response","212","2.1.0","315823","F=YES, J=NO","f9jsp3hgx5","0","63","65","60","","","","","","","","","","","","","","","",""
"537","
          <p id=""word"" style=""font-size: 40px;"">wrestle</p>
          <p style=""font-size: 16px;"">F = YES &nbsp;&nbsp;&nbsp; J = NO</p>
        ","f","html-keyboard-response","213","2.1.0","316361","F=YES, J=NO","f9jsp3hgx5","0","63","65","60","","","","","","","","","wrestle","demon1","metaphor","experimental","f","true","",""
"null","<p style=""font-size: 50px;"">+</p>","null","html-keyboard-response","214","2.1.0","316671","F=YES, J=NO","f9jsp3hgx5","0","63","65","60","","","","","","","","","","","","","","","",""
"null","audio/beep-329314.mp3","null","audio-keyboard-response","215","2.1.0","318194","F=YES, J=NO","f9jsp3hgx5","0","63","65","60","","","","","","","","","","","","","","","",""
"null","audio/table1.wav","null","audio-keyboard-response","216","2.1.0","318683","F=YES, J=NO","f9jsp3hgx5","0","63","65","60","","","","","","","","","","","","","","","",""
"567","
          <p id=""word"" style=""font-size: 40px;"">stimb</p>
          <p style=""font-size: 16px;"">F = YES &nbsp;&nbsp;&nbsp; J = NO</p>
        ","f","html-keyboard-response","217","2.1.0","319252","F=YES, J=NO","f9jsp3hgx5","0","63","65","60","","","","","","","","","stimb","table1","pseudoword","pseudoword","j","false","",""
"null","<p style=""font-size: 50px;"">+</p>","null","html-keyboard-response","218","2.1.0","319561","F=YES, J=NO","f9jsp3hgx5","0","63","65","60","","","","","","","","","","","","","","","",""
"null","audio/beep-329314.mp3","null","audio-keyboard-response","219","2.1.0","321094","F=YES, J=NO","f9jsp3hgx5","0","63","65","60","","","","","","","","","","","","","","","",""
"null","audio/mile1.wav","null","audio-keyboard-response","220","2.1.0","321583","F=YES, J=NO","f9jsp3hgx5","0","63","65","60","","","","","","","","","","","","","","","",""
"615","
          <p id=""word"" style=""font-size: 40px;"">run</p>
          <p style=""font-size: 16px;"">F = YES &nbsp;&nbsp;&nbsp; J = NO</p>
        ","f","html-keyboard-response","221","2.1.0","322199","F=YES, J=NO","f9jsp3hgx5","0","63","65","60","","","","","","","","","run","mile1","literal","experimental","f","true","",""
"null","<p style=""font-size: 50px;"">+</p>","null","html-keyboard-response","222","2.1.0","322508","F=YES, J=NO","f9jsp3hgx5","0","63","65","60","","","","","","","","","","","","","","","",""
"null","audio/beep-329314.mp3","null","audio-keyboard-response","223","2.1.0","324035","F=YES, J=NO","f9jsp3hgx5","0","63","65","60","","","","","","","","","","","","","","","",""
"null","audio/grass.wav","null","audio-keyboard-response","224","2.1.0","324683","F=YES, J=NO","f9jsp3hgx5","0","63","65","60","","","","","","","","","","","","","","","",""
"571","
          <p id=""word"" style=""font-size: 40px;"">cut</p>
          <p style=""font-size: 16px;"">F = YES &nbsp;&nbsp;&nbsp; J = NO</p>
        ","f","html-keyboard-response","225","2.1.0","325255","F=YES, J=NO","f9jsp3hgx5","0","63","65","60","","","","","","","","","cut","grass","literal","experimental","f","true","",""
"null","<p style=""font-size: 50px;"">+</p>","null","html-keyboard-response","226","2.1.0","325571","F=YES, J=NO","f9jsp3hgx5","0","63","65","60","","","","","","","","","","","","","","","",""
"null","audio/beep-329314.mp3","null","audio-keyboard-response","227","2.1.0","327094","F=YES, J=NO","f9jsp3hgx5","0","63","65","60","","","","","","","","","","","","","","","",""
"null","audio/mind.wav","null","audio-keyboard-response","228","2.1.0","327663","F=YES, J=NO","f9jsp3hgx5","0","63","65","60","","","","","","","","","","","","","","","",""
"642","
          <p id=""word"" style=""font-size: 40px;"">crainate</p>
          <p style=""font-size: 16px;"">F = YES &nbsp;&nbsp;&nbsp; J = NO</p>
        ","j","html-keyboard-response","229","2.1.0","328307","F=YES, J=NO","f9jsp3hgx5","0","63","65","60","","","","","","","","","crainate","mind","pseudoword","pseudoword","j","true","",""
"1579","<p>Excellent! You have finished block 1 of 8.</p>
                     <p>Feel free to take a 30 second break.</p>
                     <p>Press any key when you're ready to continue.</p>"," ","html-keyboard-response","230","2.1.0","329886","F=YES, J=NO","f9jsp3hgx5","0","63","65","60","","","","","","","","","","","","","","","",""
"506","<p>Starting main block 2 of 8. Press any key to continue.</p>"," ","html-keyboard-response","231","2.1.0","330393","F=YES, J=NO","f9jsp3hgx5","0","63","65","60","","","","","","","","","","","","","","","",""
"null","<p style=""font-size: 50px;"">+</p>","null","html-keyboard-response","232","2.1.0","330699","F=YES, J=NO","f9jsp3hgx5","0","63","65","60","","","","","","","","","","","","","","","",""
"null","audio/beep-329314.mp3","null","audio-keyboard-response","233","2.1.0","332234","F=YES, J=NO","f9jsp3hgx5","0","63","65","60","","","","","","","","","","","","","","","",""
"null","audio/ship.wav","null","audio-keyboard-response","234","2.1.0","332783","F=YES, J=NO","f9jsp3hgx5","0","63","65","60","","","","","","","","","","","","","","","",""
"488","
          <p id=""word"" style=""font-size: 40px;"">scrap</p>
          <p style=""font-size: 16px;"">F = YES &nbsp;&nbsp;&nbsp; J = NO</p>
        ","f","html-keyboard-response","235","2.1.0","333273","F=YES, J=NO","f9jsp3hgx5","0","63","65","60","","","","","","","","","scrap","ship","literal","experimental","f","true","",""
"null","<p style=""font-size: 50px;"">+</p>","null","html-keyboard-response","236","2.1.0","333575","F=YES, J=NO","f9jsp3hgx5","0","63","65","60","","","","","","","","","","","","","","","",""
"null","audio/beep-329314.mp3","null","audio-keyboard-response","237","2.1.0","335114","F=YES, J=NO","f9jsp3hgx5","0","63","65","60","","","","","","","","","","","","","","","",""
"null","audio/bridge.wav","null","audio-keyboard-response","238","2.1.0","335663","F=YES, J=NO","f9jsp3hgx5","0","63","65","60","","","","","","","","","","","","","","","",""
"642","
          <p id=""word"" style=""font-size: 40px;"">crack</p>
          <p style=""font-size: 16px;"">F = YES &nbsp;&nbsp;&nbsp; J = NO</p>
        ","f","html-keyboard-response","239","2.1.0","336306","F=YES, J=NO","f9jsp3hgx5","0","63","65","60","","","","","","","","","crack","bridge","filler","filler","f","true","",""
"null","<p style=""font-size: 50px;"">+</p>","null","html-keyboard-response","240","2.1.0","336611","F=YES, J=NO","f9jsp3hgx5","0","63","65","60","","","","","","","","","","","","","","","",""
"null","audio/beep-329314.mp3","null","audio-keyboard-response","241","2.1.0","338134","F=YES, J=NO","f9jsp3hgx5","0","63","65","60","","","","","","","","","","","","","","","",""
"null","audio/tunnel.wav","null","audio-keyboard-response","242","2.1.0","338563","F=YES, J=NO","f9jsp3hgx5","0","63","65","60","","","","","","","","","","","","","","","",""
"518","
          <p id=""word"" style=""font-size: 40px;"">gred</p>
          <p style=""font-size: 16px;"">F = YES &nbsp;&nbsp;&nbsp; J = NO</p>
        ","f","html-keyboard-response","243","2.1.0","339083","F=YES, J=NO","f9jsp3hgx5","0","63","65","60","","","","","","","","","gred","tunnel","pseudoword","pseudoword","j","false","",""
"null","<p style=""font-size: 50px;"">+</p>","null","html-keyboard-response","244","2.1.0","339397","F=YES, J=NO","f9jsp3hgx5","0","63","65","60","","","","","","","","","","","","","","","",""
"null","audio/beep-329314.mp3","null","audio-keyboard-response","245","2.1.0","340933","F=YES, J=NO","f9jsp3hgx5","0","63","65","60","","","","","","","","","","","","","","","",""
"null","audio/plot1.wav","null","audio-keyboard-response","246","2.1.0","341463","F=YES, J=NO","f9jsp3hgx5","0","63","65","60","","","","","","","","","","","","","","","",""
"664","
          <p id=""word"" style=""font-size: 40px;"">weave</p>
          <p style=""font-size: 16px;"">F = YES &nbsp;&nbsp;&nbsp; J = NO</p>
        ","f","html-keyboard-response","247","2.1.0","342128","F=YES, J=NO","f9jsp3hgx5","0","63","65","60","","","","","","","","","weave","plot1","metaphor","experimental","f","true","",""
"null","<p style=""font-size: 50px;"">+</p>","null","html-keyboard-response","248","2.1.0","342433","F=YES, J=NO","f9jsp3hgx5","0","63","65","60","","","","","","","","","","","","","","","",""
"null","audio/beep-329314.mp3","null","audio-keyboard-response","249","2.1.0","343974","F=YES, J=NO","f9jsp3hgx5","0","63","65","60","","","","","","","","","","","","","","","",""
"null","audio/storm1.wav","null","audio-keyboard-response","250","2.1.0","344585","F=YES, J=NO","f9jsp3hgx5","0","63","65","60","","","","","","","","","","","","","","","",""
"541","
          <p id=""word"" style=""font-size: 40px;"">climb</p>
          <p style=""font-size: 16px;"">F = YES &nbsp;&nbsp;&nbsp; J = NO</p>
        ","f","html-keyboard-response","251","2.1.0","345126","F=YES, J=NO","f9jsp3hgx5","0","63","65","60","","","","","","","","","climb","storm1","unrelated","experimental","f","true","",""
"null","<p style=""font-size: 50px;"">+</p>","null","html-keyboard-response","252","2.1.0","345433","F=YES, J=NO","f9jsp3hgx5","0","63","65","60","","","","","","","","","","","","","","","",""
"null","audio/beep-329314.mp3","null","audio-keyboard-response","253","2.1.0","346974","F=YES, J=NO","f9jsp3hgx5","0","63","65","60","","","","","","","","","","","","","","","",""
"null","audio/pattern.wav","null","audio-keyboard-response","254","2.1.0","347503","F=YES, J=NO","f9jsp3hgx5","0","63","65","60","","","","","","","","","","","","","","","",""
"536","
          <p id=""word"" style=""font-size: 40px;"">defeat</p>
          <p style=""font-size: 16px;"">F = YES &nbsp;&nbsp;&nbsp; J = NO</p>
        ","f","html-keyboard-response","255","2.1.0","348040","F=YES, J=NO","f9jsp3hgx5","0","63","65","60","","","","","","","","","defeat","pattern","unrelated","experimental","f","true","",""
"null","<p style=""font-size: 50px;"">+</p>","null","html-keyboard-response","256","2.1.0","348345","F=YES, J=NO","f9jsp3hgx5","0","63","65","60","","","","","","","","","","","","","","","",""
"null","audio/beep-329314.mp3","null","audio-keyboard-response","257","2.1.0","349874","F=YES, J=NO","f9jsp3hgx5","0","63","65","60","","","","","","","","","","","","","","","",""
"null","audio/arm.wav","null","audio-keyboard-response","258","2.1.0","350424","F=YES, J=NO","f9jsp3hgx5","0","63","65","60","","","","","","","","","","","","","","","",""
"695","
          <p id=""word"" style=""font-size: 40px;"">seize</p>
          <p style=""font-size: 16px;"">F = YES &nbsp;&nbsp;&nbsp; J = NO</p>
        ","j","html-keyboard-response","259","2.1.0","351120","F=YES, J=NO","f9jsp3hgx5","0","63","65","60","","","","","","","","","seize","arm","literal","experimental","f","false","",""
"null","<p style=""font-size: 50px;"">+</p>","null","html-keyboard-response","260","2.1.0","351431","F=YES, J=NO","f9jsp3hgx5","0","63","65","60","","","","","","","","","","","","","","","",""
"null","audio/beep-329314.mp3","null","audio-keyboard-response","261","2.1.0","352953","F=YES, J=NO","f9jsp3hgx5","0","63","65","60","","","","","","","","","","","","","","","",""
"null","audio/sugar1.wav","null","audio-keyboard-response","262","2.1.0","353443","F=YES, J=NO","f9jsp3hgx5","0","63","65","60","","","","","","","","","","","","","","","",""
"755","
          <p id=""word"" style=""font-size: 40px;"">approach</p>
          <p style=""font-size: 16px;"">F = YES &nbsp;&nbsp;&nbsp; J = NO</p>
        ","f","html-keyboard-response","263","2.1.0","354199","F=YES, J=NO","f9jsp3hgx5","0","63","65","60","","","","","","","","","approach","sugar1","unrelated","experimental","f","true","",""
"null","<p style=""font-size: 50px;"">+</p>","null","html-keyboard-response","264","2.1.0","354508","F=YES, J=NO","f9jsp3hgx5","0","63","65","60","","","","","","","","","","","","","","","",""
"null","audio/beep-329314.mp3","null","audio-keyboard-response","265","2.1.0","356034","F=YES, J=NO","f9jsp3hgx5","0","63","65","60","","","","","","","","","","","","","","","",""
"null","audio/menu.wav","null","audio-keyboard-response","266","2.1.0","356624","F=YES, J=NO","f9jsp3hgx5","0","63","65","60","","","","","","","","","","","","","","","",""
"533","
          <p id=""word"" style=""font-size: 40px;"">navigate</p>
          <p style=""font-size: 16px;"">F = YES &nbsp;&nbsp;&nbsp; J = NO</p>
        ","f","html-keyboard-response","267","2.1.0","357157","F=YES, J=NO","f9jsp3hgx5","0","63","65","60","","","","","","","","","navigate","menu","metaphor","experimental","f","true","",""
"null","<p style=""font-size: 50px;"">+</p>","null","html-keyboard-response","268","2.1.0","357463","F=YES, J=NO","f9jsp3hgx5","0","63","65","60","","","","","","","","","","","","","","","",""
"null","audio/beep-329314.mp3","null","audio-keyboard-response","269","2.1.0","358994","F=YES, J=NO","f9jsp3hgx5","0","63","65","60","","","","","","","","","","","","","","","",""
"null","audio/dollar.wav","null","audio-keyboard-response","270","2.1.0","359383","F=YES, J=NO","f9jsp3hgx5","0","63","65","60","","","","","","","","","","","","","","","",""
"620","
          <p id=""word"" style=""font-size: 40px;"">gliptism</p>
          <p style=""font-size: 16px;"">F = YES &nbsp;&nbsp;&nbsp; J = NO</p>
        ","j","html-keyboard-response","271","2.1.0","360003","F=YES, J=NO","f9jsp3hgx5","0","63","65","60","","","","","","","","","gliptism","dollar","pseudoword","pseudoword","j","true","",""
"null","<p style=""font-size: 50px;"">+</p>","null","html-keyboard-response","272","2.1.0","360308","F=YES, J=NO","f9jsp3hgx5","0","63","65","60","","","","","","","","","","","","","","","",""
"null","audio/beep-329314.mp3","null","audio-keyboard-response","273","2.1.0","361833","F=YES, J=NO","f9jsp3hgx5","0","63","65","60","","","","","","","","","","","","","","","",""
"null","audio/menu.wav","null","audio-keyboard-response","274","2.1.0","362383","F=YES, J=NO","f9jsp3hgx5","0","63","65","60","","","","","","","","","","","","","","","",""
"584","
          <p id=""word"" style=""font-size: 40px;"">slice</p>
          <p style=""font-size: 16px;"">F = YES &nbsp;&nbsp;&nbsp; J = NO</p>
        ","f","html-keyboard-response","275","2.1.0","362968","F=YES, J=NO","f9jsp3hgx5","0","63","65","60","","","","","","","","","slice","menu","filler","filler","f","true","",""
"null","<p style=""font-size: 50px;"">+</p>","null","html-keyboard-response","276","2.1.0","363272","F=YES, J=NO","f9jsp3hgx5","0","63","65","60","","","","","","","","","","","","","","","",""
"null","audio/beep-329314.mp3","null","audio-keyboard-response","277","2.1.0","364793","F=YES, J=NO","f9jsp3hgx5","0","63","65","60","","","","","","","","","","","","","","","",""
"null","audio/foe1.wav","null","audio-keyboard-response","278","2.1.0","365303","F=YES, J=NO","f9jsp3hgx5","0","63","65","60","","","","","","","","","","","","","","","",""
"681","
          <p id=""word"" style=""font-size: 40px;"">creth</p>
          <p style=""font-size: 16px;"">F = YES &nbsp;&nbsp;&nbsp; J = NO</p>
        ","j","html-keyboard-response","279","2.1.0","365984","F=YES, J=NO","f9jsp3hgx5","0","63","65","60","","","","","","","","","creth","foe1","pseudoword","pseudoword","j","true","",""
"null","<p style=""font-size: 50px;"">+</p>","null","html-keyboard-response","280","2.1.0","366292","F=YES, J=NO","f9jsp3hgx5","0","63","65","60","","","","","","","","","","","","","","","",""
"null","audio/beep-329314.mp3","null","audio-keyboard-response","281","2.1.0","367814","F=YES, J=NO","f9jsp3hgx5","0","63","65","60","","","","","","","","","","","","","","","",""
"null","audio/alarm1.wav","null","audio-keyboard-response","282","2.1.0","368383","F=YES, J=NO","f9jsp3hgx5","0","63","65","60","","","","","","","","","","","","","","","",""
"474","
          <p id=""word"" style=""font-size: 40px;"">save</p>
          <p style=""font-size: 16px;"">F = YES &nbsp;&nbsp;&nbsp; J = NO</p>
        ","f","html-keyboard-response","283","2.1.0","368858","F=YES, J=NO","f9jsp3hgx5","0","63","65","60","","","","","","","","","save","alarm1","unrelated","experimental","f","true","",""
"null","<p style=""font-size: 50px;"">+</p>","null","html-keyboard-response","284","2.1.0","369164","F=YES, J=NO","f9jsp3hgx5","0","63","65","60","","","","","","","","","","","","","","","",""
"null","audio/beep-329314.mp3","null","audio-keyboard-response","285","2.1.0","370693","F=YES, J=NO","f9jsp3hgx5","0","63","65","60","","","","","","","","","","","","","","","",""
"null","audio/haste1.wav","null","audio-keyboard-response","286","2.1.0","371264","F=YES, J=NO","f9jsp3hgx5","0","63","65","60","","","","","","","","","","","","","","","",""
"485","
          <p id=""word"" style=""font-size: 40px;"">hide</p>
          <p style=""font-size: 16px;"">F = YES &nbsp;&nbsp;&nbsp; J = NO</p>
        ","f","html-keyboard-response","287","2.1.0","371749","F=YES, J=NO","f9jsp3hgx5","0","63","65","60","","","","","","","","","hide","haste1","unrelated","experimental","f","true","",""
"null","<p style=""font-size: 50px;"">+</p>","null","html-keyboard-response","288","2.1.0","372053","F=YES, J=NO","f9jsp3hgx5","0","63","65","60","","","","","","","","","","","","","","","",""
"null","audio/beep-329314.mp3","null","audio-keyboard-response","289","2.1.0","373594","F=YES, J=NO","f9jsp3hgx5","0","63","65","60","","","","","","","","","","","","","","","",""
"null","audio/goal.wav","null","audio-keyboard-response","290","2.1.0","374003","F=YES, J=NO","f9jsp3hgx5","0","63","65","60","","","","","","","","","","","","","","","",""
"523","
          <p id=""word"" style=""font-size: 40px;"">support</p>
          <p style=""font-size: 16px;"">F = YES &nbsp;&nbsp;&nbsp; J = NO</p>
        ","f","html-keyboard-response","291","2.1.0","374526","F=YES, J=NO","f9jsp3hgx5","0","63","65","60","","","","","","","","","support","goal","metaphor","experimental","f","true","",""
"null","<p style=""font-size: 50px;"">+</p>","null","html-keyboard-response","292","2.1.0","374835","F=YES, J=NO","f9jsp3hgx5","0","63","65","60","","","","","","","","","","","","","","","",""
"null","audio/beep-329314.mp3","null","audio-keyboard-response","293","2.1.0","376374","F=YES, J=NO","f9jsp3hgx5","0","63","65","60","","","","","","","","","","","","","","","",""
"null","audio/test1.wav","null","audio-keyboard-response","294","2.1.0","376943","F=YES, J=NO","f9jsp3hgx5","0","63","65","60","","","","","","","","","","","","","","","",""
"587","
          <p id=""word"" style=""font-size: 40px;"">twopch</p>
          <p style=""font-size: 16px;"">F = YES &nbsp;&nbsp;&nbsp; J = NO</p>
        ","j","html-keyboard-response","295","2.1.0","377531","F=YES, J=NO","f9jsp3hgx5","0","63","65","60","","","","","","","","","twopch","test1","pseudoword","pseudoword","j","true","",""
"747","<p>Excellent! You have finished block 2 of 8.</p>
                     <p>Feel free to take a 30 second break.</p>
                     <p>Press any key when you're ready to continue.</p>"," ","html-keyboard-response","296","2.1.0","378278","F=YES, J=NO","f9jsp3hgx5","0","63","65","60","","","","","","","","","","","","","","","",""
"507","<p>Starting main block 3 of 8. Press any key to continue.</p>"," ","html-keyboard-response","297","2.1.0","378786","F=YES, J=NO","f9jsp3hgx5","0","63","65","60","","","","","","","","","","","","","","","",""
"null","<p style=""font-size: 50px;"">+</p>","null","html-keyboard-response","298","2.1.0","379089","F=YES, J=NO","f9jsp3hgx5","0","63","65","60","","","","","","","","","","","","","","","",""
"null","audio/beep-329314.mp3","null","audio-keyboard-response","299","2.1.0","380613","F=YES, J=NO","f9jsp3hgx5","0","63","65","60","","","","","","","","","","","","","","","",""
"null","audio/flaw.wav","null","audio-keyboard-response","300","2.1.0","381244","F=YES, J=NO","f9jsp3hgx5","0","63","65","60","","","","","","","","","","","","","","","",""
"530","
          <p id=""word"" style=""font-size: 40px;"">thwool</p>
          <p style=""font-size: 16px;"">F = YES &nbsp;&nbsp;&nbsp; J = NO</p>
        ","j","html-keyboard-response","301","2.1.0","381774","F=YES, J=NO","f9jsp3hgx5","0","63","65","60","","","","","","","","","thwool","flaw","pseudoword","pseudoword","j","true","",""
"null","<p style=""font-size: 50px;"">+</p>","null","html-keyboard-response","302","2.1.0","382088","F=YES, J=NO","f9jsp3hgx5","0","63","65","60","","","","","","","","","","","","","","","",""
"null","audio/beep-329314.mp3","null","audio-keyboard-response","303","2.1.0","383613","F=YES, J=NO","f9jsp3hgx5","0","63","65","60","","","","","","","","","","","","","","","",""
"null","audio/weight1.wav","null","audio-keyboard-response","304","2.1.0","384143","F=YES, J=NO","f9jsp3hgx5","0","63","65","60","","","","","","","","","","","","","","","",""
"617","
          <p id=""word"" style=""font-size: 40px;"">crimsh</p>
          <p style=""font-size: 16px;"">F = YES &nbsp;&nbsp;&nbsp; J = NO</p>
        ","j","html-keyboard-response","305","2.1.0","384761","F=YES, J=NO","f9jsp3hgx5","0","63","65","60","","","","","","","","","crimsh","weight1","pseudoword","pseudoword","j","true","",""
"null","<p style=""font-size: 50px;"">+</p>","null","html-keyboard-response","306","2.1.0","385072","F=YES, J=NO","f9jsp3hgx5","0","63","65","60","","","","","","","","","","","","","","","",""
"null","audio/beep-329314.mp3","null","audio-keyboard-response","307","2.1.0","386593","F=YES, J=NO","f9jsp3hgx5","0","63","65","60","","","","","","","","","","","","","","","",""
"null","audio/haste1.wav","null","audio-keyboard-response","308","2.1.0","387143","F=YES, J=NO","f9jsp3hgx5","0","63","65","60","","","","","","","","","","","","","","","",""
"641","
          <p id=""word"" style=""font-size: 40px;"">coraconate</p>
          <p style=""font-size: 16px;"">F = YES &nbsp;&nbsp;&nbsp; J = NO</p>
        ","j","html-keyboard-response","309","2.1.0","387785","F=YES, J=NO","f9jsp3hgx5","0","63","65","60","","","","","","","","","coraconate","haste1","pseudoword","pseudoword","j","true","",""
"null","<p style=""font-size: 50px;"">+</p>","null","html-keyboard-response","310","2.1.0","388090","F=YES, J=NO","f9jsp3hgx5","0","63","65","60","","","","","","","","","","","","","","","",""
"null","audio/beep-329314.mp3","null","audio-keyboard-response","311","2.1.0","389614","F=YES, J=NO","f9jsp3hgx5","0","63","65","60","","","","","","","","","","","","","","","",""
"null","audio/fortune1.wav","null","audio-keyboard-response","312","2.1.0","390383","F=YES, J=NO","f9jsp3hgx5","0","63","65","60","","","","","","","","","","","","","","","",""
"541","
          <p id=""word"" style=""font-size: 40px;"">spend</p>
          <p style=""font-size: 16px;"">F = YES &nbsp;&nbsp;&nbsp; J = NO</p>
        ","f","html-keyboard-response","313","2.1.0","390925","F=YES, J=NO","f9jsp3hgx5","0","63","65","60","","","","","","","","","spend","fortune1","literal","experimental","f","true","",""
"null","<p style=""font-size: 50px;"">+</p>","null","html-keyboard-response","314","2.1.0","391241","F=YES, J=NO","f9jsp3hgx5","0","63","65","60","","","","","","","","","","","","","","","",""
"null","audio/beep-329314.mp3","null","audio-keyboard-response","315","2.1.0","392774","F=YES, J=NO","f9jsp3hgx5","0","63","65","60","","","","","","","","","","","","","","","",""
"null","audio/show.wav","null","audio-keyboard-response","316","2.1.0","393324","F=YES, J=NO","f9jsp3hgx5","0","63","65","60","","","","","","","","","","","","","","","",""
"544","
          <p id=""word"" style=""font-size: 40px;"">smark</p>
          <p style=""font-size: 16px;"">F = YES &nbsp;&nbsp;&nbsp; J = NO</p>
        ","j","html-keyboard-response","317","2.1.0","393868","F=YES, J=NO","f9jsp3hgx5","0","63","65","60","","","","","","","","","smark","show","pseudoword","pseudoword","j","true","",""
"null","<p style=""font-size: 50px;"">+</p>","null","html-keyboard-response","318","2.1.0","394170","F=YES, J=NO","f9jsp3hgx5","0","63","65","60","","","","","","","","","","","","","","","",""
"null","audio/beep-329314.mp3","null","audio-keyboard-response","319","2.1.0","395694","F=YES, J=NO","f9jsp3hgx5","0","63","65","60","","","","","","","","","","","","","","","",""
"null","audio/scar.wav","null","audio-keyboard-response","320","2.1.0","396283","F=YES, J=NO","f9jsp3hgx5","0","63","65","60","","","","","","","","","","","","","","","",""
"737","
          <p id=""word"" style=""font-size: 40px;"">adelineate</p>
          <p style=""font-size: 16px;"">F = YES &nbsp;&nbsp;&nbsp; J = NO</p>
        ","f","html-keyboard-response","321","2.1.0","397021","F=YES, J=NO","f9jsp3hgx5","0","63","65","60","","","","","","","","","adelineate","scar","pseudoword","pseudoword","j","false","",""
"null","<p style=""font-size: 50px;"">+</p>","null","html-keyboard-response","322","2.1.0","397336","F=YES, J=NO","f9jsp3hgx5","0","63","65","60","","","","","","","","","","","","","","","",""
"null","audio/beep-329314.mp3","null","audio-keyboard-response","323","2.1.0","398873","F=YES, J=NO","f9jsp3hgx5","0","63","65","60","","","","","","","","","","","","","","","",""
"null","audio/trust.wav","null","audio-keyboard-response","324","2.1.0","399503","F=YES, J=NO","f9jsp3hgx5","0","63","65","60","","","","","","","","","","","","","","","",""
"660","
          <p id=""word"" style=""font-size: 40px;"">swint</p>
          <p style=""font-size: 16px;"">F = YES &nbsp;&nbsp;&nbsp; J = NO</p>
        ","j","html-keyboard-response","325","2.1.0","400163","F=YES, J=NO","f9jsp3hgx5","0","63","65","60","","","","","","","","","swint","trust","pseudoword","pseudoword","j","true","",""
"null","<p style=""font-size: 50px;"">+</p>","null","html-keyboard-response","326","2.1.0","400469","F=YES, J=NO","f9jsp3hgx5","0","63","65","60","","","","","","","","","","","","","","","",""
"null","audio/beep-329314.mp3","null","audio-keyboard-response","327","2.1.0","401993","F=YES, J=NO","f9jsp3hgx5","0","63","65","60","","","","","","","","","","","","","","","",""
"null","audio/corpse1.wav","null","audio-keyboard-response","328","2.1.0","402603","F=YES, J=NO","f9jsp3hgx5","0","63","65","60","","","","","","","","","","","","","","","",""
"695","
          <p id=""word"" style=""font-size: 40px;"">glonet</p>
          <p style=""font-size: 16px;"">F = YES &nbsp;&nbsp;&nbsp; J = NO</p>
        ","j","html-keyboard-response","329","2.1.0","403299","F=YES, J=NO","f9jsp3hgx5","0","63","65","60","","","","","","","","","glonet","corpse1","pseudoword","pseudoword","j","true","",""
"null","<p style=""font-size: 50px;"">+</p>","null","html-keyboard-response","330","2.1.0","403600","F=YES, J=NO","f9jsp3hgx5","0","63","65","60","","","","","","","","","","","","","","","",""
"null","audio/beep-329314.mp3","null","audio-keyboard-response","331","2.1.0","405134","F=YES, J=NO","f9jsp3hgx5","0","63","65","60","","","","","","","","","","","","","","","",""
"null","audio/plane1.wav","null","audio-keyboard-response","332","2.1.0","405583","F=YES, J=NO","f9jsp3hgx5","0","63","65","60","","","","","","","","","","","","","","","",""
"590","
          <p id=""word"" style=""font-size: 40px;"">land</p>
          <p style=""font-size: 16px;"">F = YES &nbsp;&nbsp;&nbsp; J = NO</p>
        ","f","html-keyboard-response","333","2.1.0","406173","F=YES, J=NO","f9jsp3hgx5","0","63","65","60","","","","","","","","","land","plane1","literal","experimental","f","true","",""
"null","<p style=""font-size: 50px;"">+</p>","null","html-keyboard-response","334","2.1.0","406475","F=YES, J=NO","f9jsp3hgx5","0","63","65","60","","","","","","","","","","","","","","","",""
"null","audio/beep-329314.mp3","null","audio-keyboard-response","335","2.1.0","408013","F=YES, J=NO","f9jsp3hgx5","0","63","65","60","","","","","","","","","","","","","","","",""
"null","audio/theory1.wav","null","audio-keyboard-response","336","2.1.0","408683","F=YES, J=NO","f9jsp3hgx5","0","63","65","60","","","","","","","","","","","","","","","",""
"653","
          <p id=""word"" style=""font-size: 40px;"">scolve</p>
          <p style=""font-size: 16px;"">F = YES &nbsp;&nbsp;&nbsp; J = NO</p>
        ","j","html-keyboard-response","337","2.1.0","409337","F=YES, J=NO","f9jsp3hgx5","0","63","65","60","","","","","","","","","scolve","theory1","pseudoword","pseudoword","j","true","",""
"null","<p style=""font-size: 50px;"">+</p>","null","html-keyboard-response","338","2.1.0","409647","F=YES, J=NO","f9jsp3hgx5","0","63","65","60","","","","","","","","","","","","","","","",""
"null","audio/beep-329314.mp3","null","audio-keyboard-response","339","2.1.0","411174","F=YES, J=NO","f9jsp3hgx5","0","63","65","60","","","","","","","","","","","","","","","",""
"null","audio/arm.wav","null","audio-keyboard-response","340","2.1.0","411703","F=YES, J=NO","f9jsp3hgx5","0","63","65","60","","","","","","","","","","","","","","","",""
"605","
          <p id=""word"" style=""font-size: 40px;"">pigne</p>
          <p style=""font-size: 16px;"">F = YES &nbsp;&nbsp;&nbsp; J = NO</p>
        ","j","html-keyboard-response","341","2.1.0","412308","F=YES, J=NO","f9jsp3hgx5","0","63","65","60","","","","","","","","","pigne","arm","pseudoword","pseudoword","j","true","",""
"null","<p style=""font-size: 50px;"">+</p>","null","html-keyboard-response","342","2.1.0","412621","F=YES, J=NO","f9jsp3hgx5","0","63","65","60","","","","","","","","","","","","","","","",""
"null","audio/beep-329314.mp3","null","audio-keyboard-response","343","2.1.0","414154","F=YES, J=NO","f9jsp3hgx5","0","63","65","60","","","","","","","","","","","","","","","",""
"null","audio/purpose.wav","null","audio-keyboard-response","344","2.1.0","414824","F=YES, J=NO","f9jsp3hgx5","0","63","65","60","","","","","","","","","","","","","","","",""
"671","
          <p id=""word"" style=""font-size: 40px;"">whigm</p>
          <p style=""font-size: 16px;"">F = YES &nbsp;&nbsp;&nbsp; J = NO</p>
        ","j","html-keyboard-response","345","2.1.0","415495","F=YES, J=NO","f9jsp3hgx5","0","63","65","60","","","","","","","","","whigm","purpose","pseudoword","pseudoword","j","true","",""
"null","<p style=""font-size: 50px;"">+</p>","null","html-keyboard-response","346","2.1.0","415808","F=YES, J=NO","f9jsp3hgx5","0","63","65","60","","","","","","","","","","","","","","","",""
"null","audio/beep-329314.mp3","null","audio-keyboard-response","347","2.1.0","417334","F=YES, J=NO","f9jsp3hgx5","0","63","65","60","","","","","","","","","","","","","","","",""
"null","audio/sand.wav","null","audio-keyboard-response","348","2.1.0","417983","F=YES, J=NO","f9jsp3hgx5","0","63","65","60","","","","","","","","","","","","","","","",""
"568","
          <p id=""word"" style=""font-size: 40px;"">proted</p>
          <p style=""font-size: 16px;"">F = YES &nbsp;&nbsp;&nbsp; J = NO</p>
        ","f","html-keyboard-response","349","2.1.0","418552","F=YES, J=NO","f9jsp3hgx5","0","63","65","60","","","","","","","","","proted","sand","pseudoword","pseudoword","j","false","",""
"null","<p style=""font-size: 50px;"">+</p>","null","html-keyboard-response","350","2.1.0","418858","F=YES, J=NO","f9jsp3hgx5","0","63","65","60","","","","","","","","","","","","","","","",""
"null","audio/beep-329314.mp3","null","audio-keyboard-response","351","2.1.0","420393","F=YES, J=NO","f9jsp3hgx5","0","63","65","60","","","","","","","","","","","","","","","",""
"null","audio/mile1.wav","null","audio-keyboard-response","352","2.1.0","420863","F=YES, J=NO","f9jsp3hgx5","0","63","65","60","","","","","","","","","","","","","","","",""
"634","
          <p id=""word"" style=""font-size: 40px;"">writch</p>
          <p style=""font-size: 16px;"">F = YES &nbsp;&nbsp;&nbsp; J = NO</p>
        ","j","html-keyboard-response","353","2.1.0","421498","F=YES, J=NO","f9jsp3hgx5","0","63","65","60","","","","","","","","","writch","mile1","pseudoword","pseudoword","j","true","",""
"null","<p style=""font-size: 50px;"">+</p>","null","html-keyboard-response","354","2.1.0","421802","F=YES, J=NO","f9jsp3hgx5","0","63","65","60","","","","","","","","","","","","","","","",""
"null","audio/beep-329314.mp3","null","audio-keyboard-response","355","2.1.0","423334","F=YES, J=NO","f9jsp3hgx5","0","63","65","60","","","","","","","","","","","","","","","",""
"null","audio/key1.wav","null","audio-keyboard-response","356","2.1.0","423703","F=YES, J=NO","f9jsp3hgx5","0","63","65","60","","","","","","","","","","","","","","","",""
"527","
          <p id=""word"" style=""font-size: 40px;"">lose</p>
          <p style=""font-size: 16px;"">F = YES &nbsp;&nbsp;&nbsp; J = NO</p>
        ","f","html-keyboard-response","357","2.1.0","424231","F=YES, J=NO","f9jsp3hgx5","0","63","65","60","","","","","","","","","lose","key1","literal","experimental","f","true","",""
"null","<p style=""font-size: 50px;"">+</p>","null","html-keyboard-response","358","2.1.0","424539","F=YES, J=NO","f9jsp3hgx5","0","63","65","60","","","","","","","","","","","","","","","",""
"null","audio/beep-329314.mp3","null","audio-keyboard-response","359","2.1.0","426073","F=YES, J=NO","f9jsp3hgx5","0","63","65","60","","","","","","","","","","","","","","","",""
"null","audio/case1.wav","null","audio-keyboard-response","360","2.1.0","426584","F=YES, J=NO","f9jsp3hgx5","0","63","65","60","","","","","","","","","","","","","","","",""
"530","
          <p id=""word"" style=""font-size: 40px;"">close</p>
          <p style=""font-size: 16px;"">F = YES &nbsp;&nbsp;&nbsp; J = NO</p>
        ","f","html-keyboard-response","361","2.1.0","427114","F=YES, J=NO","f9jsp3hgx5","0","63","65","60","","","","","","","","","close","case1","metaphor","experimental","f","true","",""
"764","<p>Excellent! You have finished block 3 of 8.</p>
                     <p>Feel free to take a 30 second break.</p>
                     <p>Press any key when you're ready to continue.</p>"," ","html-keyboard-response","362","2.1.0","427878","F=YES, J=NO","f9jsp3hgx5","0","63","65","60","","","","","","","","","","","","","","","",""
"364","<p>Starting main block 4 of 8. Press any key to continue.</p>"," ","html-keyboard-response","363","2.1.0","428243","F=YES, J=NO","f9jsp3hgx5","0","63","65","60","","","","","","","","","","","","","","","",""
"null","<p style=""font-size: 50px;"">+</p>","null","html-keyboard-response","364","2.1.0","428551","F=YES, J=NO","f9jsp3hgx5","0","63","65","60","","","","","","","","","","","","","","","",""
"null","audio/beep-329314.mp3","null","audio-keyboard-response","365","2.1.0","430073","F=YES, J=NO","f9jsp3hgx5","0","63","65","60","","","","","","","","","","","","","","","",""
"null","audio/fear.wav","null","audio-keyboard-response","366","2.1.0","430603","F=YES, J=NO","f9jsp3hgx5","0","63","65","60","","","","","","","","","","","","","","","",""
"667","
          <p id=""word"" style=""font-size: 40px;"">spread</p>
          <p style=""font-size: 16px;"">F = YES &nbsp;&nbsp;&nbsp; J = NO</p>
        ","j","html-keyboard-response","367","2.1.0","431271","F=YES, J=NO","f9jsp3hgx5","0","63","65","60","","","","","","","","","spread","fear","metaphor","experimental","f","false","",""
"null","<p style=""font-size: 50px;"">+</p>","null","html-keyboard-response","368","2.1.0","431577","F=YES, J=NO","f9jsp3hgx5","0","63","65","60","","","","","","","","","","","","","","","",""
"null","audio/beep-329314.mp3","null","audio-keyboard-response","369","2.1.0","433113","F=YES, J=NO","f9jsp3hgx5","0","63","65","60","","","","","","","","","","","","","","","",""
"null","audio/bottle.wav","null","audio-keyboard-response","370","2.1.0","433583","F=YES, J=NO","f9jsp3hgx5","0","63","65","60","","","","","","","","","","","","","","","",""
"470","
          <p id=""word"" style=""font-size: 40px;"">watch</p>
          <p style=""font-size: 16px;"">F = YES &nbsp;&nbsp;&nbsp; J = NO</p>
        ","f","html-keyboard-response","371","2.1.0","434054","F=YES, J=NO","f9jsp3hgx5","0","63","65","60","","","","","","","","","watch","bottle","filler","filler","f","true","",""
"null","<p style=""font-size: 50px;"">+</p>","null","html-keyboard-response","372","2.1.0","434363","F=YES, J=NO","f9jsp3hgx5","0","63","65","60","","","","","","","","","","","","","","","",""
"null","audio/beep-329314.mp3","null","audio-keyboard-response","373","2.1.0","435893","F=YES, J=NO","f9jsp3hgx5","0","63","65","60","","","","","","","","","","","","","","","",""
"null","audio/age1.wav","null","audio-keyboard-response","374","2.1.0","436443","F=YES, J=NO","f9jsp3hgx5","0","63","65","60","","","","","","","","","","","","","","","",""
"546","
          <p id=""word"" style=""font-size: 40px;"">lachry</p>
          <p style=""font-size: 16px;"">F = YES &nbsp;&nbsp;&nbsp; J = NO</p>
        ","j","html-keyboard-response","375","2.1.0","436990","F=YES, J=NO","f9jsp3hgx5","0","63","65","60","","","","","","","","","lachry","age1","pseudoword","pseudoword","j","true","",""
"null","<p style=""font-size: 50px;"">+</p>","null","html-keyboard-response","376","2.1.0","437294","F=YES, J=NO","f9jsp3hgx5","0","63","65","60","","","","","","","","","","","","","","","",""
"null","audio/beep-329314.mp3","null","audio-keyboard-response","377","2.1.0","438834","F=YES, J=NO","f9jsp3hgx5","0","63","65","60","","","","","","","","","","","","","","","",""
"null","audio/breath.wav","null","audio-keyboard-response","378","2.1.0","439383","F=YES, J=NO","f9jsp3hgx5","0","63","65","60","","","","","","","","","","","","","","","",""
"490","
          <p id=""word"" style=""font-size: 40px;"">pack</p>
          <p style=""font-size: 16px;"">F = YES &nbsp;&nbsp;&nbsp; J = NO</p>
        ","f","html-keyboard-response","379","2.1.0","439874","F=YES, J=NO","f9jsp3hgx5","0","63","65","60","","","","","","","","","pack","breath","filler","filler","f","true","",""
"null","<p style=""font-size: 50px;"">+</p>","null","html-keyboard-response","380","2.1.0","440187","F=YES, J=NO","f9jsp3hgx5","0","63","65","60","","","","","","","","","","","","","","","",""
"null","audio/beep-329314.mp3","null","audio-keyboard-response","381","2.1.0","441713","F=YES, J=NO","f9jsp3hgx5","0","63","65","60","","","","","","","","","","","","","","","",""
"null","audio/tax1.wav","null","audio-keyboard-response","382","2.1.0","442323","F=YES, J=NO","f9jsp3hgx5","0","63","65","60","","","","","","","","","","","","","","","",""
"504","
          <p id=""word"" style=""font-size: 40px;"">snate</p>
          <p style=""font-size: 16px;"">F = YES &nbsp;&nbsp;&nbsp; J = NO</p>
        ","j","html-keyboard-response","383","2.1.0","442829","F=YES, J=NO","f9jsp3hgx5","0","63","65","60","","","","","","","","","snate","tax1","pseudoword","pseudoword","j","true","",""
"null","<p style=""font-size: 50px;"">+</p>","null","html-keyboard-response","384","2.1.0","443137","F=YES, J=NO","f9jsp3hgx5","0","63","65","60","","","","","","","","","","","","","","","",""
"null","audio/beep-329314.mp3","null","audio-keyboard-response","385","2.1.0","444673","F=YES, J=NO","f9jsp3hgx5","0","63","65","60","","","","","","","","","","","","","","","",""
"null","audio/winter.wav","null","audio-keyboard-response","386","2.1.0","445243","F=YES, J=NO","f9jsp3hgx5","0","63","65","60","","","","","","","","","","","","","","","",""
"726","
          <p id=""word"" style=""font-size: 40px;"">straven</p>
          <p style=""font-size: 16px;"">F = YES &nbsp;&nbsp;&nbsp; J = NO</p>
        ","f","html-keyboard-response","387","2.1.0","445970","F=YES, J=NO","f9jsp3hgx5","0","63","65","60","","","","","","","","","straven","winter","pseudoword","pseudoword","j","false","",""
"null","<p style=""font-size: 50px;"">+</p>","null","html-keyboard-response","388","2.1.0","446272","F=YES, J=NO","f9jsp3hgx5","0","63","65","60","","","","","","","","","","","","","","","",""
"null","audio/beep-329314.mp3","null","audio-keyboard-response","389","2.1.0","447793","F=YES, J=NO","f9jsp3hgx5","0","63","65","60","","","","","","","","","","","","","","","",""
"null","audio/planet1.wav","null","audio-keyboard-response","390","2.1.0","448383","F=YES, J=NO","f9jsp3hgx5","0","63","65","60","","","","","","","","","","","","","","","",""
"562","
          <p id=""word"" style=""font-size: 40px;"">cratched</p>
          <p style=""font-size: 16px;"">F = YES &nbsp;&nbsp;&nbsp; J = NO</p>
        ","f","html-keyboard-response","391","2.1.0","448946","F=YES, J=NO","f9jsp3hgx5","0","63","65","60","","","","","","","","","cratched","planet1","pseudoword","pseudoword","j","false","",""
