"rt","stimulus","response","trial_type","trial_index","plugin_version","time_elapsed","response_mapping","subject_id","list_index","lextale_score","lextale_word_score","lextale_nonword_score","success","timeout","failed_images","failed_audio","failed_video","task","isWord","isDummy","target","prime","prime_type","stimulus_type","correct_response","correct","section","question_order"
"63717","
    <div style=""max-width: 800px; margin: auto; text-align: left;"">
      <h2>STANFORD UNIVERSITY</h2>
      <h3>Research Information Sheet</h3>
      <p><strong>Protocol Director:</strong> Robert Hawkins<br>
      <strong>Protocol Title:</strong> Communication and social cognition in natural audiovisual contexts<br>
      <strong>IRB#:</strong> 77226</p>

      <p><strong>DESCRIPTION:</strong> You are invited to participate in a research study about language and communication. The purpose of the research is to understand how you interact and communicate with other people in naturalistic settings as a fluent English speaker. This research will be conducted through the Prolific platform, including participants from the US, UK, and Canada. If you decide to participate in this research, you will play a communication game in a group with one or more partners.</p>

      <p><strong>TIME INVOLVEMENT:</strong> The task will last the amount of time advertised on Prolific. You are free to withdraw from the study at any time.</p>

      <p><strong>RISKS AND BENEFITS:</strong> You may become frustrated if your partner gets distracted, or experience discomfort if other participants in your group send text that is inappropriate for the task. We ask you to please be respectful of other participants you might be interacting with to mitigate these risks. You may also experience discomfort when being asked to discuss or challenge emotionally salient political beliefs. Study data will be stored securely, in compliance with Stanford University standards, minimizing the risk of confidentiality breach. This study advances our scientific understanding of how people communicate and collaborate in naturalistic settings. This study may lead to further insights about what can go wrong in teamwork, suggest potential interventions to overcome these barriers, and help to develop assistive technologies that collaborate with human partners. We cannot and do not guarantee or promise that you will receive any benefits from this study.</p>

      <p><strong>PAYMENTS:</strong> You will receive payment in the amount advertised on Prolific. If you do not complete this study, you will receive prorated payment based on the time that you have spent. Additionally, you may be eligible for bonus payments as described in the instructions.</p>

      <p><strong>PARTICIPANT’S RIGHTS:</strong> If you have read this form and have decided to participate in this project, please understand your participation is voluntary and you have the right to withdraw your consent or discontinue participation at any time without penalty or loss of benefits to which you are otherwise entitled. The alternative is not to participate. You have the right to refuse to answer particular questions. The results of this research study may be presented at scientific or professional meetings or published in scientific journals. Your individual privacy will be maintained in all published and written data resulting from the study. In accordance with scientific norms, the data from this study may be used or shared with other researchers for future research (after removing personally identifying information) without additional consent from you.</p>

      <p><strong>CONTACT INFORMATION:</strong><br>
      Questions: If you have any questions, concerns or complaints about this research, its procedures, risks and benefits, contact the Protocol Director, Robert Hawkins (<a href=""mailto:rdhawkins@stanford.edu"">rdhawkins@stanford.edu</a>, 217-549-6923).<br>
      Independent Contact: If you are not satisfied with how this study is being conducted, or if you have any concerns, complaints, or general questions about the research or your rights as a participant, please contact the Stanford Institutional Review Board (IRB) to speak to someone independent of the research team at 650-723-2480 or toll free at 1-866-680-2906, or email at <a href=""mailto:irbnon-med@stanford.edu"">irbnon-med@stanford.edu</a>. You can also write to the Stanford IRB, Stanford University, 1705 El Camino Real, Palo Alto, CA 94306.</p>

      <p><strong>Please save or print a copy of this page for your records.</strong></p>
      <p>If you agree to participate in this research, click ""Continue"" below.</p>
    </div>
  ","0","html-button-response","0","2.1.0","63726","F=YES, J=NO","fmc6plj7nj","2","60","55","65","","","","","","","","","","","","","","","",""
"39690","
    <div style=""max-width: 800px; margin: auto; text-align: left;"">
      <h2>Welcome!</h2>
      <p>Thank you for participating in this study. The experiment consists of three parts:</p>
      <ol>
        <li>An English vocabulary test</li>
        <li>A main task in which you will hear and see words, and decide whether the written word is a real English word</li>
        <li>A brief survey about your background</li>
      </ol>
      <p>Each part will be introduced before it begins.</p>
      <p>Please make sure you are in a quiet environment and can hear audio clearly for the final task.</p>
      <p style=""margin-top: 2em;"">Press any key to begin.</p>
    </div>
  ","Enter","html-keyboard-response","1","2.1.0","103417","F=YES, J=NO","fmc6plj7nj","2","60","55","65","","","","","","","","","","","","","","","",""
"","","","preload","2","2.1.0","105268","F=YES, J=NO","fmc6plj7nj","2","60","55","65","true","false","[]","[]","[]","","","","","","","","","","",""
"11220","
    <div style=""max-width: 800px; margin: auto; text-align: left;"">
      <h2>Part 1: Vocabulary Test</h2>
      <p>You will now complete the first part of the study: a short English vocabulary test.</p>
      <p>This test is called <strong>LexTALE</strong> and helps us get a general sense of your English proficiency.</p>
      <p style=""margin-top: 2em;"">Press any key to continue.</p>
    </div>
  ","Enter","html-keyboard-response","3","2.1.0","116489","F=YES, J=NO","fmc6plj7nj","2","60","55","65","","","","","","","","","","","","","","","",""
"26193","
    <div style=""max-width: 800px; margin: auto; text-align: left;"">
      <h2>LexTALE Vocabulary Test</h2>
      <p>In this test, you will see a series of letter strings—one at a time.</p>
      <p>Your task is to decide whether each string is a real English word.</p>
      <p><strong>Key responses:</strong></p>
      <ul>
        <li><strong>F</strong> = YES (real English word)</li>
        <li><strong>J</strong> = NO (not a real English word)</li>
      </ul>
      <p>There is no time limit, but please try to be accurate.</p>
      <p style=""margin-top: 2em;"">Press any key to begin.</p>
    </div>
  "," ","html-keyboard-response","4","2.1.0","142683","F=YES, J=NO","fmc6plj7nj","2","60","55","65","","","","","","","","","","","","","","","",""
"5523","
  <p style=""font-size: 40px;"">platery</p>
  <p style=""font-size: 16px;"">F = YES &nbsp;&nbsp;&nbsp; J = NO</p>
","f","html-keyboard-response","5","2.1.0","148207","F=YES, J=NO","fmc6plj7nj","2","60","55","65","","","","","","lextale","false","true","","","","","","","",""
"1565","
  <p style=""font-size: 40px;"">denial</p>
  <p style=""font-size: 16px;"">F = YES &nbsp;&nbsp;&nbsp; J = NO</p>
","f","html-keyboard-response","6","2.1.0","149773","F=YES, J=NO","fmc6plj7nj","2","60","55","65","","","","","","lextale","true","true","","","","","","","",""
"2971","
  <p style=""font-size: 40px;"">marrit</p>
  <p style=""font-size: 16px;"">F = YES &nbsp;&nbsp;&nbsp; J = NO</p>
","j","html-keyboard-response","7","2.1.0","152745","F=YES, J=NO","fmc6plj7nj","2","60","55","65","","","","","","lextale","false","true","","","","","","","",""
"1330","
  <p style=""font-size: 40px;"">bottle</p>
  <p style=""font-size: 16px;"">F = YES &nbsp;&nbsp;&nbsp; J = NO</p>
","f","html-keyboard-response","8","2.1.0","154076","F=YES, J=NO","fmc6plj7nj","2","60","55","65","","","","","","lextale","true","false","","","","","","","",""
"1165","
  <p style=""font-size: 40px;"">birst</p>
  <p style=""font-size: 16px;"">F = YES &nbsp;&nbsp;&nbsp; J = NO</p>
","j","html-keyboard-response","9","2.1.0","155242","F=YES, J=NO","fmc6plj7nj","2","60","55","65","","","","","","lextale","false","false","","","","","","","",""
"909","
  <p style=""font-size: 40px;"">envy</p>
  <p style=""font-size: 16px;"">F = YES &nbsp;&nbsp;&nbsp; J = NO</p>
","f","html-keyboard-response","10","2.1.0","156152","F=YES, J=NO","fmc6plj7nj","2","60","55","65","","","","","","lextale","true","false","","","","","","","",""
"1610","
  <p style=""font-size: 40px;"">brang</p>
  <p style=""font-size: 16px;"">F = YES &nbsp;&nbsp;&nbsp; J = NO</p>
","f","html-keyboard-response","11","2.1.0","157763","F=YES, J=NO","fmc6plj7nj","2","60","55","65","","","","","","lextale","false","false","","","","","","","",""
"760","
  <p style=""font-size: 40px;"">huge</p>
  <p style=""font-size: 16px;"">F = YES &nbsp;&nbsp;&nbsp; J = NO</p>
","f","html-keyboard-response","12","2.1.0","158524","F=YES, J=NO","fmc6plj7nj","2","60","55","65","","","","","","lextale","true","false","","","","","","","",""
"959","
  <p style=""font-size: 40px;"">plove</p>
  <p style=""font-size: 16px;"">F = YES &nbsp;&nbsp;&nbsp; J = NO</p>
","j","html-keyboard-response","13","2.1.0","159484","F=YES, J=NO","fmc6plj7nj","2","60","55","65","","","","","","lextale","false","false","","","","","","","",""
"1080","
  <p style=""font-size: 40px;"">border</p>
  <p style=""font-size: 16px;"">F = YES &nbsp;&nbsp;&nbsp; J = NO</p>
","f","html-keyboard-response","14","2.1.0","160565","F=YES, J=NO","fmc6plj7nj","2","60","55","65","","","","","","lextale","true","false","","","","","","","",""
"1099","
  <p style=""font-size: 40px;"">flimsy</p>
  <p style=""font-size: 16px;"">F = YES &nbsp;&nbsp;&nbsp; J = NO</p>
","j","html-keyboard-response","15","2.1.0","161665","F=YES, J=NO","fmc6plj7nj","2","60","55","65","","","","","","lextale","true","false","","","","","","","",""
"1035","
  <p style=""font-size: 40px;"">drain</p>
  <p style=""font-size: 16px;"">F = YES &nbsp;&nbsp;&nbsp; J = NO</p>
","f","html-keyboard-response","16","2.1.0","162701","F=YES, J=NO","fmc6plj7nj","2","60","55","65","","","","","","lextale","true","false","","","","","","","",""
"1525","
  <p style=""font-size: 40px;"">twindle</p>
  <p style=""font-size: 16px;"">F = YES &nbsp;&nbsp;&nbsp; J = NO</p>
","j","html-keyboard-response","17","2.1.0","164227","F=YES, J=NO","fmc6plj7nj","2","60","55","65","","","","","","lextale","false","false","","","","","","","",""
"1145","
  <p style=""font-size: 40px;"">propose</p>
  <p style=""font-size: 16px;"">F = YES &nbsp;&nbsp;&nbsp; J = NO</p>
","f","html-keyboard-response","18","2.1.0","165373","F=YES, J=NO","fmc6plj7nj","2","60","55","65","","","","","","lextale","true","false","","","","","","","",""
"2115","
  <p style=""font-size: 40px;"">forlay</p>
  <p style=""font-size: 16px;"">F = YES &nbsp;&nbsp;&nbsp; J = NO</p>
","j","html-keyboard-response","19","2.1.0","167489","F=YES, J=NO","fmc6plj7nj","2","60","55","65","","","","","","lextale","false","false","","","","","","","",""
"2630","
  <p style=""font-size: 40px;"">tenant</p>
  <p style=""font-size: 16px;"">F = YES &nbsp;&nbsp;&nbsp; J = NO</p>
","j","html-keyboard-response","20","2.1.0","170120","F=YES, J=NO","fmc6plj7nj","2","60","55","65","","","","","","lextale","true","false","","","","","","","",""
"935","
  <p style=""font-size: 40px;"">strain</p>
  <p style=""font-size: 16px;"">F = YES &nbsp;&nbsp;&nbsp; J = NO</p>
","f","html-keyboard-response","21","2.1.0","171056","F=YES, J=NO","fmc6plj7nj","2","60","55","65","","","","","","lextale","true","false","","","","","","","",""
"1215","
  <p style=""font-size: 40px;"">holster</p>
  <p style=""font-size: 16px;"">F = YES &nbsp;&nbsp;&nbsp; J = NO</p>
","j","html-keyboard-response","22","2.1.0","172272","F=YES, J=NO","fmc6plj7nj","2","60","55","65","","","","","","lextale","true","false","","","","","","","",""
"1259","
  <p style=""font-size: 40px;"">hinder</p>
  <p style=""font-size: 16px;"">F = YES &nbsp;&nbsp;&nbsp; J = NO</p>
","j","html-keyboard-response","23","2.1.0","173532","F=YES, J=NO","fmc6plj7nj","2","60","55","65","","","","","","lextale","true","false","","","","","","","",""
"1360","
  <p style=""font-size: 40px;"">swindle</p>
  <p style=""font-size: 16px;"">F = YES &nbsp;&nbsp;&nbsp; J = NO</p>
","j","html-keyboard-response","24","2.1.0","174893","F=YES, J=NO","fmc6plj7nj","2","60","55","65","","","","","","lextale","true","false","","","","","","","",""
"1315","
  <p style=""font-size: 40px;"">nuder</p>
  <p style=""font-size: 16px;"">F = YES &nbsp;&nbsp;&nbsp; J = NO</p>
","f","html-keyboard-response","25","2.1.0","176209","F=YES, J=NO","fmc6plj7nj","2","60","55","65","","","","","","lextale","false","false","","","","","","","",""
"1039","
  <p style=""font-size: 40px;"">pillow</p>
  <p style=""font-size: 16px;"">F = YES &nbsp;&nbsp;&nbsp; J = NO</p>
","f","html-keyboard-response","26","2.1.0","177249","F=YES, J=NO","fmc6plj7nj","2","60","55","65","","","","","","lextale","true","false","","","","","","","",""
"2651","
  <p style=""font-size: 40px;"">shumble</p>
  <p style=""font-size: 16px;"">F = YES &nbsp;&nbsp;&nbsp; J = NO</p>
","f","html-keyboard-response","27","2.1.0","179901","F=YES, J=NO","fmc6plj7nj","2","60","55","65","","","","","","lextale","false","false","","","","","","","",""
"1130","
  <p style=""font-size: 40px;"">thirst</p>
  <p style=""font-size: 16px;"">F = YES &nbsp;&nbsp;&nbsp; J = NO</p>
","f","html-keyboard-response","28","2.1.0","181032","F=YES, J=NO","fmc6plj7nj","2","60","55","65","","","","","","lextale","true","false","","","","","","","",""
"2795","
  <p style=""font-size: 40px;"">unsail</p>
  <p style=""font-size: 16px;"">F = YES &nbsp;&nbsp;&nbsp; J = NO</p>
","f","html-keyboard-response","29","2.1.0","183828","F=YES, J=NO","fmc6plj7nj","2","60","55","65","","","","","","lextale","false","false","","","","","","","",""
"1525","
  <p style=""font-size: 40px;"">rifle</p>
  <p style=""font-size: 16px;"">F = YES &nbsp;&nbsp;&nbsp; J = NO</p>
","f","html-keyboard-response","30","2.1.0","185354","F=YES, J=NO","fmc6plj7nj","2","60","55","65","","","","","","lextale","true","false","","","","","","","",""
"1030","
  <p style=""font-size: 40px;"">mush</p>
  <p style=""font-size: 16px;"">F = YES &nbsp;&nbsp;&nbsp; J = NO</p>
","j","html-keyboard-response","31","2.1.0","186385","F=YES, J=NO","fmc6plj7nj","2","60","55","65","","","","","","lextale","false","false","","","","","","","",""
"2300","
  <p style=""font-size: 40px;"">drench</p>
  <p style=""font-size: 16px;"">F = YES &nbsp;&nbsp;&nbsp; J = NO</p>
","j","html-keyboard-response","32","2.1.0","188686","F=YES, J=NO","fmc6plj7nj","2","60","55","65","","","","","","lextale","true","false","","","","","","","",""
"1055","
  <p style=""font-size: 40px;"">snirt</p>
  <p style=""font-size: 16px;"">F = YES &nbsp;&nbsp;&nbsp; J = NO</p>
","j","html-keyboard-response","33","2.1.0","189742","F=YES, J=NO","fmc6plj7nj","2","60","55","65","","","","","","lextale","false","false","","","","","","","",""
"964","
  <p style=""font-size: 40px;"">bitter</p>
  <p style=""font-size: 16px;"">F = YES &nbsp;&nbsp;&nbsp; J = NO</p>
","f","html-keyboard-response","34","2.1.0","190707","F=YES, J=NO","fmc6plj7nj","2","60","55","65","","","","","","lextale","true","false","","","","","","","",""
"1280","
  <p style=""font-size: 40px;"">pliff</p>
  <p style=""font-size: 16px;"">F = YES &nbsp;&nbsp;&nbsp; J = NO</p>
","j","html-keyboard-response","35","2.1.0","191988","F=YES, J=NO","fmc6plj7nj","2","60","55","65","","","","","","lextale","false","false","","","","","","","",""
"900","
  <p style=""font-size: 40px;"">tablet</p>
  <p style=""font-size: 16px;"">F = YES &nbsp;&nbsp;&nbsp; J = NO</p>
","f","html-keyboard-response","36","2.1.0","192889","F=YES, J=NO","fmc6plj7nj","2","60","55","65","","","","","","lextale","true","false","","","","","","","",""
"3105","
  <p style=""font-size: 40px;"">glimmer</p>
  <p style=""font-size: 16px;"">F = YES &nbsp;&nbsp;&nbsp; J = NO</p>
","j","html-keyboard-response","37","2.1.0","195995","F=YES, J=NO","fmc6plj7nj","2","60","55","65","","","","","","lextale","true","false","","","","","","","",""
"1290","
  <p style=""font-size: 40px;"">slink</p>
  <p style=""font-size: 16px;"">F = YES &nbsp;&nbsp;&nbsp; J = NO</p>
","f","html-keyboard-response","38","2.1.0","197286","F=YES, J=NO","fmc6plj7nj","2","60","55","65","","","","","","lextale","true","false","","","","","","","",""
"960","
  <p style=""font-size: 40px;"">clever</p>
  <p style=""font-size: 16px;"">F = YES &nbsp;&nbsp;&nbsp; J = NO</p>
","f","html-keyboard-response","39","2.1.0","198247","F=YES, J=NO","fmc6plj7nj","2","60","55","65","","","","","","lextale","true","false","","","","","","","",""
"1229","
  <p style=""font-size: 40px;"">grum</p>
  <p style=""font-size: 16px;"">F = YES &nbsp;&nbsp;&nbsp; J = NO</p>
","f","html-keyboard-response","40","2.1.0","199477","F=YES, J=NO","fmc6plj7nj","2","60","55","65","","","","","","lextale","false","false","","","","","","","",""
"2081","
  <p style=""font-size: 40px;"">string</p>
  <p style=""font-size: 16px;"">F = YES &nbsp;&nbsp;&nbsp; J = NO</p>
","f","html-keyboard-response","41","2.1.0","201559","F=YES, J=NO","fmc6plj7nj","2","60","55","65","","","","","","lextale","true","false","","","","","","","",""
"1404","
  <p style=""font-size: 40px;"">plim</p>
  <p style=""font-size: 16px;"">F = YES &nbsp;&nbsp;&nbsp; J = NO</p>
","j","html-keyboard-response","42","2.1.0","202964","F=YES, J=NO","fmc6plj7nj","2","60","55","65","","","","","","lextale","false","false","","","","","","","",""
"700","
  <p style=""font-size: 40px;"">cable</p>
  <p style=""font-size: 16px;"">F = YES &nbsp;&nbsp;&nbsp; J = NO</p>
","f","html-keyboard-response","43","2.1.0","203665","F=YES, J=NO","fmc6plj7nj","2","60","55","65","","","","","","lextale","true","false","","","","","","","",""
"1170","
  <p style=""font-size: 40px;"">shrivel</p>
  <p style=""font-size: 16px;"">F = YES &nbsp;&nbsp;&nbsp; J = NO</p>
","j","html-keyboard-response","44","2.1.0","204836","F=YES, J=NO","fmc6plj7nj","2","60","55","65","","","","","","lextale","true","false","","","","","","","",""
"1154","
  <p style=""font-size: 40px;"">tarnish</p>
  <p style=""font-size: 16px;"">F = YES &nbsp;&nbsp;&nbsp; J = NO</p>
","j","html-keyboard-response","45","2.1.0","205991","F=YES, J=NO","fmc6plj7nj","2","60","55","65","","","","","","lextale","true","false","","","","","","","",""
"1305","
  <p style=""font-size: 40px;"">blim</p>
  <p style=""font-size: 16px;"">F = YES &nbsp;&nbsp;&nbsp; J = NO</p>
","j","html-keyboard-response","46","2.1.0","207297","F=YES, J=NO","fmc6plj7nj","2","60","55","65","","","","","","lextale","false","false","","","","","","","",""
"1120","
  <p style=""font-size: 40px;"">stifle</p>
  <p style=""font-size: 16px;"">F = YES &nbsp;&nbsp;&nbsp; J = NO</p>
","j","html-keyboard-response","47","2.1.0","208418","F=YES, J=NO","fmc6plj7nj","2","60","55","65","","","","","","lextale","true","false","","","","","","","",""
"1074","
  <p style=""font-size: 40px;"">bint</p>
  <p style=""font-size: 16px;"">F = YES &nbsp;&nbsp;&nbsp; J = NO</p>
","j","html-keyboard-response","48","2.1.0","209493","F=YES, J=NO","fmc6plj7nj","2","60","55","65","","","","","","lextale","false","false","","","","","","","",""
"800","
  <p style=""font-size: 40px;"">purple</p>
  <p style=""font-size: 16px;"">F = YES &nbsp;&nbsp;&nbsp; J = NO</p>
","f","html-keyboard-response","49","2.1.0","210294","F=YES, J=NO","fmc6plj7nj","2","60","55","65","","","","","","lextale","true","false","","","","","","","",""
"3025","
  <p style=""font-size: 40px;"">wriggle</p>
  <p style=""font-size: 16px;"">F = YES &nbsp;&nbsp;&nbsp; J = NO</p>
","j","html-keyboard-response","50","2.1.0","213320","F=YES, J=NO","fmc6plj7nj","2","60","55","65","","","","","","lextale","true","false","","","","","","","",""
"1470","
  <p style=""font-size: 40px;"">mangle</p>
  <p style=""font-size: 16px;"">F = YES &nbsp;&nbsp;&nbsp; J = NO</p>
","j","html-keyboard-response","51","2.1.0","214791","F=YES, J=NO","fmc6plj7nj","2","60","55","65","","","","","","lextale","true","false","","","","","","","",""
"1225","
  <p style=""font-size: 40px;"">shramp</p>
  <p style=""font-size: 16px;"">F = YES &nbsp;&nbsp;&nbsp; J = NO</p>
","f","html-keyboard-response","52","2.1.0","216017","F=YES, J=NO","fmc6plj7nj","2","60","55","65","","","","","","lextale","false","false","","","","","","","",""
"2591","
  <p style=""font-size: 40px;"">flirt</p>
  <p style=""font-size: 16px;"">F = YES &nbsp;&nbsp;&nbsp; J = NO</p>
","f","html-keyboard-response","53","2.1.0","218609","F=YES, J=NO","fmc6plj7nj","2","60","55","65","","","","","","lextale","true","false","","","","","","","",""
"1124","
  <p style=""font-size: 40px;"">frip</p>
  <p style=""font-size: 16px;"">F = YES &nbsp;&nbsp;&nbsp; J = NO</p>
","j","html-keyboard-response","54","2.1.0","219734","F=YES, J=NO","fmc6plj7nj","2","60","55","65","","","","","","lextale","false","false","","","","","","","",""
"1035","
  <p style=""font-size: 40px;"">tangle</p>
  <p style=""font-size: 16px;"">F = YES &nbsp;&nbsp;&nbsp; J = NO</p>
","f","html-keyboard-response","55","2.1.0","220770","F=YES, J=NO","fmc6plj7nj","2","60","55","65","","","","","","lextale","true","false","","","","","","","",""
"2395","
  <p style=""font-size: 40px;"">crumble</p>
  <p style=""font-size: 16px;"">F = YES &nbsp;&nbsp;&nbsp; J = NO</p>
","f","html-keyboard-response","56","2.1.0","223166","F=YES, J=NO","fmc6plj7nj","2","60","55","65","","","","","","lextale","true","false","","","","","","","",""
"5257","
  <p style=""font-size: 40px;"">wrinkle</p>
  <p style=""font-size: 16px;"">F = YES &nbsp;&nbsp;&nbsp; J = NO</p>
","f","html-keyboard-response","57","2.1.0","228424","F=YES, J=NO","fmc6plj7nj","2","60","55","65","","","","","","lextale","true","false","","","","","","","",""
"951","
  <p style=""font-size: 40px;"">slumb</p>
  <p style=""font-size: 16px;"">F = YES &nbsp;&nbsp;&nbsp; J = NO</p>
","j","html-keyboard-response","58","2.1.0","229375","F=YES, J=NO","fmc6plj7nj","2","60","55","65","","","","","","lextale","false","false","","","","","","","",""
"669","
  <p style=""font-size: 40px;"">jungle</p>
  <p style=""font-size: 16px;"">F = YES &nbsp;&nbsp;&nbsp; J = NO</p>
","f","html-keyboard-response","59","2.1.0","230045","F=YES, J=NO","fmc6plj7nj","2","60","55","65","","","","","","lextale","true","false","","","","","","","",""
"1185","
  <p style=""font-size: 40px;"">frolick</p>
  <p style=""font-size: 16px;"">F = YES &nbsp;&nbsp;&nbsp; J = NO</p>
","j","html-keyboard-response","60","2.1.0","231231","F=YES, J=NO","fmc6plj7nj","2","60","55","65","","","","","","lextale","false","false","","","","","","","",""
"3311","
      <h2>LexTALE Test Completed</h2>
      <p>Your LexTALE vocabulary score is: <strong>60%</strong></p>
      <p>Press any key to continue.</p>
    "," ","html-keyboard-response","61","2.1.0","234543","F=YES, J=NO","fmc6plj7nj","2","60","55","65","","","","","","","","","","","","","","","",""
"6913","
    <div style=""max-width: 800px; margin: auto; text-align: left;"">
      <h2>Break Time</h2>
      <p>You have completed the first part of the study.</p>
      <p>You may take a short <strong>30-second break</strong> before continuing.</p>
      <p>When you’re ready, press any key to continue to the final task.</p>
    </div>
  "," ","html-keyboard-response","62","2.1.0","241457","F=YES, J=NO","fmc6plj7nj","2","60","55","65","","","","","","","","","","","","","","","",""
"30597","
    <div style=""max-width: 800px; margin: auto; text-align: left;"">
      <h2>Part 2: Lexical Decision Task</h2>
      <p>You will now begin the second part of the study.</p>
      <p>Each trial will follow this sequence:</p>
      <ul>
        <li>A fixation cross (+) appears at the center of the screen.</li>
        <li>You will hear a short beep followed by a spoken word.</li>
        <li>A written word will appear briefly on the screen.</li>
      </ul>
      <p>Your task is to judge whether the <strong>written word</strong> is a real English word.</p>
      <p style=""margin-top: 1em;""><strong>Key responses:</strong></p>
      <ul>
        <li><strong>F</strong> = YES (real English word)</li>
        <li><strong>J</strong> = NO (not a real English word)</li>
      </ul>
      <p>Please respond as quickly and accurately as you can.</p>
      <p style=""margin-top: 2em;"">Press any key to continue.</p>
    </div>
  "," ","html-keyboard-response","63","2.1.0","272056","F=YES, J=NO","fmc6plj7nj","2","60","55","65","","","","","","","","","","","","","","","",""
"39232","
    <div style=""max-width: 800px; margin: auto; text-align: left;"">
      <h2>Before You Begin</h2>
      <p>Make sure your sound is turned on.</p>
      <p>You will hear audio during each trial, but your decision should be based only on the <strong>written word</strong> you see on the screen.</p>
      <p><strong>Reminder:</strong></p>
      <ul>
        <li><strong>F</strong> = YES (real English word)</li>
        <li><strong>J</strong> = NO (not a real English word)</li>
      </ul>
      <p style=""margin-top: 2em;"">Press any key when you are ready to begin.</p>
    </div>
  "," ","html-keyboard-response","64","2.1.0","311288","F=YES, J=NO","fmc6plj7nj","2","60","55","65","","","","","","","","","","","","","","","",""
"4711","
    <div style=""max-width: 800px; margin: auto; text-align: left;"">
      <h2>Part 2: Practice Trials</h2>
      <p>You will now complete a few <strong>practice trials</strong> to get familiar with the task.</p>
      <p>These trials are <strong>not scored</strong> and are only to help you get used to the format.</p>
      <p style=""margin-top: 2em;"">Press any key to begin.</p>
    </div>
  "," ","html-keyboard-response","65","2.1.0","316000","F=YES, J=NO","fmc6plj7nj","2","60","55","65","","","","","","","","","","","","","","","",""
"1375","<p>Starting practice block 1 of 2. Press any key to continue.</p>"," ","html-keyboard-response","66","2.1.0","317376","F=YES, J=NO","fmc6plj7nj","2","60","55","65","","","","","","","","","","","","","","","",""
"null","<p style=""font-size: 50px;"">+</p>","null","html-keyboard-response","67","2.1.0","317677","F=YES, J=NO","fmc6plj7nj","2","60","55","65","","","","","","","","","","","","","","","",""
"null","audio/beep-329314.mp3","null","audio-keyboard-response","68","2.1.0","319227","F=YES, J=NO","fmc6plj7nj","2","60","55","65","","","","","","","","","","","","","","","",""
"null","audio/cinema1.wav","null","audio-keyboard-response","69","2.1.0","319997","F=YES, J=NO","fmc6plj7nj","2","60","55","65","","","","","","","","","","","","","","","",""
"null","
          <p id=""word"" style=""font-size: 40px;"">murple</p>
          <p style=""font-size: 16px;"">F = YES &nbsp;&nbsp;&nbsp; J = NO</p>
        ","null","html-keyboard-response","70","2.1.0","321507","F=YES, J=NO","fmc6plj7nj","2","60","55","65","","","","","","","","","murple","cinema1","pseudoword","pseudoword","j","false","",""
"null","<p style=""font-size: 50px;"">+</p>","null","html-keyboard-response","71","2.1.0","321810","F=YES, J=NO","fmc6plj7nj","2","60","55","65","","","","","","","","","","","","","","","",""
"null","audio/beep-329314.mp3","null","audio-keyboard-response","72","2.1.0","323347","F=YES, J=NO","fmc6plj7nj","2","60","55","65","","","","","","","","","","","","","","","",""
"null","audio/budget1.wav","null","audio-keyboard-response","73","2.1.0","323997","F=YES, J=NO","fmc6plj7nj","2","60","55","65","","","","","","","","","","","","","","","",""
"1078","
          <p id=""word"" style=""font-size: 40px;"">sulist</p>
          <p style=""font-size: 16px;"">F = YES &nbsp;&nbsp;&nbsp; J = NO</p>
        ","j","html-keyboard-response","74","2.1.0","325076","F=YES, J=NO","fmc6plj7nj","2","60","55","65","","","","","","","","","sulist","budget1","pseudoword","pseudoword","j","true","",""
"null","<p style=""font-size: 50px;"">+</p>","null","html-keyboard-response","75","2.1.0","325382","F=YES, J=NO","fmc6plj7nj","2","60","55","65","","","","","","","","","","","","","","","",""
"null","audio/beep-329314.mp3","null","audio-keyboard-response","76","2.1.0","326907","F=YES, J=NO","fmc6plj7nj","2","60","55","65","","","","","","","","","","","","","","","",""
"null","audio/gossip1.wav","null","audio-keyboard-response","77","2.1.0","327577","F=YES, J=NO","fmc6plj7nj","2","60","55","65","","","","","","","","","","","","","","","",""
"766","
          <p id=""word"" style=""font-size: 40px;"">camerish</p>
          <p style=""font-size: 16px;"">F = YES &nbsp;&nbsp;&nbsp; J = NO</p>
        ","j","html-keyboard-response","78","2.1.0","328343","F=YES, J=NO","fmc6plj7nj","2","60","55","65","","","","","","","","","camerish","gossip1","pseudoword","pseudoword","j","true","",""
"null","<p style=""font-size: 50px;"">+</p>","null","html-keyboard-response","79","2.1.0","328652","F=YES, J=NO","fmc6plj7nj","2","60","55","65","","","","","","","","","","","","","","","",""
"null","audio/beep-329314.mp3","null","audio-keyboard-response","80","2.1.0","330187","F=YES, J=NO","fmc6plj7nj","2","60","55","65","","","","","","","","","","","","","","","",""
"null","audio/key1.wav","null","audio-keyboard-response","81","2.1.0","330557","F=YES, J=NO","fmc6plj7nj","2","60","55","65","","","","","","","","","","","","","","","",""
"871","
          <p id=""word"" style=""font-size: 40px;"">sminsh</p>
          <p style=""font-size: 16px;"">F = YES &nbsp;&nbsp;&nbsp; J = NO</p>
        ","j","html-keyboard-response","82","2.1.0","331429","F=YES, J=NO","fmc6plj7nj","2","60","55","65","","","","","","","","","sminsh","key1","pseudoword","pseudoword","j","true","",""
"null","<p style=""font-size: 50px;"">+</p>","null","html-keyboard-response","83","2.1.0","331740","F=YES, J=NO","fmc6plj7nj","2","60","55","65","","","","","","","","","","","","","","","",""
"null","audio/beep-329314.mp3","null","audio-keyboard-response","84","2.1.0","333267","F=YES, J=NO","fmc6plj7nj","2","60","55","65","","","","","","","","","","","","","","","",""
"null","audio/camera1.wav","null","audio-keyboard-response","85","2.1.0","333757","F=YES, J=NO","fmc6plj7nj","2","60","55","65","","","","","","","","","","","","","","","",""
"934","
          <p id=""word"" style=""font-size: 40px;"">stir</p>
          <p style=""font-size: 16px;"">F = YES &nbsp;&nbsp;&nbsp; J = NO</p>
        ","f","html-keyboard-response","86","2.1.0","334691","F=YES, J=NO","fmc6plj7nj","2","60","55","65","","","","","","","","","stir","camera1","filler","filler","f","true","",""
"null","<p style=""font-size: 50px;"">+</p>","null","html-keyboard-response","87","2.1.0","334995","F=YES, J=NO","fmc6plj7nj","2","60","55","65","","","","","","","","","","","","","","","",""
"null","audio/beep-329314.mp3","null","audio-keyboard-response","88","2.1.0","336527","F=YES, J=NO","fmc6plj7nj","2","60","55","65","","","","","","","","","","","","","","","",""
"null","audio/breath.wav","null","audio-keyboard-response","89","2.1.0","337098","F=YES, J=NO","fmc6plj7nj","2","60","55","65","","","","","","","","","","","","","","","",""
"790","
          <p id=""word"" style=""font-size: 40px;"">pack</p>
          <p style=""font-size: 16px;"">F = YES &nbsp;&nbsp;&nbsp; J = NO</p>
        ","f","html-keyboard-response","90","2.1.0","337888","F=YES, J=NO","fmc6plj7nj","2","60","55","65","","","","","","","","","pack","breath","filler","filler","f","true","",""
"null","<p style=""font-size: 50px;"">+</p>","null","html-keyboard-response","91","2.1.0","338204","F=YES, J=NO","fmc6plj7nj","2","60","55","65","","","","","","","","","","","","","","","",""
"null","audio/beep-329314.mp3","null","audio-keyboard-response","92","2.1.0","339727","F=YES, J=NO","fmc6plj7nj","2","60","55","65","","","","","","","","","","","","","","","",""
"null","audio/arm.wav","null","audio-keyboard-response","93","2.1.0","340277","F=YES, J=NO","fmc6plj7nj","2","60","55","65","","","","","","","","","","","","","","","",""
"807","
          <p id=""word"" style=""font-size: 40px;"">fold</p>
          <p style=""font-size: 16px;"">F = YES &nbsp;&nbsp;&nbsp; J = NO</p>
        ","f","html-keyboard-response","94","2.1.0","341085","F=YES, J=NO","fmc6plj7nj","2","60","55","65","","","","","","","","","fold","arm","filler","filler","f","true","",""
"null","<p style=""font-size: 50px;"">+</p>","null","html-keyboard-response","95","2.1.0","341398","F=YES, J=NO","fmc6plj7nj","2","60","55","65","","","","","","","","","","","","","","","",""
"null","audio/beep-329314.mp3","null","audio-keyboard-response","96","2.1.0","342927","F=YES, J=NO","fmc6plj7nj","2","60","55","65","","","","","","","","","","","","","","","",""
"null","audio/ankle1.wav","null","audio-keyboard-response","97","2.1.0","343597","F=YES, J=NO","fmc6plj7nj","2","60","55","65","","","","","","","","","","","","","","","",""
"775","
          <p id=""word"" style=""font-size: 40px;"">kick</p>
          <p style=""font-size: 16px;"">F = YES &nbsp;&nbsp;&nbsp; J = NO</p>
        ","f","html-keyboard-response","98","2.1.0","344372","F=YES, J=NO","fmc6plj7nj","2","60","55","65","","","","","","","","","kick","ankle1","filler","filler","f","true","",""
"null","<p style=""font-size: 50px;"">+</p>","null","html-keyboard-response","99","2.1.0","344683","F=YES, J=NO","fmc6plj7nj","2","60","55","65","","","","","","","","","","","","","","","",""
"null","audio/beep-329314.mp3","null","audio-keyboard-response","100","2.1.0","346207","F=YES, J=NO","fmc6plj7nj","2","60","55","65","","","","","","","","","","","","","","","",""
"null","audio/bottle.wav","null","audio-keyboard-response","101","2.1.0","346717","F=YES, J=NO","fmc6plj7nj","2","60","55","65","","","","","","","","","","","","","","","",""
"557","
          <p id=""word"" style=""font-size: 40px;"">watch</p>
          <p style=""font-size: 16px;"">F = YES &nbsp;&nbsp;&nbsp; J = NO</p>
        ","f","html-keyboard-response","102","2.1.0","347274","F=YES, J=NO","fmc6plj7nj","2","60","55","65","","","","","","","","","watch","bottle","filler","filler","f","true","",""
"null","<p style=""font-size: 50px;"">+</p>","null","html-keyboard-response","103","2.1.0","347590","F=YES, J=NO","fmc6plj7nj","2","60","55","65","","","","","","","","","","","","","","","",""
"null","audio/beep-329314.mp3","null","audio-keyboard-response","104","2.1.0","349127","F=YES, J=NO","fmc6plj7nj","2","60","55","65","","","","","","","","","","","","","","","",""
"null","audio/cancer1.wav","null","audio-keyboard-response","105","2.1.0","349717","F=YES, J=NO","fmc6plj7nj","2","60","55","65","","","","","","","","","","","","","","","",""
"617","
          <p id=""word"" style=""font-size: 40px;"">draw</p>
          <p style=""font-size: 16px;"">F = YES &nbsp;&nbsp;&nbsp; J = NO</p>
        ","f","html-keyboard-response","106","2.1.0","350335","F=YES, J=NO","fmc6plj7nj","2","60","55","65","","","","","","","","","draw","cancer1","filler","filler","f","true","",""
"null","<p style=""font-size: 50px;"">+</p>","null","html-keyboard-response","107","2.1.0","350647","F=YES, J=NO","fmc6plj7nj","2","60","55","65","","","","","","","","","","","","","","","",""
"null","audio/beep-329314.mp3","null","audio-keyboard-response","108","2.1.0","352187","F=YES, J=NO","fmc6plj7nj","2","60","55","65","","","","","","","","","","","","","","","",""
"null","audio/radio1.wav","null","audio-keyboard-response","109","2.1.0","352937","F=YES, J=NO","fmc6plj7nj","2","60","55","65","","","","","","","","","","","","","","","",""
"1000","
          <p id=""word"" style=""font-size: 40px;"">blanter</p>
          <p style=""font-size: 16px;"">F = YES &nbsp;&nbsp;&nbsp; J = NO</p>
        ","f","html-keyboard-response","110","2.1.0","353938","F=YES, J=NO","fmc6plj7nj","2","60","55","65","","","","","","","","","blanter","radio1","pseudoword","pseudoword","j","false","",""
"null","<p style=""font-size: 50px;"">+</p>","null","html-keyboard-response","111","2.1.0","354250","F=YES, J=NO","fmc6plj7nj","2","60","55","65","","","","","","","","","","","","","","","",""
"null","audio/beep-329314.mp3","null","audio-keyboard-response","112","2.1.0","355787","F=YES, J=NO","fmc6plj7nj","2","60","55","65","","","","","","","","","","","","","","","",""
"null","audio/sugar1.wav","null","audio-keyboard-response","113","2.1.0","356317","F=YES, J=NO","fmc6plj7nj","2","60","55","65","","","","","","","","","","","","","","","",""
"761","
          <p id=""word"" style=""font-size: 40px;"">glung</p>
          <p style=""font-size: 16px;"">F = YES &nbsp;&nbsp;&nbsp; J = NO</p>
        ","j","html-keyboard-response","114","2.1.0","357079","F=YES, J=NO","fmc6plj7nj","2","60","55","65","","","","","","","","","glung","sugar1","pseudoword","pseudoword","j","true","",""
"10330","<p>Starting practice block 2 of 2. Press any key to continue.</p>"," ","html-keyboard-response","115","2.1.0","367410","F=YES, J=NO","fmc6plj7nj","2","60","55","65","","","","","","","","","","","","","","","",""
"null","<p style=""font-size: 50px;"">+</p>","null","html-keyboard-response","116","2.1.0","367723","F=YES, J=NO","fmc6plj7nj","2","60","55","65","","","","","","","","","","","","","","","",""
"null","audio/beep-329314.mp3","null","audio-keyboard-response","117","2.1.0","369233","F=YES, J=NO","fmc6plj7nj","2","60","55","65","","","","","","","","","","","","","","","",""
"null","audio/alarm1.wav","null","audio-keyboard-response","118","2.1.0","369963","F=YES, J=NO","fmc6plj7nj","2","60","55","65","","","","","","","","","","","","","","","",""
"1135","
          <p id=""word"" style=""font-size: 40px;"">lock</p>
          <p style=""font-size: 16px;"">F = YES &nbsp;&nbsp;&nbsp; J = NO</p>
        ","f","html-keyboard-response","119","2.1.0","371098","F=YES, J=NO","fmc6plj7nj","2","60","55","65","","","","","","","","","lock","alarm1","filler","filler","f","true","",""
"null","<p style=""font-size: 50px;"">+</p>","null","html-keyboard-response","120","2.1.0","371402","F=YES, J=NO","fmc6plj7nj","2","60","55","65","","","","","","","","","","","","","","","",""
"null","audio/beep-329314.mp3","null","audio-keyboard-response","121","2.1.0","372933","F=YES, J=NO","fmc6plj7nj","2","60","55","65","","","","","","","","","","","","","","","",""
"null","audio/window1.wav","null","audio-keyboard-response","122","2.1.0","373583","F=YES, J=NO","fmc6plj7nj","2","60","55","65","","","","","","","","","","","","","","","",""
"937","
          <p id=""word"" style=""font-size: 40px;"">toss</p>
          <p style=""font-size: 16px;"">F = YES &nbsp;&nbsp;&nbsp; J = NO</p>
        ","j","html-keyboard-response","123","2.1.0","374520","F=YES, J=NO","fmc6plj7nj","2","60","55","65","","","","","","","","","toss","window1","filler","filler","f","false","",""
"null","<p style=""font-size: 50px;"">+</p>","null","html-keyboard-response","124","2.1.0","374823","F=YES, J=NO","fmc6plj7nj","2","60","55","65","","","","","","","","","","","","","","","",""
"null","audio/beep-329314.mp3","null","audio-keyboard-response","125","2.1.0","376353","F=YES, J=NO","fmc6plj7nj","2","60","55","65","","","","","","","","","","","","","","","",""
"null","audio/grass.wav","null","audio-keyboard-response","126","2.1.0","377003","F=YES, J=NO","fmc6plj7nj","2","60","55","65","","","","","","","","","","","","","","","",""
"767","
          <p id=""word"" style=""font-size: 40px;"">milames</p>
          <p style=""font-size: 16px;"">F = YES &nbsp;&nbsp;&nbsp; J = NO</p>
        ","j","html-keyboard-response","127","2.1.0","377771","F=YES, J=NO","fmc6plj7nj","2","60","55","65","","","","","","","","","milames","grass","pseudoword","pseudoword","j","true","",""
"null","<p style=""font-size: 50px;"">+</p>","null","html-keyboard-response","128","2.1.0","378078","F=YES, J=NO","fmc6plj7nj","2","60","55","65","","","","","","","","","","","","","","","",""
"null","audio/beep-329314.mp3","null","audio-keyboard-response","129","2.1.0","379613","F=YES, J=NO","fmc6plj7nj","2","60","55","65","","","","","","","","","","","","","","","",""
"null","audio/beach1.wav","null","audio-keyboard-response","130","2.1.0","380264","F=YES, J=NO","fmc6plj7nj","2","60","55","65","","","","","","","","","","","","","","","",""
"639","
          <p id=""word"" style=""font-size: 40px;"">drive</p>
          <p style=""font-size: 16px;"">F = YES &nbsp;&nbsp;&nbsp; J = NO</p>
        ","f","html-keyboard-response","131","2.1.0","380903","F=YES, J=NO","fmc6plj7nj","2","60","55","65","","","","","","","","","drive","beach1","filler","filler","f","true","",""
"null","<p style=""font-size: 50px;"">+</p>","null","html-keyboard-response","132","2.1.0","381211","F=YES, J=NO","fmc6plj7nj","2","60","55","65","","","","","","","","","","","","","","","",""
"null","audio/beep-329314.mp3","null","audio-keyboard-response","133","2.1.0","382733","F=YES, J=NO","fmc6plj7nj","2","60","55","65","","","","","","","","","","","","","","","",""
"null","audio/bridge.wav","null","audio-keyboard-response","134","2.1.0","383323","F=YES, J=NO","fmc6plj7nj","2","60","55","65","","","","","","","","","","","","","","","",""
"821","
          <p id=""word"" style=""font-size: 40px;"">crack</p>
          <p style=""font-size: 16px;"">F = YES &nbsp;&nbsp;&nbsp; J = NO</p>
        ","f","html-keyboard-response","135","2.1.0","384145","F=YES, J=NO","fmc6plj7nj","2","60","55","65","","","","","","","","","crack","bridge","filler","filler","f","true","",""
"null","<p style=""font-size: 50px;"">+</p>","null","html-keyboard-response","136","2.1.0","384451","F=YES, J=NO","fmc6plj7nj","2","60","55","65","","","","","","","","","","","","","","","",""
"null","audio/beep-329314.mp3","null","audio-keyboard-response","137","2.1.0","385973","F=YES, J=NO","fmc6plj7nj","2","60","55","65","","","","","","","","","","","","","","","",""
"null","audio/baby.wav","null","audio-keyboard-response","138","2.1.0","386483","F=YES, J=NO","fmc6plj7nj","2","60","55","65","","","","","","","","","","","","","","","",""
"814","
          <p id=""word"" style=""font-size: 40px;"">lift</p>
          <p style=""font-size: 16px;"">F = YES &nbsp;&nbsp;&nbsp; J = NO</p>
        ","f","html-keyboard-response","139","2.1.0","387297","F=YES, J=NO","fmc6plj7nj","2","60","55","65","","","","","","","","","lift","baby","filler","filler","f","true","",""
"null","<p style=""font-size: 50px;"">+</p>","null","html-keyboard-response","140","2.1.0","387599","F=YES, J=NO","fmc6plj7nj","2","60","55","65","","","","","","","","","","","","","","","",""
"null","audio/beep-329314.mp3","null","audio-keyboard-response","141","2.1.0","389133","F=YES, J=NO","fmc6plj7nj","2","60","55","65","","","","","","","","","","","","","","","",""
"null","audio/weight1.wav","null","audio-keyboard-response","142","2.1.0","389703","F=YES, J=NO","fmc6plj7nj","2","60","55","65","","","","","","","","","","","","","","","",""
"1296","
          <p id=""word"" style=""font-size: 40px;"">crimsh</p>
          <p style=""font-size: 16px;"">F = YES &nbsp;&nbsp;&nbsp; J = NO</p>
        ","j","html-keyboard-response","143","2.1.0","390999","F=YES, J=NO","fmc6plj7nj","2","60","55","65","","","","","","","","","crimsh","weight1","pseudoword","pseudoword","j","true","",""
"null","<p style=""font-size: 50px;"">+</p>","null","html-keyboard-response","144","2.1.0","391308","F=YES, J=NO","fmc6plj7nj","2","60","55","65","","","","","","","","","","","","","","","",""
"null","audio/beep-329314.mp3","null","audio-keyboard-response","145","2.1.0","392833","F=YES, J=NO","fmc6plj7nj","2","60","55","65","","","","","","","","","","","","","","","",""
"null","audio/stain.wav","null","audio-keyboard-response","146","2.1.0","393543","F=YES, J=NO","fmc6plj7nj","2","60","55","65","","","","","","","","","","","","","","","",""
"912","
          <p id=""word"" style=""font-size: 40px;"">rumpsied</p>
          <p style=""font-size: 16px;"">F = YES &nbsp;&nbsp;&nbsp; J = NO</p>
        ","j","html-keyboard-response","147","2.1.0","394456","F=YES, J=NO","fmc6plj7nj","2","60","55","65","","","","","","","","","rumpsied","stain","pseudoword","pseudoword","j","true","",""
"null","<p style=""font-size: 50px;"">+</p>","null","html-keyboard-response","148","2.1.0","394760","F=YES, J=NO","fmc6plj7nj","2","60","55","65","","","","","","","","","","","","","","","",""
"null","audio/beep-329314.mp3","null","audio-keyboard-response","149","2.1.0","396293","F=YES, J=NO","fmc6plj7nj","2","60","55","65","","","","","","","","","","","","","","","",""
"null","audio/floor.wav","null","audio-keyboard-response","150","2.1.0","396983","F=YES, J=NO","fmc6plj7nj","2","60","55","65","","","","","","","","","","","","","","","",""
"1145","
          <p id=""word"" style=""font-size: 40px;"">mop</p>
          <p style=""font-size: 16px;"">F = YES &nbsp;&nbsp;&nbsp; J = NO</p>
        ","j","html-keyboard-response","151","2.1.0","398128","F=YES, J=NO","fmc6plj7nj","2","60","55","65","","","","","","","","","mop","floor","filler","filler","f","false","",""
"null","<p style=""font-size: 50px;"">+</p>","null","html-keyboard-response","152","2.1.0","398438","F=YES, J=NO","fmc6plj7nj","2","60","55","65","","","","","","","","","","","","","","","",""
"null","audio/beep-329314.mp3","null","audio-keyboard-response","153","2.1.0","399973","F=YES, J=NO","fmc6plj7nj","2","60","55","65","","","","","","","","","","","","","","","",""
"null","audio/alarm1.wav","null","audio-keyboard-response","154","2.1.0","400544","F=YES, J=NO","fmc6plj7nj","2","60","55","65","","","","","","","","","","","","","","","",""
"691","
          <p id=""word"" style=""font-size: 40px;"">swetp</p>
          <p style=""font-size: 16px;"">F = YES &nbsp;&nbsp;&nbsp; J = NO</p>
        ","f","html-keyboard-response","155","2.1.0","401235","F=YES, J=NO","fmc6plj7nj","2","60","55","65","","","","","","","","","swetp","alarm1","pseudoword","pseudoword","j","false","",""
"null","<p style=""font-size: 50px;"">+</p>","null","html-keyboard-response","156","2.1.0","401541","F=YES, J=NO","fmc6plj7nj","2","60","55","65","","","","","","","","","","","","","","","",""
"null","audio/beep-329314.mp3","null","audio-keyboard-response","157","2.1.0","403073","F=YES, J=NO","fmc6plj7nj","2","60","55","65","","","","","","","","","","","","","","","",""
"null","audio/arm.wav","null","audio-keyboard-response","158","2.1.0","403603","F=YES, J=NO","fmc6plj7nj","2","60","55","65","","","","","","","","","","","","","","","",""
"1113","
          <p id=""word"" style=""font-size: 40px;"">pigne</p>
          <p style=""font-size: 16px;"">F = YES &nbsp;&nbsp;&nbsp; J = NO</p>
        ","j","html-keyboard-response","159","2.1.0","404717","F=YES, J=NO","fmc6plj7nj","2","60","55","65","","","","","","","","","pigne","arm","pseudoword","pseudoword","j","true","",""
"null","<p style=""font-size: 50px;"">+</p>","null","html-keyboard-response","160","2.1.0","405023","F=YES, J=NO","fmc6plj7nj","2","60","55","65","","","","","","","","","","","","","","","",""
"null","audio/beep-329314.mp3","null","audio-keyboard-response","161","2.1.0","406553","F=YES, J=NO","fmc6plj7nj","2","60","55","65","","","","","","","","","","","","","","","",""
"null","audio/table1.wav","null","audio-keyboard-response","162","2.1.0","407083","F=YES, J=NO","fmc6plj7nj","2","60","55","65","","","","","","","","","","","","","","","",""
"891","
          <p id=""word"" style=""font-size: 40px;"">stimb</p>
          <p style=""font-size: 16px;"">F = YES &nbsp;&nbsp;&nbsp; J = NO</p>
        ","j","html-keyboard-response","163","2.1.0","407974","F=YES, J=NO","fmc6plj7nj","2","60","55","65","","","","","","","","","stimb","table1","pseudoword","pseudoword","j","true","",""
"11311","
    <div style=""max-width: 800px; margin: auto; text-align: left;"">
      <h2>Part 2: Main Trials</h2>
      <p>Great job on the practice trials!</p>
      <p>You will now begin the <strong>main set of trials</strong>.</p>
      <p>Remember your key assignments:</p>
      <ul>
        <li><strong>F</strong> = YES (real English word)</li>
        <li><strong>J</strong> = NO (not a real English word)</li>
      </ul>
      <p>Try to respond as <strong>quickly and accurately</strong> as possible.</p>
      <p style=""margin-top: 2em;"">Press any key to begin the main trials.</p>
    </div>
  "," ","html-keyboard-response","164","2.1.0","419286","F=YES, J=NO","fmc6plj7nj","2","60","55","65","","","","","","","","","","","","","","","",""
"3140","<p>Starting main block 1 of 8. Press any key to continue.</p>"," ","html-keyboard-response","165","2.1.0","422427","F=YES, J=NO","fmc6plj7nj","2","60","55","65","","","","","","","","","","","","","","","",""
"null","<p style=""font-size: 50px;"">+</p>","null","html-keyboard-response","166","2.1.0","422735","F=YES, J=NO","fmc6plj7nj","2","60","55","65","","","","","","","","","","","","","","","",""
"null","audio/beep-329314.mp3","null","audio-keyboard-response","167","2.1.0","424267","F=YES, J=NO","fmc6plj7nj","2","60","55","65","","","","","","","","","","","","","","","",""
"null","audio/case1.wav","null","audio-keyboard-response","168","2.1.0","424897","F=YES, J=NO","fmc6plj7nj","2","60","55","65","","","","","","","","","","","","","","","",""
"926","
          <p id=""word"" style=""font-size: 40px;"">close</p>
          <p style=""font-size: 16px;"">F = YES &nbsp;&nbsp;&nbsp; J = NO</p>
        ","f","html-keyboard-response","169","2.1.0","425824","F=YES, J=NO","fmc6plj7nj","2","60","55","65","","","","","","","","","close","case1","metaphor","experimental","f","true","",""
"null","<p style=""font-size: 50px;"">+</p>","null","html-keyboard-response","170","2.1.0","426126","F=YES, J=NO","fmc6plj7nj","2","60","55","65","","","","","","","","","","","","","","","",""
"null","audio/beep-329314.mp3","null","audio-keyboard-response","171","2.1.0","427647","F=YES, J=NO","fmc6plj7nj","2","60","55","65","","","","","","","","","","","","","","","",""
"null","audio/dollar.wav","null","audio-keyboard-response","172","2.1.0","428037","F=YES, J=NO","fmc6plj7nj","2","60","55","65","","","","","","","","","","","","","","","",""
"714","
          <p id=""word"" style=""font-size: 40px;"">gliptism</p>
          <p style=""font-size: 16px;"">F = YES &nbsp;&nbsp;&nbsp; J = NO</p>
        ","j","html-keyboard-response","173","2.1.0","428751","F=YES, J=NO","fmc6plj7nj","2","60","55","65","","","","","","","","","gliptism","dollar","pseudoword","pseudoword","j","true","",""
"null","<p style=""font-size: 50px;"">+</p>","null","html-keyboard-response","174","2.1.0","429062","F=YES, J=NO","fmc6plj7nj","2","60","55","65","","","","","","","","","","","","","","","",""
"null","audio/beep-329314.mp3","null","audio-keyboard-response","175","2.1.0","430587","F=YES, J=NO","fmc6plj7nj","2","60","55","65","","","","","","","","","","","","","","","",""
"null","audio/brain.wav","null","audio-keyboard-response","176","2.1.0","431077","F=YES, J=NO","fmc6plj7nj","2","60","55","65","","","","","","","","","","","","","","","",""
"401","
          <p id=""word"" style=""font-size: 40px;"">throw</p>
          <p style=""font-size: 16px;"">F = YES &nbsp;&nbsp;&nbsp; J = NO</p>
        ","f","html-keyboard-response","177","2.1.0","431478","F=YES, J=NO","fmc6plj7nj","2","60","55","65","","","","","","","","","throw","brain","filler","filler","f","true","",""
"null","<p style=""font-size: 50px;"">+</p>","null","html-keyboard-response","178","2.1.0","431787","F=YES, J=NO","fmc6plj7nj","2","60","55","65","","","","","","","","","","","","","","","",""
"null","audio/beep-329314.mp3","null","audio-keyboard-response","179","2.1.0","433327","F=YES, J=NO","fmc6plj7nj","2","60","55","65","","","","","","","","","","","","","","","",""
"null","audio/test1.wav","null","audio-keyboard-response","180","2.1.0","433897","F=YES, J=NO","fmc6plj7nj","2","60","55","65","","","","","","","","","","","","","","","",""
"507","
          <p id=""word"" style=""font-size: 40px;"">run</p>
          <p style=""font-size: 16px;"">F = YES &nbsp;&nbsp;&nbsp; J = NO</p>
        ","f","html-keyboard-response","181","2.1.0","434404","F=YES, J=NO","fmc6plj7nj","2","60","55","65","","","","","","","","","run","test1","metaphor","experimental","f","true","",""
"null","<p style=""font-size: 50px;"">+</p>","null","html-keyboard-response","182","2.1.0","434709","F=YES, J=NO","fmc6plj7nj","2","60","55","65","","","","","","","","","","","","","","","",""
"null","audio/beep-329314.mp3","null","audio-keyboard-response","183","2.1.0","436247","F=YES, J=NO","fmc6plj7nj","2","60","55","65","","","","","","","","","","","","","","","",""
"null","audio/road.wav","null","audio-keyboard-response","184","2.1.0","436677","F=YES, J=NO","fmc6plj7nj","2","60","55","65","","","","","","","","","","","","","","","",""
"523","
          <p id=""word"" style=""font-size: 40px;"">flood</p>
          <p style=""font-size: 16px;"">F = YES &nbsp;&nbsp;&nbsp; J = NO</p>
        ","f","html-keyboard-response","185","2.1.0","437201","F=YES, J=NO","fmc6plj7nj","2","60","55","65","","","","","","","","","flood","road","literal","experimental","f","true","",""
"null","<p style=""font-size: 50px;"">+</p>","null","html-keyboard-response","186","2.1.0","437509","F=YES, J=NO","fmc6plj7nj","2","60","55","65","","","","","","","","","","","","","","","",""
"null","audio/beep-329314.mp3","null","audio-keyboard-response","187","2.1.0","439047","F=YES, J=NO","fmc6plj7nj","2","60","55","65","","","","","","","","","","","","","","","",""
"null","audio/foot1.wav","null","audio-keyboard-response","188","2.1.0","439757","F=YES, J=NO","fmc6plj7nj","2","60","55","65","","","","","","","","","","","","","","","",""
"725","
          <p id=""word"" style=""font-size: 40px;"">thrutt</p>
          <p style=""font-size: 16px;"">F = YES &nbsp;&nbsp;&nbsp; J = NO</p>
        ","j","html-keyboard-response","189","2.1.0","440483","F=YES, J=NO","fmc6plj7nj","2","60","55","65","","","","","","","","","thrutt","foot1","pseudoword","pseudoword","j","true","",""
"null","<p style=""font-size: 50px;"">+</p>","null","html-keyboard-response","190","2.1.0","440784","F=YES, J=NO","fmc6plj7nj","2","60","55","65","","","","","","","","","","","","","","","",""
"null","audio/beep-329314.mp3","null","audio-keyboard-response","191","2.1.0","442307","F=YES, J=NO","fmc6plj7nj","2","60","55","65","","","","","","","","","","","","","","","",""
"null","audio/haste1.wav","null","audio-keyboard-response","192","2.1.0","443017","F=YES, J=NO","fmc6plj7nj","2","60","55","65","","","","","","","","","","","","","","","",""
"723","
          <p id=""word"" style=""font-size: 40px;"">coraconate</p>
          <p style=""font-size: 16px;"">F = YES &nbsp;&nbsp;&nbsp; J = NO</p>
        ","j","html-keyboard-response","193","2.1.0","443740","F=YES, J=NO","fmc6plj7nj","2","60","55","65","","","","","","","","","coraconate","haste1","pseudoword","pseudoword","j","true","",""
"null","<p style=""font-size: 50px;"">+</p>","null","html-keyboard-response","194","2.1.0","444049","F=YES, J=NO","fmc6plj7nj","2","60","55","65","","","","","","","","","","","","","","","",""
"null","audio/beep-329314.mp3","null","audio-keyboard-response","195","2.1.0","445587","F=YES, J=NO","fmc6plj7nj","2","60","55","65","","","","","","","","","","","","","","","",""
"null","audio/neck.wav","null","audio-keyboard-response","196","2.1.0","446317","F=YES, J=NO","fmc6plj7nj","2","60","55","65","","","","","","","","","","","","","","","",""
"869","
          <p id=""word"" style=""font-size: 40px;"">werling</p>
          <p style=""font-size: 16px;"">F = YES &nbsp;&nbsp;&nbsp; J = NO</p>
        ","f","html-keyboard-response","197","2.1.0","447187","F=YES, J=NO","fmc6plj7nj","2","60","55","65","","","","","","","","","werling","neck","pseudoword","pseudoword","j","false","",""
"null","<p style=""font-size: 50px;"">+</p>","null","html-keyboard-response","198","2.1.0","447500","F=YES, J=NO","fmc6plj7nj","2","60","55","65","","","","","","","","","","","","","","","",""
"null","audio/beep-329314.mp3","null","audio-keyboard-response","199","2.1.0","449027","F=YES, J=NO","fmc6plj7nj","2","60","55","65","","","","","","","","","","","","","","","",""
"null","audio/plot1.wav","null","audio-keyboard-response","200","2.1.0","449577","F=YES, J=NO","fmc6plj7nj","2","60","55","65","","","","","","","","","","","","","","","",""
"946","
          <p id=""word"" style=""font-size: 40px;"">glenter</p>
          <p style=""font-size: 16px;"">F = YES &nbsp;&nbsp;&nbsp; J = NO</p>
        ","j","html-keyboard-response","201","2.1.0","450524","F=YES, J=NO","fmc6plj7nj","2","60","55","65","","","","","","","","","glenter","plot1","pseudoword","pseudoword","j","true","",""
"null","<p style=""font-size: 50px;"">+</p>","null","html-keyboard-response","202","2.1.0","450831","F=YES, J=NO","fmc6plj7nj","2","60","55","65","","","","","","","","","","","","","","","",""
"null","audio/beep-329314.mp3","null","audio-keyboard-response","203","2.1.0","452367","F=YES, J=NO","fmc6plj7nj","2","60","55","65","","","","","","","","","","","","","","","",""
"null","audio/vehicle1.wav","null","audio-keyboard-response","204","2.1.0","453157","F=YES, J=NO","fmc6plj7nj","2","60","55","65","","","","","","","","","","","","","","","",""
"894","
          <p id=""word"" style=""font-size: 40px;"">dropt</p>
          <p style=""font-size: 16px;"">F = YES &nbsp;&nbsp;&nbsp; J = NO</p>
        ","j","html-keyboard-response","205","2.1.0","454051","F=YES, J=NO","fmc6plj7nj","2","60","55","65","","","","","","","","","dropt","vehicle1","pseudoword","pseudoword","j","true","",""
"null","<p style=""font-size: 50px;"">+</p>","null","html-keyboard-response","206","2.1.0","454358","F=YES, J=NO","fmc6plj7nj","2","60","55","65","","","","","","","","","","","","","","","",""
"null","audio/beep-329314.mp3","null","audio-keyboard-response","207","2.1.0","455887","F=YES, J=NO","fmc6plj7nj","2","60","55","65","","","","","","","","","","","","","","","",""
"null","audio/account1.wav","null","audio-keyboard-response","208","2.1.0","456737","F=YES, J=NO","fmc6plj7nj","2","60","55","65","","","","","","","","","","","","","","","",""
"1025","
          <p id=""word"" style=""font-size: 40px;"">paint</p>
          <p style=""font-size: 16px;"">F = YES &nbsp;&nbsp;&nbsp; J = NO</p>
        ","f","html-keyboard-response","209","2.1.0","457763","F=YES, J=NO","fmc6plj7nj","2","60","55","65","","","","","","","","","paint","account1","filler","filler","f","true","",""
"null","<p style=""font-size: 50px;"">+</p>","null","html-keyboard-response","210","2.1.0","458067","F=YES, J=NO","fmc6plj7nj","2","60","55","65","","","","","","","","","","","","","","","",""
"null","audio/beep-329314.mp3","null","audio-keyboard-response","211","2.1.0","459607","F=YES, J=NO","fmc6plj7nj","2","60","55","65","","","","","","","","","","","","","","","",""
"null","audio/desire.wav","null","audio-keyboard-response","212","2.1.0","460237","F=YES, J=NO","fmc6plj7nj","2","60","55","65","","","","","","","","","","","","","","","",""
"572","
          <p id=""word"" style=""font-size: 40px;"">open</p>
          <p style=""font-size: 16px;"">F = YES &nbsp;&nbsp;&nbsp; J = NO</p>
        ","j","html-keyboard-response","213","2.1.0","460810","F=YES, J=NO","fmc6plj7nj","2","60","55","65","","","","","","","","","open","desire","unrelated","experimental","f","false","",""
"null","<p style=""font-size: 50px;"">+</p>","null","html-keyboard-response","214","2.1.0","461125","F=YES, J=NO","fmc6plj7nj","2","60","55","65","","","","","","","","","","","","","","","",""
"null","audio/beep-329314.mp3","null","audio-keyboard-response","215","2.1.0","462647","F=YES, J=NO","fmc6plj7nj","2","60","55","65","","","","","","","","","","","","","","","",""
"null","audio/desire.wav","null","audio-keyboard-response","216","2.1.0","463257","F=YES, J=NO","fmc6plj7nj","2","60","55","65","","","","","","","","","","","","","","","",""
"739","
          <p id=""word"" style=""font-size: 40px;"">nophed</p>
          <p style=""font-size: 16px;"">F = YES &nbsp;&nbsp;&nbsp; J = NO</p>
        ","j","html-keyboard-response","217","2.1.0","463997","F=YES, J=NO","fmc6plj7nj","2","60","55","65","","","","","","","","","nophed","desire","pseudoword","pseudoword","j","true","",""
"null","<p style=""font-size: 50px;"">+</p>","null","html-keyboard-response","218","2.1.0","464304","F=YES, J=NO","fmc6plj7nj","2","60","55","65","","","","","","","","","","","","","","","",""
"null","audio/beep-329314.mp3","null","audio-keyboard-response","219","2.1.0","465827","F=YES, J=NO","fmc6plj7nj","2","60","55","65","","","","","","","","","","","","","","","",""
"null","audio/pine.wav","null","audio-keyboard-response","220","2.1.0","466317","F=YES, J=NO","fmc6plj7nj","2","60","55","65","","","","","","","","","","","","","","","",""
"1032","
          <p id=""word"" style=""font-size: 40px;"">weave</p>
          <p style=""font-size: 16px;"">F = YES &nbsp;&nbsp;&nbsp; J = NO</p>
        ","j","html-keyboard-response","221","2.1.0","467349","F=YES, J=NO","fmc6plj7nj","2","60","55","65","","","","","","","","","weave","pine","unrelated","experimental","f","false","",""
"null","<p style=""font-size: 50px;"">+</p>","null","html-keyboard-response","222","2.1.0","467664","F=YES, J=NO","fmc6plj7nj","2","60","55","65","","","","","","","","","","","","","","","",""
"null","audio/beep-329314.mp3","null","audio-keyboard-response","223","2.1.0","469187","F=YES, J=NO","fmc6plj7nj","2","60","55","65","","","","","","","","","","","","","","","",""
"null","audio/belief.wav","null","audio-keyboard-response","224","2.1.0","469817","F=YES, J=NO","fmc6plj7nj","2","60","55","65","","","","","","","","","","","","","","","",""
"548","
          <p id=""word"" style=""font-size: 40px;"">read</p>
          <p style=""font-size: 16px;"">F = YES &nbsp;&nbsp;&nbsp; J = NO</p>
        ","f","html-keyboard-response","225","2.1.0","470365","F=YES, J=NO","fmc6plj7nj","2","60","55","65","","","","","","","","","read","belief","filler","filler","f","true","",""
"null","<p style=""font-size: 50px;"">+</p>","null","html-keyboard-response","226","2.1.0","470677","F=YES, J=NO","fmc6plj7nj","2","60","55","65","","","","","","","","","","","","","","","",""
"null","audio/beep-329314.mp3","null","audio-keyboard-response","227","2.1.0","472207","F=YES, J=NO","fmc6plj7nj","2","60","55","65","","","","","","","","","","","","","","","",""
"null","audio/handle.wav","null","audio-keyboard-response","228","2.1.0","472837","F=YES, J=NO","fmc6plj7nj","2","60","55","65","","","","","","","","","","","","","","","",""
"824","
          <p id=""word"" style=""font-size: 40px;"">moutes</p>
          <p style=""font-size: 16px;"">F = YES &nbsp;&nbsp;&nbsp; J = NO</p>
        ","j","html-keyboard-response","229","2.1.0","473662","F=YES, J=NO","fmc6plj7nj","2","60","55","65","","","","","","","","","moutes","handle","pseudoword","pseudoword","j","true","",""
"1685","<p>Excellent! You have finished block 1 of 8.</p>
                     <p>Feel free to take a 30 second break.</p>
                     <p>Press any key when you're ready to continue.</p>"," ","html-keyboard-response","230","2.1.0","475348","F=YES, J=NO","fmc6plj7nj","2","60","55","65","","","","","","","","","","","","","","","",""
"2992","<p>Starting main block 2 of 8. Press any key to continue.</p>"," ","html-keyboard-response","231","2.1.0","478340","F=YES, J=NO","fmc6plj7nj","2","60","55","65","","","","","","","","","","","","","","","",""
"null","<p style=""font-size: 50px;"">+</p>","null","html-keyboard-response","232","2.1.0","478655","F=YES, J=NO","fmc6plj7nj","2","60","55","65","","","","","","","","","","","","","","","",""
"null","audio/beep-329314.mp3","null","audio-keyboard-response","233","2.1.0","480187","F=YES, J=NO","fmc6plj7nj","2","60","55","65","","","","","","","","","","","","","","","",""
"null","audio/ego.wav","null","audio-keyboard-response","234","2.1.0","480757","F=YES, J=NO","fmc6plj7nj","2","60","55","65","","","","","","","","","","","","","","","",""
"1025","
          <p id=""word"" style=""font-size: 40px;"">bruite</p>
          <p style=""font-size: 16px;"">F = YES &nbsp;&nbsp;&nbsp; J = NO</p>
        ","j","html-keyboard-response","235","2.1.0","481782","F=YES, J=NO","fmc6plj7nj","2","60","55","65","","","","","","","","","bruite","ego","pseudoword","pseudoword","j","true","",""
"null","<p style=""font-size: 50px;"">+</p>","null","html-keyboard-response","236","2.1.0","482091","F=YES, J=NO","fmc6plj7nj","2","60","55","65","","","","","","","","","","","","","","","",""
"null","audio/beep-329314.mp3","null","audio-keyboard-response","237","2.1.0","483627","F=YES, J=NO","fmc6plj7nj","2","60","55","65","","","","","","","","","","","","","","","",""
"null","audio/client1.wav","null","audio-keyboard-response","238","2.1.0","484457","F=YES, J=NO","fmc6plj7nj","2","60","55","65","","","","","","","","","","","","","","","",""
"652","
          <p id=""word"" style=""font-size: 40px;"">land</p>
          <p style=""font-size: 16px;"">F = YES &nbsp;&nbsp;&nbsp; J = NO</p>
        ","f","html-keyboard-response","239","2.1.0","485109","F=YES, J=NO","fmc6plj7nj","2","60","55","65","","","","","","","","","land","client1","metaphor","experimental","f","true","",""
"null","<p style=""font-size: 50px;"">+</p>","null","html-keyboard-response","240","2.1.0","485421","F=YES, J=NO","fmc6plj7nj","2","60","55","65","","","","","","","","","","","","","","","",""
"null","audio/beep-329314.mp3","null","audio-keyboard-response","241","2.1.0","486947","F=YES, J=NO","fmc6plj7nj","2","60","55","65","","","","","","","","","","","","","","","",""
"null","audio/van1.wav","null","audio-keyboard-response","242","2.1.0","487577","F=YES, J=NO","fmc6plj7nj","2","60","55","65","","","","","","","","","","","","","","","",""
"964","
          <p id=""word"" style=""font-size: 40px;"">push</p>
          <p style=""font-size: 16px;"">F = YES &nbsp;&nbsp;&nbsp; J = NO</p>
        ","f","html-keyboard-response","243","2.1.0","488541","F=YES, J=NO","fmc6plj7nj","2","60","55","65","","","","","","","","","push","van1","filler","filler","f","true","",""
"null","<p style=""font-size: 50px;"">+</p>","null","html-keyboard-response","244","2.1.0","488842","F=YES, J=NO","fmc6plj7nj","2","60","55","65","","","","","","","","","","","","","","","",""
"null","audio/beep-329314.mp3","null","audio-keyboard-response","245","2.1.0","490367","F=YES, J=NO","fmc6plj7nj","2","60","55","65","","","","","","","","","","","","","","","",""
"null","audio/menu.wav","null","audio-keyboard-response","246","2.1.0","491077","F=YES, J=NO","fmc6plj7nj","2","60","55","65","","","","","","","","","","","","","","","",""
"670","
          <p id=""word"" style=""font-size: 40px;"">navigate</p>
          <p style=""font-size: 16px;"">F = YES &nbsp;&nbsp;&nbsp; J = NO</p>
        ","f","html-keyboard-response","247","2.1.0","491748","F=YES, J=NO","fmc6plj7nj","2","60","55","65","","","","","","","","","navigate","menu","metaphor","experimental","f","true","",""
"null","<p style=""font-size: 50px;"">+</p>","null","html-keyboard-response","248","2.1.0","492052","F=YES, J=NO","fmc6plj7nj","2","60","55","65","","","","","","","","","","","","","","","",""
"null","audio/beep-329314.mp3","null","audio-keyboard-response","249","2.1.0","493587","F=YES, J=NO","fmc6plj7nj","2","60","55","65","","","","","","","","","","","","","","","",""
"null","audio/corpse1.wav","null","audio-keyboard-response","250","2.1.0","494357","F=YES, J=NO","fmc6plj7nj","2","60","55","65","","","","","","","","","","","","","","","",""
"742","
          <p id=""word"" style=""font-size: 40px;"">glonet</p>
          <p style=""font-size: 16px;"">F = YES &nbsp;&nbsp;&nbsp; J = NO</p>
        ","j","html-keyboard-response","251","2.1.0","495100","F=YES, J=NO","fmc6plj7nj","2","60","55","65","","","","","","","","","glonet","corpse1","pseudoword","pseudoword","j","true","",""
"null","<p style=""font-size: 50px;"">+</p>","null","html-keyboard-response","252","2.1.0","495412","F=YES, J=NO","fmc6plj7nj","2","60","55","65","","","","","","","","","","","","","","","",""
"null","audio/beep-329314.mp3","null","audio-keyboard-response","253","2.1.0","496947","F=YES, J=NO","fmc6plj7nj","2","60","55","65","","","","","","","","","","","","","","","",""
"null","audio/ankle1.wav","null","audio-keyboard-response","254","2.1.0","497457","F=YES, J=NO","fmc6plj7nj","2","60","55","65","","","","","","","","","","","","","","","",""
"469","
          <p id=""word"" style=""font-size: 40px;"">switm</p>
          <p style=""font-size: 16px;"">F = YES &nbsp;&nbsp;&nbsp; J = NO</p>
        ","f","html-keyboard-response","255","2.1.0","497927","F=YES, J=NO","fmc6plj7nj","2","60","55","65","","","","","","","","","switm","ankle1","pseudoword","pseudoword","j","false","",""
"null","<p style=""font-size: 50px;"">+</p>","null","html-keyboard-response","256","2.1.0","498243","F=YES, J=NO","fmc6plj7nj","2","60","55","65","","","","","","","","","","","","","","","",""
"null","audio/beep-329314.mp3","null","audio-keyboard-response","257","2.1.0","499767","F=YES, J=NO","fmc6plj7nj","2","60","55","65","","","","","","","","","","","","","","","",""
"null","audio/novel.wav","null","audio-keyboard-response","258","2.1.0","500257","F=YES, J=NO","fmc6plj7nj","2","60","55","65","","","","","","","","","","","","","","","",""
"751","
          <p id=""word"" style=""font-size: 40px;"">type</p>
          <p style=""font-size: 16px;"">F = YES &nbsp;&nbsp;&nbsp; J = NO</p>
        ","f","html-keyboard-response","259","2.1.0","501008","F=YES, J=NO","fmc6plj7nj","2","60","55","65","","","","","","","","","type","novel","filler","filler","f","true","",""
"null","<p style=""font-size: 50px;"">+</p>","null","html-keyboard-response","260","2.1.0","501316","F=YES, J=NO","fmc6plj7nj","2","60","55","65","","","","","","","","","","","","","","","",""
"null","audio/beep-329314.mp3","null","audio-keyboard-response","261","2.1.0","502847","F=YES, J=NO","fmc6plj7nj","2","60","55","65","","","","","","","","","","","","","","","",""
"null","audio/holiday1.wav","null","audio-keyboard-response","262","2.1.0","503477","F=YES, J=NO","fmc6plj7nj","2","60","55","65","","","","","","","","","","","","","","","",""
"788","
          <p id=""word"" style=""font-size: 40px;"">drivets</p>
          <p style=""font-size: 16px;"">F = YES &nbsp;&nbsp;&nbsp; J = NO</p>
        ","j","html-keyboard-response","263","2.1.0","504265","F=YES, J=NO","fmc6plj7nj","2","60","55","65","","","","","","","","","drivets","holiday1","pseudoword","pseudoword","j","true","",""
"null","<p style=""font-size: 50px;"">+</p>","null","html-keyboard-response","264","2.1.0","504571","F=YES, J=NO","fmc6plj7nj","2","60","55","65","","","","","","","","","","","","","","","",""
"null","audio/beep-329314.mp3","null","audio-keyboard-response","265","2.1.0","506107","F=YES, J=NO","fmc6plj7nj","2","60","55","65","","","","","","","","","","","","","","","",""
"null","audio/wealth1.wav","null","audio-keyboard-response","266","2.1.0","506817","F=YES, J=NO","fmc6plj7nj","2","60","55","65","","","","","","","","","","","","","","","",""
"1340","
          <p id=""word"" style=""font-size: 40px;"">possess</p>
          <p style=""font-size: 16px;"">F = YES &nbsp;&nbsp;&nbsp; J = NO</p>
        ","j","html-keyboard-response","267","2.1.0","508158","F=YES, J=NO","fmc6plj7nj","2","60","55","65","","","","","","","","","possess","wealth1","literal","experimental","f","false","",""
"null","<p style=""font-size: 50px;"">+</p>","null","html-keyboard-response","268","2.1.0","508461","F=YES, J=NO","fmc6plj7nj","2","60","55","65","","","","","","","","","","","","","","","",""
"null","audio/beep-329314.mp3","null","audio-keyboard-response","269","2.1.0","509987","F=YES, J=NO","fmc6plj7nj","2","60","55","65","","","","","","","","","","","","","","","",""
"null","audio/prisoner.wav","null","audio-keyboard-response","270","2.1.0","510637","F=YES, J=NO","fmc6plj7nj","2","60","55","65","","","","","","","","","","","","","","","",""
"717","
          <p id=""word"" style=""font-size: 40px;"">release</p>
          <p style=""font-size: 16px;"">F = YES &nbsp;&nbsp;&nbsp; J = NO</p>
        ","f","html-keyboard-response","271","2.1.0","511354","F=YES, J=NO","fmc6plj7nj","2","60","55","65","","","","","","","","","release","prisoner","literal","experimental","f","true","",""
"null","<p style=""font-size: 50px;"">+</p>","null","html-keyboard-response","272","2.1.0","511670","F=YES, J=NO","fmc6plj7nj","2","60","55","65","","","","","","","","","","","","","","","",""
"null","audio/beep-329314.mp3","null","audio-keyboard-response","273","2.1.0","513207","F=YES, J=NO","fmc6plj7nj","2","60","55","65","","","","","","","","","","","","","","","",""
"null","audio/foe1.wav","null","audio-keyboard-response","274","2.1.0","513857","F=YES, J=NO","fmc6plj7nj","2","60","55","65","","","","","","","","","","","","","","","",""
"873","
          <p id=""word"" style=""font-size: 40px;"">creth</p>
          <p style=""font-size: 16px;"">F = YES &nbsp;&nbsp;&nbsp; J = NO</p>
        ","j","html-keyboard-response","275","2.1.0","514731","F=YES, J=NO","fmc6plj7nj","2","60","55","65","","","","","","","","","creth","foe1","pseudoword","pseudoword","j","true","",""
"null","<p style=""font-size: 50px;"">+</p>","null","html-keyboard-response","276","2.1.0","515046","F=YES, J=NO","fmc6plj7nj","2","60","55","65","","","","","","","","","","","","","","","",""
"null","audio/beep-329314.mp3","null","audio-keyboard-response","277","2.1.0","516567","F=YES, J=NO","fmc6plj7nj","2","60","55","65","","","","","","","","","","","","","","","",""
"null","audio/menu.wav","null","audio-keyboard-response","278","2.1.0","517117","F=YES, J=NO","fmc6plj7nj","2","60","55","65","","","","","","","","","","","","","","","",""
"785","
          <p id=""word"" style=""font-size: 40px;"">slice</p>
          <p style=""font-size: 16px;"">F = YES &nbsp;&nbsp;&nbsp; J = NO</p>
        ","f","html-keyboard-response","279","2.1.0","517903","F=YES, J=NO","fmc6plj7nj","2","60","55","65","","","","","","","","","slice","menu","filler","filler","f","true","",""
"null","<p style=""font-size: 50px;"">+</p>","null","html-keyboard-response","280","2.1.0","518210","F=YES, J=NO","fmc6plj7nj","2","60","55","65","","","","","","","","","","","","","","","",""
"null","audio/beep-329314.mp3","null","audio-keyboard-response","281","2.1.0","519747","F=YES, J=NO","fmc6plj7nj","2","60","55","65","","","","","","","","","","","","","","","",""
"null","audio/mind.wav","null","audio-keyboard-response","282","2.1.0","520457","F=YES, J=NO","fmc6plj7nj","2","60","55","65","","","","","","","","","","","","","","","",""
"848","
          <p id=""word"" style=""font-size: 40px;"">crainate</p>
          <p style=""font-size: 16px;"">F = YES &nbsp;&nbsp;&nbsp; J = NO</p>
        ","j","html-keyboard-response","283","2.1.0","521305","F=YES, J=NO","fmc6plj7nj","2","60","55","65","","","","","","","","","crainate","mind","pseudoword","pseudoword","j","true","",""
"null","<p style=""font-size: 50px;"">+</p>","null","html-keyboard-response","284","2.1.0","521616","F=YES, J=NO","fmc6plj7nj","2","60","55","65","","","","","","","","","","","","","","","",""
"null","audio/beep-329314.mp3","null","audio-keyboard-response","285","2.1.0","523147","F=YES, J=NO","fmc6plj7nj","2","60","55","65","","","","","","","","","","","","","","","",""
"null","audio/age1.wav","null","audio-keyboard-response","286","2.1.0","523837","F=YES, J=NO","fmc6plj7nj","2","60","55","65","","","","","","","","","","","","","","","",""
"855","
          <p id=""word"" style=""font-size: 40px;"">bake</p>
          <p style=""font-size: 16px;"">F = YES &nbsp;&nbsp;&nbsp; J = NO</p>
        ","f","html-keyboard-response","287","2.1.0","524692","F=YES, J=NO","fmc6plj7nj","2","60","55","65","","","","","","","","","bake","age1","filler","filler","f","true","",""
"null","<p style=""font-size: 50px;"">+</p>","null","html-keyboard-response","288","2.1.0","525007","F=YES, J=NO","fmc6plj7nj","2","60","55","65","","","","","","","","","","","","","","","",""
"null","audio/beep-329314.mp3","null","audio-keyboard-response","289","2.1.0","526547","F=YES, J=NO","fmc6plj7nj","2","60","55","65","","","","","","","","","","","","","","","",""
"null","audio/uncle1.wav","null","audio-keyboard-response","290","2.1.0","527037","F=YES, J=NO","fmc6plj7nj","2","60","55","65","","","","","","","","","","","","","","","",""
"857","
          <p id=""word"" style=""font-size: 40px;"">dramble</p>
          <p style=""font-size: 16px;"">F = YES &nbsp;&nbsp;&nbsp; J = NO</p>
        ","j","html-keyboard-response","291","2.1.0","527894","F=YES, J=NO","fmc6plj7nj","2","60","55","65","","","","","","","","","dramble","uncle1","pseudoword","pseudoword","j","true","",""
"null","<p style=""font-size: 50px;"">+</p>","null","html-keyboard-response","292","2.1.0","528201","F=YES, J=NO","fmc6plj7nj","2","60","55","65","","","","","","","","","","","","","","","",""
"null","audio/beep-329314.mp3","null","audio-keyboard-response","293","2.1.0","529727","F=YES, J=NO","fmc6plj7nj","2","60","55","65","","","","","","","","","","","","","","","",""
"null","audio/meal.wav","null","audio-keyboard-response","294","2.1.0","530217","F=YES, J=NO","fmc6plj7nj","2","60","55","65","","","","","","","","","","","","","","","",""
"863","
          <p id=""word"" style=""font-size: 40px;"">gallite</p>
          <p style=""font-size: 16px;"">F = YES &nbsp;&nbsp;&nbsp; J = NO</p>
        ","j","html-keyboard-response","295","2.1.0","531081","F=YES, J=NO","fmc6plj7nj","2","60","55","65","","","","","","","","","gallite","meal","pseudoword","pseudoword","j","true","",""
"1059","<p>Excellent! You have finished block 2 of 8.</p>
                     <p>Feel free to take a 30 second break.</p>
                     <p>Press any key when you're ready to continue.</p>"," ","html-keyboard-response","296","2.1.0","532141","F=YES, J=NO","fmc6plj7nj","2","60","55","65","","","","","","","","","","","","","","","",""
"2562","<p>Starting main block 3 of 8. Press any key to continue.</p>"," ","html-keyboard-response","297","2.1.0","534703","F=YES, J=NO","fmc6plj7nj","2","60","55","65","","","","","","","","","","","","","","","",""
"null","<p style=""font-size: 50px;"">+</p>","null","html-keyboard-response","298","2.1.0","535013","F=YES, J=NO","fmc6plj7nj","2","60","55","65","","","","","","","","","","","","","","","",""
"null","audio/beep-329314.mp3","null","audio-keyboard-response","299","2.1.0","536547","F=YES, J=NO","fmc6plj7nj","2","60","55","65","","","","","","","","","","","","","","","",""
"null","audio/garden1.wav","null","audio-keyboard-response","300","2.1.0","537077","F=YES, J=NO","fmc6plj7nj","2","60","55","65","","","","","","","","","","","","","","","",""
"642","
          <p id=""word"" style=""font-size: 40px;"">invest</p>
          <p style=""font-size: 16px;"">F = YES &nbsp;&nbsp;&nbsp; J = NO</p>
        ","f","html-keyboard-response","301","2.1.0","537720","F=YES, J=NO","fmc6plj7nj","2","60","55","65","","","","","","","","","invest","garden1","unrelated","experimental","f","true","",""
"null","<p style=""font-size: 50px;"">+</p>","null","html-keyboard-response","302","2.1.0","538025","F=YES, J=NO","fmc6plj7nj","2","60","55","65","","","","","","","","","","","","","","","",""
"null","audio/beep-329314.mp3","null","audio-keyboard-response","303","2.1.0","539547","F=YES, J=NO","fmc6plj7nj","2","60","55","65","","","","","","","","","","","","","","","",""
"null","audio/life1.wav","null","audio-keyboard-response","304","2.1.0","540117","F=YES, J=NO","fmc6plj7nj","2","60","55","65","","","","","","","","","","","","","","","",""
"685","
          <p id=""word"" style=""font-size: 40px;"">give</p>
          <p style=""font-size: 16px;"">F = YES &nbsp;&nbsp;&nbsp; J = NO</p>
        ","f","html-keyboard-response","305","2.1.0","540802","F=YES, J=NO","fmc6plj7nj","2","60","55","65","","","","","","","","","give","life1","metaphor","experimental","f","true","",""
"null","<p style=""font-size: 50px;"">+</p>","null","html-keyboard-response","306","2.1.0","541113","F=YES, J=NO","fmc6plj7nj","2","60","55","65","","","","","","","","","","","","","","","",""
"null","audio/beep-329314.mp3","null","audio-keyboard-response","307","2.1.0","542647","F=YES, J=NO","fmc6plj7nj","2","60","55","65","","","","","","","","","","","","","","","",""
"null","audio/flaw.wav","null","audio-keyboard-response","308","2.1.0","543277","F=YES, J=NO","fmc6plj7nj","2","60","55","65","","","","","","","","","","","","","","","",""
"525","
          <p id=""word"" style=""font-size: 40px;"">thwool</p>
          <p style=""font-size: 16px;"">F = YES &nbsp;&nbsp;&nbsp; J = NO</p>
        ","f","html-keyboard-response","309","2.1.0","543803","F=YES, J=NO","fmc6plj7nj","2","60","55","65","","","","","","","","","thwool","flaw","pseudoword","pseudoword","j","false","",""
"null","<p style=""font-size: 50px;"">+</p>","null","html-keyboard-response","310","2.1.0","544111","F=YES, J=NO","fmc6plj7nj","2","60","55","65","","","","","","","","","","","","","","","",""
"null","audio/beep-329314.mp3","null","audio-keyboard-response","311","2.1.0","545647","F=YES, J=NO","fmc6plj7nj","2","60","55","65","","","","","","","","","","","","","","","",""
"null","audio/vehicle1.wav","null","audio-keyboard-response","312","2.1.0","546277","F=YES, J=NO","fmc6plj7nj","2","60","55","65","","","","","","","","","","","","","","","",""
"903","
          <p id=""word"" style=""font-size: 40px;"">approach</p>
          <p style=""font-size: 16px;"">F = YES &nbsp;&nbsp;&nbsp; J = NO</p>
        ","f","html-keyboard-response","313","2.1.0","547180","F=YES, J=NO","fmc6plj7nj","2","60","55","65","","","","","","","","","approach","vehicle1","literal","experimental","f","true","",""
"null","<p style=""font-size: 50px;"">+</p>","null","html-keyboard-response","314","2.1.0","547486","F=YES, J=NO","fmc6plj7nj","2","60","55","65","","","","","","","","","","","","","","","",""
"null","audio/beep-329314.mp3","null","audio-keyboard-response","315","2.1.0","549027","F=YES, J=NO","fmc6plj7nj","2","60","55","65","","","","","","","","","","","","","","","",""
"null","audio/show.wav","null","audio-keyboard-response","316","2.1.0","549717","F=YES, J=NO","fmc6plj7nj","2","60","55","65","","","","","","","","","","","","","","","",""
"754","
          <p id=""word"" style=""font-size: 40px;"">hold</p>
          <p style=""font-size: 16px;"">F = YES &nbsp;&nbsp;&nbsp; J = NO</p>
        ","f","html-keyboard-response","317","2.1.0","550472","F=YES, J=NO","fmc6plj7nj","2","60","55","65","","","","","","","","","hold","show","metaphor","experimental","f","true","",""
"null","<p style=""font-size: 50px;"">+</p>","null","html-keyboard-response","318","2.1.0","550786","F=YES, J=NO","fmc6plj7nj","2","60","55","65","","","","","","","","","","","","","","","",""
"null","audio/beep-329314.mp3","null","audio-keyboard-response","319","2.1.0","552327","F=YES, J=NO","fmc6plj7nj","2","60","55","65","","","","","","","","","","","","","","","",""
"null","audio/effort.wav","null","audio-keyboard-response","320","2.1.0","552957","F=YES, J=NO","fmc6plj7nj","2","60","55","65","","","","","","","","","","","","","","","",""
"802","
          <p id=""word"" style=""font-size: 40px;"">whonk</p>
          <p style=""font-size: 16px;"">F = YES &nbsp;&nbsp;&nbsp; J = NO</p>
        ","j","html-keyboard-response","321","2.1.0","553759","F=YES, J=NO","fmc6plj7nj","2","60","55","65","","","","","","","","","whonk","effort","pseudoword","pseudoword","j","true","",""
"null","<p style=""font-size: 50px;"">+</p>","null","html-keyboard-response","322","2.1.0","554071","F=YES, J=NO","fmc6plj7nj","2","60","55","65","","","","","","","","","","","","","","","",""
"null","audio/beep-329314.mp3","null","audio-keyboard-response","323","2.1.0","555607","F=YES, J=NO","fmc6plj7nj","2","60","55","65","","","","","","","","","","","","","","","",""
"null","audio/topic.wav","null","audio-keyboard-response","324","2.1.0","556317","F=YES, J=NO","fmc6plj7nj","2","60","55","65","","","","","","","","","","","","","","","",""
"789","
          <p id=""word"" style=""font-size: 40px;"">infortuitist</p>
          <p style=""font-size: 16px;"">F = YES &nbsp;&nbsp;&nbsp; J = NO</p>
        ","j","html-keyboard-response","325","2.1.0","557106","F=YES, J=NO","fmc6plj7nj","2","60","55","65","","","","","","","","","infortuitist","topic","pseudoword","pseudoword","j","true","",""
"null","<p style=""font-size: 50px;"">+</p>","null","html-keyboard-response","326","2.1.0","557417","F=YES, J=NO","fmc6plj7nj","2","60","55","65","","","","","","","","","","","","","","","",""
"null","audio/beep-329314.mp3","null","audio-keyboard-response","327","2.1.0","558947","F=YES, J=NO","fmc6plj7nj","2","60","55","65","","","","","","","","","","","","","","","",""
"null","audio/client1.wav","null","audio-keyboard-response","328","2.1.0","559617","F=YES, J=NO","fmc6plj7nj","2","60","55","65","","","","","","","","","","","","","","","",""
"745","
          <p id=""word"" style=""font-size: 40px;"">droothe</p>
          <p style=""font-size: 16px;"">F = YES &nbsp;&nbsp;&nbsp; J = NO</p>
        ","j","html-keyboard-response","329","2.1.0","560363","F=YES, J=NO","fmc6plj7nj","2","60","55","65","","","","","","","","","droothe","client1","pseudoword","pseudoword","j","true","",""
"null","<p style=""font-size: 50px;"">+</p>","null","html-keyboard-response","330","2.1.0","560671","F=YES, J=NO","fmc6plj7nj","2","60","55","65","","","","","","","","","","","","","","","",""
"null","audio/beep-329314.mp3","null","audio-keyboard-response","331","2.1.0","562207","F=YES, J=NO","fmc6plj7nj","2","60","55","65","","","","","","","","","","","","","","","",""
"null","audio/devil1.wav","null","audio-keyboard-response","332","2.1.0","562617","F=YES, J=NO","fmc6plj7nj","2","60","55","65","","","","","","","","","","","","","","","",""
"737","
          <p id=""word"" style=""font-size: 40px;"">carry</p>
          <p style=""font-size: 16px;"">F = YES &nbsp;&nbsp;&nbsp; J = NO</p>
        ","f","html-keyboard-response","333","2.1.0","563355","F=YES, J=NO","fmc6plj7nj","2","60","55","65","","","","","","","","","carry","devil1","unrelated","experimental","f","true","",""
"null","<p style=""font-size: 50px;"">+</p>","null","html-keyboard-response","334","2.1.0","563669","F=YES, J=NO","fmc6plj7nj","2","60","55","65","","","","","","","","","","","","","","","",""
"null","audio/beep-329314.mp3","null","audio-keyboard-response","335","2.1.0","565207","F=YES, J=NO","fmc6plj7nj","2","60","55","65","","","","","","","","","","","","","","","",""
"null","audio/purpose.wav","null","audio-keyboard-response","336","2.1.0","566017","F=YES, J=NO","fmc6plj7nj","2","60","55","65","","","","","","","","","","","","","","","",""
"764","
          <p id=""word"" style=""font-size: 40px;"">whigm</p>
          <p style=""font-size: 16px;"">F = YES &nbsp;&nbsp;&nbsp; J = NO</p>
        ","j","html-keyboard-response","337","2.1.0","566782","F=YES, J=NO","fmc6plj7nj","2","60","55","65","","","","","","","","","whigm","purpose","pseudoword","pseudoword","j","true","",""
"null","<p style=""font-size: 50px;"">+</p>","null","html-keyboard-response","338","2.1.0","567090","F=YES, J=NO","fmc6plj7nj","2","60","55","65","","","","","","","","","","","","","","","",""
"null","audio/beep-329314.mp3","null","audio-keyboard-response","339","2.1.0","568627","F=YES, J=NO","fmc6plj7nj","2","60","55","65","","","","","","","","","","","","","","","",""
"null","audio/floor.wav","null","audio-keyboard-response","340","2.1.0","569157","F=YES, J=NO","fmc6plj7nj","2","60","55","65","","","","","","","","","","","","","","","",""
"757","
          <p id=""word"" style=""font-size: 40px;"">cover</p>
          <p style=""font-size: 16px;"">F = YES &nbsp;&nbsp;&nbsp; J = NO</p>
        ","f","html-keyboard-response","341","2.1.0","569914","F=YES, J=NO","fmc6plj7nj","2","60","55","65","","","","","","","","","cover","floor","literal","experimental","f","true","",""
"null","<p style=""font-size: 50px;"">+</p>","null","html-keyboard-response","342","2.1.0","570223","F=YES, J=NO","fmc6plj7nj","2","60","55","65","","","","","","","","","","","","","","","",""
"null","audio/beep-329314.mp3","null","audio-keyboard-response","343","2.1.0","571747","F=YES, J=NO","fmc6plj7nj","2","60","55","65","","","","","","","","","","","","","","","",""
"null","audio/relief.wav","null","audio-keyboard-response","344","2.1.0","572437","F=YES, J=NO","fmc6plj7nj","2","60","55","65","","","","","","","","","","","","","","","",""
"788","
          <p id=""word"" style=""font-size: 40px;"">grigg</p>
          <p style=""font-size: 16px;"">F = YES &nbsp;&nbsp;&nbsp; J = NO</p>
        ","j","html-keyboard-response","345","2.1.0","573225","F=YES, J=NO","fmc6plj7nj","2","60","55","65","","","","","","","","","grigg","relief","pseudoword","pseudoword","j","true","",""
"null","<p style=""font-size: 50px;"">+</p>","null","html-keyboard-response","346","2.1.0","573539","F=YES, J=NO","fmc6plj7nj","2","60","55","65","","","","","","","","","","","","","","","",""
"null","audio/beep-329314.mp3","null","audio-keyboard-response","347","2.1.0","575067","F=YES, J=NO","fmc6plj7nj","2","60","55","65","","","","","","","","","","","","","","","",""
"null","audio/camp.wav","null","audio-keyboard-response","348","2.1.0","575617","F=YES, J=NO","fmc6plj7nj","2","60","55","65","","","","","","","","","","","","","","","",""
"675","
          <p id=""word"" style=""font-size: 40px;"">touch</p>
          <p style=""font-size: 16px;"">F = YES &nbsp;&nbsp;&nbsp; J = NO</p>
        ","f","html-keyboard-response","349","2.1.0","576292","F=YES, J=NO","fmc6plj7nj","2","60","55","65","","","","","","","","","touch","camp","unrelated","experimental","f","true","",""
"null","<p style=""font-size: 50px;"">+</p>","null","html-keyboard-response","350","2.1.0","576596","F=YES, J=NO","fmc6plj7nj","2","60","55","65","","","","","","","","","","","","","","","",""
"null","audio/beep-329314.mp3","null","audio-keyboard-response","351","2.1.0","578127","F=YES, J=NO","fmc6plj7nj","2","60","55","65","","","","","","","","","","","","","","","",""
"null","audio/tomato.wav","null","audio-keyboard-response","352","2.1.0","578937","F=YES, J=NO","fmc6plj7nj","2","60","55","65","","","","","","","","","","","","","","","",""
"711","
          <p id=""word"" style=""font-size: 40px;"">gladies</p>
          <p style=""font-size: 16px;"">F = YES &nbsp;&nbsp;&nbsp; J = NO</p>
        ","j","html-keyboard-response","353","2.1.0","579649","F=YES, J=NO","fmc6plj7nj","2","60","55","65","","","","","","","","","gladies","tomato","pseudoword","pseudoword","j","true","",""
"null","<p style=""font-size: 50px;"">+</p>","null","html-keyboard-response","354","2.1.0","579957","F=YES, J=NO","fmc6plj7nj","2","60","55","65","","","","","","","","","","","","","","","",""
"null","audio/beep-329314.mp3","null","audio-keyboard-response","355","2.1.0","581487","F=YES, J=NO","fmc6plj7nj","2","60","55","65","","","","","","","","","","","","","","","",""
"null","audio/bishop1.wav","null","audio-keyboard-response","356","2.1.0","582097","F=YES, J=NO","fmc6plj7nj","2","60","55","65","","","","","","","","","","","","","","","",""
"508","
          <p id=""word"" style=""font-size: 40px;"">play</p>
          <p style=""font-size: 16px;"">F = YES &nbsp;&nbsp;&nbsp; J = NO</p>
        ","f","html-keyboard-response","357","2.1.0","582606","F=YES, J=NO","fmc6plj7nj","2","60","55","65","","","","","","","","","play","bishop1","filler","filler","f","true","",""
"null","<p style=""font-size: 50px;"">+</p>","null","html-keyboard-response","358","2.1.0","582909","F=YES, J=NO","fmc6plj7nj","2","60","55","65","","","","","","","","","","","","","","","",""
"null","audio/beep-329314.mp3","null","audio-keyboard-response","359","2.1.0","584447","F=YES, J=NO","fmc6plj7nj","2","60","55","65","","","","","","","","","","","","","","","",""
"null","audio/meal.wav","null","audio-keyboard-response","360","2.1.0","584877","F=YES, J=NO","fmc6plj7nj","2","60","55","65","","","","","","","","","","","","","","","",""
"801","
          <p id=""word"" style=""font-size: 40px;"">share</p>
          <p style=""font-size: 16px;"">F = YES &nbsp;&nbsp;&nbsp; J = NO</p>
        ","f","html-keyboard-response","361","2.1.0","585678","F=YES, J=NO","fmc6plj7nj","2","60","55","65","","","","","","","","","share","meal","literal","experimental","f","true","",""
"2730","<p>Excellent! You have finished block 3 of 8.</p>
                     <p>Feel free to take a 30 second break.</p>
                     <p>Press any key when you're ready to continue.</p>"," ","html-keyboard-response","362","2.1.0","588409","F=YES, J=NO","fmc6plj7nj","2","60","55","65","","","","","","","","","","","","","","","",""
"1085","<p>Starting main block 4 of 8. Press any key to continue.</p>"," ","html-keyboard-response","363","2.1.0","589495","F=YES, J=NO","fmc6plj7nj","2","60","55","65","","","","","","","","","","","","","","","",""
"null","<p style=""font-size: 50px;"">+</p>","null","html-keyboard-response","364","2.1.0","589797","F=YES, J=NO","fmc6plj7nj","2","60","55","65","","","","","","","","","","","","","","","",""
"null","audio/beep-329314.mp3","null","audio-keyboard-response","365","2.1.0","591327","F=YES, J=NO","fmc6plj7nj","2","60","55","65","","","","","","","","","","","","","","","",""
"null","audio/survey1.wav","null","audio-keyboard-response","366","2.1.0","592197","F=YES, J=NO","fmc6plj7nj","2","60","55","65","","","","","","","","","","","","","","","",""
"839","
          <p id=""word"" style=""font-size: 40px;"">imploth</p>
          <p style=""font-size: 16px;"">F = YES &nbsp;&nbsp;&nbsp; J = NO</p>
        ","j","html-keyboard-response","367","2.1.0","593037","F=YES, J=NO","fmc6plj7nj","2","60","55","65","","","","","","","","","imploth","survey1","pseudoword","pseudoword","j","true","",""
"null","<p style=""font-size: 50px;"">+</p>","null","html-keyboard-response","368","2.1.0","593339","F=YES, J=NO","fmc6plj7nj","2","60","55","65","","","","","","","","","","","","","","","",""
"null","audio/beep-329314.mp3","null","audio-keyboard-response","369","2.1.0","594867","F=YES, J=NO","fmc6plj7nj","2","60","55","65","","","","","","","","","","","","","","","",""
"null","audio/demon1.wav","null","audio-keyboard-response","370","2.1.0","595497","F=YES, J=NO","fmc6plj7nj","2","60","55","65","","","","","","","","","","","","","","","",""
"826","
          <p id=""word"" style=""font-size: 40px;"">wrestle</p>
          <p style=""font-size: 16px;"">F = YES &nbsp;&nbsp;&nbsp; J = NO</p>
        ","j","html-keyboard-response","371","2.1.0","596324","F=YES, J=NO","fmc6plj7nj","2","60","55","65","","","","","","","","","wrestle","demon1","metaphor","experimental","f","false","",""
"null","<p style=""font-size: 50px;"">+</p>","null","html-keyboard-response","372","2.1.0","596639","F=YES, J=NO","fmc6plj7nj","2","60","55","65","","","","","","","","","","","","","","","",""
"null","audio/beep-329314.mp3","null","audio-keyboard-response","373","2.1.0","598167","F=YES, J=NO","fmc6plj7nj","2","60","55","65","","","","","","","","","","","","","","","",""
"null","audio/winter.wav","null","audio-keyboard-response","374","2.1.0","598777","F=YES, J=NO","fmc6plj7nj","2","60","55","65","","","","","","","","","","","","","","","",""
"1079","
          <p id=""word"" style=""font-size: 40px;"">straven</p>
          <p style=""font-size: 16px;"">F = YES &nbsp;&nbsp;&nbsp; J = NO</p>
        ","j","html-keyboard-response","375","2.1.0","599856","F=YES, J=NO","fmc6plj7nj","2","60","55","65","","","","","","","","","straven","winter","pseudoword","pseudoword","j","true","",""
"null","<p style=""font-size: 50px;"">+</p>","null","html-keyboard-response","376","2.1.0","600166","F=YES, J=NO","fmc6plj7nj","2","60","55","65","","","","","","","","","","","","","","","",""
"null","audio/beep-329314.mp3","null","audio-keyboard-response","377","2.1.0","601707","F=YES, J=NO","fmc6plj7nj","2","60","55","65","","","","","","","","","","","","","","","",""
"null","audio/cash1.wav","null","audio-keyboard-response","378","2.1.0","602417","F=YES, J=NO","fmc6plj7nj","2","60","55","65","","","","","","","","","","","","","","","",""
"855","
          <p id=""word"" style=""font-size: 40px;"">splear</p>
          <p style=""font-size: 16px;"">F = YES &nbsp;&nbsp;&nbsp; J = NO</p>
        ","j","html-keyboard-response","379","2.1.0","603273","F=YES, J=NO","fmc6plj7nj","2","60","55","65","","","","","","","","","splear","cash1","pseudoword","pseudoword","j","true","",""
"null","<p style=""font-size: 50px;"">+</p>","null","html-keyboard-response","380","2.1.0","603587","F=YES, J=NO","fmc6plj7nj","2","60","55","65","","","","","","","","","","","","","","","",""
"null","audio/beep-329314.mp3","null","audio-keyboard-response","381","2.1.0","605127","F=YES, J=NO","fmc6plj7nj","2","60","55","65","","","","","","","","","","","","","","","",""
"null","audio/road.wav","null","audio-keyboard-response","382","2.1.0","605537","F=YES, J=NO","fmc6plj7nj","2","60","55","65","","","","","","","","","","","","","","","",""
"1293","
          <p id=""word"" style=""font-size: 40px;"">wappings</p>
          <p style=""font-size: 16px;"">F = YES &nbsp;&nbsp;&nbsp; J = NO</p>
        ","j","html-keyboard-response","383","2.1.0","606830","F=YES, J=NO","fmc6plj7nj","2","60","55","65","","","","","","","","","wappings","road","pseudoword","pseudoword","j","true","",""
"null","<p style=""font-size: 50px;"">+</p>","null","html-keyboard-response","384","2.1.0","607145","F=YES, J=NO","fmc6plj7nj","2","60","55","65","","","","","","","","","","","","","","","",""
"null","audio/beep-329314.mp3","null","audio-keyboard-response","385","2.1.0","608667","F=YES, J=NO","fmc6plj7nj","2","60","55","65","","","","","","","","","","","","","","","",""
"null","audio/mouth1.wav","null","audio-keyboard-response","386","2.1.0","609437","F=YES, J=NO","fmc6plj7nj","2","60","55","65","","","","","","","","","","","","","","","",""
"790","
          <p id=""word"" style=""font-size: 40px;"">spolial</p>
          <p style=""font-size: 16px;"">F = YES &nbsp;&nbsp;&nbsp; J = NO</p>
        ","j","html-keyboard-response","387","2.1.0","610227","F=YES, J=NO","fmc6plj7nj","2","60","55","65","","","","","","","","","spolial","mouth1","pseudoword","pseudoword","j","true","",""
"null","<p style=""font-size: 50px;"">+</p>","null","html-keyboard-response","388","2.1.0","610536","F=YES, J=NO","fmc6plj7nj","2","60","55","65","","","","","","","","","","","","","","","",""
"null","audio/beep-329314.mp3","null","audio-keyboard-response","389","2.1.0","612067","F=YES, J=NO","fmc6plj7nj","2","60","55","65","","","","","","","","","","","","","","","",""
"null","audio/holiday1.wav","null","audio-keyboard-response","390","2.1.0","612677","F=YES, J=NO","fmc6plj7nj","2","60","55","65","","","","","","","","","","","","","","","",""
"631","
          <p id=""word"" style=""font-size: 40px;"">spend</p>
          <p style=""font-size: 16px;"">F = YES &nbsp;&nbsp;&nbsp; J = NO</p>
