"rt","stimulus","response","trial_type","trial_index","plugin_version","time_elapsed","response_mapping","subject_id","list_index","lextale_score","lextale_word_score","lextale_nonword_score","success","timeout","failed_images","failed_audio","failed_video","task","isWord","isDummy","target","prime","prime_type","stimulus_type","correct_response","correct","section","question_order"
"7308","
    <div style=""max-width: 800px; margin: auto; text-align: left;"">
      <h2>STANFORD UNIVERSITY</h2>
      <h3>Research Information Sheet</h3>
      <p><strong>Protocol Director:</strong> Robert Hawkins<br>
      <strong>Protocol Title:</strong> Communication and social cognition in natural audiovisual contexts<br>
      <strong>IRB#:</strong> 77226</p>

      <p><strong>DESCRIPTION:</strong> You are invited to participate in a research study about language and communication. The purpose of the research is to understand how you interact and communicate with other people in naturalistic settings as a fluent English speaker. This research will be conducted through the Prolific platform, including participants from the US, UK, and Canada. If you decide to participate in this research, you will play a communication game in a group with one or more partners.</p>

      <p><strong>TIME INVOLVEMENT:</strong> The task will last the amount of time advertised on Prolific. You are free to withdraw from the study at any time.</p>

      <p><strong>RISKS AND BENEFITS:</strong> You may become frustrated if your partner gets distracted, or experience discomfort if other participants in your group send text that is inappropriate for the task. We ask you to please be respectful of other participants you might be interacting with to mitigate these risks. You may also experience discomfort when being asked to discuss or challenge emotionally salient political beliefs. Study data will be stored securely, in compliance with Stanford University standards, minimizing the risk of confidentiality breach. This study advances our scientific understanding of how people communicate and collaborate in naturalistic settings. This study may lead to further insights about what can go wrong in teamwork, suggest potential interventions to overcome these barriers, and help to develop assistive technologies that collaborate with human partners. We cannot and do not guarantee or promise that you will receive any benefits from this study.</p>

      <p><strong>PAYMENTS:</strong> You will receive payment in the amount advertised on Prolific. If you do not complete this study, you will receive prorated payment based on the time that you have spent. Additionally, you may be eligible for bonus payments as described in the instructions.</p>

      <p><strong>PARTICIPANT’S RIGHTS:</strong> If you have read this form and have decided to participate in this project, please understand your participation is voluntary and you have the right to withdraw your consent or discontinue participation at any time without penalty or loss of benefits to which you are otherwise entitled. The alternative is not to participate. You have the right to refuse to answer particular questions. The results of this research study may be presented at scientific or professional meetings or published in scientific journals. Your individual privacy will be maintained in all published and written data resulting from the study. In accordance with scientific norms, the data from this study may be used or shared with other researchers for future research (after removing personally identifying information) without additional consent from you.</p>

      <p><strong>CONTACT INFORMATION:</strong><br>
      Questions: If you have any questions, concerns or complaints about this research, its procedures, risks and benefits, contact the Protocol Director, Robert Hawkins (<a href=""mailto:rdhawkins@stanford.edu"">rdhawkins@stanford.edu</a>, 217-549-6923).<br>
      Independent Contact: If you are not satisfied with how this study is being conducted, or if you have any concerns, complaints, or general questions about the research or your rights as a participant, please contact the Stanford Institutional Review Board (IRB) to speak to someone independent of the research team at 650-723-2480 or toll free at 1-866-680-2906, or email at <a href=""mailto:irbnon-med@stanford.edu"">irbnon-med@stanford.edu</a>. You can also write to the Stanford IRB, Stanford University, 1705 El Camino Real, Palo Alto, CA 94306.</p>

      <p><strong>Please save or print a copy of this page for your records.</strong></p>
      <p>If you agree to participate in this research, click ""Continue"" below.</p>
    </div>
  ","0","html-button-response","0","2.1.0","7320","F=YES, J=NO","fmyqa598yz","2","70","80","60","","","","","","","","","","","","","","","",""
"4962","
    <div style=""max-width: 800px; margin: auto; text-align: left;"">
      <h2>Welcome!</h2>
      <p>Thank you for participating in this study. The experiment consists of three parts:</p>
      <ol>
        <li>An English vocabulary test</li>
        <li>A main task in which you will hear and see words, and decide whether the written word is a real English word</li>
        <li>A brief survey about your background</li>
      </ol>
      <p>Each part will be introduced before it begins.</p>
      <p>Please make sure you are in a quiet environment and can hear audio clearly for the final task.</p>
      <p style=""margin-top: 2em;"">Press any key to begin.</p>
    </div>
  ","Shift","html-keyboard-response","1","2.1.0","12289","F=YES, J=NO","fmyqa598yz","2","70","80","60","","","","","","","","","","","","","","","",""
"","","","preload","2","2.1.0","14190","F=YES, J=NO","fmyqa598yz","2","70","80","60","true","false","[]","[]","[]","","","","","","","","","","",""
"8650","
    <div style=""max-width: 800px; margin: auto; text-align: left;"">
      <h2>Part 1: Vocabulary Test</h2>
      <p>You will now complete the first part of the study: a short English vocabulary test.</p>
      <p>This test is called <strong>LexTALE</strong> and helps us get a general sense of your English proficiency.</p>
      <p style=""margin-top: 2em;"">Press any key to continue.</p>
    </div>
  ","ArrowDown","html-keyboard-response","3","2.1.0","22842","F=YES, J=NO","fmyqa598yz","2","70","80","60","","","","","","","","","","","","","","","",""
"21405","
    <div style=""max-width: 800px; margin: auto; text-align: left;"">
      <h2>LexTALE Vocabulary Test</h2>
      <p>In this test, you will see a series of letter strings—one at a time.</p>
      <p>Your task is to decide whether each string is a real English word.</p>
      <p><strong>Key responses:</strong></p>
      <ul>
        <li><strong>F</strong> = YES (real English word)</li>
        <li><strong>J</strong> = NO (not a real English word)</li>
      </ul>
      <p>There is no time limit, but please try to be accurate.</p>
      <p style=""margin-top: 2em;"">Press any key to begin.</p>
    </div>
  "," ","html-keyboard-response","4","2.1.0","44250","F=YES, J=NO","fmyqa598yz","2","70","80","60","","","","","","","","","","","","","","","",""
"2572","
  <p style=""font-size: 40px;"">platery</p>
  <p style=""font-size: 16px;"">F = YES &nbsp;&nbsp;&nbsp; J = NO</p>
","f","html-keyboard-response","5","2.1.0","46824","F=YES, J=NO","fmyqa598yz","2","70","80","60","","","","","","lextale","false","true","","","","","","","",""
"1006","
  <p style=""font-size: 40px;"">denial</p>
  <p style=""font-size: 16px;"">F = YES &nbsp;&nbsp;&nbsp; J = NO</p>
","f","html-keyboard-response","6","2.1.0","47833","F=YES, J=NO","fmyqa598yz","2","70","80","60","","","","","","lextale","true","true","","","","","","","",""
"2813","
  <p style=""font-size: 40px;"">marrit</p>
  <p style=""font-size: 16px;"">F = YES &nbsp;&nbsp;&nbsp; J = NO</p>
","j","html-keyboard-response","7","2.1.0","50649","F=YES, J=NO","fmyqa598yz","2","70","80","60","","","","","","lextale","false","true","","","","","","","",""
"822","
  <p style=""font-size: 40px;"">bottle</p>
  <p style=""font-size: 16px;"">F = YES &nbsp;&nbsp;&nbsp; J = NO</p>
","f","html-keyboard-response","8","2.1.0","51473","F=YES, J=NO","fmyqa598yz","2","70","80","60","","","","","","lextale","true","false","","","","","","","",""
"2733","
  <p style=""font-size: 40px;"">birst</p>
  <p style=""font-size: 16px;"">F = YES &nbsp;&nbsp;&nbsp; J = NO</p>
","j","html-keyboard-response","9","2.1.0","54209","F=YES, J=NO","fmyqa598yz","2","70","80","60","","","","","","lextale","false","false","","","","","","","",""
"1646","
  <p style=""font-size: 40px;"">envy</p>
  <p style=""font-size: 16px;"">F = YES &nbsp;&nbsp;&nbsp; J = NO</p>
","f","html-keyboard-response","10","2.1.0","55857","F=YES, J=NO","fmyqa598yz","2","70","80","60","","","","","","lextale","true","false","","","","","","","",""
"2838","
  <p style=""font-size: 40px;"">brang</p>
  <p style=""font-size: 16px;"">F = YES &nbsp;&nbsp;&nbsp; J = NO</p>
","j","html-keyboard-response","11","2.1.0","58697","F=YES, J=NO","fmyqa598yz","2","70","80","60","","","","","","lextale","false","false","","","","","","","",""
"757","
  <p style=""font-size: 40px;"">huge</p>
  <p style=""font-size: 16px;"">F = YES &nbsp;&nbsp;&nbsp; J = NO</p>
","f","html-keyboard-response","12","2.1.0","59457","F=YES, J=NO","fmyqa598yz","2","70","80","60","","","","","","lextale","true","false","","","","","","","",""
"1539","
  <p style=""font-size: 40px;"">plove</p>
  <p style=""font-size: 16px;"">F = YES &nbsp;&nbsp;&nbsp; J = NO</p>
","f","html-keyboard-response","13","2.1.0","60998","F=YES, J=NO","fmyqa598yz","2","70","80","60","","","","","","lextale","false","false","","","","","","","",""
"856","
  <p style=""font-size: 40px;"">border</p>
  <p style=""font-size: 16px;"">F = YES &nbsp;&nbsp;&nbsp; J = NO</p>
","f","html-keyboard-response","14","2.1.0","61854","F=YES, J=NO","fmyqa598yz","2","70","80","60","","","","","","lextale","true","false","","","","","","","",""
"1271","
  <p style=""font-size: 40px;"">flimsy</p>
  <p style=""font-size: 16px;"">F = YES &nbsp;&nbsp;&nbsp; J = NO</p>
","j","html-keyboard-response","15","2.1.0","63126","F=YES, J=NO","fmyqa598yz","2","70","80","60","","","","","","lextale","true","false","","","","","","","",""
"738","
  <p style=""font-size: 40px;"">drain</p>
  <p style=""font-size: 16px;"">F = YES &nbsp;&nbsp;&nbsp; J = NO</p>
","f","html-keyboard-response","16","2.1.0","63865","F=YES, J=NO","fmyqa598yz","2","70","80","60","","","","","","lextale","true","false","","","","","","","",""
"1613","
  <p style=""font-size: 40px;"">twindle</p>
  <p style=""font-size: 16px;"">F = YES &nbsp;&nbsp;&nbsp; J = NO</p>
","f","html-keyboard-response","17","2.1.0","65480","F=YES, J=NO","fmyqa598yz","2","70","80","60","","","","","","lextale","false","false","","","","","","","",""
"631","
  <p style=""font-size: 40px;"">propose</p>
  <p style=""font-size: 16px;"">F = YES &nbsp;&nbsp;&nbsp; J = NO</p>
","f","html-keyboard-response","18","2.1.0","66113","F=YES, J=NO","fmyqa598yz","2","70","80","60","","","","","","lextale","true","false","","","","","","","",""
"1021","
  <p style=""font-size: 40px;"">forlay</p>
  <p style=""font-size: 16px;"">F = YES &nbsp;&nbsp;&nbsp; J = NO</p>
","f","html-keyboard-response","19","2.1.0","67136","F=YES, J=NO","fmyqa598yz","2","70","80","60","","","","","","lextale","false","false","","","","","","","",""
"926","
  <p style=""font-size: 40px;"">tenant</p>
  <p style=""font-size: 16px;"">F = YES &nbsp;&nbsp;&nbsp; J = NO</p>
","f","html-keyboard-response","20","2.1.0","68064","F=YES, J=NO","fmyqa598yz","2","70","80","60","","","","","","lextale","true","false","","","","","","","",""
"878","
  <p style=""font-size: 40px;"">strain</p>
  <p style=""font-size: 16px;"">F = YES &nbsp;&nbsp;&nbsp; J = NO</p>
","f","html-keyboard-response","21","2.1.0","68944","F=YES, J=NO","fmyqa598yz","2","70","80","60","","","","","","lextale","true","false","","","","","","","",""
"1725","
  <p style=""font-size: 40px;"">holster</p>
  <p style=""font-size: 16px;"">F = YES &nbsp;&nbsp;&nbsp; J = NO</p>
","f","html-keyboard-response","22","2.1.0","70671","F=YES, J=NO","fmyqa598yz","2","70","80","60","","","","","","lextale","true","false","","","","","","","",""
"1272","
  <p style=""font-size: 40px;"">hinder</p>
  <p style=""font-size: 16px;"">F = YES &nbsp;&nbsp;&nbsp; J = NO</p>
","f","html-keyboard-response","23","2.1.0","71944","F=YES, J=NO","fmyqa598yz","2","70","80","60","","","","","","lextale","true","false","","","","","","","",""
"1469","
  <p style=""font-size: 40px;"">swindle</p>
  <p style=""font-size: 16px;"">F = YES &nbsp;&nbsp;&nbsp; J = NO</p>
","f","html-keyboard-response","24","2.1.0","73415","F=YES, J=NO","fmyqa598yz","2","70","80","60","","","","","","lextale","true","false","","","","","","","",""
"3081","
  <p style=""font-size: 40px;"">nuder</p>
  <p style=""font-size: 16px;"">F = YES &nbsp;&nbsp;&nbsp; J = NO</p>
","j","html-keyboard-response","25","2.1.0","76496","F=YES, J=NO","fmyqa598yz","2","70","80","60","","","","","","lextale","false","false","","","","","","","",""
"911","
  <p style=""font-size: 40px;"">pillow</p>
  <p style=""font-size: 16px;"">F = YES &nbsp;&nbsp;&nbsp; J = NO</p>
","f","html-keyboard-response","26","2.1.0","77408","F=YES, J=NO","fmyqa598yz","2","70","80","60","","","","","","lextale","true","false","","","","","","","",""
"2238","
  <p style=""font-size: 40px;"">shumble</p>
  <p style=""font-size: 16px;"">F = YES &nbsp;&nbsp;&nbsp; J = NO</p>
","j","html-keyboard-response","27","2.1.0","79648","F=YES, J=NO","fmyqa598yz","2","70","80","60","","","","","","lextale","false","false","","","","","","","",""
"701","
  <p style=""font-size: 40px;"">thirst</p>
  <p style=""font-size: 16px;"">F = YES &nbsp;&nbsp;&nbsp; J = NO</p>
","f","html-keyboard-response","28","2.1.0","80350","F=YES, J=NO","fmyqa598yz","2","70","80","60","","","","","","lextale","true","false","","","","","","","",""
"2241","
  <p style=""font-size: 40px;"">unsail</p>
  <p style=""font-size: 16px;"">F = YES &nbsp;&nbsp;&nbsp; J = NO</p>
","f","html-keyboard-response","29","2.1.0","82592","F=YES, J=NO","fmyqa598yz","2","70","80","60","","","","","","lextale","false","false","","","","","","","",""
"750","
  <p style=""font-size: 40px;"">rifle</p>
  <p style=""font-size: 16px;"">F = YES &nbsp;&nbsp;&nbsp; J = NO</p>
","f","html-keyboard-response","30","2.1.0","83344","F=YES, J=NO","fmyqa598yz","2","70","80","60","","","","","","lextale","true","false","","","","","","","",""
"806","
  <p style=""font-size: 40px;"">mush</p>
  <p style=""font-size: 16px;"">F = YES &nbsp;&nbsp;&nbsp; J = NO</p>
","f","html-keyboard-response","31","2.1.0","84152","F=YES, J=NO","fmyqa598yz","2","70","80","60","","","","","","lextale","false","false","","","","","","","",""
"902","
  <p style=""font-size: 40px;"">drench</p>
  <p style=""font-size: 16px;"">F = YES &nbsp;&nbsp;&nbsp; J = NO</p>
","f","html-keyboard-response","32","2.1.0","85056","F=YES, J=NO","fmyqa598yz","2","70","80","60","","","","","","lextale","true","false","","","","","","","",""
"2399","
  <p style=""font-size: 40px;"">snirt</p>
  <p style=""font-size: 16px;"">F = YES &nbsp;&nbsp;&nbsp; J = NO</p>
","j","html-keyboard-response","33","2.1.0","87457","F=YES, J=NO","fmyqa598yz","2","70","80","60","","","","","","lextale","false","false","","","","","","","",""
"1038","
  <p style=""font-size: 40px;"">bitter</p>
  <p style=""font-size: 16px;"">F = YES &nbsp;&nbsp;&nbsp; J = NO</p>
","f","html-keyboard-response","34","2.1.0","88496","F=YES, J=NO","fmyqa598yz","2","70","80","60","","","","","","lextale","true","false","","","","","","","",""
"2070","
  <p style=""font-size: 40px;"">pliff</p>
  <p style=""font-size: 16px;"">F = YES &nbsp;&nbsp;&nbsp; J = NO</p>
","j","html-keyboard-response","35","2.1.0","90568","F=YES, J=NO","fmyqa598yz","2","70","80","60","","","","","","lextale","false","false","","","","","","","",""
"758","
  <p style=""font-size: 40px;"">tablet</p>
  <p style=""font-size: 16px;"">F = YES &nbsp;&nbsp;&nbsp; J = NO</p>
","f","html-keyboard-response","36","2.1.0","91329","F=YES, J=NO","fmyqa598yz","2","70","80","60","","","","","","lextale","true","false","","","","","","","",""
"1165","
  <p style=""font-size: 40px;"">glimmer</p>
  <p style=""font-size: 16px;"">F = YES &nbsp;&nbsp;&nbsp; J = NO</p>
","f","html-keyboard-response","37","2.1.0","92495","F=YES, J=NO","fmyqa598yz","2","70","80","60","","","","","","lextale","true","false","","","","","","","",""
"2526","
  <p style=""font-size: 40px;"">slink</p>
  <p style=""font-size: 16px;"">F = YES &nbsp;&nbsp;&nbsp; J = NO</p>
","j","html-keyboard-response","38","2.1.0","95022","F=YES, J=NO","fmyqa598yz","2","70","80","60","","","","","","lextale","true","false","","","","","","","",""
"762","
  <p style=""font-size: 40px;"">clever</p>
  <p style=""font-size: 16px;"">F = YES &nbsp;&nbsp;&nbsp; J = NO</p>
","f","html-keyboard-response","39","2.1.0","95784","F=YES, J=NO","fmyqa598yz","2","70","80","60","","","","","","lextale","true","false","","","","","","","",""
"1046","
  <p style=""font-size: 40px;"">grum</p>
  <p style=""font-size: 16px;"">F = YES &nbsp;&nbsp;&nbsp; J = NO</p>
","j","html-keyboard-response","40","2.1.0","96832","F=YES, J=NO","fmyqa598yz","2","70","80","60","","","","","","lextale","false","false","","","","","","","",""
"662","
  <p style=""font-size: 40px;"">string</p>
  <p style=""font-size: 16px;"">F = YES &nbsp;&nbsp;&nbsp; J = NO</p>
","f","html-keyboard-response","41","2.1.0","97496","F=YES, J=NO","fmyqa598yz","2","70","80","60","","","","","","lextale","true","false","","","","","","","",""
"2406","
  <p style=""font-size: 40px;"">plim</p>
  <p style=""font-size: 16px;"">F = YES &nbsp;&nbsp;&nbsp; J = NO</p>
","j","html-keyboard-response","42","2.1.0","99904","F=YES, J=NO","fmyqa598yz","2","70","80","60","","","","","","lextale","false","false","","","","","","","",""
"702","
  <p style=""font-size: 40px;"">cable</p>
  <p style=""font-size: 16px;"">F = YES &nbsp;&nbsp;&nbsp; J = NO</p>
","f","html-keyboard-response","43","2.1.0","100609","F=YES, J=NO","fmyqa598yz","2","70","80","60","","","","","","lextale","true","false","","","","","","","",""
"1980","
  <p style=""font-size: 40px;"">shrivel</p>
  <p style=""font-size: 16px;"">F = YES &nbsp;&nbsp;&nbsp; J = NO</p>
","f","html-keyboard-response","44","2.1.0","102590","F=YES, J=NO","fmyqa598yz","2","70","80","60","","","","","","lextale","true","false","","","","","","","",""
"809","
  <p style=""font-size: 40px;"">tarnish</p>
  <p style=""font-size: 16px;"">F = YES &nbsp;&nbsp;&nbsp; J = NO</p>
","f","html-keyboard-response","45","2.1.0","103401","F=YES, J=NO","fmyqa598yz","2","70","80","60","","","","","","lextale","true","false","","","","","","","",""
"558","
  <p style=""font-size: 40px;"">blim</p>
  <p style=""font-size: 16px;"">F = YES &nbsp;&nbsp;&nbsp; J = NO</p>
","f","html-keyboard-response","46","2.1.0","103960","F=YES, J=NO","fmyqa598yz","2","70","80","60","","","","","","lextale","false","false","","","","","","","",""
"982","
  <p style=""font-size: 40px;"">stifle</p>
  <p style=""font-size: 16px;"">F = YES &nbsp;&nbsp;&nbsp; J = NO</p>
","f","html-keyboard-response","47","2.1.0","104944","F=YES, J=NO","fmyqa598yz","2","70","80","60","","","","","","lextale","true","false","","","","","","","",""
"1046","
  <p style=""font-size: 40px;"">bint</p>
  <p style=""font-size: 16px;"">F = YES &nbsp;&nbsp;&nbsp; J = NO</p>
","j","html-keyboard-response","48","2.1.0","105992","F=YES, J=NO","fmyqa598yz","2","70","80","60","","","","","","lextale","false","false","","","","","","","",""
"773","
  <p style=""font-size: 40px;"">purple</p>
  <p style=""font-size: 16px;"">F = YES &nbsp;&nbsp;&nbsp; J = NO</p>
","f","html-keyboard-response","49","2.1.0","106766","F=YES, J=NO","fmyqa598yz","2","70","80","60","","","","","","lextale","true","false","","","","","","","",""
"994","
  <p style=""font-size: 40px;"">wriggle</p>
  <p style=""font-size: 16px;"">F = YES &nbsp;&nbsp;&nbsp; J = NO</p>
","f","html-keyboard-response","50","2.1.0","107761","F=YES, J=NO","fmyqa598yz","2","70","80","60","","","","","","lextale","true","false","","","","","","","",""
"1020","
  <p style=""font-size: 40px;"">mangle</p>
  <p style=""font-size: 16px;"">F = YES &nbsp;&nbsp;&nbsp; J = NO</p>
","f","html-keyboard-response","51","2.1.0","108783","F=YES, J=NO","fmyqa598yz","2","70","80","60","","","","","","lextale","true","false","","","","","","","",""
"689","
  <p style=""font-size: 40px;"">shramp</p>
  <p style=""font-size: 16px;"">F = YES &nbsp;&nbsp;&nbsp; J = NO</p>
","f","html-keyboard-response","52","2.1.0","109472","F=YES, J=NO","fmyqa598yz","2","70","80","60","","","","","","lextale","false","false","","","","","","","",""
"2110","
  <p style=""font-size: 40px;"">flirt</p>
  <p style=""font-size: 16px;"">F = YES &nbsp;&nbsp;&nbsp; J = NO</p>
","f","html-keyboard-response","53","2.1.0","111584","F=YES, J=NO","fmyqa598yz","2","70","80","60","","","","","","lextale","true","false","","","","","","","",""
"1015","
  <p style=""font-size: 40px;"">frip</p>
  <p style=""font-size: 16px;"">F = YES &nbsp;&nbsp;&nbsp; J = NO</p>
","j","html-keyboard-response","54","2.1.0","112601","F=YES, J=NO","fmyqa598yz","2","70","80","60","","","","","","lextale","false","false","","","","","","","",""
"1566","
  <p style=""font-size: 40px;"">tangle</p>
  <p style=""font-size: 16px;"">F = YES &nbsp;&nbsp;&nbsp; J = NO</p>
","f","html-keyboard-response","55","2.1.0","114168","F=YES, J=NO","fmyqa598yz","2","70","80","60","","","","","","lextale","true","false","","","","","","","",""
"950","
  <p style=""font-size: 40px;"">crumble</p>
  <p style=""font-size: 16px;"">F = YES &nbsp;&nbsp;&nbsp; J = NO</p>
","f","html-keyboard-response","56","2.1.0","115120","F=YES, J=NO","fmyqa598yz","2","70","80","60","","","","","","lextale","true","false","","","","","","","",""
"772","
  <p style=""font-size: 40px;"">wrinkle</p>
  <p style=""font-size: 16px;"">F = YES &nbsp;&nbsp;&nbsp; J = NO</p>
","f","html-keyboard-response","57","2.1.0","115894","F=YES, J=NO","fmyqa598yz","2","70","80","60","","","","","","lextale","true","false","","","","","","","",""
"2664","
  <p style=""font-size: 40px;"">slumb</p>
  <p style=""font-size: 16px;"">F = YES &nbsp;&nbsp;&nbsp; J = NO</p>
","j","html-keyboard-response","58","2.1.0","118558","F=YES, J=NO","fmyqa598yz","2","70","80","60","","","","","","lextale","false","false","","","","","","","",""
"769","
  <p style=""font-size: 40px;"">jungle</p>
  <p style=""font-size: 16px;"">F = YES &nbsp;&nbsp;&nbsp; J = NO</p>
","f","html-keyboard-response","59","2.1.0","119328","F=YES, J=NO","fmyqa598yz","2","70","80","60","","","","","","lextale","true","false","","","","","","","",""
"965","
  <p style=""font-size: 40px;"">frolick</p>
  <p style=""font-size: 16px;"">F = YES &nbsp;&nbsp;&nbsp; J = NO</p>
","j","html-keyboard-response","60","2.1.0","120294","F=YES, J=NO","fmyqa598yz","2","70","80","60","","","","","","lextale","false","false","","","","","","","",""
"7769","
      <h2>LexTALE Test Completed</h2>
      <p>Your LexTALE vocabulary score is: <strong>70%</strong></p>
      <p>Press any key to continue.</p>
    ","f","html-keyboard-response","61","2.1.0","128064","F=YES, J=NO","fmyqa598yz","2","70","80","60","","","","","","","","","","","","","","","",""
"10239","
    <div style=""max-width: 800px; margin: auto; text-align: left;"">
      <h2>Break Time</h2>
      <p>You have completed the first part of the study.</p>
      <p>You may take a short <strong>30-second break</strong> before continuing.</p>
      <p>When you’re ready, press any key to continue to the final task.</p>
    </div>
  ","f","html-keyboard-response","62","2.1.0","138305","F=YES, J=NO","fmyqa598yz","2","70","80","60","","","","","","","","","","","","","","","",""
"7080","
    <div style=""max-width: 800px; margin: auto; text-align: left;"">
      <h2>Part 2: Lexical Decision Task</h2>
      <p>You will now begin the second part of the study.</p>
      <p>Each trial will follow this sequence:</p>
      <ul>
        <li>A fixation cross (+) appears at the center of the screen.</li>
        <li>You will hear a short beep followed by a spoken word.</li>
        <li>A written word will appear briefly on the screen.</li>
      </ul>
      <p>Your task is to judge whether the <strong>written word</strong> is a real English word.</p>
      <p style=""margin-top: 1em;""><strong>Key responses:</strong></p>
      <ul>
        <li><strong>F</strong> = YES (real English word)</li>
        <li><strong>J</strong> = NO (not a real English word)</li>
      </ul>
      <p>Please respond as quickly and accurately as you can.</p>
      <p style=""margin-top: 2em;"">Press any key to continue.</p>
    </div>
  ","AudioVolumeUp","html-keyboard-response","63","2.1.0","145387","F=YES, J=NO","fmyqa598yz","2","70","80","60","","","","","","","","","","","","","","","",""
"8284","
    <div style=""max-width: 800px; margin: auto; text-align: left;"">
      <h2>Before You Begin</h2>
      <p>Make sure your sound is turned on.</p>
      <p>You will hear audio during each trial, but your decision should be based only on the <strong>written word</strong> you see on the screen.</p>
      <p><strong>Reminder:</strong></p>
      <ul>
        <li><strong>F</strong> = YES (real English word)</li>
        <li><strong>J</strong> = NO (not a real English word)</li>
      </ul>
      <p style=""margin-top: 2em;"">Press any key when you are ready to begin.</p>
    </div>
  ","f","html-keyboard-response","64","2.1.0","153673","F=YES, J=NO","fmyqa598yz","2","70","80","60","","","","","","","","","","","","","","","",""
"4284","
    <div style=""max-width: 800px; margin: auto; text-align: left;"">
      <h2>Part 2: Practice Trials</h2>
      <p>You will now complete a few <strong>practice trials</strong> to get familiar with the task.</p>
      <p>These trials are <strong>not scored</strong> and are only to help you get used to the format.</p>
      <p style=""margin-top: 2em;"">Press any key to begin.</p>
    </div>
  ","f","html-keyboard-response","65","2.1.0","157958","F=YES, J=NO","fmyqa598yz","2","70","80","60","","","","","","","","","","","","","","","",""
"948","<p>Starting practice block 1 of 2. Press any key to continue.</p>","AudioVolumeUp","html-keyboard-response","66","2.1.0","158907","F=YES, J=NO","fmyqa598yz","2","70","80","60","","","","","","","","","","","","","","","",""
"null","<p style=""font-size: 50px;"">+</p>","null","html-keyboard-response","67","2.1.0","159219","F=YES, J=NO","fmyqa598yz","2","70","80","60","","","","","","","","","","","","","","","",""
"null","audio/beep-329314.mp3","null","audio-keyboard-response","68","2.1.0","160790","F=YES, J=NO","fmyqa598yz","2","70","80","60","","","","","","","","","","","","","","","",""
"null","audio/fence.wav","null","audio-keyboard-response","69","2.1.0","161478","F=YES, J=NO","fmyqa598yz","2","70","80","60","","","","","","","","","","","","","","","",""
"null","
          <p id=""word"" style=""font-size: 40px;"">trim</p>
          <p style=""font-size: 16px;"">F = YES &nbsp;&nbsp;&nbsp; J = NO</p>
        ","null","html-keyboard-response","70","2.1.0","162993","F=YES, J=NO","fmyqa598yz","2","70","80","60","","","","","","","","","trim","fence","filler","filler","f","false","",""
"null","<p style=""font-size: 50px;"">+</p>","null","html-keyboard-response","71","2.1.0","163307","F=YES, J=NO","fmyqa598yz","2","70","80","60","","","","","","","","","","","","","","","",""
"null","audio/beep-329314.mp3","null","audio-keyboard-response","72","2.1.0","164850","F=YES, J=NO","fmyqa598yz","2","70","80","60","","","","","","","","","","","","","","","",""
"null","audio/vehicle1.wav","null","audio-keyboard-response","73","2.1.0","165520","F=YES, J=NO","fmyqa598yz","2","70","80","60","","","","","","","","","","","","","","","",""
"1062","
          <p id=""word"" style=""font-size: 40px;"">dropt</p>
          <p style=""font-size: 16px;"">F = YES &nbsp;&nbsp;&nbsp; J = NO</p>
        ","j","html-keyboard-response","74","2.1.0","166584","F=YES, J=NO","fmyqa598yz","2","70","80","60","","","","","","","","","dropt","vehicle1","pseudoword","pseudoword","j","true","",""
"null","<p style=""font-size: 50px;"">+</p>","null","html-keyboard-response","75","2.1.0","166901","F=YES, J=NO","fmyqa598yz","2","70","80","60","","","","","","","","","","","","","","","",""
"null","audio/beep-329314.mp3","null","audio-keyboard-response","76","2.1.0","168427","F=YES, J=NO","fmyqa598yz","2","70","80","60","","","","","","","","","","","","","","","",""
"null","audio/strength.wav","null","audio-keyboard-response","77","2.1.0","169159","F=YES, J=NO","fmyqa598yz","2","70","80","60","","","","","","","","","","","","","","","",""
"847","
          <p id=""word"" style=""font-size: 40px;"">plabet</p>
          <p style=""font-size: 16px;"">F = YES &nbsp;&nbsp;&nbsp; J = NO</p>
        ","j","html-keyboard-response","78","2.1.0","170007","F=YES, J=NO","fmyqa598yz","2","70","80","60","","","","","","","","","plabet","strength","pseudoword","pseudoword","j","true","",""
"null","<p style=""font-size: 50px;"">+</p>","null","html-keyboard-response","79","2.1.0","170321","F=YES, J=NO","fmyqa598yz","2","70","80","60","","","","","","","","","","","","","","","",""
"null","audio/beep-329314.mp3","null","audio-keyboard-response","80","2.1.0","171850","F=YES, J=NO","fmyqa598yz","2","70","80","60","","","","","","","","","","","","","","","",""
"null","audio/winter.wav","null","audio-keyboard-response","81","2.1.0","172440","F=YES, J=NO","fmyqa598yz","2","70","80","60","","","","","","","","","","","","","","","",""
"1093","
          <p id=""word"" style=""font-size: 40px;"">straven</p>
          <p style=""font-size: 16px;"">F = YES &nbsp;&nbsp;&nbsp; J = NO</p>
        ","j","html-keyboard-response","82","2.1.0","173534","F=YES, J=NO","fmyqa598yz","2","70","80","60","","","","","","","","","straven","winter","pseudoword","pseudoword","j","true","",""
"null","<p style=""font-size: 50px;"">+</p>","null","html-keyboard-response","83","2.1.0","173836","F=YES, J=NO","fmyqa598yz","2","70","80","60","","","","","","","","","","","","","","","",""
"null","audio/beep-329314.mp3","null","audio-keyboard-response","84","2.1.0","175370","F=YES, J=NO","fmyqa598yz","2","70","80","60","","","","","","","","","","","","","","","",""
"null","audio/breath.wav","null","audio-keyboard-response","85","2.1.0","175939","F=YES, J=NO","fmyqa598yz","2","70","80","60","","","","","","","","","","","","","","","",""
"1186","
          <p id=""word"" style=""font-size: 40px;"">twets</p>
          <p style=""font-size: 16px;"">F = YES &nbsp;&nbsp;&nbsp; J = NO</p>
        ","j","html-keyboard-response","86","2.1.0","177128","F=YES, J=NO","fmyqa598yz","2","70","80","60","","","","","","","","","twets","breath","pseudoword","pseudoword","j","true","",""
"null","<p style=""font-size: 50px;"">+</p>","null","html-keyboard-response","87","2.1.0","177445","F=YES, J=NO","fmyqa598yz","2","70","80","60","","","","","","","","","","","","","","","",""
"null","audio/beep-329314.mp3","null","audio-keyboard-response","88","2.1.0","178970","F=YES, J=NO","fmyqa598yz","2","70","80","60","","","","","","","","","","","","","","","",""
"null","audio/kettle1.wav","null","audio-keyboard-response","89","2.1.0","179457","F=YES, J=NO","fmyqa598yz","2","70","80","60","","","","","","","","","","","","","","","",""
"1228","
          <p id=""word"" style=""font-size: 40px;"">wrap</p>
          <p style=""font-size: 16px;"">F = YES &nbsp;&nbsp;&nbsp; J = NO</p>
        ","f","html-keyboard-response","90","2.1.0","180686","F=YES, J=NO","fmyqa598yz","2","70","80","60","","","","","","","","","wrap","kettle1","filler","filler","f","true","",""
"null","<p style=""font-size: 50px;"">+</p>","null","html-keyboard-response","91","2.1.0","180988","F=YES, J=NO","fmyqa598yz","2","70","80","60","","","","","","","","","","","","","","","",""
"null","audio/beep-329314.mp3","null","audio-keyboard-response","92","2.1.0","182528","F=YES, J=NO","fmyqa598yz","2","70","80","60","","","","","","","","","","","","","","","",""
"null","audio/terrain.wav","null","audio-keyboard-response","93","2.1.0","183160","F=YES, J=NO","fmyqa598yz","2","70","80","60","","","","","","","","","","","","","","","",""
"862","
          <p id=""word"" style=""font-size: 40px;"">twist</p>
          <p style=""font-size: 16px;"">F = YES &nbsp;&nbsp;&nbsp; J = NO</p>
        ","f","html-keyboard-response","94","2.1.0","184023","F=YES, J=NO","fmyqa598yz","2","70","80","60","","","","","","","","","twist","terrain","filler","filler","f","true","",""
"null","<p style=""font-size: 50px;"">+</p>","null","html-keyboard-response","95","2.1.0","184327","F=YES, J=NO","fmyqa598yz","2","70","80","60","","","","","","","","","","","","","","","",""
"null","audio/beep-329314.mp3","null","audio-keyboard-response","96","2.1.0","185851","F=YES, J=NO","fmyqa598yz","2","70","80","60","","","","","","","","","","","","","","","",""
"null","audio/bridge.wav","null","audio-keyboard-response","97","2.1.0","186418","F=YES, J=NO","fmyqa598yz","2","70","80","60","","","","","","","","","","","","","","","",""
"830","
          <p id=""word"" style=""font-size: 40px;"">crack</p>
          <p style=""font-size: 16px;"">F = YES &nbsp;&nbsp;&nbsp; J = NO</p>
        ","f","html-keyboard-response","98","2.1.0","187249","F=YES, J=NO","fmyqa598yz","2","70","80","60","","","","","","","","","crack","bridge","filler","filler","f","true","",""
"null","<p style=""font-size: 50px;"">+</p>","null","html-keyboard-response","99","2.1.0","187554","F=YES, J=NO","fmyqa598yz","2","70","80","60","","","","","","","","","","","","","","","",""
"null","audio/beep-329314.mp3","null","audio-keyboard-response","100","2.1.0","189089","F=YES, J=NO","fmyqa598yz","2","70","80","60","","","","","","","","","","","","","","","",""
"null","audio/account1.wav","null","audio-keyboard-response","101","2.1.0","189777","F=YES, J=NO","fmyqa598yz","2","70","80","60","","","","","","","","","","","","","","","",""
"1101","
          <p id=""word"" style=""font-size: 40px;"">paint</p>
          <p style=""font-size: 16px;"">F = YES &nbsp;&nbsp;&nbsp; J = NO</p>
        ","f","html-keyboard-response","102","2.1.0","190880","F=YES, J=NO","fmyqa598yz","2","70","80","60","","","","","","","","","paint","account1","filler","filler","f","true","",""
"null","<p style=""font-size: 50px;"">+</p>","null","html-keyboard-response","103","2.1.0","191185","F=YES, J=NO","fmyqa598yz","2","70","80","60","","","","","","","","","","","","","","","",""
"null","audio/beep-329314.mp3","null","audio-keyboard-response","104","2.1.0","192710","F=YES, J=NO","fmyqa598yz","2","70","80","60","","","","","","","","","","","","","","","",""
"null","audio/bishop1.wav","null","audio-keyboard-response","105","2.1.0","193320","F=YES, J=NO","fmyqa598yz","2","70","80","60","","","","","","","","","","","","","","","",""
"535","
          <p id=""word"" style=""font-size: 40px;"">play</p>
          <p style=""font-size: 16px;"">F = YES &nbsp;&nbsp;&nbsp; J = NO</p>
        ","f","html-keyboard-response","106","2.1.0","193856","F=YES, J=NO","fmyqa598yz","2","70","80","60","","","","","","","","","play","bishop1","filler","filler","f","true","",""
"null","<p style=""font-size: 50px;"">+</p>","null","html-keyboard-response","107","2.1.0","194167","F=YES, J=NO","fmyqa598yz","2","70","80","60","","","","","","","","","","","","","","","",""
"null","audio/beep-329314.mp3","null","audio-keyboard-response","108","2.1.0","195690","F=YES, J=NO","fmyqa598yz","2","70","80","60","","","","","","","","","","","","","","","",""
"null","audio/radio1.wav","null","audio-keyboard-response","109","2.1.0","196319","F=YES, J=NO","fmyqa598yz","2","70","80","60","","","","","","","","","","","","","","","",""
"null","
          <p id=""word"" style=""font-size: 40px;"">blanter</p>
          <p style=""font-size: 16px;"">F = YES &nbsp;&nbsp;&nbsp; J = NO</p>
        ","null","html-keyboard-response","110","2.1.0","197827","F=YES, J=NO","fmyqa598yz","2","70","80","60","","","","","","","","","blanter","radio1","pseudoword","pseudoword","j","false","",""
"null","<p style=""font-size: 50px;"">+</p>","null","html-keyboard-response","111","2.1.0","198141","F=YES, J=NO","fmyqa598yz","2","70","80","60","","","","","","","","","","","","","","","",""
"null","audio/beep-329314.mp3","null","audio-keyboard-response","112","2.1.0","199670","F=YES, J=NO","fmyqa598yz","2","70","80","60","","","","","","","","","","","","","","","",""
"null","audio/scar.wav","null","audio-keyboard-response","113","2.1.0","200260","F=YES, J=NO","fmyqa598yz","2","70","80","60","","","","","","","","","","","","","","","",""
"null","
          <p id=""word"" style=""font-size: 40px;"">adelineate</p>
          <p style=""font-size: 16px;"">F = YES &nbsp;&nbsp;&nbsp; J = NO</p>
        ","null","html-keyboard-response","114","2.1.0","201768","F=YES, J=NO","fmyqa598yz","2","70","80","60","","","","","","","","","adelineate","scar","pseudoword","pseudoword","j","false","",""
"86","<p>Starting practice block 2 of 2. Press any key to continue.</p>","j","html-keyboard-response","115","2.1.0","201856","F=YES, J=NO","fmyqa598yz","2","70","80","60","","","","","","","","","","","","","","","",""
"null","<p style=""font-size: 50px;"">+</p>","null","html-keyboard-response","116","2.1.0","202165","F=YES, J=NO","fmyqa598yz","2","70","80","60","","","","","","","","","","","","","","","",""
"null","audio/beep-329314.mp3","null","audio-keyboard-response","117","2.1.0","203688","F=YES, J=NO","fmyqa598yz","2","70","80","60","","","","","","","","","","","","","","","",""
"null","audio/gift1.wav","null","audio-keyboard-response","118","2.1.0","204180","F=YES, J=NO","fmyqa598yz","2","70","80","60","","","","","","","","","","","","","","","",""
"954","
          <p id=""word"" style=""font-size: 40px;"">protsh</p>
          <p style=""font-size: 16px;"">F = YES &nbsp;&nbsp;&nbsp; J = NO</p>
        ","j","html-keyboard-response","119","2.1.0","205135","F=YES, J=NO","fmyqa598yz","2","70","80","60","","","","","","","","","protsh","gift1","pseudoword","pseudoword","j","true","",""
"null","<p style=""font-size: 50px;"">+</p>","null","html-keyboard-response","120","2.1.0","205437","F=YES, J=NO","fmyqa598yz","2","70","80","60","","","","","","","","","","","","","","","",""
"null","audio/beep-329314.mp3","null","audio-keyboard-response","121","2.1.0","206968","F=YES, J=NO","fmyqa598yz","2","70","80","60","","","","","","","","","","","","","","","",""
"null","audio/bottle.wav","null","audio-keyboard-response","122","2.1.0","207459","F=YES, J=NO","fmyqa598yz","2","70","80","60","","","","","","","","","","","","","","","",""
"595","
          <p id=""word"" style=""font-size: 40px;"">watch</p>
          <p style=""font-size: 16px;"">F = YES &nbsp;&nbsp;&nbsp; J = NO</p>
        ","f","html-keyboard-response","123","2.1.0","208055","F=YES, J=NO","fmyqa598yz","2","70","80","60","","","","","","","","","watch","bottle","filler","filler","f","true","",""
"null","<p style=""font-size: 50px;"">+</p>","null","html-keyboard-response","124","2.1.0","208366","F=YES, J=NO","fmyqa598yz","2","70","80","60","","","","","","","","","","","","","","","",""
"null","audio/beep-329314.mp3","null","audio-keyboard-response","125","2.1.0","209909","F=YES, J=NO","fmyqa598yz","2","70","80","60","","","","","","","","","","","","","","","",""
"null","audio/show.wav","null","audio-keyboard-response","126","2.1.0","210479","F=YES, J=NO","fmyqa598yz","2","70","80","60","","","","","","","","","","","","","","","",""
"935","
          <p id=""word"" style=""font-size: 40px;"">smark</p>
          <p style=""font-size: 16px;"">F = YES &nbsp;&nbsp;&nbsp; J = NO</p>
        ","f","html-keyboard-response","127","2.1.0","211416","F=YES, J=NO","fmyqa598yz","2","70","80","60","","","","","","","","","smark","show","pseudoword","pseudoword","j","false","",""
"null","<p style=""font-size: 50px;"">+</p>","null","html-keyboard-response","128","2.1.0","211727","F=YES, J=NO","fmyqa598yz","2","70","80","60","","","","","","","","","","","","","","","",""
"null","audio/beep-329314.mp3","null","audio-keyboard-response","129","2.1.0","213270","F=YES, J=NO","fmyqa598yz","2","70","80","60","","","","","","","","","","","","","","","",""
"null","audio/voice.wav","null","audio-keyboard-response","130","2.1.0","213899","F=YES, J=NO","fmyqa598yz","2","70","80","60","","","","","","","","","","","","","","","",""
"1001","
          <p id=""word"" style=""font-size: 40px;"">grintle</p>
          <p style=""font-size: 16px;"">F = YES &nbsp;&nbsp;&nbsp; J = NO</p>
        ","j","html-keyboard-response","131","2.1.0","214902","F=YES, J=NO","fmyqa598yz","2","70","80","60","","","","","","","","","grintle","voice","pseudoword","pseudoword","j","true","",""
"null","<p style=""font-size: 50px;"">+</p>","null","html-keyboard-response","132","2.1.0","215209","F=YES, J=NO","fmyqa598yz","2","70","80","60","","","","","","","","","","","","","","","",""
"null","audio/beep-329314.mp3","null","audio-keyboard-response","133","2.1.0","216750","F=YES, J=NO","fmyqa598yz","2","70","80","60","","","","","","","","","","","","","","","",""
"null","audio/baby.wav","null","audio-keyboard-response","134","2.1.0","217239","F=YES, J=NO","fmyqa598yz","2","70","80","60","","","","","","","","","","","","","","","",""
"805","
          <p id=""word"" style=""font-size: 40px;"">lift</p>
          <p style=""font-size: 16px;"">F = YES &nbsp;&nbsp;&nbsp; J = NO</p>
        ","f","html-keyboard-response","135","2.1.0","218046","F=YES, J=NO","fmyqa598yz","2","70","80","60","","","","","","","","","lift","baby","filler","filler","f","true","",""
"null","<p style=""font-size: 50px;"">+</p>","null","html-keyboard-response","136","2.1.0","218351","F=YES, J=NO","fmyqa598yz","2","70","80","60","","","","","","","","","","","","","","","",""
"null","audio/beep-329314.mp3","null","audio-keyboard-response","137","2.1.0","219890","F=YES, J=NO","fmyqa598yz","2","70","80","60","","","","","","","","","","","","","","","",""
"null","audio/pattern.wav","null","audio-keyboard-response","138","2.1.0","220437","F=YES, J=NO","fmyqa598yz","2","70","80","60","","","","","","","","","","","","","","","",""
"922","
          <p id=""word"" style=""font-size: 40px;"">tug</p>
          <p style=""font-size: 16px;"">F = YES &nbsp;&nbsp;&nbsp; J = NO</p>
        ","j","html-keyboard-response","139","2.1.0","221360","F=YES, J=NO","fmyqa598yz","2","70","80","60","","","","","","","","","tug","pattern","filler","filler","f","false","",""
"null","<p style=""font-size: 50px;"">+</p>","null","html-keyboard-response","140","2.1.0","221664","F=YES, J=NO","fmyqa598yz","2","70","80","60","","","","","","","","","","","","","","","",""
"null","audio/beep-329314.mp3","null","audio-keyboard-response","141","2.1.0","223189","F=YES, J=NO","fmyqa598yz","2","70","80","60","","","","","","","","","","","","","","","",""
"null","audio/menu.wav","null","audio-keyboard-response","142","2.1.0","223780","F=YES, J=NO","fmyqa598yz","2","70","80","60","","","","","","","","","","","","","","","",""
"707","
          <p id=""word"" style=""font-size: 40px;"">slice</p>
          <p style=""font-size: 16px;"">F = YES &nbsp;&nbsp;&nbsp; J = NO</p>
        ","f","html-keyboard-response","143","2.1.0","224489","F=YES, J=NO","fmyqa598yz","2","70","80","60","","","","","","","","","slice","menu","filler","filler","f","true","",""
"null","<p style=""font-size: 50px;"">+</p>","null","html-keyboard-response","144","2.1.0","224802","F=YES, J=NO","fmyqa598yz","2","70","80","60","","","","","","","","","","","","","","","",""
"null","audio/beep-329314.mp3","null","audio-keyboard-response","145","2.1.0","226330","F=YES, J=NO","fmyqa598yz","2","70","80","60","","","","","","","","","","","","","","","",""
"null","audio/birth1.wav","null","audio-keyboard-response","146","2.1.0","226919","F=YES, J=NO","fmyqa598yz","2","70","80","60","","","","","","","","","","","","","","","",""
"799","
          <p id=""word"" style=""font-size: 40px;"">peel</p>
          <p style=""font-size: 16px;"">F = YES &nbsp;&nbsp;&nbsp; J = NO</p>
        ","f","html-keyboard-response","147","2.1.0","227720","F=YES, J=NO","fmyqa598yz","2","70","80","60","","","","","","","","","peel","birth1","filler","filler","f","true","",""
"null","<p style=""font-size: 50px;"">+</p>","null","html-keyboard-response","148","2.1.0","228026","F=YES, J=NO","fmyqa598yz","2","70","80","60","","","","","","","","","","","","","","","",""
"null","audio/beep-329314.mp3","null","audio-keyboard-response","149","2.1.0","229567","F=YES, J=NO","fmyqa598yz","2","70","80","60","","","","","","","","","","","","","","","",""
"null","audio/effort.wav","null","audio-keyboard-response","150","2.1.0","230179","F=YES, J=NO","fmyqa598yz","2","70","80","60","","","","","","","","","","","","","","","",""
"1250","
          <p id=""word"" style=""font-size: 40px;"">whonk</p>
          <p style=""font-size: 16px;"">F = YES &nbsp;&nbsp;&nbsp; J = NO</p>
        ","j","html-keyboard-response","151","2.1.0","231431","F=YES, J=NO","fmyqa598yz","2","70","80","60","","","","","","","","","whonk","effort","pseudoword","pseudoword","j","true","",""
"null","<p style=""font-size: 50px;"">+</p>","null","html-keyboard-response","152","2.1.0","231735","F=YES, J=NO","fmyqa598yz","2","70","80","60","","","","","","","","","","","","","","","",""
"null","audio/beep-329314.mp3","null","audio-keyboard-response","153","2.1.0","233267","F=YES, J=NO","fmyqa598yz","2","70","80","60","","","","","","","","","","","","","","","",""
"null","audio/uncle1.wav","null","audio-keyboard-response","154","2.1.0","233739","F=YES, J=NO","fmyqa598yz","2","70","80","60","","","","","","","","","","","","","","","",""
"1043","
          <p id=""word"" style=""font-size: 40px;"">dramble</p>
          <p style=""font-size: 16px;"">F = YES &nbsp;&nbsp;&nbsp; J = NO</p>
        ","j","html-keyboard-response","155","2.1.0","234784","F=YES, J=NO","fmyqa598yz","2","70","80","60","","","","","","","","","dramble","uncle1","pseudoword","pseudoword","j","true","",""
"null","<p style=""font-size: 50px;"">+</p>","null","html-keyboard-response","156","2.1.0","235097","F=YES, J=NO","fmyqa598yz","2","70","80","60","","","","","","","","","","","","","","","",""
"null","audio/beep-329314.mp3","null","audio-keyboard-response","157","2.1.0","236629","F=YES, J=NO","fmyqa598yz","2","70","80","60","","","","","","","","","","","","","","","",""
"null","audio/ankle1.wav","null","audio-keyboard-response","158","2.1.0","237160","F=YES, J=NO","fmyqa598yz","2","70","80","60","","","","","","","","","","","","","","","",""
"1076","
          <p id=""word"" style=""font-size: 40px;"">kick</p>
          <p style=""font-size: 16px;"">F = YES &nbsp;&nbsp;&nbsp; J = NO</p>
        ","f","html-keyboard-response","159","2.1.0","238237","F=YES, J=NO","fmyqa598yz","2","70","80","60","","","","","","","","","kick","ankle1","filler","filler","f","true","",""
"null","<p style=""font-size: 50px;"">+</p>","null","html-keyboard-response","160","2.1.0","238543","F=YES, J=NO","fmyqa598yz","2","70","80","60","","","","","","","","","","","","","","","",""
"null","audio/beep-329314.mp3","null","audio-keyboard-response","161","2.1.0","240070","F=YES, J=NO","fmyqa598yz","2","70","80","60","","","","","","","","","","","","","","","",""
"null","audio/smirk1.wav","null","audio-keyboard-response","162","2.1.0","240799","F=YES, J=NO","fmyqa598yz","2","70","80","60","","","","","","","","","","","","","","","",""
"694","
          <p id=""word"" style=""font-size: 40px;"">snopt</p>
          <p style=""font-size: 16px;"">F = YES &nbsp;&nbsp;&nbsp; J = NO</p>
        ","j","html-keyboard-response","163","2.1.0","241494","F=YES, J=NO","fmyqa598yz","2","70","80","60","","","","","","","","","snopt","smirk1","pseudoword","pseudoword","j","true","",""
"8777","
    <div style=""max-width: 800px; margin: auto; text-align: left;"">
      <h2>Part 2: Main Trials</h2>
      <p>Great job on the practice trials!</p>
      <p>You will now begin the <strong>main set of trials</strong>.</p>
      <p>Remember your key assignments:</p>
      <ul>
        <li><strong>F</strong> = YES (real English word)</li>
        <li><strong>J</strong> = NO (not a real English word)</li>
      </ul>
      <p>Try to respond as <strong>quickly and accurately</strong> as possible.</p>
      <p style=""margin-top: 2em;"">Press any key to begin the main trials.</p>
    </div>
  ","f","html-keyboard-response","164","2.1.0","250272","F=YES, J=NO","fmyqa598yz","2","70","80","60","","","","","","","","","","","","","","","",""
"1388","<p>Starting main block 1 of 8. Press any key to continue.</p>","f","html-keyboard-response","165","2.1.0","251662","F=YES, J=NO","fmyqa598yz","2","70","80","60","","","","","","","","","","","","","","","",""
"null","<p style=""font-size: 50px;"">+</p>","null","html-keyboard-response","166","2.1.0","251979","F=YES, J=NO","fmyqa598yz","2","70","80","60","","","","","","","","","","","","","","","",""
"null","audio/beep-329314.mp3","null","audio-keyboard-response","167","2.1.0","253480","F=YES, J=NO","fmyqa598yz","2","70","80","60","","","","","","","","","","","","","","","",""
"null","audio/pain1.wav","null","audio-keyboard-response","168","2.1.0","253909","F=YES, J=NO","fmyqa598yz","2","70","80","60","","","","","","","","","","","","","","","",""
"1040","
          <p id=""word"" style=""font-size: 40px;"">tritted</p>
          <p style=""font-size: 16px;"">F = YES &nbsp;&nbsp;&nbsp; J = NO</p>
        ","j","html-keyboard-response","169","2.1.0","254951","F=YES, J=NO","fmyqa598yz","2","70","80","60","","","","","","","","","tritted","pain1","pseudoword","pseudoword","j","true","",""
"null","<p style=""font-size: 50px;"">+</p>","null","html-keyboard-response","170","2.1.0","255269","F=YES, J=NO","fmyqa598yz","2","70","80","60","","","","","","","","","","","","","","","",""
"null","audio/beep-329314.mp3","null","audio-keyboard-response","171","2.1.0","256800","F=YES, J=NO","fmyqa598yz","2","70","80","60","","","","","","","","","","","","","","","",""
"null","audio/cave1.wav","null","audio-keyboard-response","172","2.1.0","257350","F=YES, J=NO","fmyqa598yz","2","70","80","60","","","","","","","","","","","","","","","",""
"1328","
          <p id=""word"" style=""font-size: 40px;"">blacket</p>
          <p style=""font-size: 16px;"">F = YES &nbsp;&nbsp;&nbsp; J = NO</p>
        ","j","html-keyboard-response","173","2.1.0","258680","F=YES, J=NO","fmyqa598yz","2","70","80","60","","","","","","","","","blacket","cave1","pseudoword","pseudoword","j","true","",""
"null","<p style=""font-size: 50px;"">+</p>","null","html-keyboard-response","174","2.1.0","258992","F=YES, J=NO","fmyqa598yz","2","70","80","60","","","","","","","","","","","","","","","",""
"null","audio/beep-329314.mp3","null","audio-keyboard-response","175","2.1.0","260520","F=YES, J=NO","fmyqa598yz","2","70","80","60","","","","","","","","","","","","","","","",""
"null","audio/farm1.wav","null","audio-keyboard-response","176","2.1.0","261090","F=YES, J=NO","fmyqa598yz","2","70","80","60","","","","","","","","","","","","","","","",""
"724","
          <p id=""word"" style=""font-size: 40px;"">catch</p>
          <p style=""font-size: 16px;"">F = YES &nbsp;&nbsp;&nbsp; J = NO</p>
        ","f","html-keyboard-response","177","2.1.0","261816","F=YES, J=NO","fmyqa598yz","2","70","80","60","","","","","","","","","catch","farm1","unrelated","experimental","f","true","",""
"null","<p style=""font-size: 50px;"">+</p>","null","html-keyboard-response","178","2.1.0","262119","F=YES, J=NO","fmyqa598yz","2","70","80","60","","","","","","","","","","","","","","","",""
"null","audio/beep-329314.mp3","null","audio-keyboard-response","179","2.1.0","263658","F=YES, J=NO","fmyqa598yz","2","70","80","60","","","","","","","","","","","","","","","",""
"null","audio/hawk1.wav","null","audio-keyboard-response","180","2.1.0","264250","F=YES, J=NO","fmyqa598yz","2","70","80","60","","","","","","","","","","","","","","","",""
"779","
          <p id=""word"" style=""font-size: 40px;"">ostach</p>
          <p style=""font-size: 16px;"">F = YES &nbsp;&nbsp;&nbsp; J = NO</p>
        ","j","html-keyboard-response","181","2.1.0","265031","F=YES, J=NO","fmyqa598yz","2","70","80","60","","","","","","","","","ostach","hawk1","pseudoword","pseudoword","j","true","",""
"null","<p style=""font-size: 50px;"">+</p>","null","html-keyboard-response","182","2.1.0","265341","F=YES, J=NO","fmyqa598yz","2","70","80","60","","","","","","","","","","","","","","","",""
"null","audio/beep-329314.mp3","null","audio-keyboard-response","183","2.1.0","266879","F=YES, J=NO","fmyqa598yz","2","70","80","60","","","","","","","","","","","","","","","",""
"null","audio/plot1.wav","null","audio-keyboard-response","184","2.1.0","267429","F=YES, J=NO","fmyqa598yz","2","70","80","60","","","","","","","","","","","","","","","",""
"977","
          <p id=""word"" style=""font-size: 40px;"">glenter</p>
          <p style=""font-size: 16px;"">F = YES &nbsp;&nbsp;&nbsp; J = NO</p>
        ","j","html-keyboard-response","185","2.1.0","268408","F=YES, J=NO","fmyqa598yz","2","70","80","60","","","","","","","","","glenter","plot1","pseudoword","pseudoword","j","true","",""
"null","<p style=""font-size: 50px;"">+</p>","null","html-keyboard-response","186","2.1.0","268716","F=YES, J=NO","fmyqa598yz","2","70","80","60","","","","","","","","","","","","","","","",""
"null","audio/beep-329314.mp3","null","audio-keyboard-response","187","2.1.0","270240","F=YES, J=NO","fmyqa598yz","2","70","80","60","","","","","","","","","","","","","","","",""
"null","audio/van1.wav","null","audio-keyboard-response","188","2.1.0","270730","F=YES, J=NO","fmyqa598yz","2","70","80","60","","","","","","","","","","","","","","","",""
"644","
          <p id=""word"" style=""font-size: 40px;"">support</p>
          <p style=""font-size: 16px;"">F = YES &nbsp;&nbsp;&nbsp; J = NO</p>
        ","f","html-keyboard-response","189","2.1.0","271375","F=YES, J=NO","fmyqa598yz","2","70","80","60","","","","","","","","","support","van1","unrelated","experimental","f","true","",""
"null","<p style=""font-size: 50px;"">+</p>","null","html-keyboard-response","190","2.1.0","271684","F=YES, J=NO","fmyqa598yz","2","70","80","60","","","","","","","","","","","","","","","",""
"null","audio/beep-329314.mp3","null","audio-keyboard-response","191","2.1.0","273219","F=YES, J=NO","fmyqa598yz","2","70","80","60","","","","","","","","","","","","","","","",""
"null","audio/road.wav","null","audio-keyboard-response","192","2.1.0","273650","F=YES, J=NO","fmyqa598yz","2","70","80","60","","","","","","","","","","","","","","","",""
"null","
          <p id=""word"" style=""font-size: 40px;"">wappings</p>
          <p style=""font-size: 16px;"">F = YES &nbsp;&nbsp;&nbsp; J = NO</p>
        ","null","html-keyboard-response","193","2.1.0","275153","F=YES, J=NO","fmyqa598yz","2","70","80","60","","","","","","","","","wappings","road","pseudoword","pseudoword","j","false","",""
"null","<p style=""font-size: 50px;"">+</p>","null","html-keyboard-response","194","2.1.0","275464","F=YES, J=NO","fmyqa598yz","2","70","80","60","","","","","","","","","","","","","","","",""
"null","audio/beep-329314.mp3","null","audio-keyboard-response","195","2.1.0","277000","F=YES, J=NO","fmyqa598yz","2","70","80","60","","","","","","","","","","","","","","","",""
"null","audio/card1.wav","null","audio-keyboard-response","196","2.1.0","277549","F=YES, J=NO","fmyqa598yz","2","70","80","60","","","","","","","","","","","","","","","",""
"831","
          <p id=""word"" style=""font-size: 40px;"">land</p>
          <p style=""font-size: 16px;"">F = YES &nbsp;&nbsp;&nbsp; J = NO</p>
        ","f","html-keyboard-response","197","2.1.0","278382","F=YES, J=NO","fmyqa598yz","2","70","80","60","","","","","","","","","land","card1","unrelated","experimental","f","true","",""
"null","<p style=""font-size: 50px;"">+</p>","null","html-keyboard-response","198","2.1.0","278688","F=YES, J=NO","fmyqa598yz","2","70","80","60","","","","","","","","","","","","","","","",""
"null","audio/beep-329314.mp3","null","audio-keyboard-response","199","2.1.0","280219","F=YES, J=NO","fmyqa598yz","2","70","80","60","","","","","","","","","","","","","","","",""
"null","audio/purpose.wav","null","audio-keyboard-response","200","2.1.0","280888","F=YES, J=NO","fmyqa598yz","2","70","80","60","","","","","","","","","","","","","","","",""
"1182","
          <p id=""word"" style=""font-size: 40px;"">defeat</p>
          <p style=""font-size: 16px;"">F = YES &nbsp;&nbsp;&nbsp; J = NO</p>
        ","f","html-keyboard-response","201","2.1.0","282071","F=YES, J=NO","fmyqa598yz","2","70","80","60","","","","","","","","","defeat","purpose","metaphor","experimental","f","true","",""
"null","<p style=""font-size: 50px;"">+</p>","null","html-keyboard-response","202","2.1.0","282383","F=YES, J=NO","fmyqa598yz","2","70","80","60","","","","","","","","","","","","","","","",""
"null","audio/beep-329314.mp3","null","audio-keyboard-response","203","2.1.0","283919","F=YES, J=NO","fmyqa598yz","2","70","80","60","","","","","","","","","","","","","","","",""
"null","audio/tunnel.wav","null","audio-keyboard-response","204","2.1.0","284349","F=YES, J=NO","fmyqa598yz","2","70","80","60","","","","","","","","","","","","","","","",""
"856","
          <p id=""word"" style=""font-size: 40px;"">gred</p>
          <p style=""font-size: 16px;"">F = YES &nbsp;&nbsp;&nbsp; J = NO</p>
        ","j","html-keyboard-response","205","2.1.0","285207","F=YES, J=NO","fmyqa598yz","2","70","80","60","","","","","","","","","gred","tunnel","pseudoword","pseudoword","j","true","",""
"null","<p style=""font-size: 50px;"">+</p>","null","html-keyboard-response","206","2.1.0","285516","F=YES, J=NO","fmyqa598yz","2","70","80","60","","","","","","","","","","","","","","","",""
"null","audio/beep-329314.mp3","null","audio-keyboard-response","207","2.1.0","287039","F=YES, J=NO","fmyqa598yz","2","70","80","60","","","","","","","","","","","","","","","",""
"null","audio/mind.wav","null","audio-keyboard-response","208","2.1.0","287628","F=YES, J=NO","fmyqa598yz","2","70","80","60","","","","","","","","","","","","","","","",""
"null","
          <p id=""word"" style=""font-size: 40px;"">crainate</p>
          <p style=""font-size: 16px;"">F = YES &nbsp;&nbsp;&nbsp; J = NO</p>
        ","null","html-keyboard-response","209","2.1.0","289131","F=YES, J=NO","fmyqa598yz","2","70","80","60","","","","","","","","","crainate","mind","pseudoword","pseudoword","j","false","",""
"null","<p style=""font-size: 50px;"">+</p>","null","html-keyboard-response","210","2.1.0","289446","F=YES, J=NO","fmyqa598yz","2","70","80","60","","","","","","","","","","","","","","","",""
"null","audio/beep-329314.mp3","null","audio-keyboard-response","211","2.1.0","290978","F=YES, J=NO","fmyqa598yz","2","70","80","60","","","","","","","","","","","","","","","",""
"null","audio/holiday1.wav","null","audio-keyboard-response","212","2.1.0","291609","F=YES, J=NO","fmyqa598yz","2","70","80","60","","","","","","","","","","","","","","","",""
"null","
          <p id=""word"" style=""font-size: 40px;"">drivets</p>
          <p style=""font-size: 16px;"">F = YES &nbsp;&nbsp;&nbsp; J = NO</p>
        ","null","html-keyboard-response","213","2.1.0","293113","F=YES, J=NO","fmyqa598yz","2","70","80","60","","","","","","","","","drivets","holiday1","pseudoword","pseudoword","j","false","",""
"null","<p style=""font-size: 50px;"">+</p>","null","html-keyboard-response","214","2.1.0","293427","F=YES, J=NO","fmyqa598yz","2","70","80","60","","","","","","","","","","","","","","","",""
"null","audio/beep-329314.mp3","null","audio-keyboard-response","215","2.1.0","294956","F=YES, J=NO","fmyqa598yz","2","70","80","60","","","","","","","","","","","","","","","",""
"null","audio/floor.wav","null","audio-keyboard-response","216","2.1.0","295510","F=YES, J=NO","fmyqa598yz","2","70","80","60","","","","","","","","","","","","","","","",""
"695","
          <p id=""word"" style=""font-size: 40px;"">mop</p>
          <p style=""font-size: 16px;"">F = YES &nbsp;&nbsp;&nbsp; J = NO</p>
        ","f","html-keyboard-response","217","2.1.0","296207","F=YES, J=NO","fmyqa598yz","2","70","80","60","","","","","","","","","mop","floor","filler","filler","f","true","",""
"null","<p style=""font-size: 50px;"">+</p>","null","html-keyboard-response","218","2.1.0","296516","F=YES, J=NO","fmyqa598yz","2","70","80","60","","","","","","","","","","","","","","","",""
"null","audio/beep-329314.mp3","null","audio-keyboard-response","219","2.1.0","298057","F=YES, J=NO","fmyqa598yz","2","70","80","60","","","","","","","","","","","","","","","",""
"null","audio/roof1.wav","null","audio-keyboard-response","220","2.1.0","298589","F=YES, J=NO","fmyqa598yz","2","70","80","60","","","","","","","","","","","","","","","",""
"880","
          <p id=""word"" style=""font-size: 40px;"">wronb</p>
          <p style=""font-size: 16px;"">F = YES &nbsp;&nbsp;&nbsp; J = NO</p>
        ","j","html-keyboard-response","221","2.1.0","299472","F=YES, J=NO","fmyqa598yz","2","70","80","60","","","","","","","","","wronb","roof1","pseudoword","pseudoword","j","true","",""
"null","<p style=""font-size: 50px;"">+</p>","null","html-keyboard-response","222","2.1.0","299785","F=YES, J=NO","fmyqa598yz","2","70","80","60","","","","","","","","","","","","","","","",""
"null","audio/beep-329314.mp3","null","audio-keyboard-response","223","2.1.0","301317","F=YES, J=NO","fmyqa598yz","2","70","80","60","","","","","","","","","","","","","","","",""
"null","audio/purpose.wav","null","audio-keyboard-response","224","2.1.0","301967","F=YES, J=NO","fmyqa598yz","2","70","80","60","","","","","","","","","","","","","","","",""
"743","
          <p id=""word"" style=""font-size: 40px;"">whigm</p>
          <p style=""font-size: 16px;"">F = YES &nbsp;&nbsp;&nbsp; J = NO</p>
        ","j","html-keyboard-response","225","2.1.0","302711","F=YES, J=NO","fmyqa598yz","2","70","80","60","","","","","","","","","whigm","purpose","pseudoword","pseudoword","j","true","",""
"null","<p style=""font-size: 50px;"">+</p>","null","html-keyboard-response","226","2.1.0","303028","F=YES, J=NO","fmyqa598yz","2","70","80","60","","","","","","","","","","","","","","","",""
"null","audio/beep-329314.mp3","null","audio-keyboard-response","227","2.1.0","304557","F=YES, J=NO","fmyqa598yz","2","70","80","60","","","","","","","","","","","","","","","",""
"null","audio/tunnel.wav","null","audio-keyboard-response","228","2.1.0","304966","F=YES, J=NO","fmyqa598yz","2","70","80","60","","","","","","","","","","","","","","","",""
"680","
          <p id=""word"" style=""font-size: 40px;"">grasp</p>
          <p style=""font-size: 16px;"">F = YES &nbsp;&nbsp;&nbsp; J = NO</p>
        ","f","html-keyboard-response","229","2.1.0","305648","F=YES, J=NO","fmyqa598yz","2","70","80","60","","","","","","","","","grasp","tunnel","unrelated","experimental","f","true","",""
"24463","<p>Excellent! You have finished block 1 of 8.</p>
                     <p>Feel free to take a 30 second break.</p>
                     <p>Press any key when you're ready to continue.</p>","f","html-keyboard-response","230","2.1.0","330112","F=YES, J=NO","fmyqa598yz","2","70","80","60","","","","","","","","","","","","","","","",""
"1581","<p>Starting main block 2 of 8. Press any key to continue.</p>","f","html-keyboard-response","231","2.1.0","331695","F=YES, J=NO","fmyqa598yz","2","70","80","60","","","","","","","","","","","","","","","",""
"null","<p style=""font-size: 50px;"">+</p>","null","html-keyboard-response","232","2.1.0","332004","F=YES, J=NO","fmyqa598yz","2","70","80","60","","","","","","","","","","","","","","","",""
"null","audio/beep-329314.mp3","null","audio-keyboard-response","233","2.1.0","333714","F=YES, J=NO","fmyqa598yz","2","70","80","60","","","","","","","","","","","","","","","",""
"null","audio/arm.wav","null","audio-keyboard-response","234","2.1.0","334245","F=YES, J=NO","fmyqa598yz","2","70","80","60","","","","","","","","","","","","","","","",""
"914","
          <p id=""word"" style=""font-size: 40px;"">pigne</p>
          <p style=""font-size: 16px;"">F = YES &nbsp;&nbsp;&nbsp; J = NO</p>
        ","j","html-keyboard-response","235","2.1.0","335160","F=YES, J=NO","fmyqa598yz","2","70","80","60","","","","","","","","","pigne","arm","pseudoword","pseudoword","j","true","",""
"null","<p style=""font-size: 50px;"">+</p>","null","html-keyboard-response","236","2.1.0","335472","F=YES, J=NO","fmyqa598yz","2","70","80","60","","","","","","","","","","","","","","","",""
"null","audio/beep-329314.mp3","null","audio-keyboard-response","237","2.1.0","336994","F=YES, J=NO","fmyqa598yz","2","70","80","60","","","","","","","","","","","","","","","",""
"null","audio/foe1.wav","null","audio-keyboard-response","238","2.1.0","337503","F=YES, J=NO","fmyqa598yz","2","70","80","60","","","","","","","","","","","","","","","",""
"808","
          <p id=""word"" style=""font-size: 40px;"">creth</p>
          <p style=""font-size: 16px;"">F = YES &nbsp;&nbsp;&nbsp; J = NO</p>
        ","j","html-keyboard-response","239","2.1.0","338312","F=YES, J=NO","fmyqa598yz","2","70","80","60","","","","","","","","","creth","foe1","pseudoword","pseudoword","j","true","",""
"null","<p style=""font-size: 50px;"">+</p>","null","html-keyboard-response","240","2.1.0","338615","F=YES, J=NO","fmyqa598yz","2","70","80","60","","","","","","","","","","","","","","","",""
"null","audio/beep-329314.mp3","null","audio-keyboard-response","241","2.1.0","340155","F=YES, J=NO","fmyqa598yz","2","70","80","60","","","","","","","","","","","","","","","",""
"null","audio/life1.wav","null","audio-keyboard-response","242","2.1.0","340865","F=YES, J=NO","fmyqa598yz","2","70","80","60","","","","","","","","","","","","","","","",""
"1237","
          <p id=""word"" style=""font-size: 40px;"">flimch</p>
          <p style=""font-size: 16px;"">F = YES &nbsp;&nbsp;&nbsp; J = NO</p>
        ","j","html-keyboard-response","243","2.1.0","342104","F=YES, J=NO","fmyqa598yz","2","70","80","60","","","","","","","","","flimch","life1","pseudoword","pseudoword","j","true","",""
"null","<p style=""font-size: 50px;"">+</p>","null","html-keyboard-response","244","2.1.0","342413","F=YES, J=NO","fmyqa598yz","2","70","80","60","","","","","","","","","","","","","","","",""
"null","audio/beep-329314.mp3","null","audio-keyboard-response","245","2.1.0","343952","F=YES, J=NO","fmyqa598yz","2","70","80","60","","","","","","","","","","","","","","","",""
"null","audio/alarm1.wav","null","audio-keyboard-response","246","2.1.0","344663","F=YES, J=NO","fmyqa598yz","2","70","80","60","","","","","","","","","","","","","","","",""
"1158","
          <p id=""word"" style=""font-size: 40px;"">swetp</p>
          <p style=""font-size: 16px;"">F = YES &nbsp;&nbsp;&nbsp; J = NO</p>
        ","j","html-keyboard-response","247","2.1.0","345822","F=YES, J=NO","fmyqa598yz","2","70","80","60","","","","","","","","","swetp","alarm1","pseudoword","pseudoword","j","true","",""
"null","<p style=""font-size: 50px;"">+</p>","null","html-keyboard-response","248","2.1.0","346130","F=YES, J=NO","fmyqa598yz","2","70","80","60","","","","","","","","","","","","","","","",""
"null","audio/beep-329314.mp3","null","audio-keyboard-response","249","2.1.0","347653","F=YES, J=NO","fmyqa598yz","2","70","80","60","","","","","","","","","","","","","","","",""
"null","audio/mouth1.wav","null","audio-keyboard-response","250","2.1.0","348344","F=YES, J=NO","fmyqa598yz","2","70","80","60","","","","","","","","","","","","","","","",""
"918","
          <p id=""word"" style=""font-size: 40px;"">spolial</p>
          <p style=""font-size: 16px;"">F = YES &nbsp;&nbsp;&nbsp; J = NO</p>
        ","j","html-keyboard-response","251","2.1.0","349264","F=YES, J=NO","fmyqa598yz","2","70","80","60","","","","","","","","","spolial","mouth1","pseudoword","pseudoword","j","true","",""
"null","<p style=""font-size: 50px;"">+</p>","null","html-keyboard-response","252","2.1.0","349567","F=YES, J=NO","fmyqa598yz","2","70","80","60","","","","","","","","","","","","","","","",""
"null","audio/beep-329314.mp3","null","audio-keyboard-response","253","2.1.0","351096","F=YES, J=NO","fmyqa598yz","2","70","80","60","","","","","","","","","","","","","","","",""
"null","audio/trout1.wav","null","audio-keyboard-response","254","2.1.0","351682","F=YES, J=NO","fmyqa598yz","2","70","80","60","","","","","","","","","","","","","","","",""
"843","
          <p id=""word"" style=""font-size: 40px;"">spimt</p>
          <p style=""font-size: 16px;"">F = YES &nbsp;&nbsp;&nbsp; J = NO</p>
        ","j","html-keyboard-response","255","2.1.0","352527","F=YES, J=NO","fmyqa598yz","2","70","80","60","","","","","","","","","spimt","trout1","pseudoword","pseudoword","j","true","",""
"null","<p style=""font-size: 50px;"">+</p>","null","html-keyboard-response","256","2.1.0","352837","F=YES, J=NO","fmyqa598yz","2","70","80","60","","","","","","","","","","","","","","","",""
"null","audio/beep-329314.mp3","null","audio-keyboard-response","257","2.1.0","354375","F=YES, J=NO","fmyqa598yz","2","70","80","60","","","","","","","","","","","","","","","",""
"null","audio/novel.wav","null","audio-keyboard-response","258","2.1.0","354865","F=YES, J=NO","fmyqa598yz","2","70","80","60","","","","","","","","","","","","","","","",""
"772","
          <p id=""word"" style=""font-size: 40px;"">devour</p>
          <p style=""font-size: 16px;"">F = YES &nbsp;&nbsp;&nbsp; J = NO</p>
        ","f","html-keyboard-response","259","2.1.0","355639","F=YES, J=NO","fmyqa598yz","2","70","80","60","","","","","","","","","devour","novel","metaphor","experimental","f","true","",""
"null","<p style=""font-size: 50px;"">+</p>","null","html-keyboard-response","260","2.1.0","355949","F=YES, J=NO","fmyqa598yz","2","70","80","60","","","","","","","","","","","","","","","",""
"null","audio/beep-329314.mp3","null","audio-keyboard-response","261","2.1.0","357475","F=YES, J=NO","fmyqa598yz","2","70","80","60","","","","","","","","","","","","","","","",""
"null","audio/dollar.wav","null","audio-keyboard-response","262","2.1.0","357865","F=YES, J=NO","fmyqa598yz","2","70","80","60","","","","","","","","","","","","","","","",""
"884","
          <p id=""word"" style=""font-size: 40px;"">gliptism</p>
          <p style=""font-size: 16px;"">F = YES &nbsp;&nbsp;&nbsp; J = NO</p>
        ","j","html-keyboard-response","263","2.1.0","358750","F=YES, J=NO","fmyqa598yz","2","70","80","60","","","","","","","","","gliptism","dollar","pseudoword","pseudoword","j","true","",""
"null","<p style=""font-size: 50px;"">+</p>","null","html-keyboard-response","264","2.1.0","359065","F=YES, J=NO","fmyqa598yz","2","70","80","60","","","","","","","","","","","","","","","",""
"null","audio/beep-329314.mp3","null","audio-keyboard-response","265","2.1.0","360596","F=YES, J=NO","fmyqa598yz","2","70","80","60","","","","","","","","","","","","","","","",""
"null","audio/meal.wav","null","audio-keyboard-response","266","2.1.0","361045","F=YES, J=NO","fmyqa598yz","2","70","80","60","","","","","","","","","","","","","","","",""
"815","
          <p id=""word"" style=""font-size: 40px;"">gallite</p>
          <p style=""font-size: 16px;"">F = YES &nbsp;&nbsp;&nbsp; J = NO</p>
        ","j","html-keyboard-response","267","2.1.0","361861","F=YES, J=NO","fmyqa598yz","2","70","80","60","","","","","","","","","gallite","meal","pseudoword","pseudoword","j","true","",""
"null","<p style=""font-size: 50px;"">+</p>","null","html-keyboard-response","268","2.1.0","362163","F=YES, J=NO","fmyqa598yz","2","70","80","60","","","","","","","","","","","","","","","",""
"null","audio/beep-329314.mp3","null","audio-keyboard-response","269","2.1.0","363694","F=YES, J=NO","fmyqa598yz","2","70","80","60","","","","","","","","","","","","","","","",""
"null","audio/beach1.wav","null","audio-keyboard-response","270","2.1.0","364285","F=YES, J=NO","fmyqa598yz","2","70","80","60","","","","","","","","","","","","","","","",""
"672","
          <p id=""word"" style=""font-size: 40px;"">drive</p>
          <p style=""font-size: 16px;"">F = YES &nbsp;&nbsp;&nbsp; J = NO</p>
        ","f","html-keyboard-response","271","2.1.0","364958","F=YES, J=NO","fmyqa598yz","2","70","80","60","","","","","","","","","drive","beach1","filler","filler","f","true","",""
"null","<p style=""font-size: 50px;"">+</p>","null","html-keyboard-response","272","2.1.0","365270","F=YES, J=NO","fmyqa598yz","2","70","80","60","","","","","","","","","","","","","","","",""
"null","audio/beep-329314.mp3","null","audio-keyboard-response","273","2.1.0","366794","F=YES, J=NO","fmyqa598yz","2","70","80","60","","","","","","","","","","","","","","","",""
"null","audio/sugar1.wav","null","audio-keyboard-response","274","2.1.0","367305","F=YES, J=NO","fmyqa598yz","2","70","80","60","","","","","","","","","","","","","","","",""
"845","
          <p id=""word"" style=""font-size: 40px;"">glung</p>
          <p style=""font-size: 16px;"">F = YES &nbsp;&nbsp;&nbsp; J = NO</p>
        ","j","html-keyboard-response","275","2.1.0","368152","F=YES, J=NO","fmyqa598yz","2","70","80","60","","","","","","","","","glung","sugar1","pseudoword","pseudoword","j","true","",""
"null","<p style=""font-size: 50px;"">+</p>","null","html-keyboard-response","276","2.1.0","368456","F=YES, J=NO","fmyqa598yz","2","70","80","60","","","","","","","","","","","","","","","",""
"null","audio/beep-329314.mp3","null","audio-keyboard-response","277","2.1.0","369993","F=YES, J=NO","fmyqa598yz","2","70","80","60","","","","","","","","","","","","","","","",""
"null","audio/gold1.wav","null","audio-keyboard-response","278","2.1.0","370565","F=YES, J=NO","fmyqa598yz","2","70","80","60","","","","","","","","","","","","","","","",""
"575","
          <p id=""word"" style=""font-size: 40px;"">sell</p>
          <p style=""font-size: 16px;"">F = YES &nbsp;&nbsp;&nbsp; J = NO</p>
        ","f","html-keyboard-response","279","2.1.0","371141","F=YES, J=NO","fmyqa598yz","2","70","80","60","","","","","","","","","sell","gold1","literal","experimental","f","true","",""
"null","<p style=""font-size: 50px;"">+</p>","null","html-keyboard-response","280","2.1.0","371454","F=YES, J=NO","fmyqa598yz","2","70","80","60","","","","","","","","","","","","","","","",""
"null","audio/beep-329314.mp3","null","audio-keyboard-response","281","2.1.0","372995","F=YES, J=NO","fmyqa598yz","2","70","80","60","","","","","","","","","","","","","","","",""
"null","audio/truth1.wav","null","audio-keyboard-response","282","2.1.0","373545","F=YES, J=NO","fmyqa598yz","2","70","80","60","","","","","","","","","","","","","","","",""
"628","
          <p id=""word"" style=""font-size: 40px;"">expose</p>
          <p style=""font-size: 16px;"">F = YES &nbsp;&nbsp;&nbsp; J = NO</p>
        ","f","html-keyboard-response","283","2.1.0","374175","F=YES, J=NO","fmyqa598yz","2","70","80","60","","","","","","","","","expose","truth1","metaphor","experimental","f","true","",""
"null","<p style=""font-size: 50px;"">+</p>","null","html-keyboard-response","284","2.1.0","374489","F=YES, J=NO","fmyqa598yz","2","70","80","60","","","","","","","","","","","","","","","",""
"null","audio/beep-329314.mp3","null","audio-keyboard-response","285","2.1.0","376015","F=YES, J=NO","fmyqa598yz","2","70","80","60","","","","","","","","","","","","","","","",""
"null","audio/emotion.wav","null","audio-keyboard-response","286","2.1.0","376785","F=YES, J=NO","fmyqa598yz","2","70","80","60","","","","","","","","","","","","","","","",""
"1213","
          <p id=""word"" style=""font-size: 40px;"">bury</p>
          <p style=""font-size: 16px;"">F = YES &nbsp;&nbsp;&nbsp; J = NO</p>
        ","f","html-keyboard-response","287","2.1.0","377999","F=YES, J=NO","fmyqa598yz","2","70","80","60","","","","","","","","","bury","emotion","metaphor","experimental","f","true","",""
"null","<p style=""font-size: 50px;"">+</p>","null","html-keyboard-response","288","2.1.0","378305","F=YES, J=NO","fmyqa598yz","2","70","80","60","","","","","","","","","","","","","","","",""
"null","audio/beep-329314.mp3","null","audio-keyboard-response","289","2.1.0","379833","F=YES, J=NO","fmyqa598yz","2","70","80","60","","","","","","","","","","","","","","","",""
"null","audio/cinema1.wav","null","audio-keyboard-response","290","2.1.0","380464","F=YES, J=NO","fmyqa598yz","2","70","80","60","","","","","","","","","","","","","","","",""
"628","
          <p id=""word"" style=""font-size: 40px;"">grow</p>
          <p style=""font-size: 16px;"">F = YES &nbsp;&nbsp;&nbsp; J = NO</p>
        ","f","html-keyboard-response","291","2.1.0","381095","F=YES, J=NO","fmyqa598yz","2","70","80","60","","","","","","","","","grow","cinema1","unrelated","experimental","f","true","",""
"null","<p style=""font-size: 50px;"">+</p>","null","html-keyboard-response","292","2.1.0","381407","F=YES, J=NO","fmyqa598yz","2","70","80","60","","","","","","","","","","","","","","","",""
"null","audio/beep-329314.mp3","null","audio-keyboard-response","293","2.1.0","382933","F=YES, J=NO","fmyqa598yz","2","70","80","60","","","","","","","","","","","","","","","",""
"null","audio/milk.wav","null","audio-keyboard-response","294","2.1.0","383504","F=YES, J=NO","fmyqa598yz","2","70","80","60","","","","","","","","","","","","","","","",""
"781","
          <p id=""word"" style=""font-size: 40px;"">digest</p>
          <p style=""font-size: 16px;"">F = YES &nbsp;&nbsp;&nbsp; J = NO</p>
        ","f","html-keyboard-response","295","2.1.0","384288","F=YES, J=NO","fmyqa598yz","2","70","80","60","","","","","","","","","digest","milk","literal","experimental","f","true","",""
"1366","<p>Excellent! You have finished block 2 of 8.</p>
                     <p>Feel free to take a 30 second break.</p>
                     <p>Press any key when you're ready to continue.</p>","f","html-keyboard-response","296","2.1.0","385656","F=YES, J=NO","fmyqa598yz","2","70","80","60","","","","","","","","","","","","","","","",""
"829","<p>Starting main block 3 of 8. Press any key to continue.</p>","f","html-keyboard-response","297","2.1.0","386486","F=YES, J=NO","fmyqa598yz","2","70","80","60","","","","","","","","","","","","","","","",""
"null","<p style=""font-size: 50px;"">+</p>","null","html-keyboard-response","298","2.1.0","386791","F=YES, J=NO","fmyqa598yz","2","70","80","60","","","","","","","","","","","","","","","",""
"null","audio/beep-329314.mp3","null","audio-keyboard-response","299","2.1.0","388334","F=YES, J=NO","fmyqa598yz","2","70","80","60","","","","","","","","","","","","","","","",""
"null","audio/hotel1.wav","null","audio-keyboard-response","300","2.1.0","388983","F=YES, J=NO","fmyqa598yz","2","70","80","60","","","","","","","","","","","","","","","",""
"889","
          <p id=""word"" style=""font-size: 40px;"">flanter</p>
          <p style=""font-size: 16px;"">F = YES &nbsp;&nbsp;&nbsp; J = NO</p>
        ","j","html-keyboard-response","301","2.1.0","389872","F=YES, J=NO","fmyqa598yz","2","70","80","60","","","","","","","","","flanter","hotel1","pseudoword","pseudoword","j","true","",""
"null","<p style=""font-size: 50px;"">+</p>","null","html-keyboard-response","302","2.1.0","390175","F=YES, J=NO","fmyqa598yz","2","70","80","60","","","","","","","","","","","","","","","",""
"null","audio/beep-329314.mp3","null","audio-keyboard-response","303","2.1.0","391714","F=YES, J=NO","fmyqa598yz","2","70","80","60","","","","","","","","","","","","","","","",""
"null","audio/mind.wav","null","audio-keyboard-response","304","2.1.0","392265","F=YES, J=NO","fmyqa598yz","2","70","80","60","","","","","","","","","","","","","","","",""
"500","
          <p id=""word"" style=""font-size: 40px;"">clear</p>
          <p style=""font-size: 16px;"">F = YES &nbsp;&nbsp;&nbsp; J = NO</p>
        ","f","html-keyboard-response","305","2.1.0","392767","F=YES, J=NO","fmyqa598yz","2","70","80","60","","","","","","","","","clear","mind","metaphor","experimental","f","true","",""
"null","<p style=""font-size: 50px;"">+</p>","null","html-keyboard-response","306","2.1.0","393079","F=YES, J=NO","fmyqa598yz","2","70","80","60","","","","","","","","","","","","","","","",""
"null","audio/beep-329314.mp3","null","audio-keyboard-response","307","2.1.0","394616","F=YES, J=NO","fmyqa598yz","2","70","80","60","","","","","","","","","","","","","","","",""
"null","audio/foe1.wav","null","audio-keyboard-response","308","2.1.0","395104","F=YES, J=NO","fmyqa598yz","2","70","80","60","","","","","","","","","","","","","","","",""
"671","
          <p id=""word"" style=""font-size: 40px;"">conquer</p>
          <p style=""font-size: 16px;"">F = YES &nbsp;&nbsp;&nbsp; J = NO</p>
        ","f","html-keyboard-response","309","2.1.0","395776","F=YES, J=NO","fmyqa598yz","2","70","80","60","","","","","","","","","conquer","foe1","literal","experimental","f","true","",""
"null","<p style=""font-size: 50px;"">+</p>","null","html-keyboard-response","310","2.1.0","396094","F=YES, J=NO","fmyqa598yz","2","70","80","60","","","","","","","","","","","","","","","",""
"null","audio/beep-329314.mp3","null","audio-keyboard-response","311","2.1.0","397635","F=YES, J=NO","fmyqa598yz","2","70","80","60","","","","","","","","","","","","","","","",""
"null","audio/weight1.wav","null","audio-keyboard-response","312","2.1.0","398283","F=YES, J=NO","fmyqa598yz","2","70","80","60","","","","","","","","","","","","","","","",""
"1083","
          <p id=""word"" style=""font-size: 40px;"">crimsh</p>
          <p style=""font-size: 16px;"">F = YES &nbsp;&nbsp;&nbsp; J = NO</p>
        ","j","html-keyboard-response","313","2.1.0","399367","F=YES, J=NO","fmyqa598yz","2","70","80","60","","","","","","","","","crimsh","weight1","pseudoword","pseudoword","j","true","",""
"null","<p style=""font-size: 50px;"">+</p>","null","html-keyboard-response","314","2.1.0","399670","F=YES, J=NO","fmyqa598yz","2","70","80","60","","","","","","","","","","","","","","","",""
"null","audio/beep-329314.mp3","null","audio-keyboard-response","315","2.1.0","401193","F=YES, J=NO","fmyqa598yz","2","70","80","60","","","","","","","","","","","","","","","",""
"null","audio/pig.wav","null","audio-keyboard-response","316","2.1.0","401582","F=YES, J=NO","fmyqa598yz","2","70","80","60","","","","","","","","","","","","","","","",""
"1209","
          <p id=""word"" style=""font-size: 40px;"">tirlike</p>
          <p style=""font-size: 16px;"">F = YES &nbsp;&nbsp;&nbsp; J = NO</p>
        ","j","html-keyboard-response","317","2.1.0","402792","F=YES, J=NO","fmyqa598yz","2","70","80","60","","","","","","","","","tirlike","pig","pseudoword","pseudoword","j","true","",""
"null","<p style=""font-size: 50px;"">+</p>","null","html-keyboard-response","318","2.1.0","403106","F=YES, J=NO","fmyqa598yz","2","70","80","60","","","","","","","","","","","","","","","",""
"null","audio/beep-329314.mp3","null","audio-keyboard-response","319","2.1.0","404635","F=YES, J=NO","fmyqa598yz","2","70","80","60","","","","","","","","","","","","","","","",""
"null","audio/golf1.wav","null","audio-keyboard-response","320","2.1.0","405205","F=YES, J=NO","fmyqa598yz","2","70","80","60","","","","","","","","","","","","","","","",""
"697","
          <p id=""word"" style=""font-size: 40px;"">drabble</p>
          <p style=""font-size: 16px;"">F = YES &nbsp;&nbsp;&nbsp; J = NO</p>
        ","f","html-keyboard-response","321","2.1.0","405904","F=YES, J=NO","fmyqa598yz","2","70","80","60","","","","","","","","","drabble","golf1","pseudoword","pseudoword","j","false","",""
"null","<p style=""font-size: 50px;"">+</p>","null","html-keyboard-response","322","2.1.0","406212","F=YES, J=NO","fmyqa598yz","2","70","80","60","","","","","","","","","","","","","","","",""
"null","audio/beep-329314.mp3","null","audio-keyboard-response","323","2.1.0","407753","F=YES, J=NO","fmyqa598yz","2","70","80","60","","","","","","","","","","","","","","","",""
"null","audio/gossip1.wav","null","audio-keyboard-response","324","2.1.0","408403","F=YES, J=NO","fmyqa598yz","2","70","80","60","","","","","","","","","","","","","","","",""
"1011","
          <p id=""word"" style=""font-size: 40px;"">camerish</p>
          <p style=""font-size: 16px;"">F = YES &nbsp;&nbsp;&nbsp; J = NO</p>
        ","j","html-keyboard-response","325","2.1.0","409415","F=YES, J=NO","fmyqa598yz","2","70","80","60","","","","","","","","","camerish","gossip1","pseudoword","pseudoword","j","true","",""
"null","<p style=""font-size: 50px;"">+</p>","null","html-keyboard-response","326","2.1.0","409730","F=YES, J=NO","fmyqa598yz","2","70","80","60","","","","","","","","","","","","","","","",""
"null","audio/beep-329314.mp3","null","audio-keyboard-response","327","2.1.0","411255","F=YES, J=NO","fmyqa598yz","2","70","80","60","","","","","","","","","","","","","","","",""
"null","audio/noise1.wav","null","audio-keyboard-response","328","2.1.0","411865","F=YES, J=NO","fmyqa598yz","2","70","80","60","","","","","","","","","","","","","","","",""
"852","
          <p id=""word"" style=""font-size: 40px;"">slintered</p>
          <p style=""font-size: 16px;"">F = YES &nbsp;&nbsp;&nbsp; J = NO</p>
        ","j","html-keyboard-response","329","2.1.0","412719","F=YES, J=NO","fmyqa598yz","2","70","80","60","","","","","","","","","slintered","noise1","pseudoword","pseudoword","j","true","",""
"null","<p style=""font-size: 50px;"">+</p>","null","html-keyboard-response","330","2.1.0","413026","F=YES, J=NO","fmyqa598yz","2","70","80","60","","","","","","","","","","","","","","","",""
"null","audio/beep-329314.mp3","null","audio-keyboard-response","331","2.1.0","414555","F=YES, J=NO","fmyqa598yz","2","70","80","60","","","","","","","","","","","","","","","",""
"null","audio/novel.wav","null","audio-keyboard-response","332","2.1.0","415025","F=YES, J=NO","fmyqa598yz","2","70","80","60","","","","","","","","","","","","","","","",""
"467","
          <p id=""word"" style=""font-size: 40px;"">type</p>
          <p style=""font-size: 16px;"">F = YES &nbsp;&nbsp;&nbsp; J = NO</p>
        ","f","html-keyboard-response","333","2.1.0","415493","F=YES, J=NO","fmyqa598yz","2","70","80","60","","","","","","","","","type","novel","filler","filler","f","true","",""
"null","<p style=""font-size: 50px;"">+</p>","null","html-keyboard-response","334","2.1.0","415803","F=YES, J=NO","fmyqa598yz","2","70","80","60","","","","","","","","","","","","","","","",""
"null","audio/beep-329314.mp3","null","audio-keyboard-response","335","2.1.0","417335","F=YES, J=NO","fmyqa598yz","2","70","80","60","","","","","","","","","","","","","","","",""
"null","audio/foot1.wav","null","audio-keyboard-response","336","2.1.0","417884","F=YES, J=NO","fmyqa598yz","2","70","80","60","","","","","","","","","","","","","","","",""
"505","
          <p id=""word"" style=""font-size: 40px;"">close</p>
          <p style=""font-size: 16px;"">F = YES &nbsp;&nbsp;&nbsp; J = NO</p>
        ","f","html-keyboard-response","337","2.1.0","418391","F=YES, J=NO","fmyqa598yz","2","70","80","60","","","","","","","","","close","foot1","unrelated","experimental","f","true","",""
"null","<p style=""font-size: 50px;"">+</p>","null","html-keyboard-response","338","2.1.0","418700","F=YES, J=NO","fmyqa598yz","2","70","80","60","","","","","","","","","","","","","","","",""
"null","audio/beep-329314.mp3","null","audio-keyboard-response","339","2.1.0","420235","F=YES, J=NO","fmyqa598yz","2","70","80","60","","","","","","","","","","","","","","","",""
"null","audio/rain.wav","null","audio-keyboard-response","340","2.1.0","420683","F=YES, J=NO","fmyqa598yz","2","70","80","60","","","","","","","","","","","","","","","",""
"513","
          <p id=""word"" style=""font-size: 40px;"">lose</p>
          <p style=""font-size: 16px;"">F = YES &nbsp;&nbsp;&nbsp; J = NO</p>
        ","f","html-keyboard-response","341","2.1.0","421199","F=YES, J=NO","fmyqa598yz","2","70","80","60","","","","","","","","","lose","rain","unrelated","experimental","f","true","",""
"null","<p style=""font-size: 50px;"">+</p>","null","html-keyboard-response","342","2.1.0","421506","F=YES, J=NO","fmyqa598yz","2","70","80","60","","","","","","","","","","","","","","","",""
"null","audio/beep-329314.mp3","null","audio-keyboard-response","343","2.1.0","423032","F=YES, J=NO","fmyqa598yz","2","70","80","60","","","","","","","","","","","","","","","",""
"null","audio/bomb1.wav","null","audio-keyboard-response","344","2.1.0","423424","F=YES, J=NO","fmyqa598yz","2","70","80","60","","","","","","","","","","","","","","","",""
"478","
          <p id=""word"" style=""font-size: 40px;"">clean</p>
          <p style=""font-size: 16px;"">F = YES &nbsp;&nbsp;&nbsp; J = NO</p>
        ","f","html-keyboard-response","345","2.1.0","423903","F=YES, J=NO","fmyqa598yz","2","70","80","60","","","","","","","","","clean","bomb1","filler","filler","f","true","",""
"null","<p style=""font-size: 50px;"">+</p>","null","html-keyboard-response","346","2.1.0","424219","F=YES, J=NO","fmyqa598yz","2","70","80","60","","","","","","","","","","","","","","","",""
"null","audio/beep-329314.mp3","null","audio-keyboard-response","347","2.1.0","425755","F=YES, J=NO","fmyqa598yz","2","70","80","60","","","","","","","","","","","","","","","",""
"null","audio/flaw.wav","null","audio-keyboard-response","348","2.1.0","426385","F=YES, J=NO","fmyqa598yz","2","70","80","60","","","","","","","","","","","","","","","",""
"718","
          <p id=""word"" style=""font-size: 40px;"">thwool</p>
          <p style=""font-size: 16px;"">F = YES &nbsp;&nbsp;&nbsp; J = NO</p>
        ","j","html-keyboard-response","349","2.1.0","427104","F=YES, J=NO","fmyqa598yz","2","70","80","60","","","","","","","","","thwool","flaw","pseudoword","pseudoword","j","true","",""
"null","<p style=""font-size: 50px;"">+</p>","null","html-keyboard-response","350","2.1.0","427411","F=YES, J=NO","fmyqa598yz","2","70","80","60","","","","","","","","","","","","","","","",""
"null","audio/beep-329314.mp3","null","audio-keyboard-response","351","2.1.0","428935","F=YES, J=NO","fmyqa598yz","2","70","80","60","","","","","","","","","","","","","","","",""
"null","audio/topic.wav","null","audio-keyboard-response","352","2.1.0","429624","F=YES, J=NO","fmyqa598yz","2","70","80","60","","","","","","","","","","","","","","","",""
"814","
          <p id=""word"" style=""font-size: 40px;"">approach</p>
          <p style=""font-size: 16px;"">F = YES &nbsp;&nbsp;&nbsp; J = NO</p>
        ","f","html-keyboard-response","353","2.1.0","430439","F=YES, J=NO","fmyqa598yz","2","70","80","60","","","","","","","","","approach","topic","metaphor","experimental","f","true","",""
"null","<p style=""font-size: 50px;"">+</p>","null","html-keyboard-response","354","2.1.0","430747","F=YES, J=NO","fmyqa598yz","2","70","80","60","","","","","","","","","","","","","","","",""
"null","audio/beep-329314.mp3","null","audio-keyboard-response","355","2.1.0","432272","F=YES, J=NO","fmyqa598yz","2","70","80","60","","","","","","","","","","","","","","","",""
"null","audio/ship.wav","null","audio-keyboard-response","356","2.1.0","432824","F=YES, J=NO","fmyqa598yz","2","70","80","60","","","","","","","","","","","","","","","",""
"757","
          <p id=""word"" style=""font-size: 40px;"">scrap</p>
          <p style=""font-size: 16px;"">F = YES &nbsp;&nbsp;&nbsp; J = NO</p>
        ","f","html-keyboard-response","357","2.1.0","433581","F=YES, J=NO","fmyqa598yz","2","70","80","60","","","","","","","","","scrap","ship","literal","experimental","f","true","",""
"null","<p style=""font-size: 50px;"">+</p>","null","html-keyboard-response","358","2.1.0","433888","F=YES, J=NO","fmyqa598yz","2","70","80","60","","","","","","","","","","","","","","","",""
"null","audio/beep-329314.mp3","null","audio-keyboard-response","359","2.1.0","435416","F=YES, J=NO","fmyqa598yz","2","70","80","60","","","","","","","","","","","","","","","",""
"null","audio/arm.wav","null","audio-keyboard-response","360","2.1.0","435945","F=YES, J=NO","fmyqa598yz","2","70","80","60","","","","","","","","","","","","","","","",""
"637","
          <p id=""word"" style=""font-size: 40px;"">seize</p>
          <p style=""font-size: 16px;"">F = YES &nbsp;&nbsp;&nbsp; J = NO</p>
        ","f","html-keyboard-response","361","2.1.0","436583","F=YES, J=NO","fmyqa598yz","2","70","80","60","","","","","","","","","seize","arm","literal","experimental","f","true","",""
"895","<p>Excellent! You have finished block 3 of 8.</p>
                     <p>Feel free to take a 30 second break.</p>
                     <p>Press any key when you're ready to continue.</p>","f","html-keyboard-response","362","2.1.0","437479","F=YES, J=NO","fmyqa598yz","2","70","80","60","","","","","","","","","","","","","","","",""
"414","<p>Starting main block 4 of 8. Press any key to continue.</p>","f","html-keyboard-response","363","2.1.0","437895","F=YES, J=NO","fmyqa598yz","2","70","80","60","","","","","","","","","","","","","","","",""
"null","<p style=""font-size: 50px;"">+</p>","null","html-keyboard-response","364","2.1.0","438208","F=YES, J=NO","fmyqa598yz","2","70","80","60","","","","","","","","","","","","","","","",""
"null","audio/beep-329314.mp3","null","audio-keyboard-response","365","2.1.0","439735","F=YES, J=NO","fmyqa598yz","2","70","80","60","","","","","","","","","","","","","","","",""
"null","audio/test1.wav","null","audio-keyboard-response","366","2.1.0","440325","F=YES, J=NO","fmyqa598yz","2","70","80","60","","","","","","","","","","","","","","","",""
"728","
          <p id=""word"" style=""font-size: 40px;"">twopch</p>
          <p style=""font-size: 16px;"">F = YES &nbsp;&nbsp;&nbsp; J = NO</p>
        ","j","html-keyboard-response","367","2.1.0","441055","F=YES, J=NO","fmyqa598yz","2","70","80","60","","","","","","","","","twopch","test1","pseudoword","pseudoword","j","true","",""
"null","<p style=""font-size: 50px;"">+</p>","null","html-keyboard-response","368","2.1.0","441366","F=YES, J=NO","fmyqa598yz","2","70","80","60","","","","","","","","","","","","","","","",""
"null","audio/beep-329314.mp3","null","audio-keyboard-response","369","2.1.0","442894","F=YES, J=NO","fmyqa598yz","2","70","80","60","","","","","","","","","","","","","","","",""
"null","audio/topic.wav","null","audio-keyboard-response","370","2.1.0","443444","F=YES, J=NO","fmyqa598yz","2","70","80","60","","","","","","","","","","","","","","","",""
"1465","
          <p id=""word"" style=""font-size: 40px;"">infortuitist</p>
          <p style=""font-size: 16px;"">F = YES &nbsp;&nbsp;&nbsp; J = NO</p>
        ","f","html-keyboard-response","371","2.1.0","444911","F=YES, J=NO","fmyqa598yz","2","70","80","60","","","","","","","","","infortuitist","topic","pseudoword","pseudoword","j","false","",""
"null","<p style=""font-size: 50px;"">+</p>","null","html-keyboard-response","372","2.1.0","445216","F=YES, J=NO","fmyqa598yz","2","70","80","60","","","","","","","","","","","","","","","",""
"null","audio/beep-329314.mp3","null","audio-keyboard-response","373","2.1.0","446755","F=YES, J=NO","fmyqa598yz","2","70","80","60","","","","","","","","","","","","","","","",""
"null","audio/van1.wav","null","audio-keyboard-response","374","2.1.0","447225","F=YES, J=NO","fmyqa598yz","2","70","80","60","","","","","","","","","","","","","","","",""
"485","
          <p id=""word"" style=""font-size: 40px;"">push</p>
          <p style=""font-size: 16px;"">F = YES &nbsp;&nbsp;&nbsp; J = NO</p>
        ","f","html-keyboard-response","375","2.1.0","447711","F=YES, J=NO","fmyqa598yz","2","70","80","60","","","","","","","","","push","van1","filler","filler","f","true","",""
"null","<p style=""font-size: 50px;"">+</p>","null","html-keyboard-response","376","2.1.0","448014","F=YES, J=NO","fmyqa598yz","2","70","80","60","","","","","","","","","","","","","","","",""
"null","audio/beep-329314.mp3","null","audio-keyboard-response","377","2.1.0","449554","F=YES, J=NO","fmyqa598yz","2","70","80","60","","","","","","","","","","","","","","","",""
"null","audio/burden.wav","null","audio-keyboard-response","378","2.1.0","450063","F=YES, J=NO","fmyqa598yz","2","70","80","60","","","","","","","","","","","","","","","",""
"742","
          <p id=""word"" style=""font-size: 40px;"">whotth</p>
          <p style=""font-size: 16px;"">F = YES &nbsp;&nbsp;&nbsp; J = NO</p>
        ","j","html-keyboard-response","379","2.1.0","450807","F=YES, J=NO","fmyqa598yz","2","70","80","60","","","","","","","","","whotth","burden","pseudoword","pseudoword","j","true","",""
"null","<p style=""font-size: 50px;"">+</p>","null","html-keyboard-response","380","2.1.0","451114","F=YES, J=NO","fmyqa598yz","2","70","80","60","","","","","","","","","","","","","","","",""
"null","audio/beep-329314.mp3","null","audio-keyboard-response","381","2.1.0","452654","F=YES, J=NO","fmyqa598yz","2","70","80","60","","","","","","","","","","","","","","","",""
"null","audio/haste1.wav","null","audio-keyboard-response","382","2.1.0","453225","F=YES, J=NO","fmyqa598yz","2","70","80","60","","","","","","","","","","","","","","","",""
"null","
          <p id=""word"" style=""font-size: 40px;"">coraconate</p>
          <p style=""font-size: 16px;"">F = YES &nbsp;&nbsp;&nbsp; J = NO</p>
        ","null","html-keyboard-response","383","2.1.0","454729","F=YES, J=NO","fmyqa598yz","2","70","80","60","","","","","","","","","coraconate","haste1","pseudoword","pseudoword","j","false","",""
"null","<p style=""font-size: 50px;"">+</p>","null","html-keyboard-response","384","2.1.0","455032","F=YES, J=NO","fmyqa598yz","2","70","80","60","","","","","","","","","","","","","","","",""
"null","audio/beep-329314.mp3","null","audio-keyboard-response","385","2.1.0","456575","F=YES, J=NO","fmyqa598yz","2","70","80","60","","","","","","","","","","","","","","","",""
"null","audio/ego.wav","null","audio-keyboard-response","386","2.1.0","457244","F=YES, J=NO","fmyqa598yz","2","70","80","60","","","","","","","","","","","","","","","",""
"1195","
          <p id=""word"" style=""font-size: 40px;"">bruite</p>
          <p style=""font-size: 16px;"">F = YES &nbsp;&nbsp;&nbsp; J = NO</p>
        ","j","html-keyboard-response","387","2.1.0","458439","F=YES, J=NO","fmyqa598yz","2","70","80","60","","","","","","","","","bruite","ego","pseudoword","pseudoword","j","true","",""
"null","<p style=""font-size: 50px;"">+</p>","null","html-keyboard-response","388","2.1.0","458756","F=YES, J=NO","fmyqa598yz","2","70","80","60","","","","","","","","","","","","","","","",""
"null","audio/beep-329314.mp3","null","audio-keyboard-response","389","2.1.0","460295","F=YES, J=NO","fmyqa598yz","2","70","80","60","","","","","","","","","","","","","","","",""
"null","audio/tax1.wav","null","audio-keyboard-response","390","2.1.0","460924","F=YES, J=NO","fmyqa598yz","2","70","80","60","","","","","","","","","","","","","","","",""
"609","
          <p id=""word"" style=""font-size: 40px;"">snate</p>
          <p style=""font-size: 16px;"">F = YES &nbsp;&nbsp;&nbsp; J = NO</p>
