"rt","stimulus","response","trial_type","trial_index","plugin_version","time_elapsed","response_mapping","subject_id","list_index","lextale_score","lextale_word_score","lextale_nonword_score","success","timeout","failed_images","failed_audio","failed_video","task","isWord","isDummy","target","prime","prime_type","stimulus_type","correct_response","correct","section","question_order"
"7589","
    <div style=""max-width: 800px; margin: auto; text-align: left;"">
      <h2>STANFORD UNIVERSITY</h2>
      <h3>Research Information Sheet</h3>
      <p><strong>Protocol Director:</strong> Robert Hawkins<br>
      <strong>Protocol Title:</strong> Communication and social cognition in natural audiovisual contexts<br>
      <strong>IRB#:</strong> 77226</p>

      <p><strong>DESCRIPTION:</strong> You are invited to participate in a research study about language and communication. The purpose of the research is to understand how you interact and communicate with other people in naturalistic settings as a fluent English speaker. This research will be conducted through the Prolific platform, including participants from the US, UK, and Canada. If you decide to participate in this research, you will play a communication game in a group with one or more partners.</p>

      <p><strong>TIME INVOLVEMENT:</strong> The task will last the amount of time advertised on Prolific. You are free to withdraw from the study at any time.</p>

      <p><strong>RISKS AND BENEFITS:</strong> You may become frustrated if your partner gets distracted, or experience discomfort if other participants in your group send text that is inappropriate for the task. We ask you to please be respectful of other participants you might be interacting with to mitigate these risks. You may also experience discomfort when being asked to discuss or challenge emotionally salient political beliefs. Study data will be stored securely, in compliance with Stanford University standards, minimizing the risk of confidentiality breach. This study advances our scientific understanding of how people communicate and collaborate in naturalistic settings. This study may lead to further insights about what can go wrong in teamwork, suggest potential interventions to overcome these barriers, and help to develop assistive technologies that collaborate with human partners. We cannot and do not guarantee or promise that you will receive any benefits from this study.</p>

      <p><strong>PAYMENTS:</strong> You will receive payment in the amount advertised on Prolific. If you do not complete this study, you will receive prorated payment based on the time that you have spent. Additionally, you may be eligible for bonus payments as described in the instructions.</p>

      <p><strong>PARTICIPANT’S RIGHTS:</strong> If you have read this form and have decided to participate in this project, please understand your participation is voluntary and you have the right to withdraw your consent or discontinue participation at any time without penalty or loss of benefits to which you are otherwise entitled. The alternative is not to participate. You have the right to refuse to answer particular questions. The results of this research study may be presented at scientific or professional meetings or published in scientific journals. Your individual privacy will be maintained in all published and written data resulting from the study. In accordance with scientific norms, the data from this study may be used or shared with other researchers for future research (after removing personally identifying information) without additional consent from you.</p>

      <p><strong>CONTACT INFORMATION:</strong><br>
      Questions: If you have any questions, concerns or complaints about this research, its procedures, risks and benefits, contact the Protocol Director, Robert Hawkins (<a href=""mailto:rdhawkins@stanford.edu"">rdhawkins@stanford.edu</a>, 217-549-6923).<br>
      Independent Contact: If you are not satisfied with how this study is being conducted, or if you have any concerns, complaints, or general questions about the research or your rights as a participant, please contact the Stanford Institutional Review Board (IRB) to speak to someone independent of the research team at 650-723-2480 or toll free at 1-866-680-2906, or email at <a href=""mailto:irbnon-med@stanford.edu"">irbnon-med@stanford.edu</a>. You can also write to the Stanford IRB, Stanford University, 1705 El Camino Real, Palo Alto, CA 94306.</p>

      <p><strong>Please save or print a copy of this page for your records.</strong></p>
      <p>If you agree to participate in this research, click ""Continue"" below.</p>
    </div>
  ","0","html-button-response","0","2.1.0","7799","J=YES, F=NO","gsp8ku74bm","0","80","80","80","","","","","","","","","","","","","","","",""
"9490","
    <div style=""max-width: 800px; margin: auto; text-align: left;"">
      <h2>Welcome!</h2>
      <p>Thank you for participating in this study. The experiment consists of three parts:</p>
      <ol>
        <li>An English vocabulary test</li>
        <li>A main task in which you will hear and see words, and decide whether the written word is a real English word</li>
        <li>A brief survey about your background</li>
      </ol>
      <p>Each part will be introduced before it begins.</p>
      <p>Please make sure you are in a quiet environment and can hear audio clearly for the final task.</p>
      <p style=""margin-top: 2em;"">Press any key to begin.</p>
    </div>
  ","ArrowUp","html-keyboard-response","1","2.1.0","17291","J=YES, F=NO","gsp8ku74bm","0","80","80","80","","","","","","","","","","","","","","","",""
"","","","preload","2","2.1.0","20151","J=YES, F=NO","gsp8ku74bm","0","80","80","80","true","false","[]","[]","[]","","","","","","","","","","",""
"6129","
    <div style=""max-width: 800px; margin: auto; text-align: left;"">
      <h2>Part 1: Vocabulary Test</h2>
      <p>You will now complete the first part of the study: a short English vocabulary test.</p>
      <p>This test is called <strong>LexTALE</strong> and helps us get a general sense of your English proficiency.</p>
      <p style=""margin-top: 2em;"">Press any key to continue.</p>
    </div>
  ","ArrowUp","html-keyboard-response","3","2.1.0","26281","J=YES, F=NO","gsp8ku74bm","0","80","80","80","","","","","","","","","","","","","","","",""
"9950","
    <div style=""max-width: 800px; margin: auto; text-align: left;"">
      <h2>LexTALE Vocabulary Test</h2>
      <p>In this test, you will see a series of letter strings—one at a time.</p>
      <p>Your task is to decide whether each string is a real English word.</p>
      <p><strong>Key responses:</strong></p>
      <ul>
        <li><strong>J</strong> = YES (real English word)</li>
        <li><strong>F</strong> = NO (not a real English word)</li>
      </ul>
      <p>There is no time limit, but please try to be accurate.</p>
      <p style=""margin-top: 2em;"">Press any key to begin.</p>
    </div>
  ","j","html-keyboard-response","4","2.1.0","36231","J=YES, F=NO","gsp8ku74bm","0","80","80","80","","","","","","","","","","","","","","","",""
"4139","
  <p style=""font-size: 40px;"">platery</p>
  <p style=""font-size: 16px;"">J = YES &nbsp;&nbsp;&nbsp; F = NO</p>
","j","html-keyboard-response","5","2.1.0","40371","J=YES, F=NO","gsp8ku74bm","0","80","80","80","","","","","","lextale","false","true","","","","","","","",""
"709","
  <p style=""font-size: 40px;"">denial</p>
  <p style=""font-size: 16px;"">J = YES &nbsp;&nbsp;&nbsp; F = NO</p>
","j","html-keyboard-response","6","2.1.0","41080","J=YES, F=NO","gsp8ku74bm","0","80","80","80","","","","","","lextale","true","true","","","","","","","",""
"2849","
  <p style=""font-size: 40px;"">marrit</p>
  <p style=""font-size: 16px;"">J = YES &nbsp;&nbsp;&nbsp; F = NO</p>
","f","html-keyboard-response","7","2.1.0","43930","J=YES, F=NO","gsp8ku74bm","0","80","80","80","","","","","","lextale","false","true","","","","","","","",""
"679","
  <p style=""font-size: 40px;"">bottle</p>
  <p style=""font-size: 16px;"">J = YES &nbsp;&nbsp;&nbsp; F = NO</p>
","j","html-keyboard-response","8","2.1.0","44610","J=YES, F=NO","gsp8ku74bm","0","80","80","80","","","","","","lextale","true","false","","","","","","","",""
"1220","
  <p style=""font-size: 40px;"">birst</p>
  <p style=""font-size: 16px;"">J = YES &nbsp;&nbsp;&nbsp; F = NO</p>
","f","html-keyboard-response","9","2.1.0","45830","J=YES, F=NO","gsp8ku74bm","0","80","80","80","","","","","","lextale","false","false","","","","","","","",""
"719","
  <p style=""font-size: 40px;"">envy</p>
  <p style=""font-size: 16px;"">J = YES &nbsp;&nbsp;&nbsp; F = NO</p>
","j","html-keyboard-response","10","2.1.0","46550","J=YES, F=NO","gsp8ku74bm","0","80","80","80","","","","","","lextale","true","false","","","","","","","",""
"1760","
  <p style=""font-size: 40px;"">brang</p>
  <p style=""font-size: 16px;"">J = YES &nbsp;&nbsp;&nbsp; F = NO</p>
","f","html-keyboard-response","11","2.1.0","48310","J=YES, F=NO","gsp8ku74bm","0","80","80","80","","","","","","lextale","false","false","","","","","","","",""
"690","
  <p style=""font-size: 40px;"">huge</p>
  <p style=""font-size: 16px;"">J = YES &nbsp;&nbsp;&nbsp; F = NO</p>
","j","html-keyboard-response","12","2.1.0","49000","J=YES, F=NO","gsp8ku74bm","0","80","80","80","","","","","","lextale","true","false","","","","","","","",""
"1099","
  <p style=""font-size: 40px;"">plove</p>
  <p style=""font-size: 16px;"">J = YES &nbsp;&nbsp;&nbsp; F = NO</p>
","f","html-keyboard-response","13","2.1.0","50100","J=YES, F=NO","gsp8ku74bm","0","80","80","80","","","","","","lextale","false","false","","","","","","","",""
"2880","
  <p style=""font-size: 40px;"">border</p>
  <p style=""font-size: 16px;"">J = YES &nbsp;&nbsp;&nbsp; F = NO</p>
","j","html-keyboard-response","14","2.1.0","52981","J=YES, F=NO","gsp8ku74bm","0","80","80","80","","","","","","lextale","true","false","","","","","","","",""
"959","
  <p style=""font-size: 40px;"">flimsy</p>
  <p style=""font-size: 16px;"">J = YES &nbsp;&nbsp;&nbsp; F = NO</p>
","j","html-keyboard-response","15","2.1.0","53940","J=YES, F=NO","gsp8ku74bm","0","80","80","80","","","","","","lextale","true","false","","","","","","","",""
"779","
  <p style=""font-size: 40px;"">drain</p>
  <p style=""font-size: 16px;"">J = YES &nbsp;&nbsp;&nbsp; F = NO</p>
","j","html-keyboard-response","16","2.1.0","54720","J=YES, F=NO","gsp8ku74bm","0","80","80","80","","","","","","lextale","true","false","","","","","","","",""
"1120","
  <p style=""font-size: 40px;"">twindle</p>
  <p style=""font-size: 16px;"">J = YES &nbsp;&nbsp;&nbsp; F = NO</p>
","f","html-keyboard-response","17","2.1.0","55840","J=YES, F=NO","gsp8ku74bm","0","80","80","80","","","","","","lextale","false","false","","","","","","","",""
"710","
  <p style=""font-size: 40px;"">propose</p>
  <p style=""font-size: 16px;"">J = YES &nbsp;&nbsp;&nbsp; F = NO</p>
","j","html-keyboard-response","18","2.1.0","56550","J=YES, F=NO","gsp8ku74bm","0","80","80","80","","","","","","lextale","true","false","","","","","","","",""
"1559","
  <p style=""font-size: 40px;"">forlay</p>
  <p style=""font-size: 16px;"">J = YES &nbsp;&nbsp;&nbsp; F = NO</p>
","j","html-keyboard-response","19","2.1.0","58110","J=YES, F=NO","gsp8ku74bm","0","80","80","80","","","","","","lextale","false","false","","","","","","","",""
"829","
  <p style=""font-size: 40px;"">tenant</p>
  <p style=""font-size: 16px;"">J = YES &nbsp;&nbsp;&nbsp; F = NO</p>
","j","html-keyboard-response","20","2.1.0","58940","J=YES, F=NO","gsp8ku74bm","0","80","80","80","","","","","","lextale","true","false","","","","","","","",""
"840","
  <p style=""font-size: 40px;"">strain</p>
  <p style=""font-size: 16px;"">J = YES &nbsp;&nbsp;&nbsp; F = NO</p>
","j","html-keyboard-response","21","2.1.0","59780","J=YES, F=NO","gsp8ku74bm","0","80","80","80","","","","","","lextale","true","false","","","","","","","",""
"790","
  <p style=""font-size: 40px;"">holster</p>
  <p style=""font-size: 16px;"">J = YES &nbsp;&nbsp;&nbsp; F = NO</p>
","j","html-keyboard-response","22","2.1.0","60570","J=YES, F=NO","gsp8ku74bm","0","80","80","80","","","","","","lextale","true","false","","","","","","","",""
"719","
  <p style=""font-size: 40px;"">hinder</p>
  <p style=""font-size: 16px;"">J = YES &nbsp;&nbsp;&nbsp; F = NO</p>
","j","html-keyboard-response","23","2.1.0","61290","J=YES, F=NO","gsp8ku74bm","0","80","80","80","","","","","","lextale","true","false","","","","","","","",""
"920","
  <p style=""font-size: 40px;"">swindle</p>
  <p style=""font-size: 16px;"">J = YES &nbsp;&nbsp;&nbsp; F = NO</p>
","j","html-keyboard-response","24","2.1.0","62210","J=YES, F=NO","gsp8ku74bm","0","80","80","80","","","","","","lextale","true","false","","","","","","","",""
"1179","
  <p style=""font-size: 40px;"">nuder</p>
  <p style=""font-size: 16px;"">J = YES &nbsp;&nbsp;&nbsp; F = NO</p>
","f","html-keyboard-response","25","2.1.0","63390","J=YES, F=NO","gsp8ku74bm","0","80","80","80","","","","","","lextale","false","false","","","","","","","",""
"660","
  <p style=""font-size: 40px;"">pillow</p>
  <p style=""font-size: 16px;"">J = YES &nbsp;&nbsp;&nbsp; F = NO</p>
","j","html-keyboard-response","26","2.1.0","64051","J=YES, F=NO","gsp8ku74bm","0","80","80","80","","","","","","lextale","true","false","","","","","","","",""
"4159","
  <p style=""font-size: 40px;"">shumble</p>
  <p style=""font-size: 16px;"">J = YES &nbsp;&nbsp;&nbsp; F = NO</p>
","j","html-keyboard-response","27","2.1.0","68210","J=YES, F=NO","gsp8ku74bm","0","80","80","80","","","","","","lextale","false","false","","","","","","","",""
"610","
  <p style=""font-size: 40px;"">thirst</p>
  <p style=""font-size: 16px;"">J = YES &nbsp;&nbsp;&nbsp; F = NO</p>
","j","html-keyboard-response","28","2.1.0","68820","J=YES, F=NO","gsp8ku74bm","0","80","80","80","","","","","","lextale","true","false","","","","","","","",""
"949","
  <p style=""font-size: 40px;"">unsail</p>
  <p style=""font-size: 16px;"">J = YES &nbsp;&nbsp;&nbsp; F = NO</p>
","f","html-keyboard-response","29","2.1.0","69770","J=YES, F=NO","gsp8ku74bm","0","80","80","80","","","","","","lextale","false","false","","","","","","","",""
"660","
  <p style=""font-size: 40px;"">rifle</p>
  <p style=""font-size: 16px;"">J = YES &nbsp;&nbsp;&nbsp; F = NO</p>
","j","html-keyboard-response","30","2.1.0","70430","J=YES, F=NO","gsp8ku74bm","0","80","80","80","","","","","","lextale","true","false","","","","","","","",""
"850","
  <p style=""font-size: 40px;"">mush</p>
  <p style=""font-size: 16px;"">J = YES &nbsp;&nbsp;&nbsp; F = NO</p>
","j","html-keyboard-response","31","2.1.0","71281","J=YES, F=NO","gsp8ku74bm","0","80","80","80","","","","","","lextale","false","false","","","","","","","",""
"559","
  <p style=""font-size: 40px;"">drench</p>
  <p style=""font-size: 16px;"">J = YES &nbsp;&nbsp;&nbsp; F = NO</p>
","j","html-keyboard-response","32","2.1.0","71840","J=YES, F=NO","gsp8ku74bm","0","80","80","80","","","","","","lextale","true","false","","","","","","","",""
"939","
  <p style=""font-size: 40px;"">snirt</p>
  <p style=""font-size: 16px;"">J = YES &nbsp;&nbsp;&nbsp; F = NO</p>
","f","html-keyboard-response","33","2.1.0","72780","J=YES, F=NO","gsp8ku74bm","0","80","80","80","","","","","","lextale","false","false","","","","","","","",""
"680","
  <p style=""font-size: 40px;"">bitter</p>
  <p style=""font-size: 16px;"">J = YES &nbsp;&nbsp;&nbsp; F = NO</p>
","j","html-keyboard-response","34","2.1.0","73460","J=YES, F=NO","gsp8ku74bm","0","80","80","80","","","","","","lextale","true","false","","","","","","","",""
"890","
  <p style=""font-size: 40px;"">pliff</p>
  <p style=""font-size: 16px;"">J = YES &nbsp;&nbsp;&nbsp; F = NO</p>
","f","html-keyboard-response","35","2.1.0","74350","J=YES, F=NO","gsp8ku74bm","0","80","80","80","","","","","","lextale","false","false","","","","","","","",""
"619","
  <p style=""font-size: 40px;"">tablet</p>
  <p style=""font-size: 16px;"">J = YES &nbsp;&nbsp;&nbsp; F = NO</p>
","j","html-keyboard-response","36","2.1.0","74970","J=YES, F=NO","gsp8ku74bm","0","80","80","80","","","","","","lextale","true","false","","","","","","","",""
"770","
  <p style=""font-size: 40px;"">glimmer</p>
  <p style=""font-size: 16px;"">J = YES &nbsp;&nbsp;&nbsp; F = NO</p>
","j","html-keyboard-response","37","2.1.0","75740","J=YES, F=NO","gsp8ku74bm","0","80","80","80","","","","","","lextale","true","false","","","","","","","",""
"2349","
  <p style=""font-size: 40px;"">slink</p>
  <p style=""font-size: 16px;"">J = YES &nbsp;&nbsp;&nbsp; F = NO</p>
","j","html-keyboard-response","38","2.1.0","78090","J=YES, F=NO","gsp8ku74bm","0","80","80","80","","","","","","lextale","true","false","","","","","","","",""
"800","
  <p style=""font-size: 40px;"">clever</p>
  <p style=""font-size: 16px;"">J = YES &nbsp;&nbsp;&nbsp; F = NO</p>
","j","html-keyboard-response","39","2.1.0","78890","J=YES, F=NO","gsp8ku74bm","0","80","80","80","","","","","","lextale","true","false","","","","","","","",""
"850","
  <p style=""font-size: 40px;"">grum</p>
  <p style=""font-size: 16px;"">J = YES &nbsp;&nbsp;&nbsp; F = NO</p>
","f","html-keyboard-response","40","2.1.0","79740","J=YES, F=NO","gsp8ku74bm","0","80","80","80","","","","","","lextale","false","false","","","","","","","",""
"650","
  <p style=""font-size: 40px;"">string</p>
  <p style=""font-size: 16px;"">J = YES &nbsp;&nbsp;&nbsp; F = NO</p>
","j","html-keyboard-response","41","2.1.0","80390","J=YES, F=NO","gsp8ku74bm","0","80","80","80","","","","","","lextale","true","false","","","","","","","",""
"1279","
  <p style=""font-size: 40px;"">plim</p>
  <p style=""font-size: 16px;"">J = YES &nbsp;&nbsp;&nbsp; F = NO</p>
","f","html-keyboard-response","42","2.1.0","81670","J=YES, F=NO","gsp8ku74bm","0","80","80","80","","","","","","lextale","false","false","","","","","","","",""
"880","
  <p style=""font-size: 40px;"">cable</p>
  <p style=""font-size: 16px;"">J = YES &nbsp;&nbsp;&nbsp; F = NO</p>
","j","html-keyboard-response","43","2.1.0","82550","J=YES, F=NO","gsp8ku74bm","0","80","80","80","","","","","","lextale","true","false","","","","","","","",""
"1070","
  <p style=""font-size: 40px;"">shrivel</p>
  <p style=""font-size: 16px;"">J = YES &nbsp;&nbsp;&nbsp; F = NO</p>
","j","html-keyboard-response","44","2.1.0","83620","J=YES, F=NO","gsp8ku74bm","0","80","80","80","","","","","","lextale","true","false","","","","","","","",""
"760","
  <p style=""font-size: 40px;"">tarnish</p>
  <p style=""font-size: 16px;"">J = YES &nbsp;&nbsp;&nbsp; F = NO</p>
","j","html-keyboard-response","45","2.1.0","84380","J=YES, F=NO","gsp8ku74bm","0","80","80","80","","","","","","lextale","true","false","","","","","","","",""
"2270","
  <p style=""font-size: 40px;"">blim</p>
  <p style=""font-size: 16px;"">J = YES &nbsp;&nbsp;&nbsp; F = NO</p>
","f","html-keyboard-response","46","2.1.0","86650","J=YES, F=NO","gsp8ku74bm","0","80","80","80","","","","","","lextale","false","false","","","","","","","",""
"2950","
  <p style=""font-size: 40px;"">stifle</p>
  <p style=""font-size: 16px;"">J = YES &nbsp;&nbsp;&nbsp; F = NO</p>
","f","html-keyboard-response","47","2.1.0","89600","J=YES, F=NO","gsp8ku74bm","0","80","80","80","","","","","","lextale","true","false","","","","","","","",""
"909","
  <p style=""font-size: 40px;"">bint</p>
  <p style=""font-size: 16px;"">J = YES &nbsp;&nbsp;&nbsp; F = NO</p>
","f","html-keyboard-response","48","2.1.0","90510","J=YES, F=NO","gsp8ku74bm","0","80","80","80","","","","","","lextale","false","false","","","","","","","",""
"640","
  <p style=""font-size: 40px;"">purple</p>
  <p style=""font-size: 16px;"">J = YES &nbsp;&nbsp;&nbsp; F = NO</p>
","j","html-keyboard-response","49","2.1.0","91150","J=YES, F=NO","gsp8ku74bm","0","80","80","80","","","","","","lextale","true","false","","","","","","","",""
"1220","
  <p style=""font-size: 40px;"">wriggle</p>
  <p style=""font-size: 16px;"">J = YES &nbsp;&nbsp;&nbsp; F = NO</p>
","f","html-keyboard-response","50","2.1.0","92370","J=YES, F=NO","gsp8ku74bm","0","80","80","80","","","","","","lextale","true","false","","","","","","","",""
"1130","
  <p style=""font-size: 40px;"">mangle</p>
  <p style=""font-size: 16px;"">J = YES &nbsp;&nbsp;&nbsp; F = NO</p>
","j","html-keyboard-response","51","2.1.0","93500","J=YES, F=NO","gsp8ku74bm","0","80","80","80","","","","","","lextale","true","false","","","","","","","",""
"2500","
  <p style=""font-size: 40px;"">shramp</p>
  <p style=""font-size: 16px;"">J = YES &nbsp;&nbsp;&nbsp; F = NO</p>
","f","html-keyboard-response","52","2.1.0","96000","J=YES, F=NO","gsp8ku74bm","0","80","80","80","","","","","","lextale","false","false","","","","","","","",""
"570","
  <p style=""font-size: 40px;"">flirt</p>
  <p style=""font-size: 16px;"">J = YES &nbsp;&nbsp;&nbsp; F = NO</p>
","j","html-keyboard-response","53","2.1.0","96571","J=YES, F=NO","gsp8ku74bm","0","80","80","80","","","","","","lextale","true","false","","","","","","","",""
"889","
  <p style=""font-size: 40px;"">frip</p>
  <p style=""font-size: 16px;"">J = YES &nbsp;&nbsp;&nbsp; F = NO</p>
","f","html-keyboard-response","54","2.1.0","97460","J=YES, F=NO","gsp8ku74bm","0","80","80","80","","","","","","lextale","false","false","","","","","","","",""
"700","
  <p style=""font-size: 40px;"">tangle</p>
  <p style=""font-size: 16px;"">J = YES &nbsp;&nbsp;&nbsp; F = NO</p>
","j","html-keyboard-response","55","2.1.0","98160","J=YES, F=NO","gsp8ku74bm","0","80","80","80","","","","","","lextale","true","false","","","","","","","",""
"661","
  <p style=""font-size: 40px;"">crumble</p>
  <p style=""font-size: 16px;"">J = YES &nbsp;&nbsp;&nbsp; F = NO</p>
","j","html-keyboard-response","56","2.1.0","98821","J=YES, F=NO","gsp8ku74bm","0","80","80","80","","","","","","lextale","true","false","","","","","","","",""
"950","
  <p style=""font-size: 40px;"">wrinkle</p>
  <p style=""font-size: 16px;"">J = YES &nbsp;&nbsp;&nbsp; F = NO</p>
","j","html-keyboard-response","57","2.1.0","99771","J=YES, F=NO","gsp8ku74bm","0","80","80","80","","","","","","lextale","true","false","","","","","","","",""
"3639","
  <p style=""font-size: 40px;"">slumb</p>
  <p style=""font-size: 16px;"">J = YES &nbsp;&nbsp;&nbsp; F = NO</p>
","f","html-keyboard-response","58","2.1.0","103411","J=YES, F=NO","gsp8ku74bm","0","80","80","80","","","","","","lextale","false","false","","","","","","","",""
"540","
  <p style=""font-size: 40px;"">jungle</p>
  <p style=""font-size: 16px;"">J = YES &nbsp;&nbsp;&nbsp; F = NO</p>
","j","html-keyboard-response","59","2.1.0","103951","J=YES, F=NO","gsp8ku74bm","0","80","80","80","","","","","","lextale","true","false","","","","","","","",""
"830","
  <p style=""font-size: 40px;"">frolick</p>
  <p style=""font-size: 16px;"">J = YES &nbsp;&nbsp;&nbsp; F = NO</p>
","f","html-keyboard-response","60","2.1.0","104781","J=YES, F=NO","gsp8ku74bm","0","80","80","80","","","","","","lextale","false","false","","","","","","","",""
"1699","
      <h2>LexTALE Test Completed</h2>
      <p>Your LexTALE vocabulary score is: <strong>80%</strong></p>
      <p>Press any key to continue.</p>
    ","j","html-keyboard-response","61","2.1.0","106481","J=YES, F=NO","gsp8ku74bm","0","80","80","80","","","","","","","","","","","","","","","",""
"12350","
    <div style=""max-width: 800px; margin: auto; text-align: left;"">
      <h2>Break Time</h2>
      <p>You have completed the first part of the study.</p>
      <p>You may take a short <strong>30-second break</strong> before continuing.</p>
      <p>When you’re ready, press any key to continue to the final task.</p>
    </div>
  ","j","html-keyboard-response","62","2.1.0","118831","J=YES, F=NO","gsp8ku74bm","0","80","80","80","","","","","","","","","","","","","","","",""
"14899","
    <div style=""max-width: 800px; margin: auto; text-align: left;"">
      <h2>Part 2: Lexical Decision Task</h2>
      <p>You will now begin the second part of the study.</p>
      <p>Each trial will follow this sequence:</p>
      <ul>
        <li>A fixation cross (+) appears at the center of the screen.</li>
        <li>You will hear a short beep followed by a spoken word.</li>
        <li>A written word will appear briefly on the screen.</li>
      </ul>
      <p>Your task is to judge whether the <strong>written word</strong> is a real English word.</p>
      <p style=""margin-top: 1em;""><strong>Key responses:</strong></p>
      <ul>
        <li><strong>J</strong> = YES (real English word)</li>
        <li><strong>F</strong> = NO (not a real English word)</li>
      </ul>
      <p>Please respond as quickly and accurately as you can.</p>
      <p style=""margin-top: 2em;"">Press any key to continue.</p>
    </div>
  ","j","html-keyboard-response","63","2.1.0","133731","J=YES, F=NO","gsp8ku74bm","0","80","80","80","","","","","","","","","","","","","","","",""
"8209","
    <div style=""max-width: 800px; margin: auto; text-align: left;"">
      <h2>Before You Begin</h2>
      <p>Make sure your sound is turned on.</p>
      <p>You will hear audio during each trial, but your decision should be based only on the <strong>written word</strong> you see on the screen.</p>
      <p><strong>Reminder:</strong></p>
      <ul>
        <li><strong>J</strong> = YES (real English word)</li>
        <li><strong>F</strong> = NO (not a real English word)</li>
      </ul>
      <p style=""margin-top: 2em;"">Press any key when you are ready to begin.</p>
    </div>
  ","j","html-keyboard-response","64","2.1.0","141941","J=YES, F=NO","gsp8ku74bm","0","80","80","80","","","","","","","","","","","","","","","",""
"3929","
    <div style=""max-width: 800px; margin: auto; text-align: left;"">
      <h2>Part 2: Practice Trials</h2>
      <p>You will now complete a few <strong>practice trials</strong> to get familiar with the task.</p>
      <p>These trials are <strong>not scored</strong> and are only to help you get used to the format.</p>
      <p style=""margin-top: 2em;"">Press any key to begin.</p>
    </div>
  ","j","html-keyboard-response","65","2.1.0","145871","J=YES, F=NO","gsp8ku74bm","0","80","80","80","","","","","","","","","","","","","","","",""
"2309","<p>Starting practice block 1 of 2. Press any key to continue.</p>","j","html-keyboard-response","66","2.1.0","148181","J=YES, F=NO","gsp8ku74bm","0","80","80","80","","","","","","","","","","","","","","","",""
"null","<p style=""font-size: 50px;"">+</p>","null","html-keyboard-response","67","2.1.0","148495","J=YES, F=NO","gsp8ku74bm","0","80","80","80","","","","","","","","","","","","","","","",""
"null","audio/beep-329314.mp3","null","audio-keyboard-response","68","2.1.0","150091","J=YES, F=NO","gsp8ku74bm","0","80","80","80","","","","","","","","","","","","","","","",""
"null","audio/bridge.wav","null","audio-keyboard-response","69","2.1.0","150690","J=YES, F=NO","gsp8ku74bm","0","80","80","80","","","","","","","","","","","","","","","",""
"null","
          <p id=""word"" style=""font-size: 40px;"">crack</p>
          <p style=""font-size: 16px;"">J = YES &nbsp;&nbsp;&nbsp; F = NO</p>
        ","null","html-keyboard-response","70","2.1.0","152195","J=YES, F=NO","gsp8ku74bm","0","80","80","80","","","","","","","","","crack","bridge","filler","filler","j","false","",""
"null","<p style=""font-size: 50px;"">+</p>","null","html-keyboard-response","71","2.1.0","152505","J=YES, F=NO","gsp8ku74bm","0","80","80","80","","","","","","","","","","","","","","","",""
"null","audio/beep-329314.mp3","null","audio-keyboard-response","72","2.1.0","154031","J=YES, F=NO","gsp8ku74bm","0","80","80","80","","","","","","","","","","","","","","","",""
"null","audio/trust.wav","null","audio-keyboard-response","73","2.1.0","154751","J=YES, F=NO","gsp8ku74bm","0","80","80","80","","","","","","","","","","","","","","","",""
"840","
          <p id=""word"" style=""font-size: 40px;"">swint</p>
          <p style=""font-size: 16px;"">J = YES &nbsp;&nbsp;&nbsp; F = NO</p>
        ","f","html-keyboard-response","74","2.1.0","155591","J=YES, F=NO","gsp8ku74bm","0","80","80","80","","","","","","","","","swint","trust","pseudoword","pseudoword","f","true","",""
"null","<p style=""font-size: 50px;"">+</p>","null","html-keyboard-response","75","2.1.0","155899","J=YES, F=NO","gsp8ku74bm","0","80","80","80","","","","","","","","","","","","","","","",""
"null","audio/beep-329314.mp3","null","audio-keyboard-response","76","2.1.0","157430","J=YES, F=NO","gsp8ku74bm","0","80","80","80","","","","","","","","","","","","","","","",""
"null","audio/brain.wav","null","audio-keyboard-response","77","2.1.0","157990","J=YES, F=NO","gsp8ku74bm","0","80","80","80","","","","","","","","","","","","","","","",""
"600","
          <p id=""word"" style=""font-size: 40px;"">throw</p>
          <p style=""font-size: 16px;"">J = YES &nbsp;&nbsp;&nbsp; F = NO</p>
        ","j","html-keyboard-response","78","2.1.0","158591","J=YES, F=NO","gsp8ku74bm","0","80","80","80","","","","","","","","","throw","brain","filler","filler","j","true","",""
"null","<p style=""font-size: 50px;"">+</p>","null","html-keyboard-response","79","2.1.0","158903","J=YES, F=NO","gsp8ku74bm","0","80","80","80","","","","","","","","","","","","","","","",""
"null","audio/beep-329314.mp3","null","audio-keyboard-response","80","2.1.0","160431","J=YES, F=NO","gsp8ku74bm","0","80","80","80","","","","","","","","","","","","","","","",""
"null","audio/fence.wav","null","audio-keyboard-response","81","2.1.0","161290","J=YES, F=NO","gsp8ku74bm","0","80","80","80","","","","","","","","","","","","","","","",""
"850","
          <p id=""word"" style=""font-size: 40px;"">trim</p>
          <p style=""font-size: 16px;"">J = YES &nbsp;&nbsp;&nbsp; F = NO</p>
        ","j","html-keyboard-response","82","2.1.0","162141","J=YES, F=NO","gsp8ku74bm","0","80","80","80","","","","","","","","","trim","fence","filler","filler","j","true","",""
"null","<p style=""font-size: 50px;"">+</p>","null","html-keyboard-response","83","2.1.0","162449","J=YES, F=NO","gsp8ku74bm","0","80","80","80","","","","","","","","","","","","","","","",""
"null","audio/beep-329314.mp3","null","audio-keyboard-response","84","2.1.0","163971","J=YES, F=NO","gsp8ku74bm","0","80","80","80","","","","","","","","","","","","","","","",""
"null","audio/cancer1.wav","null","audio-keyboard-response","85","2.1.0","164591","J=YES, F=NO","gsp8ku74bm","0","80","80","80","","","","","","","","","","","","","","","",""
"640","
          <p id=""word"" style=""font-size: 40px;"">draw</p>
          <p style=""font-size: 16px;"">J = YES &nbsp;&nbsp;&nbsp; F = NO</p>
        ","j","html-keyboard-response","86","2.1.0","165231","J=YES, F=NO","gsp8ku74bm","0","80","80","80","","","","","","","","","draw","cancer1","filler","filler","j","true","",""
"null","<p style=""font-size: 50px;"">+</p>","null","html-keyboard-response","87","2.1.0","165539","J=YES, F=NO","gsp8ku74bm","0","80","80","80","","","","","","","","","","","","","","","",""
"null","audio/beep-329314.mp3","null","audio-keyboard-response","88","2.1.0","167071","J=YES, F=NO","gsp8ku74bm","0","80","80","80","","","","","","","","","","","","","","","",""
"null","audio/menu.wav","null","audio-keyboard-response","89","2.1.0","167730","J=YES, F=NO","gsp8ku74bm","0","80","80","80","","","","","","","","","","","","","","","",""
"590","
          <p id=""word"" style=""font-size: 40px;"">slice</p>
          <p style=""font-size: 16px;"">J = YES &nbsp;&nbsp;&nbsp; F = NO</p>
        ","j","html-keyboard-response","90","2.1.0","168321","J=YES, F=NO","gsp8ku74bm","0","80","80","80","","","","","","","","","slice","menu","filler","filler","j","true","",""
"null","<p style=""font-size: 50px;"">+</p>","null","html-keyboard-response","91","2.1.0","168634","J=YES, F=NO","gsp8ku74bm","0","80","80","80","","","","","","","","","","","","","","","",""
"null","audio/beep-329314.mp3","null","audio-keyboard-response","92","2.1.0","170170","J=YES, F=NO","gsp8ku74bm","0","80","80","80","","","","","","","","","","","","","","","",""
"null","audio/pine.wav","null","audio-keyboard-response","93","2.1.0","170730","J=YES, F=NO","gsp8ku74bm","0","80","80","80","","","","","","","","","","","","","","","",""
"890","
          <p id=""word"" style=""font-size: 40px;"">crebble</p>
          <p style=""font-size: 16px;"">J = YES &nbsp;&nbsp;&nbsp; F = NO</p>
        ","f","html-keyboard-response","94","2.1.0","171621","J=YES, F=NO","gsp8ku74bm","0","80","80","80","","","","","","","","","crebble","pine","pseudoword","pseudoword","f","true","",""
"null","<p style=""font-size: 50px;"">+</p>","null","html-keyboard-response","95","2.1.0","171921","J=YES, F=NO","gsp8ku74bm","0","80","80","80","","","","","","","","","","","","","","","",""
"null","audio/beep-329314.mp3","null","audio-keyboard-response","96","2.1.0","173451","J=YES, F=NO","gsp8ku74bm","0","80","80","80","","","","","","","","","","","","","","","",""
"null","audio/belief.wav","null","audio-keyboard-response","97","2.1.0","174171","J=YES, F=NO","gsp8ku74bm","0","80","80","80","","","","","","","","","","","","","","","",""
"500","
          <p id=""word"" style=""font-size: 40px;"">read</p>
          <p style=""font-size: 16px;"">J = YES &nbsp;&nbsp;&nbsp; F = NO</p>
        ","j","html-keyboard-response","98","2.1.0","174671","J=YES, F=NO","gsp8ku74bm","0","80","80","80","","","","","","","","","read","belief","filler","filler","j","true","",""
"null","<p style=""font-size: 50px;"">+</p>","null","html-keyboard-response","99","2.1.0","174977","J=YES, F=NO","gsp8ku74bm","0","80","80","80","","","","","","","","","","","","","","","",""
"null","audio/beep-329314.mp3","null","audio-keyboard-response","100","2.1.0","176510","J=YES, F=NO","gsp8ku74bm","0","80","80","80","","","","","","","","","","","","","","","",""
"null","audio/smirk1.wav","null","audio-keyboard-response","101","2.1.0","177331","J=YES, F=NO","gsp8ku74bm","0","80","80","80","","","","","","","","","","","","","","","",""
"780","
          <p id=""word"" style=""font-size: 40px;"">snopt</p>
          <p style=""font-size: 16px;"">J = YES &nbsp;&nbsp;&nbsp; F = NO</p>
        ","f","html-keyboard-response","102","2.1.0","178111","J=YES, F=NO","gsp8ku74bm","0","80","80","80","","","","","","","","","snopt","smirk1","pseudoword","pseudoword","f","true","",""
"null","<p style=""font-size: 50px;"">+</p>","null","html-keyboard-response","103","2.1.0","178425","J=YES, F=NO","gsp8ku74bm","0","80","80","80","","","","","","","","","","","","","","","",""
"null","audio/beep-329314.mp3","null","audio-keyboard-response","104","2.1.0","179950","J=YES, F=NO","gsp8ku74bm","0","80","80","80","","","","","","","","","","","","","","","",""
"null","audio/golf1.wav","null","audio-keyboard-response","105","2.1.0","180570","J=YES, F=NO","gsp8ku74bm","0","80","80","80","","","","","","","","","","","","","","","",""
"790","
          <p id=""word"" style=""font-size: 40px;"">drabble</p>
          <p style=""font-size: 16px;"">J = YES &nbsp;&nbsp;&nbsp; F = NO</p>
        ","f","html-keyboard-response","106","2.1.0","181361","J=YES, F=NO","gsp8ku74bm","0","80","80","80","","","","","","","","","drabble","golf1","pseudoword","pseudoword","f","true","",""
"null","<p style=""font-size: 50px;"">+</p>","null","html-keyboard-response","107","2.1.0","181675","J=YES, F=NO","gsp8ku74bm","0","80","80","80","","","","","","","","","","","","","","","",""
"null","audio/beep-329314.mp3","null","audio-keyboard-response","108","2.1.0","183210","J=YES, F=NO","gsp8ku74bm","0","80","80","80","","","","","","","","","","","","","","","",""
"null","audio/account1.wav","null","audio-keyboard-response","109","2.1.0","184090","J=YES, F=NO","gsp8ku74bm","0","80","80","80","","","","","","","","","","","","","","","",""
"520","
          <p id=""word"" style=""font-size: 40px;"">paint</p>
          <p style=""font-size: 16px;"">J = YES &nbsp;&nbsp;&nbsp; F = NO</p>
        ","j","html-keyboard-response","110","2.1.0","184611","J=YES, F=NO","gsp8ku74bm","0","80","80","80","","","","","","","","","paint","account1","filler","filler","j","true","",""
"null","<p style=""font-size: 50px;"">+</p>","null","html-keyboard-response","111","2.1.0","184920","J=YES, F=NO","gsp8ku74bm","0","80","80","80","","","","","","","","","","","","","","","",""
"null","audio/beep-329314.mp3","null","audio-keyboard-response","112","2.1.0","186451","J=YES, F=NO","gsp8ku74bm","0","80","80","80","","","","","","","","","","","","","","","",""
"null","audio/pattern.wav","null","audio-keyboard-response","113","2.1.0","187171","J=YES, F=NO","gsp8ku74bm","0","80","80","80","","","","","","","","","","","","","","","",""
"730","
          <p id=""word"" style=""font-size: 40px;"">tug</p>
          <p style=""font-size: 16px;"">J = YES &nbsp;&nbsp;&nbsp; F = NO</p>
        ","j","html-keyboard-response","114","2.1.0","187901","J=YES, F=NO","gsp8ku74bm","0","80","80","80","","","","","","","","","tug","pattern","filler","filler","j","true","",""
"860","<p>Starting practice block 2 of 2. Press any key to continue.</p>","j","html-keyboard-response","115","2.1.0","188761","J=YES, F=NO","gsp8ku74bm","0","80","80","80","","","","","","","","","","","","","","","",""
"null","<p style=""font-size: 50px;"">+</p>","null","html-keyboard-response","116","2.1.0","189071","J=YES, F=NO","gsp8ku74bm","0","80","80","80","","","","","","","","","","","","","","","",""
"null","audio/beep-329314.mp3","null","audio-keyboard-response","117","2.1.0","190611","J=YES, F=NO","gsp8ku74bm","0","80","80","80","","","","","","","","","","","","","","","",""
"null","audio/ego.wav","null","audio-keyboard-response","118","2.1.0","191230","J=YES, F=NO","gsp8ku74bm","0","80","80","80","","","","","","","","","","","","","","","",""
"850","
          <p id=""word"" style=""font-size: 40px;"">bruite</p>
          <p style=""font-size: 16px;"">J = YES &nbsp;&nbsp;&nbsp; F = NO</p>
        ","f","html-keyboard-response","119","2.1.0","192081","J=YES, F=NO","gsp8ku74bm","0","80","80","80","","","","","","","","","bruite","ego","pseudoword","pseudoword","f","true","",""
"null","<p style=""font-size: 50px;"">+</p>","null","html-keyboard-response","120","2.1.0","192383","J=YES, F=NO","gsp8ku74bm","0","80","80","80","","","","","","","","","","","","","","","",""
"null","audio/beep-329314.mp3","null","audio-keyboard-response","121","2.1.0","193911","J=YES, F=NO","gsp8ku74bm","0","80","80","80","","","","","","","","","","","","","","","",""
"null","audio/baby.wav","null","audio-keyboard-response","122","2.1.0","194451","J=YES, F=NO","gsp8ku74bm","0","80","80","80","","","","","","","","","","","","","","","",""
"540","
          <p id=""word"" style=""font-size: 40px;"">lift</p>
          <p style=""font-size: 16px;"">J = YES &nbsp;&nbsp;&nbsp; F = NO</p>
        ","j","html-keyboard-response","123","2.1.0","194991","J=YES, F=NO","gsp8ku74bm","0","80","80","80","","","","","","","","","lift","baby","filler","filler","j","true","",""
"null","<p style=""font-size: 50px;"">+</p>","null","html-keyboard-response","124","2.1.0","195299","J=YES, F=NO","gsp8ku74bm","0","80","80","80","","","","","","","","","","","","","","","",""
"null","audio/beep-329314.mp3","null","audio-keyboard-response","125","2.1.0","196831","J=YES, F=NO","gsp8ku74bm","0","80","80","80","","","","","","","","","","","","","","","",""
"null","audio/uncle1.wav","null","audio-keyboard-response","126","2.1.0","197370","J=YES, F=NO","gsp8ku74bm","0","80","80","80","","","","","","","","","","","","","","","",""
"700","
          <p id=""word"" style=""font-size: 40px;"">dramble</p>
          <p style=""font-size: 16px;"">J = YES &nbsp;&nbsp;&nbsp; F = NO</p>
        ","f","html-keyboard-response","127","2.1.0","198071","J=YES, F=NO","gsp8ku74bm","0","80","80","80","","","","","","","","","dramble","uncle1","pseudoword","pseudoword","f","true","",""
"null","<p style=""font-size: 50px;"">+</p>","null","html-keyboard-response","128","2.1.0","198373","J=YES, F=NO","gsp8ku74bm","0","80","80","80","","","","","","","","","","","","","","","",""
"null","audio/beep-329314.mp3","null","audio-keyboard-response","129","2.1.0","199910","J=YES, F=NO","gsp8ku74bm","0","80","80","80","","","","","","","","","","","","","","","",""
"null","audio/butter1.wav","null","audio-keyboard-response","130","2.1.0","200371","J=YES, F=NO","gsp8ku74bm","0","80","80","80","","","","","","","","","","","","","","","",""
"549","
          <p id=""word"" style=""font-size: 40px;"">chew</p>
          <p style=""font-size: 16px;"">J = YES &nbsp;&nbsp;&nbsp; F = NO</p>
        ","j","html-keyboard-response","131","2.1.0","200921","J=YES, F=NO","gsp8ku74bm","0","80","80","80","","","","","","","","","chew","butter1","filler","filler","j","true","",""
"null","<p style=""font-size: 50px;"">+</p>","null","html-keyboard-response","132","2.1.0","201225","J=YES, F=NO","gsp8ku74bm","0","80","80","80","","","","","","","","","","","","","","","",""
"null","audio/beep-329314.mp3","null","audio-keyboard-response","133","2.1.0","202751","J=YES, F=NO","gsp8ku74bm","0","80","80","80","","","","","","","","","","","","","","","",""
"null","audio/vehicle1.wav","null","audio-keyboard-response","134","2.1.0","203491","J=YES, F=NO","gsp8ku74bm","0","80","80","80","","","","","","","","","","","","","","","",""
"901","
          <p id=""word"" style=""font-size: 40px;"">dropt</p>
          <p style=""font-size: 16px;"">J = YES &nbsp;&nbsp;&nbsp; F = NO</p>
        ","f","html-keyboard-response","135","2.1.0","204392","J=YES, F=NO","gsp8ku74bm","0","80","80","80","","","","","","","","","dropt","vehicle1","pseudoword","pseudoword","f","true","",""
"null","<p style=""font-size: 50px;"">+</p>","null","html-keyboard-response","136","2.1.0","204692","J=YES, F=NO","gsp8ku74bm","0","80","80","80","","","","","","","","","","","","","","","",""
"null","audio/beep-329314.mp3","null","audio-keyboard-response","137","2.1.0","206231","J=YES, F=NO","gsp8ku74bm","0","80","80","80","","","","","","","","","","","","","","","",""
"null","audio/key1.wav","null","audio-keyboard-response","138","2.1.0","206670","J=YES, F=NO","gsp8ku74bm","0","80","80","80","","","","","","","","","","","","","","","",""
"710","
          <p id=""word"" style=""font-size: 40px;"">sminsh</p>
          <p style=""font-size: 16px;"">J = YES &nbsp;&nbsp;&nbsp; F = NO</p>
        ","f","html-keyboard-response","139","2.1.0","207381","J=YES, F=NO","gsp8ku74bm","0","80","80","80","","","","","","","","","sminsh","key1","pseudoword","pseudoword","f","true","",""
"null","<p style=""font-size: 50px;"">+</p>","null","html-keyboard-response","140","2.1.0","207683","J=YES, F=NO","gsp8ku74bm","0","80","80","80","","","","","","","","","","","","","","","",""
"null","audio/beep-329314.mp3","null","audio-keyboard-response","141","2.1.0","209210","J=YES, F=NO","gsp8ku74bm","0","80","80","80","","","","","","","","","","","","","","","",""
"null","audio/pig.wav","null","audio-keyboard-response","142","2.1.0","209671","J=YES, F=NO","gsp8ku74bm","0","80","80","80","","","","","","","","","","","","","","","",""
"621","
          <p id=""word"" style=""font-size: 40px;"">tirlike</p>
          <p style=""font-size: 16px;"">J = YES &nbsp;&nbsp;&nbsp; F = NO</p>
        ","f","html-keyboard-response","143","2.1.0","210292","J=YES, F=NO","gsp8ku74bm","0","80","80","80","","","","","","","","","tirlike","pig","pseudoword","pseudoword","f","true","",""
"null","<p style=""font-size: 50px;"">+</p>","null","html-keyboard-response","144","2.1.0","210607","J=YES, F=NO","gsp8ku74bm","0","80","80","80","","","","","","","","","","","","","","","",""
"null","audio/beep-329314.mp3","null","audio-keyboard-response","145","2.1.0","212131","J=YES, F=NO","gsp8ku74bm","0","80","80","80","","","","","","","","","","","","","","","",""
"null","audio/window1.wav","null","audio-keyboard-response","146","2.1.0","212831","J=YES, F=NO","gsp8ku74bm","0","80","80","80","","","","","","","","","","","","","","","",""
"530","
          <p id=""word"" style=""font-size: 40px;"">toss</p>
          <p style=""font-size: 16px;"">J = YES &nbsp;&nbsp;&nbsp; F = NO</p>
        ","j","html-keyboard-response","147","2.1.0","213362","J=YES, F=NO","gsp8ku74bm","0","80","80","80","","","","","","","","","toss","window1","filler","filler","j","true","",""
"null","<p style=""font-size: 50px;"">+</p>","null","html-keyboard-response","148","2.1.0","213674","J=YES, F=NO","gsp8ku74bm","0","80","80","80","","","","","","","","","","","","","","","",""
"null","audio/beep-329314.mp3","null","audio-keyboard-response","149","2.1.0","215211","J=YES, F=NO","gsp8ku74bm","0","80","80","80","","","","","","","","","","","","","","","",""
"null","audio/dollar.wav","null","audio-keyboard-response","150","2.1.0","215611","J=YES, F=NO","gsp8ku74bm","0","80","80","80","","","","","","","","","","","","","","","",""
"681","
          <p id=""word"" style=""font-size: 40px;"">gliptism</p>
          <p style=""font-size: 16px;"">J = YES &nbsp;&nbsp;&nbsp; F = NO</p>
        ","f","html-keyboard-response","151","2.1.0","216292","J=YES, F=NO","gsp8ku74bm","0","80","80","80","","","","","","","","","gliptism","dollar","pseudoword","pseudoword","f","true","",""
"null","<p style=""font-size: 50px;"">+</p>","null","html-keyboard-response","152","2.1.0","216605","J=YES, F=NO","gsp8ku74bm","0","80","80","80","","","","","","","","","","","","","","","",""
"null","audio/beep-329314.mp3","null","audio-keyboard-response","153","2.1.0","218131","J=YES, F=NO","gsp8ku74bm","0","80","80","80","","","","","","","","","","","","","","","",""
"null","audio/ankle1.wav","null","audio-keyboard-response","154","2.1.0","218670","J=YES, F=NO","gsp8ku74bm","0","80","80","80","","","","","","","","","","","","","","","",""
"511","
          <p id=""word"" style=""font-size: 40px;"">kick</p>
          <p style=""font-size: 16px;"">J = YES &nbsp;&nbsp;&nbsp; F = NO</p>
        ","j","html-keyboard-response","155","2.1.0","219182","J=YES, F=NO","gsp8ku74bm","0","80","80","80","","","","","","","","","kick","ankle1","filler","filler","j","true","",""
"null","<p style=""font-size: 50px;"">+</p>","null","html-keyboard-response","156","2.1.0","219482","J=YES, F=NO","gsp8ku74bm","0","80","80","80","","","","","","","","","","","","","","","",""
"null","audio/beep-329314.mp3","null","audio-keyboard-response","157","2.1.0","221011","J=YES, F=NO","gsp8ku74bm","0","80","80","80","","","","","","","","","","","","","","","",""
"null","audio/gossip1.wav","null","audio-keyboard-response","158","2.1.0","221730","J=YES, F=NO","gsp8ku74bm","0","80","80","80","","","","","","","","","","","","","","","",""
"621","
          <p id=""word"" style=""font-size: 40px;"">camerish</p>
          <p style=""font-size: 16px;"">J = YES &nbsp;&nbsp;&nbsp; F = NO</p>
        ","f","html-keyboard-response","159","2.1.0","222352","J=YES, F=NO","gsp8ku74bm","0","80","80","80","","","","","","","","","camerish","gossip1","pseudoword","pseudoword","f","true","",""
"null","<p style=""font-size: 50px;"">+</p>","null","html-keyboard-response","160","2.1.0","222665","J=YES, F=NO","gsp8ku74bm","0","80","80","80","","","","","","","","","","","","","","","",""
"null","audio/beep-329314.mp3","null","audio-keyboard-response","161","2.1.0","224191","J=YES, F=NO","gsp8ku74bm","0","80","80","80","","","","","","","","","","","","","","","",""
"null","audio/haste1.wav","null","audio-keyboard-response","162","2.1.0","224831","J=YES, F=NO","gsp8ku74bm","0","80","80","80","","","","","","","","","","","","","","","",""
"670","
          <p id=""word"" style=""font-size: 40px;"">coraconate</p>
          <p style=""font-size: 16px;"">J = YES &nbsp;&nbsp;&nbsp; F = NO</p>
        ","f","html-keyboard-response","163","2.1.0","225501","J=YES, F=NO","gsp8ku74bm","0","80","80","80","","","","","","","","","coraconate","haste1","pseudoword","pseudoword","f","true","",""
"1990","
    <div style=""max-width: 800px; margin: auto; text-align: left;"">
      <h2>Part 2: Main Trials</h2>
      <p>Great job on the practice trials!</p>
      <p>You will now begin the <strong>main set of trials</strong>.</p>
      <p>Remember your key assignments:</p>
      <ul>
        <li><strong>J</strong> = YES (real English word)</li>
        <li><strong>F</strong> = NO (not a real English word)</li>
      </ul>
      <p>Try to respond as <strong>quickly and accurately</strong> as possible.</p>
      <p style=""margin-top: 2em;"">Press any key to begin the main trials.</p>
    </div>
  ","j","html-keyboard-response","164","2.1.0","227492","J=YES, F=NO","gsp8ku74bm","0","80","80","80","","","","","","","","","","","","","","","",""
"1249","<p>Starting main block 1 of 8. Press any key to continue.</p>","j","html-keyboard-response","165","2.1.0","228742","J=YES, F=NO","gsp8ku74bm","0","80","80","80","","","","","","","","","","","","","","","",""
"null","<p style=""font-size: 50px;"">+</p>","null","html-keyboard-response","166","2.1.0","229057","J=YES, F=NO","gsp8ku74bm","0","80","80","80","","","","","","","","","","","","","","","",""
"null","audio/beep-329314.mp3","null","audio-keyboard-response","167","2.1.0","230591","J=YES, F=NO","gsp8ku74bm","0","80","80","80","","","","","","","","","","","","","","","",""
"null","audio/show.wav","null","audio-keyboard-response","168","2.1.0","231191","J=YES, F=NO","gsp8ku74bm","0","80","80","80","","","","","","","","","","","","","","","",""
"721","
          <p id=""word"" style=""font-size: 40px;"">smark</p>
          <p style=""font-size: 16px;"">J = YES &nbsp;&nbsp;&nbsp; F = NO</p>
        ","f","html-keyboard-response","169","2.1.0","231912","J=YES, F=NO","gsp8ku74bm","0","80","80","80","","","","","","","","","smark","show","pseudoword","pseudoword","f","true","",""
"null","<p style=""font-size: 50px;"">+</p>","null","html-keyboard-response","170","2.1.0","232215","J=YES, F=NO","gsp8ku74bm","0","80","80","80","","","","","","","","","","","","","","","",""
"null","audio/beep-329314.mp3","null","audio-keyboard-response","171","2.1.0","233751","J=YES, F=NO","gsp8ku74bm","0","80","80","80","","","","","","","","","","","","","","","",""
"null","audio/mind.wav","null","audio-keyboard-response","172","2.1.0","234390","J=YES, F=NO","gsp8ku74bm","0","80","80","80","","","","","","","","","","","","","","","",""
"1241","
          <p id=""word"" style=""font-size: 40px;"">crainate</p>
          <p style=""font-size: 16px;"">J = YES &nbsp;&nbsp;&nbsp; F = NO</p>
        ","f","html-keyboard-response","173","2.1.0","235632","J=YES, F=NO","gsp8ku74bm","0","80","80","80","","","","","","","","","crainate","mind","pseudoword","pseudoword","f","true","",""
"null","<p style=""font-size: 50px;"">+</p>","null","html-keyboard-response","174","2.1.0","235943","J=YES, F=NO","gsp8ku74bm","0","80","80","80","","","","","","","","","","","","","","","",""
"null","audio/beep-329314.mp3","null","audio-keyboard-response","175","2.1.0","237471","J=YES, F=NO","gsp8ku74bm","0","80","80","80","","","","","","","","","","","","","","","",""
"null","audio/bush1.wav","null","audio-keyboard-response","176","2.1.0","238031","J=YES, F=NO","gsp8ku74bm","0","80","80","80","","","","","","","","","","","","","","","",""
"532","
          <p id=""word"" style=""font-size: 40px;"">run</p>
          <p style=""font-size: 16px;"">J = YES &nbsp;&nbsp;&nbsp; F = NO</p>
        ","j","html-keyboard-response","177","2.1.0","238563","J=YES, F=NO","gsp8ku74bm","0","80","80","80","","","","","","","","","run","bush1","unrelated","experimental","j","true","",""
"null","<p style=""font-size: 50px;"">+</p>","null","html-keyboard-response","178","2.1.0","238868","J=YES, F=NO","gsp8ku74bm","0","80","80","80","","","","","","","","","","","","","","","",""
"null","audio/beep-329314.mp3","null","audio-keyboard-response","179","2.1.0","240390","J=YES, F=NO","gsp8ku74bm","0","80","80","80","","","","","","","","","","","","","","","",""
"null","audio/roof1.wav","null","audio-keyboard-response","180","2.1.0","240991","J=YES, F=NO","gsp8ku74bm","0","80","80","80","","","","","","","","","","","","","","","",""
"661","
          <p id=""word"" style=""font-size: 40px;"">wronb</p>
          <p style=""font-size: 16px;"">J = YES &nbsp;&nbsp;&nbsp; F = NO</p>
        ","f","html-keyboard-response","181","2.1.0","241652","J=YES, F=NO","gsp8ku74bm","0","80","80","80","","","","","","","","","wronb","roof1","pseudoword","pseudoword","f","true","",""
"null","<p style=""font-size: 50px;"">+</p>","null","html-keyboard-response","182","2.1.0","241960","J=YES, F=NO","gsp8ku74bm","0","80","80","80","","","","","","","","","","","","","","","",""
"null","audio/beep-329314.mp3","null","audio-keyboard-response","183","2.1.0","243491","J=YES, F=NO","gsp8ku74bm","0","80","80","80","","","","","","","","","","","","","","","",""
"null","audio/hawk1.wav","null","audio-keyboard-response","184","2.1.0","244170","J=YES, F=NO","gsp8ku74bm","0","80","80","80","","","","","","","","","","","","","","","",""
"691","
          <p id=""word"" style=""font-size: 40px;"">ostach</p>
          <p style=""font-size: 16px;"">J = YES &nbsp;&nbsp;&nbsp; F = NO</p>
        ","f","html-keyboard-response","185","2.1.0","244862","J=YES, F=NO","gsp8ku74bm","0","80","80","80","","","","","","","","","ostach","hawk1","pseudoword","pseudoword","f","true","",""
"null","<p style=""font-size: 50px;"">+</p>","null","html-keyboard-response","186","2.1.0","245174","J=YES, F=NO","gsp8ku74bm","0","80","80","80","","","","","","","","","","","","","","","",""
"null","audio/beep-329314.mp3","null","audio-keyboard-response","187","2.1.0","246710","J=YES, F=NO","gsp8ku74bm","0","80","80","80","","","","","","","","","","","","","","","",""
"null","audio/camera1.wav","null","audio-keyboard-response","188","2.1.0","247270","J=YES, F=NO","gsp8ku74bm","0","80","80","80","","","","","","","","","","","","","","","",""
"611","
          <p id=""word"" style=""font-size: 40px;"">stir</p>
          <p style=""font-size: 16px;"">J = YES &nbsp;&nbsp;&nbsp; F = NO</p>
        ","j","html-keyboard-response","189","2.1.0","247882","J=YES, F=NO","gsp8ku74bm","0","80","80","80","","","","","","","","","stir","camera1","filler","filler","j","true","",""
"null","<p style=""font-size: 50px;"">+</p>","null","html-keyboard-response","190","2.1.0","248184","J=YES, F=NO","gsp8ku74bm","0","80","80","80","","","","","","","","","","","","","","","",""
"null","audio/beep-329314.mp3","null","audio-keyboard-response","191","2.1.0","249710","J=YES, F=NO","gsp8ku74bm","0","80","80","80","","","","","","","","","","","","","","","",""
"null","audio/noise1.wav","null","audio-keyboard-response","192","2.1.0","250411","J=YES, F=NO","gsp8ku74bm","0","80","80","80","","","","","","","","","","","","","","","",""
"561","
          <p id=""word"" style=""font-size: 40px;"">build</p>
          <p style=""font-size: 16px;"">J = YES &nbsp;&nbsp;&nbsp; F = NO</p>
        ","j","html-keyboard-response","193","2.1.0","250972","J=YES, F=NO","gsp8ku74bm","0","80","80","80","","","","","","","","","build","noise1","unrelated","experimental","j","true","",""
"null","<p style=""font-size: 50px;"">+</p>","null","html-keyboard-response","194","2.1.0","251283","J=YES, F=NO","gsp8ku74bm","0","80","80","80","","","","","","","","","","","","","","","",""
"null","audio/beep-329314.mp3","null","audio-keyboard-response","195","2.1.0","252811","J=YES, F=NO","gsp8ku74bm","0","80","80","80","","","","","","","","","","","","","","","",""
"null","audio/emotion.wav","null","audio-keyboard-response","196","2.1.0","253551","J=YES, F=NO","gsp8ku74bm","0","80","80","80","","","","","","","","","","","","","","","",""
"771","
          <p id=""word"" style=""font-size: 40px;"">devering</p>
          <p style=""font-size: 16px;"">J = YES &nbsp;&nbsp;&nbsp; F = NO</p>
        ","f","html-keyboard-response","197","2.1.0","254322","J=YES, F=NO","gsp8ku74bm","0","80","80","80","","","","","","","","","devering","emotion","pseudoword","pseudoword","f","true","",""
"null","<p style=""font-size: 50px;"">+</p>","null","html-keyboard-response","198","2.1.0","254629","J=YES, F=NO","gsp8ku74bm","0","80","80","80","","","","","","","","","","","","","","","",""
"null","audio/beep-329314.mp3","null","audio-keyboard-response","199","2.1.0","256150","J=YES, F=NO","gsp8ku74bm","0","80","80","80","","","","","","","","","","","","","","","",""
"null","audio/holiday1.wav","null","audio-keyboard-response","200","2.1.0","256870","J=YES, F=NO","gsp8ku74bm","0","80","80","80","","","","","","","","","","","","","","","",""
"771","
          <p id=""word"" style=""font-size: 40px;"">drivets</p>
          <p style=""font-size: 16px;"">J = YES &nbsp;&nbsp;&nbsp; F = NO</p>
        ","f","html-keyboard-response","201","2.1.0","257642","J=YES, F=NO","gsp8ku74bm","0","80","80","80","","","","","","","","","drivets","holiday1","pseudoword","pseudoword","f","true","",""
"null","<p style=""font-size: 50px;"">+</p>","null","html-keyboard-response","202","2.1.0","257944","J=YES, F=NO","gsp8ku74bm","0","80","80","80","","","","","","","","","","","","","","","",""
"null","audio/beep-329314.mp3","null","audio-keyboard-response","203","2.1.0","259471","J=YES, F=NO","gsp8ku74bm","0","80","80","80","","","","","","","","","","","","","","","",""
"null","audio/table1.wav","null","audio-keyboard-response","204","2.1.0","260031","J=YES, F=NO","gsp8ku74bm","0","80","80","80","","","","","","","","","","","","","","","",""
"491","
          <p id=""word"" style=""font-size: 40px;"">clear</p>
          <p style=""font-size: 16px;"">J = YES &nbsp;&nbsp;&nbsp; F = NO</p>
        ","j","html-keyboard-response","205","2.1.0","260522","J=YES, F=NO","gsp8ku74bm","0","80","80","80","","","","","","","","","clear","table1","literal","experimental","j","true","",""
"null","<p style=""font-size: 50px;"">+</p>","null","html-keyboard-response","206","2.1.0","260834","J=YES, F=NO","gsp8ku74bm","0","80","80","80","","","","","","","","","","","","","","","",""
"null","audio/beep-329314.mp3","null","audio-keyboard-response","207","2.1.0","262371","J=YES, F=NO","gsp8ku74bm","0","80","80","80","","","","","","","","","","","","","","","",""
"null","audio/flaw.wav","null","audio-keyboard-response","208","2.1.0","263091","J=YES, F=NO","gsp8ku74bm","0","80","80","80","","","","","","","","","","","","","","","",""
"490","
          <p id=""word"" style=""font-size: 40px;"">hide</p>
          <p style=""font-size: 16px;"">J = YES &nbsp;&nbsp;&nbsp; F = NO</p>
        ","j","html-keyboard-response","209","2.1.0","263582","J=YES, F=NO","gsp8ku74bm","0","80","80","80","","","","","","","","","hide","flaw","metaphor","experimental","j","true","",""
"null","<p style=""font-size: 50px;"">+</p>","null","html-keyboard-response","210","2.1.0","263889","J=YES, F=NO","gsp8ku74bm","0","80","80","80","","","","","","","","","","","","","","","",""
"null","audio/beep-329314.mp3","null","audio-keyboard-response","211","2.1.0","265410","J=YES, F=NO","gsp8ku74bm","0","80","80","80","","","","","","","","","","","","","","","",""
"null","audio/golf1.wav","null","audio-keyboard-response","212","2.1.0","265971","J=YES, F=NO","gsp8ku74bm","0","80","80","80","","","","","","","","","","","","","","","",""
"641","
          <p id=""word"" style=""font-size: 40px;"">bury</p>
          <p style=""font-size: 16px;"">J = YES &nbsp;&nbsp;&nbsp; F = NO</p>
        ","j","html-keyboard-response","213","2.1.0","266612","J=YES, F=NO","gsp8ku74bm","0","80","80","80","","","","","","","","","bury","golf1","unrelated","experimental","j","true","",""
"null","<p style=""font-size: 50px;"">+</p>","null","html-keyboard-response","214","2.1.0","266919","J=YES, F=NO","gsp8ku74bm","0","80","80","80","","","","","","","","","","","","","","","",""
"null","audio/beep-329314.mp3","null","audio-keyboard-response","215","2.1.0","268451","J=YES, F=NO","gsp8ku74bm","0","80","80","80","","","","","","","","","","","","","","","",""
"null","audio/price.wav","null","audio-keyboard-response","216","2.1.0","269171","J=YES, F=NO","gsp8ku74bm","0","80","80","80","","","","","","","","","","","","","","","",""
"591","
          <p id=""word"" style=""font-size: 40px;"">drop</p>
          <p style=""font-size: 16px;"">J = YES &nbsp;&nbsp;&nbsp; F = NO</p>
        ","j","html-keyboard-response","217","2.1.0","269762","J=YES, F=NO","gsp8ku74bm","0","80","80","80","","","","","","","","","drop","price","metaphor","experimental","j","true","",""
"null","<p style=""font-size: 50px;"">+</p>","null","html-keyboard-response","218","2.1.0","270074","J=YES, F=NO","gsp8ku74bm","0","80","80","80","","","","","","","","","","","","","","","",""
"null","audio/beep-329314.mp3","null","audio-keyboard-response","219","2.1.0","271611","J=YES, F=NO","gsp8ku74bm","0","80","80","80","","","","","","","","","","","","","","","",""
"null","audio/life1.wav","null","audio-keyboard-response","220","2.1.0","272231","J=YES, F=NO","gsp8ku74bm","0","80","80","80","","","","","","","","","","","","","","","",""
"760","
          <p id=""word"" style=""font-size: 40px;"">flimch</p>
          <p style=""font-size: 16px;"">J = YES &nbsp;&nbsp;&nbsp; F = NO</p>
        ","f","html-keyboard-response","221","2.1.0","272992","J=YES, F=NO","gsp8ku74bm","0","80","80","80","","","","","","","","","flimch","life1","pseudoword","pseudoword","f","true","",""
"null","<p style=""font-size: 50px;"">+</p>","null","html-keyboard-response","222","2.1.0","273293","J=YES, F=NO","gsp8ku74bm","0","80","80","80","","","","","","","","","","","","","","","",""
"null","audio/beep-329314.mp3","null","audio-keyboard-response","223","2.1.0","274830","J=YES, F=NO","gsp8ku74bm","0","80","80","80","","","","","","","","","","","","","","","",""
"null","audio/purpose.wav","null","audio-keyboard-response","224","2.1.0","275591","J=YES, F=NO","gsp8ku74bm","0","80","80","80","","","","","","","","","","","","","","","",""
"611","
          <p id=""word"" style=""font-size: 40px;"">defeat</p>
          <p style=""font-size: 16px;"">J = YES &nbsp;&nbsp;&nbsp; F = NO</p>
        ","j","html-keyboard-response","225","2.1.0","276202","J=YES, F=NO","gsp8ku74bm","0","80","80","80","","","","","","","","","defeat","purpose","metaphor","experimental","j","true","",""
"null","<p style=""font-size: 50px;"">+</p>","null","html-keyboard-response","226","2.1.0","276517","J=YES, F=NO","gsp8ku74bm","0","80","80","80","","","","","","","","","","","","","","","",""
"null","audio/beep-329314.mp3","null","audio-keyboard-response","227","2.1.0","278050","J=YES, F=NO","gsp8ku74bm","0","80","80","80","","","","","","","","","","","","","","","",""
"null","audio/smirk1.wav","null","audio-keyboard-response","228","2.1.0","278790","J=YES, F=NO","gsp8ku74bm","0","80","80","80","","","","","","","","","","","","","","","",""
"591","
          <p id=""word"" style=""font-size: 40px;"">wipe</p>
          <p style=""font-size: 16px;"">J = YES &nbsp;&nbsp;&nbsp; F = NO</p>
        ","j","html-keyboard-response","229","2.1.0","279382","J=YES, F=NO","gsp8ku74bm","0","80","80","80","","","","","","","","","wipe","smirk1","metaphor","experimental","j","true","",""
"11630","<p>Excellent! You have finished block 1 of 8.</p>
                     <p>Feel free to take a 30 second break.</p>
                     <p>Press any key when you're ready to continue.</p>","j","html-keyboard-response","230","2.1.0","291012","J=YES, F=NO","gsp8ku74bm","0","80","80","80","","","","","","","","","","","","","","","",""
"1250","<p>Starting main block 2 of 8. Press any key to continue.</p>","j","html-keyboard-response","231","2.1.0","292262","J=YES, F=NO","gsp8ku74bm","0","80","80","80","","","","","","","","","","","","","","","",""
"null","<p style=""font-size: 50px;"">+</p>","null","html-keyboard-response","232","2.1.0","292578","J=YES, F=NO","gsp8ku74bm","0","80","80","80","","","","","","","","","","","","","","","",""
"null","audio/beep-329314.mp3","null","audio-keyboard-response","233","2.1.0","294084","J=YES, F=NO","gsp8ku74bm","0","80","80","80","","","","","","","","","","","","","","","",""
"null","audio/test1.wav","null","audio-keyboard-response","234","2.1.0","294723","J=YES, F=NO","gsp8ku74bm","0","80","80","80","","","","","","","","","","","","","","","",""
"988","
          <p id=""word"" style=""font-size: 40px;"">twopch</p>
          <p style=""font-size: 16px;"">J = YES &nbsp;&nbsp;&nbsp; F = NO</p>
        ","f","html-keyboard-response","235","2.1.0","295712","J=YES, F=NO","gsp8ku74bm","0","80","80","80","","","","","","","","","twopch","test1","pseudoword","pseudoword","f","true","",""
"null","<p style=""font-size: 50px;"">+</p>","null","html-keyboard-response","236","2.1.0","296018","J=YES, F=NO","gsp8ku74bm","0","80","80","80","","","","","","","","","","","","","","","",""
"null","audio/beep-329314.mp3","null","audio-keyboard-response","237","2.1.0","297543","J=YES, F=NO","gsp8ku74bm","0","80","80","80","","","","","","","","","","","","","","","",""
"null","audio/heart1.wav","null","audio-keyboard-response","238","2.1.0","298263","J=YES, F=NO","gsp8ku74bm","0","80","80","80","","","","","","","","","","","","","","","",""
"799","
          <p id=""word"" style=""font-size: 40px;"">dralm</p>
          <p style=""font-size: 16px;"">J = YES &nbsp;&nbsp;&nbsp; F = NO</p>
        ","f","html-keyboard-response","239","2.1.0","299062","J=YES, F=NO","gsp8ku74bm","0","80","80","80","","","","","","","","","dralm","heart1","pseudoword","pseudoword","f","true","",""
"null","<p style=""font-size: 50px;"">+</p>","null","html-keyboard-response","240","2.1.0","299373","J=YES, F=NO","gsp8ku74bm","0","80","80","80","","","","","","","","","","","","","","","",""
"null","audio/beep-329314.mp3","null","audio-keyboard-response","241","2.1.0","300903","J=YES, F=NO","gsp8ku74bm","0","80","80","80","","","","","","","","","","","","","","","",""
"null","audio/voice.wav","null","audio-keyboard-response","242","2.1.0","301603","J=YES, F=NO","gsp8ku74bm","0","80","80","80","","","","","","","","","","","","","","","",""
"589","
          <p id=""word"" style=""font-size: 40px;"">grintle</p>
          <p style=""font-size: 16px;"">J = YES &nbsp;&nbsp;&nbsp; F = NO</p>
        ","f","html-keyboard-response","243","2.1.0","302193","J=YES, F=NO","gsp8ku74bm","0","80","80","80","","","","","","","","","grintle","voice","pseudoword","pseudoword","f","true","",""
"null","<p style=""font-size: 50px;"">+</p>","null","html-keyboard-response","244","2.1.0","302503","J=YES, F=NO","gsp8ku74bm","0","80","80","80","","","","","","","","","","","","","","","",""
"null","audio/beep-329314.mp3","null","audio-keyboard-response","245","2.1.0","304043","J=YES, F=NO","gsp8ku74bm","0","80","80","80","","","","","","","","","","","","","","","",""
"null","audio/grass.wav","null","audio-keyboard-response","246","2.1.0","304783","J=YES, F=NO","gsp8ku74bm","0","80","80","80","","","","","","","","","","","","","","","",""
"519","
          <p id=""word"" style=""font-size: 40px;"">cut</p>
          <p style=""font-size: 16px;"">J = YES &nbsp;&nbsp;&nbsp; F = NO</p>
        ","j","html-keyboard-response","247","2.1.0","305303","J=YES, F=NO","gsp8ku74bm","0","80","80","80","","","","","","","","","cut","grass","literal","experimental","j","true","",""
"null","<p style=""font-size: 50px;"">+</p>","null","html-keyboard-response","248","2.1.0","305612","J=YES, F=NO","gsp8ku74bm","0","80","80","80","","","","","","","","","","","","","","","",""
"null","audio/beep-329314.mp3","null","audio-keyboard-response","249","2.1.0","307143","J=YES, F=NO","gsp8ku74bm","0","80","80","80","","","","","","","","","","","","","","","",""
"null","audio/terrain.wav","null","audio-keyboard-response","250","2.1.0","307803","J=YES, F=NO","gsp8ku74bm","0","80","80","80","","","","","","","","","","","","","","","",""
"599","
          <p id=""word"" style=""font-size: 40px;"">twist</p>
          <p style=""font-size: 16px;"">J = YES &nbsp;&nbsp;&nbsp; F = NO</p>
        ","j","html-keyboard-response","251","2.1.0","308403","J=YES, F=NO","gsp8ku74bm","0","80","80","80","","","","","","","","","twist","terrain","filler","filler","j","true","",""
"null","<p style=""font-size: 50px;"">+</p>","null","html-keyboard-response","252","2.1.0","308718","J=YES, F=NO","gsp8ku74bm","0","80","80","80","","","","","","","","","","","","","","","",""
"null","audio/beep-329314.mp3","null","audio-keyboard-response","253","2.1.0","310243","J=YES, F=NO","gsp8ku74bm","0","80","80","80","","","","","","","","","","","","","","","",""
"null","audio/flaw.wav","null","audio-keyboard-response","254","2.1.0","310883","J=YES, F=NO","gsp8ku74bm","0","80","80","80","","","","","","","","","","","","","","","",""
"619","
          <p id=""word"" style=""font-size: 40px;"">thwool</p>
          <p style=""font-size: 16px;"">J = YES &nbsp;&nbsp;&nbsp; F = NO</p>
        ","f","html-keyboard-response","255","2.1.0","311503","J=YES, F=NO","gsp8ku74bm","0","80","80","80","","","","","","","","","thwool","flaw","pseudoword","pseudoword","f","true","",""
"null","<p style=""font-size: 50px;"">+</p>","null","html-keyboard-response","256","2.1.0","311806","J=YES, F=NO","gsp8ku74bm","0","80","80","80","","","","","","","","","","","","","","","",""
"null","audio/beep-329314.mp3","null","audio-keyboard-response","257","2.1.0","313343","J=YES, F=NO","gsp8ku74bm","0","80","80","80","","","","","","","","","","","","","","","",""
"null","audio/desire.wav","null","audio-keyboard-response","258","2.1.0","314043","J=YES, F=NO","gsp8ku74bm","0","80","80","80","","","","","","","","","","","","","","","",""
"589","
          <p id=""word"" style=""font-size: 40px;"">nophed</p>
          <p style=""font-size: 16px;"">J = YES &nbsp;&nbsp;&nbsp; F = NO</p>
        ","f","html-keyboard-response","259","2.1.0","314633","J=YES, F=NO","gsp8ku74bm","0","80","80","80","","","","","","","","","nophed","desire","pseudoword","pseudoword","f","true","",""
"null","<p style=""font-size: 50px;"">+</p>","null","html-keyboard-response","260","2.1.0","314941","J=YES, F=NO","gsp8ku74bm","0","80","80","80","","","","","","","","","","","","","","","",""
"null","audio/beep-329314.mp3","null","audio-keyboard-response","261","2.1.0","316463","J=YES, F=NO","gsp8ku74bm","0","80","80","80","","","","","","","","","","","","","","","",""
"null","audio/truth1.wav","null","audio-keyboard-response","262","2.1.0","317103","J=YES, F=NO","gsp8ku74bm","0","80","80","80","","","","","","","","","","","","","","","",""
"549","
          <p id=""word"" style=""font-size: 40px;"">calitom</p>
          <p style=""font-size: 16px;"">J = YES &nbsp;&nbsp;&nbsp; F = NO</p>
        ","f","html-keyboard-response","263","2.1.0","317653","J=YES, F=NO","gsp8ku74bm","0","80","80","80","","","","","","","","","calitom","truth1","pseudoword","pseudoword","f","true","",""
"null","<p style=""font-size: 50px;"">+</p>","null","html-keyboard-response","264","2.1.0","317956","J=YES, F=NO","gsp8ku74bm","0","80","80","80","","","","","","","","","","","","","","","",""
"null","audio/beep-329314.mp3","null","audio-keyboard-response","265","2.1.0","319483","J=YES, F=NO","gsp8ku74bm","0","80","80","80","","","","","","","","","","","","","","","",""
"null","audio/pizza1.wav","null","audio-keyboard-response","266","2.1.0","320143","J=YES, F=NO","gsp8ku74bm","0","80","80","80","","","","","","","","","","","","","","","",""
"529","
          <p id=""word"" style=""font-size: 40px;"">devour</p>
          <p style=""font-size: 16px;"">J = YES &nbsp;&nbsp;&nbsp; F = NO</p>
        ","j","html-keyboard-response","267","2.1.0","320673","J=YES, F=NO","gsp8ku74bm","0","80","80","80","","","","","","","","","devour","pizza1","literal","experimental","j","true","",""
"null","<p style=""font-size: 50px;"">+</p>","null","html-keyboard-response","268","2.1.0","320979","J=YES, F=NO","gsp8ku74bm","0","80","80","80","","","","","","","","","","","","","","","",""
"null","audio/beep-329314.mp3","null","audio-keyboard-response","269","2.1.0","322503","J=YES, F=NO","gsp8ku74bm","0","80","80","80","","","","","","","","","","","","","","","",""
"null","audio/ground.wav","null","audio-keyboard-response","270","2.1.0","323183","J=YES, F=NO","gsp8ku74bm","0","80","80","80","","","","","","","","","","","","","","","",""
"539","
          <p id=""word"" style=""font-size: 40px;"">touch</p>
          <p style=""font-size: 16px;"">J = YES &nbsp;&nbsp;&nbsp; F = NO</p>
        ","j","html-keyboard-response","271","2.1.0","323723","J=YES, F=NO","gsp8ku74bm","0","80","80","80","","","","","","","","","touch","ground","literal","experimental","j","true","",""
"null","<p style=""font-size: 50px;"">+</p>","null","html-keyboard-response","272","2.1.0","324028","J=YES, F=NO","gsp8ku74bm","0","80","80","80","","","","","","","","","","","","","","","",""
"null","audio/beep-329314.mp3","null","audio-keyboard-response","273","2.1.0","325563","J=YES, F=NO","gsp8ku74bm","0","80","80","80","","","","","","","","","","","","","","","",""
"null","audio/winter.wav","null","audio-keyboard-response","274","2.1.0","326223","J=YES, F=NO","gsp8ku74bm","0","80","80","80","","","","","","","","","","","","","","","",""
"649","
          <p id=""word"" style=""font-size: 40px;"">straven</p>
          <p style=""font-size: 16px;"">J = YES &nbsp;&nbsp;&nbsp; F = NO</p>
        ","f","html-keyboard-response","275","2.1.0","326872","J=YES, F=NO","gsp8ku74bm","0","80","80","80","","","","","","","","","straven","winter","pseudoword","pseudoword","f","true","",""
"null","<p style=""font-size: 50px;"">+</p>","null","html-keyboard-response","276","2.1.0","327181","J=YES, F=NO","gsp8ku74bm","0","80","80","80","","","","","","","","","","","","","","","",""
"null","audio/beep-329314.mp3","null","audio-keyboard-response","277","2.1.0","328703","J=YES, F=NO","gsp8ku74bm","0","80","80","80","","","","","","","","","","","","","","","",""
"null","audio/alarm1.wav","null","audio-keyboard-response","278","2.1.0","329383","J=YES, F=NO","gsp8ku74bm","0","80","80","80","","","","","","","","","","","","","","","",""
"769","
          <p id=""word"" style=""font-size: 40px;"">swetp</p>
          <p style=""font-size: 16px;"">J = YES &nbsp;&nbsp;&nbsp; F = NO</p>
        ","j","html-keyboard-response","279","2.1.0","330153","J=YES, F=NO","gsp8ku74bm","0","80","80","80","","","","","","","","","swetp","alarm1","pseudoword","pseudoword","f","false","",""
"null","<p style=""font-size: 50px;"">+</p>","null","html-keyboard-response","280","2.1.0","330463","J=YES, F=NO","gsp8ku74bm","0","80","80","80","","","","","","","","","","","","","","","",""
"null","audio/beep-329314.mp3","null","audio-keyboard-response","281","2.1.0","332003","J=YES, F=NO","gsp8ku74bm","0","80","80","80","","","","","","","","","","","","","","","",""
"null","audio/corpse1.wav","null","audio-keyboard-response","282","2.1.0","332723","J=YES, F=NO","gsp8ku74bm","0","80","80","80","","","","","","","","","","","","","","","",""
"989","
          <p id=""word"" style=""font-size: 40px;"">glonet</p>
          <p style=""font-size: 16px;"">J = YES &nbsp;&nbsp;&nbsp; F = NO</p>
        ","f","html-keyboard-response","283","2.1.0","333713","J=YES, F=NO","gsp8ku74bm","0","80","80","80","","","","","","","","","glonet","corpse1","pseudoword","pseudoword","f","true","",""
"null","<p style=""font-size: 50px;"">+</p>","null","html-keyboard-response","284","2.1.0","334026","J=YES, F=NO","gsp8ku74bm","0","80","80","80","","","","","","","","","","","","","","","",""
"null","audio/beep-329314.mp3","null","audio-keyboard-response","285","2.1.0","335563","J=YES, F=NO","gsp8ku74bm","0","80","80","80","","","","","","","","","","","","","","","",""
"null","audio/topic.wav","null","audio-keyboard-response","286","2.1.0","336223","J=YES, F=NO","gsp8ku74bm","0","80","80","80","","","","","","","","","","","","","","","",""
"999","
          <p id=""word"" style=""font-size: 40px;"">infortuitist</p>
          <p style=""font-size: 16px;"">J = YES &nbsp;&nbsp;&nbsp; F = NO</p>
        ","j","html-keyboard-response","287","2.1.0","337223","J=YES, F=NO","gsp8ku74bm","0","80","80","80","","","","","","","","","infortuitist","topic","pseudoword","pseudoword","f","false","",""
"null","<p style=""font-size: 50px;"">+</p>","null","html-keyboard-response","288","2.1.0","337536","J=YES, F=NO","gsp8ku74bm","0","80","80","80","","","","","","","","","","","","","","","",""
"null","audio/beep-329314.mp3","null","audio-keyboard-response","289","2.1.0","339063","J=YES, F=NO","gsp8ku74bm","0","80","80","80","","","","","","","","","","","","","","","",""
"null","audio/foot1.wav","null","audio-keyboard-response","290","2.1.0","339703","J=YES, F=NO","gsp8ku74bm","0","80","80","80","","","","","","","","","","","","","","","",""
"769","
          <p id=""word"" style=""font-size: 40px;"">thrutt</p>
          <p style=""font-size: 16px;"">J = YES &nbsp;&nbsp;&nbsp; F = NO</p>
        ","f","html-keyboard-response","291","2.1.0","340473","J=YES, F=NO","gsp8ku74bm","0","80","80","80","","","","","","","","","thrutt","foot1","pseudoword","pseudoword","f","true","",""
"null","<p style=""font-size: 50px;"">+</p>","null","html-keyboard-response","292","2.1.0","340777","J=YES, F=NO","gsp8ku74bm","0","80","80","80","","","","","","","","","","","","","","","",""
"null","audio/beep-329314.mp3","null","audio-keyboard-response","293","2.1.0","342303","J=YES, F=NO","gsp8ku74bm","0","80","80","80","","","","","","","","","","","","","","","",""
"null","audio/table1.wav","null","audio-keyboard-response","294","2.1.0","342803","J=YES, F=NO","gsp8ku74bm","0","80","80","80","","","","","","","","","","","","","","","",""
"779","
          <p id=""word"" style=""font-size: 40px;"">stimb</p>
          <p style=""font-size: 16px;"">J = YES &nbsp;&nbsp;&nbsp; F = NO</p>
        ","f","html-keyboard-response","295","2.1.0","343583","J=YES, F=NO","gsp8ku74bm","0","80","80","80","","","","","","","","","stimb","table1","pseudoword","pseudoword","f","true","",""
"810","<p>Excellent! You have finished block 2 of 8.</p>
                     <p>Feel free to take a 30 second break.</p>
                     <p>Press any key when you're ready to continue.</p>","j","html-keyboard-response","296","2.1.0","344393","J=YES, F=NO","gsp8ku74bm","0","80","80","80","","","","","","","","","","","","","","","",""
"489","<p>Starting main block 3 of 8. Press any key to continue.</p>","j","html-keyboard-response","297","2.1.0","344882","J=YES, F=NO","gsp8ku74bm","0","80","80","80","","","","","","","","","","","","","","","",""
"null","<p style=""font-size: 50px;"">+</p>","null","html-keyboard-response","298","2.1.0","345184","J=YES, F=NO","gsp8ku74bm","0","80","80","80","","","","","","","","","","","","","","","",""
"null","audio/beep-329314.mp3","null","audio-keyboard-response","299","2.1.0","346723","J=YES, F=NO","gsp8ku74bm","0","80","80","80","","","","","","","","","","","","","","","",""
"null","audio/breath.wav","null","audio-keyboard-response","300","2.1.0","347363","J=YES, F=NO","gsp8ku74bm","0","80","80","80","","","","","","","","","","","","","","","",""
"609","
          <p id=""word"" style=""font-size: 40px;"">pack</p>
          <p style=""font-size: 16px;"">J = YES &nbsp;&nbsp;&nbsp; F = NO</p>
        ","j","html-keyboard-response","301","2.1.0","347973","J=YES, F=NO","gsp8ku74bm","0","80","80","80","","","","","","","","","pack","breath","filler","filler","j","true","",""
"null","<p style=""font-size: 50px;"">+</p>","null","html-keyboard-response","302","2.1.0","348281","J=YES, F=NO","gsp8ku74bm","0","80","80","80","","","","","","","","","","","","","","","",""
"null","audio/beep-329314.mp3","null","audio-keyboard-response","303","2.1.0","349803","J=YES, F=NO","gsp8ku74bm","0","80","80","80","","","","","","","","","","","","","","","",""
"null","audio/dome.wav","null","audio-keyboard-response","304","2.1.0","350243","J=YES, F=NO","gsp8ku74bm","0","80","80","80","","","","","","","","","","","","","","","",""
"559","
          <p id=""word"" style=""font-size: 40px;"">feed</p>
          <p style=""font-size: 16px;"">J = YES &nbsp;&nbsp;&nbsp; F = NO</p>
        ","j","html-keyboard-response","305","2.1.0","350803","J=YES, F=NO","gsp8ku74bm","0","80","80","80","","","","","","","","","feed","dome","unrelated","experimental","j","true","",""
"null","<p style=""font-size: 50px;"">+</p>","null","html-keyboard-response","306","2.1.0","351105","J=YES, F=NO","gsp8ku74bm","0","80","80","80","","","","","","","","","","","","","","","",""
"null","audio/beep-329314.mp3","null","audio-keyboard-response","307","2.1.0","352643","J=YES, F=NO","gsp8ku74bm","0","80","80","80","","","","","","","","","","","","","","","",""
"null","audio/tax1.wav","null","audio-keyboard-response","308","2.1.0","353343","J=YES, F=NO","gsp8ku74bm","0","80","80","80","","","","","","","","","","","","","","","",""
"659","
          <p id=""word"" style=""font-size: 40px;"">snate</p>
          <p style=""font-size: 16px;"">J = YES &nbsp;&nbsp;&nbsp; F = NO</p>
        ","f","html-keyboard-response","309","2.1.0","354003","J=YES, F=NO","gsp8ku74bm","0","80","80","80","","","","","","","","","snate","tax1","pseudoword","pseudoword","f","true","",""
"null","<p style=""font-size: 50px;"">+</p>","null","html-keyboard-response","310","2.1.0","354311","J=YES, F=NO","gsp8ku74bm","0","80","80","80","","","","","","","","","","","","","","","",""
"null","audio/beep-329314.mp3","null","audio-keyboard-response","311","2.1.0","355843","J=YES, F=NO","gsp8ku74bm","0","80","80","80","","","","","","","","","","","","","","","",""
"null","audio/tomato.wav","null","audio-keyboard-response","312","2.1.0","356603","J=YES, F=NO","gsp8ku74bm","0","80","80","80","","","","","","","","","","","","","","","",""
"489","
          <p id=""word"" style=""font-size: 40px;"">grow</p>
          <p style=""font-size: 16px;"">J = YES &nbsp;&nbsp;&nbsp; F = NO</p>
        ","j","html-keyboard-response","313","2.1.0","357093","J=YES, F=NO","gsp8ku74bm","0","80","80","80","","","","","","","","","grow","tomato","literal","experimental","j","true","",""
"null","<p style=""font-size: 50px;"">+</p>","null","html-keyboard-response","314","2.1.0","357397","J=YES, F=NO","gsp8ku74bm","0","80","80","80","","","","","","","","","","","","","","","",""
"null","audio/beep-329314.mp3","null","audio-keyboard-response","315","2.1.0","358923","J=YES, F=NO","gsp8ku74bm","0","80","80","80","","","","","","","","","","","","","","","",""
"null","audio/noise1.wav","null","audio-keyboard-response","316","2.1.0","359543","J=YES, F=NO","gsp8ku74bm","0","80","80","80","","","","","","","","","","","","","","","",""
"819","
          <p id=""word"" style=""font-size: 40px;"">slintered</p>
          <p style=""font-size: 16px;"">J = YES &nbsp;&nbsp;&nbsp; F = NO</p>
        ","f","html-keyboard-response","317","2.1.0","360363","J=YES, F=NO","gsp8ku74bm","0","80","80","80","","","","","","","","","slintered","noise1","pseudoword","pseudoword","f","true","",""
"null","<p style=""font-size: 50px;"">+</p>","null","html-keyboard-response","318","2.1.0","360664","J=YES, F=NO","gsp8ku74bm","0","80","80","80","","","","","","","","","","","","","","","",""
"null","audio/beep-329314.mp3","null","audio-keyboard-response","319","2.1.0","362203","J=YES, F=NO","gsp8ku74bm","0","80","80","80","","","","","","","","","","","","","","","",""
"null","audio/prisoner.wav","null","audio-keyboard-response","320","2.1.0","362783","J=YES, F=NO","gsp8ku74bm","0","80","80","80","","","","","","","","","","","","","","","",""
"879","
          <p id=""word"" style=""font-size: 40px;"">egotian</p>
          <p style=""font-size: 16px;"">J = YES &nbsp;&nbsp;&nbsp; F = NO</p>
        ","f","html-keyboard-response","321","2.1.0","363663","J=YES, F=NO","gsp8ku74bm","0","80","80","80","","","","","","","","","egotian","prisoner","pseudoword","pseudoword","f","true","",""
"null","<p style=""font-size: 50px;"">+</p>","null","html-keyboard-response","322","2.1.0","363979","J=YES, F=NO","gsp8ku74bm","0","80","80","80","","","","","","","","","","","","","","","",""
"null","audio/beep-329314.mp3","null","audio-keyboard-response","323","2.1.0","365503","J=YES, F=NO","gsp8ku74bm","0","80","80","80","","","","","","","","","","","","","","","",""
"null","audio/church1.wav","null","audio-keyboard-response","324","2.1.0","366263","J=YES, F=NO","gsp8ku74bm","0","80","80","80","","","","","","","","","","","","","","","",""
"549","
          <p id=""word"" style=""font-size: 40px;"">cover</p>
          <p style=""font-size: 16px;"">J = YES &nbsp;&nbsp;&nbsp; F = NO</p>
        ","j","html-keyboard-response","325","2.1.0","366813","J=YES, F=NO","gsp8ku74bm","0","80","80","80","","","","","","","","","cover","church1","unrelated","experimental","j","true","",""
"null","<p style=""font-size: 50px;"">+</p>","null","html-keyboard-response","326","2.1.0","367116","J=YES, F=NO","gsp8ku74bm","0","80","80","80","","","","","","","","","","","","","","","",""
"null","audio/beep-329314.mp3","null","audio-keyboard-response","327","2.1.0","368643","J=YES, F=NO","gsp8ku74bm","0","80","80","80","","","","","","","","","","","","","","","",""
"null","audio/bush1.wav","null","audio-keyboard-response","328","2.1.0","369123","J=YES, F=NO","gsp8ku74bm","0","80","80","80","","","","","","","","","","","","","","","",""
"779","
          <p id=""word"" style=""font-size: 40px;"">platined</p>
          <p style=""font-size: 16px;"">J = YES &nbsp;&nbsp;&nbsp; F = NO</p>
        ","f","html-keyboard-response","329","2.1.0","369903","J=YES, F=NO","gsp8ku74bm","0","80","80","80","","","","","","","","","platined","bush1","pseudoword","pseudoword","f","true","",""
"null","<p style=""font-size: 50px;"">+</p>","null","html-keyboard-response","330","2.1.0","370205","J=YES, F=NO","gsp8ku74bm","0","80","80","80","","","","","","","","","","","","","","","",""
"null","audio/beep-329314.mp3","null","audio-keyboard-response","331","2.1.0","371743","J=YES, F=NO","gsp8ku74bm","0","80","80","80","","","","","","","","","","","","","","","",""
"null","audio/arm.wav","null","audio-keyboard-response","332","2.1.0","372363","J=YES, F=NO","gsp8ku74bm","0","80","80","80","","","","","","","","","","","","","","","",""
"639","
          <p id=""word"" style=""font-size: 40px;"">pigne</p>
          <p style=""font-size: 16px;"">J = YES &nbsp;&nbsp;&nbsp; F = NO</p>
        ","f","html-keyboard-response","333","2.1.0","373003","J=YES, F=NO","gsp8ku74bm","0","80","80","80","","","","","","","","","pigne","arm","pseudoword","pseudoword","f","true","",""
"null","<p style=""font-size: 50px;"">+</p>","null","html-keyboard-response","334","2.1.0","373318","J=YES, F=NO","gsp8ku74bm","0","80","80","80","","","","","","","","","","","","","","","",""
"null","audio/beep-329314.mp3","null","audio-keyboard-response","335","2.1.0","374843","J=YES, F=NO","gsp8ku74bm","0","80","80","80","","","","","","","","","","","","","","","",""
"null","audio/budget1.wav","null","audio-keyboard-response","336","2.1.0","375543","J=YES, F=NO","gsp8ku74bm","0","80","80","80","","","","","","","","","","","","","","","",""
"679","
          <p id=""word"" style=""font-size: 40px;"">sulist</p>
          <p style=""font-size: 16px;"">J = YES &nbsp;&nbsp;&nbsp; F = NO</p>
        ","f","html-keyboard-response","337","2.1.0","376223","J=YES, F=NO","gsp8ku74bm","0","80","80","80","","","","","","","","","sulist","budget1","pseudoword","pseudoword","f","true","",""
"null","<p style=""font-size: 50px;"">+</p>","null","html-keyboard-response","338","2.1.0","376525","J=YES, F=NO","gsp8ku74bm","0","80","80","80","","","","","","","","","","","","","","","",""
"null","audio/beep-329314.mp3","null","audio-keyboard-response","339","2.1.0","378063","J=YES, F=NO","gsp8ku74bm","0","80","80","80","","","","","","","","","","","","","","","",""
"null","audio/age1.wav","null","audio-keyboard-response","340","2.1.0","378703","J=YES, F=NO","gsp8ku74bm","0","80","80","80","","","","","","","","","","","","","","","",""
"709","
          <p id=""word"" style=""font-size: 40px;"">lachry</p>
          <p style=""font-size: 16px;"">J = YES &nbsp;&nbsp;&nbsp; F = NO</p>
        ","f","html-keyboard-response","341","2.1.0","379413","J=YES, F=NO","gsp8ku74bm","0","80","80","80","","","","","","","","","lachry","age1","pseudoword","pseudoword","f","true","",""
"null","<p style=""font-size: 50px;"">+</p>","null","html-keyboard-response","342","2.1.0","379719","J=YES, F=NO","gsp8ku74bm","0","80","80","80","","","","","","","","","","","","","","","",""
"null","audio/beep-329314.mp3","null","audio-keyboard-response","343","2.1.0","381243","J=YES, F=NO","gsp8ku74bm","0","80","80","80","","","","","","","","","","","","","","","",""
"null","audio/rain.wav","null","audio-keyboard-response","344","2.1.0","381763","J=YES, F=NO","gsp8ku74bm","0","80","80","80","","","","","","","","","","","","","","","",""
"519","
          <p id=""word"" style=""font-size: 40px;"">lose</p>
          <p style=""font-size: 16px;"">J = YES &nbsp;&nbsp;&nbsp; F = NO</p>
        ","j","html-keyboard-response","345","2.1.0","382283","J=YES, F=NO","gsp8ku74bm","0","80","80","80","","","","","","","","","lose","rain","unrelated","experimental","j","true","",""
"null","<p style=""font-size: 50px;"">+</p>","null","html-keyboard-response","346","2.1.0","382589","J=YES, F=NO","gsp8ku74bm","0","80","80","80","","","","","","","","","","","","","","","",""
"null","audio/beep-329314.mp3","null","audio-keyboard-response","347","2.1.0","384123","J=YES, F=NO","gsp8ku74bm","0","80","80","80","","","","","","","","","","","","","","","",""
"null","audio/gift1.wav","null","audio-keyboard-response","348","2.1.0","384663","J=YES, F=NO","gsp8ku74bm","0","80","80","80","","","","","","","","","","","","","","","",""
"679","
          <p id=""word"" style=""font-size: 40px;"">protsh</p>
          <p style=""font-size: 16px;"">J = YES &nbsp;&nbsp;&nbsp; F = NO</p>
        ","f","html-keyboard-response","349","2.1.0","385343","J=YES, F=NO","gsp8ku74bm","0","80","80","80","","","","","","","","","protsh","gift1","pseudoword","pseudoword","f","true","",""
"null","<p style=""font-size: 50px;"">+</p>","null","html-keyboard-response","350","2.1.0","385658","J=YES, F=NO","gsp8ku74bm","0","80","80","80","","","","","","","","","","","","","","","",""
"null","audio/beep-329314.mp3","null","audio-keyboard-response","351","2.1.0","387183","J=YES, F=NO","gsp8ku74bm","0","80","80","80","","","","","","","","","","","","","","","",""
"null","audio/van1.wav","null","audio-keyboard-response","352","2.1.0","387743","J=YES, F=NO","gsp8ku74bm","0","80","80","80","","","","","","","","","","","","","","","",""
"619","
          <p id=""word"" style=""font-size: 40px;"">support</p>
          <p style=""font-size: 16px;"">J = YES &nbsp;&nbsp;&nbsp; F = NO</p>
        ","j","html-keyboard-response","353","2.1.0","388362","J=YES, F=NO","gsp8ku74bm","0","80","80","80","","","","","","","","","support","van1","unrelated","experimental","j","true","",""
"null","<p style=""font-size: 50px;"">+</p>","null","html-keyboard-response","354","2.1.0","388670","J=YES, F=NO","gsp8ku74bm","0","80","80","80","","","","","","","","","","","","","","","",""
"null","audio/beep-329314.mp3","null","audio-keyboard-response","355","2.1.0","390203","J=YES, F=NO","gsp8ku74bm","0","80","80","80","","","","","","","","","","","","","","","",""
"null","audio/cash1.wav","null","audio-keyboard-response","356","2.1.0","390823","J=YES, F=NO","gsp8ku74bm","0","80","80","80","","","","","","","","","","","","","","","",""
"629","
          <p id=""word"" style=""font-size: 40px;"">splear</p>
          <p style=""font-size: 16px;"">J = YES &nbsp;&nbsp;&nbsp; F = NO</p>
        ","f","html-keyboard-response","357","2.1.0","391453","J=YES, F=NO","gsp8ku74bm","0","80","80","80","","","","","","","","","splear","cash1","pseudoword","pseudoword","f","true","",""
"null","<p style=""font-size: 50px;"">+</p>","null","html-keyboard-response","358","2.1.0","391754","J=YES, F=NO","gsp8ku74bm","0","80","80","80","","","","","","","","","","","","","","","",""
"null","audio/beep-329314.mp3","null","audio-keyboard-response","359","2.1.0","393283","J=YES, F=NO","gsp8ku74bm","0","80","80","80","","","","","","","","","","","","","","","",""
"null","audio/strength.wav","null","audio-keyboard-response","360","2.1.0","394103","J=YES, F=NO","gsp8ku74bm","0","80","80","80","","","","","","","","","","","","","","","",""
"649","
          <p id=""word"" style=""font-size: 40px;"">plabet</p>
          <p style=""font-size: 16px;"">J = YES &nbsp;&nbsp;&nbsp; F = NO</p>
        ","f","html-keyboard-response","361","2.1.0","394752","J=YES, F=NO","gsp8ku74bm","0","80","80","80","","","","","","","","","plabet","strength","pseudoword","pseudoword","f","true","",""
"6560","<p>Excellent! You have finished block 3 of 8.</p>
                     <p>Feel free to take a 30 second break.</p>
                     <p>Press any key when you're ready to continue.</p>","j","html-keyboard-response","362","2.1.0","401313","J=YES, F=NO","gsp8ku74bm","0","80","80","80","","","","","","","","","","","","","","","",""
"919","<p>Starting main block 4 of 8. Press any key to continue.</p>","j","html-keyboard-response","363","2.1.0","402233","J=YES, F=NO","gsp8ku74bm","0","80","80","80","","","","","","","","","","","","","","","",""
"null","<p style=""font-size: 50px;"">+</p>","null","html-keyboard-response","364","2.1.0","402545","J=YES, F=NO","gsp8ku74bm","0","80","80","80","","","","","","","","","","","","","","","",""
"null","audio/beep-329314.mp3","null","audio-keyboard-response","365","2.1.0","404083","J=YES, F=NO","gsp8ku74bm","0","80","80","80","","","","","","","","","","","","","","","",""
"null","audio/planet1.wav","null","audio-keyboard-response","366","2.1.0","404733","J=YES, F=NO","gsp8ku74bm","0","80","80","80","","","","","","","","","","","","","","","",""
"979","
          <p id=""word"" style=""font-size: 40px;"">cratched</p>
          <p style=""font-size: 16px;"">J = YES &nbsp;&nbsp;&nbsp; F = NO</p>
        ","f","html-keyboard-response","367","2.1.0","405713","J=YES, F=NO","gsp8ku74bm","0","80","80","80","","","","","","","","","cratched","planet1","pseudoword","pseudoword","f","true","",""
"null","<p style=""font-size: 50px;"">+</p>","null","html-keyboard-response","368","2.1.0","406028","J=YES, F=NO","gsp8ku74bm","0","80","80","80","","","","","","","","","","","","","","","",""
"null","audio/beep-329314.mp3","null","audio-keyboard-response","369","2.1.0","407563","J=YES, F=NO","gsp8ku74bm","0","80","80","80","","","","","","","","","","","","","","","",""
"null","audio/kettle1.wav","null","audio-keyboard-response","370","2.1.0","408113","J=YES, F=NO","gsp8ku74bm","0","80","80","80","","","","","","","","","","","","","","","",""
"539","
          <p id=""word"" style=""font-size: 40px;"">wrap</p>
          <p style=""font-size: 16px;"">J = YES &nbsp;&nbsp;&nbsp; F = NO</p>
        ","j","html-keyboard-response","371","2.1.0","408653","J=YES, F=NO","gsp8ku74bm","0","80","80","80","","","","","","","","","wrap","kettle1","filler","filler","j","true","",""
"null","<p style=""font-size: 50px;"">+</p>","null","html-keyboard-response","372","2.1.0","408964","J=YES, F=NO","gsp8ku74bm","0","80","80","80","","","","","","","","","","","","","","","",""
"null","audio/beep-329314.mp3","null","audio-keyboard-response","373","2.1.0","410504","J=YES, F=NO","gsp8ku74bm","0","80","80","80","","","","","","","","","","","","","","","",""
"null","audio/survey1.wav","null","audio-keyboard-response","374","2.1.0","411313","J=YES, F=NO","gsp8ku74bm","0","80","80","80","","","","","","","","","","","","","","","",""
"610","
          <p id=""word"" style=""font-size: 40px;"">imploth</p>
          <p style=""font-size: 16px;"">J = YES &nbsp;&nbsp;&nbsp; F = NO</p>
        ","f","html-keyboard-response","375","2.1.0","411923","J=YES, F=NO","gsp8ku74bm","0","80","80","80","","","","","","","","","imploth","survey1","pseudoword","pseudoword","f","true","",""
"null","<p style=""font-size: 50px;"">+</p>","null","html-keyboard-response","376","2.1.0","412235","J=YES, F=NO","gsp8ku74bm","0","80","80","80","","","","","","","","","","","","","","","",""
"null","audio/beep-329314.mp3","null","audio-keyboard-response","377","2.1.0","413763","J=YES, F=NO","gsp8ku74bm","0","80","80","80","","","","","","","","","","","","","","","",""
"null","audio/cinema1.wav","null","audio-keyboard-response","378","2.1.0","414453","J=YES, F=NO","gsp8ku74bm","0","80","80","80","","","","","","","","","","","","","","","",""
"650","
          <p id=""word"" style=""font-size: 40px;"">murple</p>
          <p style=""font-size: 16px;"">J = YES &nbsp;&nbsp;&nbsp; F = NO</p>
        ","f","html-keyboard-response","379","2.1.0","415103","J=YES, F=NO","gsp8ku74bm","0","80","80","80","","","","","","","","","murple","cinema1","pseudoword","pseudoword","f","true","",""
"null","<p style=""font-size: 50px;"">+</p>","null","html-keyboard-response","380","2.1.0","415410","J=YES, F=NO","gsp8ku74bm","0","80","80","80","","","","","","","","","","","","","","","",""
"null","audio/beep-329314.mp3","null","audio-keyboard-response","381","2.1.0","416943","J=YES, F=NO","gsp8ku74bm","0","80","80","80","","","","","","","","","","","","","","","",""
"null","audio/floor.wav","null","audio-keyboard-response","382","2.1.0","417573","J=YES, F=NO","gsp8ku74bm","0","80","80","80","","","","","","","","","","","","","","","",""
"590","
          <p id=""word"" style=""font-size: 40px;"">mop</p>
          <p style=""font-size: 16px;"">J = YES &nbsp;&nbsp;&nbsp; F = NO</p>
        ","j","html-keyboard-response","383","2.1.0","418164","J=YES, F=NO","gsp8ku74bm","0","80","80","80","","","","","","","","","mop","floor","filler","filler","j","true","",""
"null","<p style=""font-size: 50px;"">+</p>","null","html-keyboard-response","384","2.1.0","418465","J=YES, F=NO","gsp8ku74bm","0","80","80","80","","","","","","","","","","","","","","","",""
"null","audio/beep-329314.mp3","null","audio-keyboard-response","385","2.1.0","420004","J=YES, F=NO","gsp8ku74bm","0","80","80","80","","","","","","","","","","","","","","","",""
"null","audio/cottage1.wav","null","audio-keyboard-response","386","2.1.0","420733","J=YES, F=NO","gsp8ku74bm","0","80","80","80","","","","","","","","","","","","","","","",""
"580","
          <p id=""word"" style=""font-size: 40px;"">release</p>
          <p style=""font-size: 16px;"">J = YES &nbsp;&nbsp;&nbsp; F = NO</p>
        ","j","html-keyboard-response","387","2.1.0","421313","J=YES, F=NO","gsp8ku74bm","0","80","80","80","","","","","","","","","release","cottage1","unrelated","experimental","j","true","",""
"null","<p style=""font-size: 50px;"">+</p>","null","html-keyboard-response","388","2.1.0","421623","J=YES, F=NO","gsp8ku74bm","0","80","80","80","","","","","","","","","","","","","","","",""
"null","audio/beep-329314.mp3","null","audio-keyboard-response","389","2.1.0","423163","J=YES, F=NO","gsp8ku74bm","0","80","80","80","","","","","","","","","","","","","","","",""
"null","audio/beach1.wav","null","audio-keyboard-response","390","2.1.0","423833","J=YES, F=NO","gsp8ku74bm","0","80","80","80","","","","","","","","","","","","","","","",""
"640","
          <p id=""word"" style=""font-size: 40px;"">drive</p>
          <p style=""font-size: 16px;"">J = YES &nbsp;&nbsp;&nbsp; F = NO</p>
        ","j","html-keyboard-response","391","2.1.0","424473","J=YES, F=NO","gsp8ku74bm","0","80","80","80","","","","","","","","","drive","beach1","filler","filler","j","true","",""
