"rt","stimulus","response","trial_type","trial_index","plugin_version","time_elapsed","response_mapping","subject_id","list_index","lextale_score","lextale_word_score","lextale_nonword_score","success","timeout","failed_images","failed_audio","failed_video","task","isWord","isDummy","target","prime","prime_type","stimulus_type","correct_response","correct","section","question_order"
"59997","
    <div style=""max-width: 800px; margin: auto; text-align: left;"">
      <h2>STANFORD UNIVERSITY</h2>
      <h3>Research Information Sheet</h3>
      <p><strong>Protocol Director:</strong> Robert Hawkins<br>
      <strong>Protocol Title:</strong> Communication and social cognition in natural audiovisual contexts<br>
      <strong>IRB#:</strong> 77226</p>

      <p><strong>DESCRIPTION:</strong> You are invited to participate in a research study about language and communication. The purpose of the research is to understand how you interact and communicate with other people in naturalistic settings as a fluent English speaker. This research will be conducted through the Prolific platform, including participants from the US, UK, and Canada. If you decide to participate in this research, you will play a communication game in a group with one or more partners.</p>

      <p><strong>TIME INVOLVEMENT:</strong> The task will last the amount of time advertised on Prolific. You are free to withdraw from the study at any time.</p>

      <p><strong>RISKS AND BENEFITS:</strong> You may become frustrated if your partner gets distracted, or experience discomfort if other participants in your group send text that is inappropriate for the task. We ask you to please be respectful of other participants you might be interacting with to mitigate these risks. You may also experience discomfort when being asked to discuss or challenge emotionally salient political beliefs. Study data will be stored securely, in compliance with Stanford University standards, minimizing the risk of confidentiality breach. This study advances our scientific understanding of how people communicate and collaborate in naturalistic settings. This study may lead to further insights about what can go wrong in teamwork, suggest potential interventions to overcome these barriers, and help to develop assistive technologies that collaborate with human partners. We cannot and do not guarantee or promise that you will receive any benefits from this study.</p>

      <p><strong>PAYMENTS:</strong> You will receive payment in the amount advertised on Prolific. If you do not complete this study, you will receive prorated payment based on the time that you have spent. Additionally, you may be eligible for bonus payments as described in the instructions.</p>

      <p><strong>PARTICIPANT’S RIGHTS:</strong> If you have read this form and have decided to participate in this project, please understand your participation is voluntary and you have the right to withdraw your consent or discontinue participation at any time without penalty or loss of benefits to which you are otherwise entitled. The alternative is not to participate. You have the right to refuse to answer particular questions. The results of this research study may be presented at scientific or professional meetings or published in scientific journals. Your individual privacy will be maintained in all published and written data resulting from the study. In accordance with scientific norms, the data from this study may be used or shared with other researchers for future research (after removing personally identifying information) without additional consent from you.</p>

      <p><strong>CONTACT INFORMATION:</strong><br>
      Questions: If you have any questions, concerns or complaints about this research, its procedures, risks and benefits, contact the Protocol Director, Robert Hawkins (<a href=""mailto:rdhawkins@stanford.edu"">rdhawkins@stanford.edu</a>, 217-549-6923).<br>
      Independent Contact: If you are not satisfied with how this study is being conducted, or if you have any concerns, complaints, or general questions about the research or your rights as a participant, please contact the Stanford Institutional Review Board (IRB) to speak to someone independent of the research team at 650-723-2480 or toll free at 1-866-680-2906, or email at <a href=""mailto:irbnon-med@stanford.edu"">irbnon-med@stanford.edu</a>. You can also write to the Stanford IRB, Stanford University, 1705 El Camino Real, Palo Alto, CA 94306.</p>

      <p><strong>Please save or print a copy of this page for your records.</strong></p>
      <p>If you agree to participate in this research, click ""Continue"" below.</p>
    </div>
  ","0","html-button-response","0","2.1.0","60005","F=YES, J=NO","h4exn79jel","1","73","85","60","","","","","","","","","","","","","","","",""
"9398","
    <div style=""max-width: 800px; margin: auto; text-align: left;"">
      <h2>Welcome!</h2>
      <p>Thank you for participating in this study. The experiment consists of three parts:</p>
      <ol>
        <li>An English vocabulary test</li>
        <li>A main task in which you will hear and see words, and decide whether the written word is a real English word</li>
        <li>A brief survey about your background</li>
      </ol>
      <p>Each part will be introduced before it begins.</p>
      <p>Please make sure you are in a quiet environment and can hear audio clearly for the final task.</p>
      <p style=""margin-top: 2em;"">Press any key to begin.</p>
    </div>
  "," ","html-keyboard-response","1","2.1.0","69404","F=YES, J=NO","h4exn79jel","1","73","85","60","","","","","","","","","","","","","","","",""
"","","","preload","2","2.1.0","70555","F=YES, J=NO","h4exn79jel","1","73","85","60","true","false","[]","[]","[]","","","","","","","","","","",""
"1917","
    <div style=""max-width: 800px; margin: auto; text-align: left;"">
      <h2>Part 1: Vocabulary Test</h2>
      <p>You will now complete the first part of the study: a short English vocabulary test.</p>
      <p>This test is called <strong>LexTALE</strong> and helps us get a general sense of your English proficiency.</p>
      <p style=""margin-top: 2em;"">Press any key to continue.</p>
    </div>
  "," ","html-keyboard-response","3","2.1.0","72472","F=YES, J=NO","h4exn79jel","1","73","85","60","","","","","","","","","","","","","","","",""
"7723","
    <div style=""max-width: 800px; margin: auto; text-align: left;"">
      <h2>LexTALE Vocabulary Test</h2>
      <p>In this test, you will see a series of letter strings—one at a time.</p>
      <p>Your task is to decide whether each string is a real English word.</p>
      <p><strong>Key responses:</strong></p>
      <ul>
        <li><strong>F</strong> = YES (real English word)</li>
        <li><strong>J</strong> = NO (not a real English word)</li>
      </ul>
      <p>There is no time limit, but please try to be accurate.</p>
      <p style=""margin-top: 2em;"">Press any key to begin.</p>
    </div>
  ","f","html-keyboard-response","4","2.1.0","80196","F=YES, J=NO","h4exn79jel","1","73","85","60","","","","","","","","","","","","","","","",""
"3616","
  <p style=""font-size: 40px;"">platery</p>
  <p style=""font-size: 16px;"">F = YES &nbsp;&nbsp;&nbsp; J = NO</p>
","f","html-keyboard-response","5","2.1.0","83812","F=YES, J=NO","h4exn79jel","1","73","85","60","","","","","","lextale","false","true","","","","","","","",""
"1144","
  <p style=""font-size: 40px;"">denial</p>
  <p style=""font-size: 16px;"">F = YES &nbsp;&nbsp;&nbsp; J = NO</p>
","f","html-keyboard-response","6","2.1.0","84956","F=YES, J=NO","h4exn79jel","1","73","85","60","","","","","","lextale","true","true","","","","","","","",""
"1242","
  <p style=""font-size: 40px;"">marrit</p>
  <p style=""font-size: 16px;"">F = YES &nbsp;&nbsp;&nbsp; J = NO</p>
","j","html-keyboard-response","7","2.1.0","86199","F=YES, J=NO","h4exn79jel","1","73","85","60","","","","","","lextale","false","true","","","","","","","",""
"646","
  <p style=""font-size: 40px;"">bottle</p>
  <p style=""font-size: 16px;"">F = YES &nbsp;&nbsp;&nbsp; J = NO</p>
","f","html-keyboard-response","8","2.1.0","86846","F=YES, J=NO","h4exn79jel","1","73","85","60","","","","","","lextale","true","false","","","","","","","",""
"892","
  <p style=""font-size: 40px;"">birst</p>
  <p style=""font-size: 16px;"">F = YES &nbsp;&nbsp;&nbsp; J = NO</p>
","j","html-keyboard-response","9","2.1.0","87738","F=YES, J=NO","h4exn79jel","1","73","85","60","","","","","","lextale","false","false","","","","","","","",""
"611","
  <p style=""font-size: 40px;"">envy</p>
  <p style=""font-size: 16px;"">F = YES &nbsp;&nbsp;&nbsp; J = NO</p>
","f","html-keyboard-response","10","2.1.0","88349","F=YES, J=NO","h4exn79jel","1","73","85","60","","","","","","lextale","true","false","","","","","","","",""
"1207","
  <p style=""font-size: 40px;"">brang</p>
  <p style=""font-size: 16px;"">F = YES &nbsp;&nbsp;&nbsp; J = NO</p>
","j","html-keyboard-response","11","2.1.0","89557","F=YES, J=NO","h4exn79jel","1","73","85","60","","","","","","lextale","false","false","","","","","","","",""
"548","
  <p style=""font-size: 40px;"">huge</p>
  <p style=""font-size: 16px;"">F = YES &nbsp;&nbsp;&nbsp; J = NO</p>
","f","html-keyboard-response","12","2.1.0","90105","F=YES, J=NO","h4exn79jel","1","73","85","60","","","","","","lextale","true","false","","","","","","","",""
"1931","
  <p style=""font-size: 40px;"">plove</p>
  <p style=""font-size: 16px;"">F = YES &nbsp;&nbsp;&nbsp; J = NO</p>
","j","html-keyboard-response","13","2.1.0","92037","F=YES, J=NO","h4exn79jel","1","73","85","60","","","","","","lextale","false","false","","","","","","","",""
"533","
  <p style=""font-size: 40px;"">border</p>
  <p style=""font-size: 16px;"">F = YES &nbsp;&nbsp;&nbsp; J = NO</p>
","f","html-keyboard-response","14","2.1.0","92570","F=YES, J=NO","h4exn79jel","1","73","85","60","","","","","","lextale","true","false","","","","","","","",""
"576","
  <p style=""font-size: 40px;"">flimsy</p>
  <p style=""font-size: 16px;"">F = YES &nbsp;&nbsp;&nbsp; J = NO</p>
","f","html-keyboard-response","15","2.1.0","93146","F=YES, J=NO","h4exn79jel","1","73","85","60","","","","","","lextale","true","false","","","","","","","",""
"547","
  <p style=""font-size: 40px;"">drain</p>
  <p style=""font-size: 16px;"">F = YES &nbsp;&nbsp;&nbsp; J = NO</p>
","f","html-keyboard-response","16","2.1.0","93694","F=YES, J=NO","h4exn79jel","1","73","85","60","","","","","","lextale","true","false","","","","","","","",""
"1123","
  <p style=""font-size: 40px;"">twindle</p>
  <p style=""font-size: 16px;"">F = YES &nbsp;&nbsp;&nbsp; J = NO</p>
","f","html-keyboard-response","17","2.1.0","94817","F=YES, J=NO","h4exn79jel","1","73","85","60","","","","","","lextale","false","false","","","","","","","",""
"527","
  <p style=""font-size: 40px;"">propose</p>
  <p style=""font-size: 16px;"">F = YES &nbsp;&nbsp;&nbsp; J = NO</p>
","f","html-keyboard-response","18","2.1.0","95345","F=YES, J=NO","h4exn79jel","1","73","85","60","","","","","","lextale","true","false","","","","","","","",""
"3273","
  <p style=""font-size: 40px;"">forlay</p>
  <p style=""font-size: 16px;"">F = YES &nbsp;&nbsp;&nbsp; J = NO</p>
","f","html-keyboard-response","19","2.1.0","98618","F=YES, J=NO","h4exn79jel","1","73","85","60","","","","","","lextale","false","false","","","","","","","",""
"745","
  <p style=""font-size: 40px;"">tenant</p>
  <p style=""font-size: 16px;"">F = YES &nbsp;&nbsp;&nbsp; J = NO</p>
","f","html-keyboard-response","20","2.1.0","99364","F=YES, J=NO","h4exn79jel","1","73","85","60","","","","","","lextale","true","false","","","","","","","",""
"708","
  <p style=""font-size: 40px;"">strain</p>
  <p style=""font-size: 16px;"">F = YES &nbsp;&nbsp;&nbsp; J = NO</p>
","f","html-keyboard-response","21","2.1.0","100072","F=YES, J=NO","h4exn79jel","1","73","85","60","","","","","","lextale","true","false","","","","","","","",""
"653","
  <p style=""font-size: 40px;"">holster</p>
  <p style=""font-size: 16px;"">F = YES &nbsp;&nbsp;&nbsp; J = NO</p>
","f","html-keyboard-response","22","2.1.0","100726","F=YES, J=NO","h4exn79jel","1","73","85","60","","","","","","lextale","true","false","","","","","","","",""
"603","
  <p style=""font-size: 40px;"">hinder</p>
  <p style=""font-size: 16px;"">F = YES &nbsp;&nbsp;&nbsp; J = NO</p>
","f","html-keyboard-response","23","2.1.0","101330","F=YES, J=NO","h4exn79jel","1","73","85","60","","","","","","lextale","true","false","","","","","","","",""
"512","
  <p style=""font-size: 40px;"">swindle</p>
  <p style=""font-size: 16px;"">F = YES &nbsp;&nbsp;&nbsp; J = NO</p>
","f","html-keyboard-response","24","2.1.0","101842","F=YES, J=NO","h4exn79jel","1","73","85","60","","","","","","lextale","true","false","","","","","","","",""
"970","
  <p style=""font-size: 40px;"">nuder</p>
  <p style=""font-size: 16px;"">F = YES &nbsp;&nbsp;&nbsp; J = NO</p>
","j","html-keyboard-response","25","2.1.0","102812","F=YES, J=NO","h4exn79jel","1","73","85","60","","","","","","lextale","false","false","","","","","","","",""
"556","
  <p style=""font-size: 40px;"">pillow</p>
  <p style=""font-size: 16px;"">F = YES &nbsp;&nbsp;&nbsp; J = NO</p>
","f","html-keyboard-response","26","2.1.0","103368","F=YES, J=NO","h4exn79jel","1","73","85","60","","","","","","lextale","true","false","","","","","","","",""
"1100","
  <p style=""font-size: 40px;"">shumble</p>
  <p style=""font-size: 16px;"">F = YES &nbsp;&nbsp;&nbsp; J = NO</p>
","j","html-keyboard-response","27","2.1.0","104469","F=YES, J=NO","h4exn79jel","1","73","85","60","","","","","","lextale","false","false","","","","","","","",""
"723","
  <p style=""font-size: 40px;"">thirst</p>
  <p style=""font-size: 16px;"">F = YES &nbsp;&nbsp;&nbsp; J = NO</p>
","f","html-keyboard-response","28","2.1.0","105193","F=YES, J=NO","h4exn79jel","1","73","85","60","","","","","","lextale","true","false","","","","","","","",""
"2550","
  <p style=""font-size: 40px;"">unsail</p>
  <p style=""font-size: 16px;"">F = YES &nbsp;&nbsp;&nbsp; J = NO</p>
","j","html-keyboard-response","29","2.1.0","107743","F=YES, J=NO","h4exn79jel","1","73","85","60","","","","","","lextale","false","false","","","","","","","",""
"1305","
  <p style=""font-size: 40px;"">rifle</p>
  <p style=""font-size: 16px;"">F = YES &nbsp;&nbsp;&nbsp; J = NO</p>
","f","html-keyboard-response","30","2.1.0","109049","F=YES, J=NO","h4exn79jel","1","73","85","60","","","","","","lextale","true","false","","","","","","","",""
"11617","
  <p style=""font-size: 40px;"">mush</p>
  <p style=""font-size: 16px;"">F = YES &nbsp;&nbsp;&nbsp; J = NO</p>
","f","html-keyboard-response","31","2.1.0","120667","F=YES, J=NO","h4exn79jel","1","73","85","60","","","","","","lextale","false","false","","","","","","","",""
"519","
  <p style=""font-size: 40px;"">drench</p>
  <p style=""font-size: 16px;"">F = YES &nbsp;&nbsp;&nbsp; J = NO</p>
","f","html-keyboard-response","32","2.1.0","121186","F=YES, J=NO","h4exn79jel","1","73","85","60","","","","","","lextale","true","false","","","","","","","",""
"940","
  <p style=""font-size: 40px;"">snirt</p>
  <p style=""font-size: 16px;"">F = YES &nbsp;&nbsp;&nbsp; J = NO</p>
","j","html-keyboard-response","33","2.1.0","122127","F=YES, J=NO","h4exn79jel","1","73","85","60","","","","","","lextale","false","false","","","","","","","",""
"534","
  <p style=""font-size: 40px;"">bitter</p>
  <p style=""font-size: 16px;"">F = YES &nbsp;&nbsp;&nbsp; J = NO</p>
","f","html-keyboard-response","34","2.1.0","122661","F=YES, J=NO","h4exn79jel","1","73","85","60","","","","","","lextale","true","false","","","","","","","",""
"927","
  <p style=""font-size: 40px;"">pliff</p>
  <p style=""font-size: 16px;"">F = YES &nbsp;&nbsp;&nbsp; J = NO</p>
","j","html-keyboard-response","35","2.1.0","123588","F=YES, J=NO","h4exn79jel","1","73","85","60","","","","","","lextale","false","false","","","","","","","",""
"491","
  <p style=""font-size: 40px;"">tablet</p>
  <p style=""font-size: 16px;"">F = YES &nbsp;&nbsp;&nbsp; J = NO</p>
","f","html-keyboard-response","36","2.1.0","124079","F=YES, J=NO","h4exn79jel","1","73","85","60","","","","","","lextale","true","false","","","","","","","",""
"534","
  <p style=""font-size: 40px;"">glimmer</p>
  <p style=""font-size: 16px;"">F = YES &nbsp;&nbsp;&nbsp; J = NO</p>
","f","html-keyboard-response","37","2.1.0","124613","F=YES, J=NO","h4exn79jel","1","73","85","60","","","","","","lextale","true","false","","","","","","","",""
"765","
  <p style=""font-size: 40px;"">slink</p>
  <p style=""font-size: 16px;"">F = YES &nbsp;&nbsp;&nbsp; J = NO</p>
","f","html-keyboard-response","38","2.1.0","125378","F=YES, J=NO","h4exn79jel","1","73","85","60","","","","","","lextale","true","false","","","","","","","",""
"491","
  <p style=""font-size: 40px;"">clever</p>
  <p style=""font-size: 16px;"">F = YES &nbsp;&nbsp;&nbsp; J = NO</p>
","f","html-keyboard-response","39","2.1.0","125869","F=YES, J=NO","h4exn79jel","1","73","85","60","","","","","","lextale","true","false","","","","","","","",""
"2352","
  <p style=""font-size: 40px;"">grum</p>
  <p style=""font-size: 16px;"">F = YES &nbsp;&nbsp;&nbsp; J = NO</p>
","j","html-keyboard-response","40","2.1.0","128221","F=YES, J=NO","h4exn79jel","1","73","85","60","","","","","","lextale","false","false","","","","","","","",""
"548","
  <p style=""font-size: 40px;"">string</p>
  <p style=""font-size: 16px;"">F = YES &nbsp;&nbsp;&nbsp; J = NO</p>
","f","html-keyboard-response","41","2.1.0","128769","F=YES, J=NO","h4exn79jel","1","73","85","60","","","","","","lextale","true","false","","","","","","","",""
"1123","
  <p style=""font-size: 40px;"">plim</p>
  <p style=""font-size: 16px;"">F = YES &nbsp;&nbsp;&nbsp; J = NO</p>
","f","html-keyboard-response","42","2.1.0","129892","F=YES, J=NO","h4exn79jel","1","73","85","60","","","","","","lextale","false","false","","","","","","","",""
"659","
  <p style=""font-size: 40px;"">cable</p>
  <p style=""font-size: 16px;"">F = YES &nbsp;&nbsp;&nbsp; J = NO</p>
","f","html-keyboard-response","43","2.1.0","130551","F=YES, J=NO","h4exn79jel","1","73","85","60","","","","","","lextale","true","false","","","","","","","",""
"851","
  <p style=""font-size: 40px;"">shrivel</p>
  <p style=""font-size: 16px;"">F = YES &nbsp;&nbsp;&nbsp; J = NO</p>
","f","html-keyboard-response","44","2.1.0","131402","F=YES, J=NO","h4exn79jel","1","73","85","60","","","","","","lextale","true","false","","","","","","","",""
"561","
  <p style=""font-size: 40px;"">tarnish</p>
  <p style=""font-size: 16px;"">F = YES &nbsp;&nbsp;&nbsp; J = NO</p>
","f","html-keyboard-response","45","2.1.0","131963","F=YES, J=NO","h4exn79jel","1","73","85","60","","","","","","lextale","true","false","","","","","","","",""
"611","
  <p style=""font-size: 40px;"">blim</p>
  <p style=""font-size: 16px;"">F = YES &nbsp;&nbsp;&nbsp; J = NO</p>
","f","html-keyboard-response","46","2.1.0","132575","F=YES, J=NO","h4exn79jel","1","73","85","60","","","","","","lextale","false","false","","","","","","","",""
"898","
  <p style=""font-size: 40px;"">stifle</p>
  <p style=""font-size: 16px;"">F = YES &nbsp;&nbsp;&nbsp; J = NO</p>
","f","html-keyboard-response","47","2.1.0","133473","F=YES, J=NO","h4exn79jel","1","73","85","60","","","","","","lextale","true","false","","","","","","","",""
"745","
  <p style=""font-size: 40px;"">bint</p>
  <p style=""font-size: 16px;"">F = YES &nbsp;&nbsp;&nbsp; J = NO</p>
","j","html-keyboard-response","48","2.1.0","134218","F=YES, J=NO","h4exn79jel","1","73","85","60","","","","","","lextale","false","false","","","","","","","",""
"490","
  <p style=""font-size: 40px;"">purple</p>
  <p style=""font-size: 16px;"">F = YES &nbsp;&nbsp;&nbsp; J = NO</p>
","f","html-keyboard-response","49","2.1.0","134709","F=YES, J=NO","h4exn79jel","1","73","85","60","","","","","","lextale","true","false","","","","","","","",""
"1109","
  <p style=""font-size: 40px;"">wriggle</p>
  <p style=""font-size: 16px;"">F = YES &nbsp;&nbsp;&nbsp; J = NO</p>
","f","html-keyboard-response","50","2.1.0","135819","F=YES, J=NO","h4exn79jel","1","73","85","60","","","","","","lextale","true","false","","","","","","","",""
"631","
  <p style=""font-size: 40px;"">mangle</p>
  <p style=""font-size: 16px;"">F = YES &nbsp;&nbsp;&nbsp; J = NO</p>
","f","html-keyboard-response","51","2.1.0","136450","F=YES, J=NO","h4exn79jel","1","73","85","60","","","","","","lextale","true","false","","","","","","","",""
"499","
  <p style=""font-size: 40px;"">shramp</p>
  <p style=""font-size: 16px;"">F = YES &nbsp;&nbsp;&nbsp; J = NO</p>
","f","html-keyboard-response","52","2.1.0","136949","F=YES, J=NO","h4exn79jel","1","73","85","60","","","","","","lextale","false","false","","","","","","","",""
"695","
  <p style=""font-size: 40px;"">flirt</p>
  <p style=""font-size: 16px;"">F = YES &nbsp;&nbsp;&nbsp; J = NO</p>
","f","html-keyboard-response","53","2.1.0","137644","F=YES, J=NO","h4exn79jel","1","73","85","60","","","","","","lextale","true","false","","","","","","","",""
"814","
  <p style=""font-size: 40px;"">frip</p>
  <p style=""font-size: 16px;"">F = YES &nbsp;&nbsp;&nbsp; J = NO</p>
","j","html-keyboard-response","54","2.1.0","138459","F=YES, J=NO","h4exn79jel","1","73","85","60","","","","","","lextale","false","false","","","","","","","",""
"547","
  <p style=""font-size: 40px;"">tangle</p>
  <p style=""font-size: 16px;"">F = YES &nbsp;&nbsp;&nbsp; J = NO</p>
","f","html-keyboard-response","55","2.1.0","139006","F=YES, J=NO","h4exn79jel","1","73","85","60","","","","","","lextale","true","false","","","","","","","",""
"759","
  <p style=""font-size: 40px;"">crumble</p>
  <p style=""font-size: 16px;"">F = YES &nbsp;&nbsp;&nbsp; J = NO</p>
","f","html-keyboard-response","56","2.1.0","139765","F=YES, J=NO","h4exn79jel","1","73","85","60","","","","","","lextale","true","false","","","","","","","",""
"520","
  <p style=""font-size: 40px;"">wrinkle</p>
  <p style=""font-size: 16px;"">F = YES &nbsp;&nbsp;&nbsp; J = NO</p>
","f","html-keyboard-response","57","2.1.0","140285","F=YES, J=NO","h4exn79jel","1","73","85","60","","","","","","lextale","true","false","","","","","","","",""
"1846","
  <p style=""font-size: 40px;"">slumb</p>
  <p style=""font-size: 16px;"">F = YES &nbsp;&nbsp;&nbsp; J = NO</p>
","j","html-keyboard-response","58","2.1.0","142131","F=YES, J=NO","h4exn79jel","1","73","85","60","","","","","","lextale","false","false","","","","","","","",""
"457","
  <p style=""font-size: 40px;"">jungle</p>
  <p style=""font-size: 16px;"">F = YES &nbsp;&nbsp;&nbsp; J = NO</p>
","f","html-keyboard-response","59","2.1.0","142589","F=YES, J=NO","h4exn79jel","1","73","85","60","","","","","","lextale","true","false","","","","","","","",""
"891","
  <p style=""font-size: 40px;"">frolick</p>
  <p style=""font-size: 16px;"">F = YES &nbsp;&nbsp;&nbsp; J = NO</p>
","f","html-keyboard-response","60","2.1.0","143480","F=YES, J=NO","h4exn79jel","1","73","85","60","","","","","","lextale","false","false","","","","","","","",""
"2387","
      <h2>LexTALE Test Completed</h2>
      <p>Your LexTALE vocabulary score is: <strong>73%</strong></p>
      <p>Press any key to continue.</p>
    "," ","html-keyboard-response","61","2.1.0","145868","F=YES, J=NO","h4exn79jel","1","73","85","60","","","","","","","","","","","","","","","",""
"6173","
    <div style=""max-width: 800px; margin: auto; text-align: left;"">
      <h2>Break Time</h2>
      <p>You have completed the first part of the study.</p>
      <p>You may take a short <strong>30-second break</strong> before continuing.</p>
      <p>When you’re ready, press any key to continue to the final task.</p>
    </div>
  "," ","html-keyboard-response","62","2.1.0","152042","F=YES, J=NO","h4exn79jel","1","73","85","60","","","","","","","","","","","","","","","",""
"16670","
    <div style=""max-width: 800px; margin: auto; text-align: left;"">
      <h2>Part 2: Lexical Decision Task</h2>
      <p>You will now begin the second part of the study.</p>
      <p>Each trial will follow this sequence:</p>
      <ul>
        <li>A fixation cross (+) appears at the center of the screen.</li>
        <li>You will hear a short beep followed by a spoken word.</li>
        <li>A written word will appear briefly on the screen.</li>
      </ul>
      <p>Your task is to judge whether the <strong>written word</strong> is a real English word.</p>
      <p style=""margin-top: 1em;""><strong>Key responses:</strong></p>
      <ul>
        <li><strong>F</strong> = YES (real English word)</li>
        <li><strong>J</strong> = NO (not a real English word)</li>
      </ul>
      <p>Please respond as quickly and accurately as you can.</p>
      <p style=""margin-top: 2em;"">Press any key to continue.</p>
    </div>
  "," ","html-keyboard-response","63","2.1.0","168712","F=YES, J=NO","h4exn79jel","1","73","85","60","","","","","","","","","","","","","","","",""
"30910","
    <div style=""max-width: 800px; margin: auto; text-align: left;"">
      <h2>Before You Begin</h2>
      <p>Make sure your sound is turned on.</p>
      <p>You will hear audio during each trial, but your decision should be based only on the <strong>written word</strong> you see on the screen.</p>
      <p><strong>Reminder:</strong></p>
      <ul>
        <li><strong>F</strong> = YES (real English word)</li>
        <li><strong>J</strong> = NO (not a real English word)</li>
      </ul>
      <p style=""margin-top: 2em;"">Press any key when you are ready to begin.</p>
    </div>
  ","f","html-keyboard-response","64","2.1.0","199622","F=YES, J=NO","h4exn79jel","1","73","85","60","","","","","","","","","","","","","","","",""
"2428","
    <div style=""max-width: 800px; margin: auto; text-align: left;"">
      <h2>Part 2: Practice Trials</h2>
      <p>You will now complete a few <strong>practice trials</strong> to get familiar with the task.</p>
      <p>These trials are <strong>not scored</strong> and are only to help you get used to the format.</p>
      <p style=""margin-top: 2em;"">Press any key to begin.</p>
    </div>
  "," ","html-keyboard-response","65","2.1.0","202051","F=YES, J=NO","h4exn79jel","1","73","85","60","","","","","","","","","","","","","","","",""
"927","<p>Starting practice block 1 of 2. Press any key to continue.</p>","f","html-keyboard-response","66","2.1.0","202978","F=YES, J=NO","h4exn79jel","1","73","85","60","","","","","","","","","","","","","","","",""
"null","<p style=""font-size: 50px;"">+</p>","null","html-keyboard-response","67","2.1.0","203287","F=YES, J=NO","h4exn79jel","1","73","85","60","","","","","","","","","","","","","","","",""
"null","audio/beep-329314.mp3","null","audio-keyboard-response","68","2.1.0","205427","F=YES, J=NO","h4exn79jel","1","73","85","60","","","","","","","","","","","","","","","",""
"null","audio/bomb1.wav","null","audio-keyboard-response","69","2.1.0","206006","F=YES, J=NO","h4exn79jel","1","73","85","60","","","","","","","","","","","","","","","",""
"null","
          <p id=""word"" style=""font-size: 40px;"">clean</p>
          <p style=""font-size: 16px;"">F = YES &nbsp;&nbsp;&nbsp; J = NO</p>
        ","null","html-keyboard-response","70","2.1.0","207517","F=YES, J=NO","h4exn79jel","1","73","85","60","","","","","","","","","clean","bomb1","filler","filler","f","false","",""
"null","<p style=""font-size: 50px;"">+</p>","null","html-keyboard-response","71","2.1.0","207826","F=YES, J=NO","h4exn79jel","1","73","85","60","","","","","","","","","","","","","","","",""
"null","audio/beep-329314.mp3","null","audio-keyboard-response","72","2.1.0","209366","F=YES, J=NO","h4exn79jel","1","73","85","60","","","","","","","","","","","","","","","",""
"null","audio/breath.wav","null","audio-keyboard-response","73","2.1.0","209926","F=YES, J=NO","h4exn79jel","1","73","85","60","","","","","","","","","","","","","","","",""
"1048","
          <p id=""word"" style=""font-size: 40px;"">pack</p>
          <p style=""font-size: 16px;"">F = YES &nbsp;&nbsp;&nbsp; J = NO</p>
        ","j","html-keyboard-response","74","2.1.0","210975","F=YES, J=NO","h4exn79jel","1","73","85","60","","","","","","","","","pack","breath","filler","filler","f","false","",""
"null","<p style=""font-size: 50px;"">+</p>","null","html-keyboard-response","75","2.1.0","211279","F=YES, J=NO","h4exn79jel","1","73","85","60","","","","","","","","","","","","","","","",""
"null","audio/beep-329314.mp3","null","audio-keyboard-response","76","2.1.0","212807","F=YES, J=NO","h4exn79jel","1","73","85","60","","","","","","","","","","","","","","","",""
"null","audio/trust.wav","null","audio-keyboard-response","77","2.1.0","213586","F=YES, J=NO","h4exn79jel","1","73","85","60","","","","","","","","","","","","","","","",""
"821","
          <p id=""word"" style=""font-size: 40px;"">swint</p>
          <p style=""font-size: 16px;"">F = YES &nbsp;&nbsp;&nbsp; J = NO</p>
        ","f","html-keyboard-response","78","2.1.0","214408","F=YES, J=NO","h4exn79jel","1","73","85","60","","","","","","","","","swint","trust","pseudoword","pseudoword","j","false","",""
"null","<p style=""font-size: 50px;"">+</p>","null","html-keyboard-response","79","2.1.0","214712","F=YES, J=NO","h4exn79jel","1","73","85","60","","","","","","","","","","","","","","","",""
"null","audio/beep-329314.mp3","null","audio-keyboard-response","80","2.1.0","216246","F=YES, J=NO","h4exn79jel","1","73","85","60","","","","","","","","","","","","","","","",""
"null","audio/baby.wav","null","audio-keyboard-response","81","2.1.0","216726","F=YES, J=NO","h4exn79jel","1","73","85","60","","","","","","","","","","","","","","","",""
"770","
          <p id=""word"" style=""font-size: 40px;"">lift</p>
          <p style=""font-size: 16px;"">F = YES &nbsp;&nbsp;&nbsp; J = NO</p>
        ","f","html-keyboard-response","82","2.1.0","217497","F=YES, J=NO","h4exn79jel","1","73","85","60","","","","","","","","","lift","baby","filler","filler","f","true","",""
"null","<p style=""font-size: 50px;"">+</p>","null","html-keyboard-response","83","2.1.0","217811","F=YES, J=NO","h4exn79jel","1","73","85","60","","","","","","","","","","","","","","","",""
"null","audio/beep-329314.mp3","null","audio-keyboard-response","84","2.1.0","219346","F=YES, J=NO","h4exn79jel","1","73","85","60","","","","","","","","","","","","","","","",""
"null","audio/golf1.wav","null","audio-keyboard-response","85","2.1.0","219906","F=YES, J=NO","h4exn79jel","1","73","85","60","","","","","","","","","","","","","","","",""
"707","
          <p id=""word"" style=""font-size: 40px;"">drabble</p>
          <p style=""font-size: 16px;"">F = YES &nbsp;&nbsp;&nbsp; J = NO</p>
        ","f","html-keyboard-response","86","2.1.0","220614","F=YES, J=NO","h4exn79jel","1","73","85","60","","","","","","","","","drabble","golf1","pseudoword","pseudoword","j","false","",""
"null","<p style=""font-size: 50px;"">+</p>","null","html-keyboard-response","87","2.1.0","220928","F=YES, J=NO","h4exn79jel","1","73","85","60","","","","","","","","","","","","","","","",""
"null","audio/beep-329314.mp3","null","audio-keyboard-response","88","2.1.0","222466","F=YES, J=NO","h4exn79jel","1","73","85","60","","","","","","","","","","","","","","","",""
"null","audio/arm.wav","null","audio-keyboard-response","89","2.1.0","223007","F=YES, J=NO","h4exn79jel","1","73","85","60","","","","","","","","","","","","","","","",""
"697","
          <p id=""word"" style=""font-size: 40px;"">pigne</p>
          <p style=""font-size: 16px;"">F = YES &nbsp;&nbsp;&nbsp; J = NO</p>
        ","j","html-keyboard-response","90","2.1.0","223704","F=YES, J=NO","h4exn79jel","1","73","85","60","","","","","","","","","pigne","arm","pseudoword","pseudoword","j","true","",""
"null","<p style=""font-size: 50px;"">+</p>","null","html-keyboard-response","91","2.1.0","224014","F=YES, J=NO","h4exn79jel","1","73","85","60","","","","","","","","","","","","","","","",""
"null","audio/beep-329314.mp3","null","audio-keyboard-response","92","2.1.0","225546","F=YES, J=NO","h4exn79jel","1","73","85","60","","","","","","","","","","","","","","","",""
"null","audio/gossip1.wav","null","audio-keyboard-response","93","2.1.0","226326","F=YES, J=NO","h4exn79jel","1","73","85","60","","","","","","","","","","","","","","","",""
"620","
          <p id=""word"" style=""font-size: 40px;"">camerish</p>
          <p style=""font-size: 16px;"">F = YES &nbsp;&nbsp;&nbsp; J = NO</p>
        ","f","html-keyboard-response","94","2.1.0","226947","F=YES, J=NO","h4exn79jel","1","73","85","60","","","","","","","","","camerish","gossip1","pseudoword","pseudoword","j","false","",""
"null","<p style=""font-size: 50px;"">+</p>","null","html-keyboard-response","95","2.1.0","227249","F=YES, J=NO","h4exn79jel","1","73","85","60","","","","","","","","","","","","","","","",""
"null","audio/beep-329314.mp3","null","audio-keyboard-response","96","2.1.0","228786","F=YES, J=NO","h4exn79jel","1","73","85","60","","","","","","","","","","","","","","","",""
"null","audio/tunnel.wav","null","audio-keyboard-response","97","2.1.0","229226","F=YES, J=NO","h4exn79jel","1","73","85","60","","","","","","","","","","","","","","","",""
"null","
          <p id=""word"" style=""font-size: 40px;"">gred</p>
          <p style=""font-size: 16px;"">F = YES &nbsp;&nbsp;&nbsp; J = NO</p>
        ","null","html-keyboard-response","98","2.1.0","230732","F=YES, J=NO","h4exn79jel","1","73","85","60","","","","","","","","","gred","tunnel","pseudoword","pseudoword","j","false","",""
"null","<p style=""font-size: 50px;"">+</p>","null","html-keyboard-response","99","2.1.0","231042","F=YES, J=NO","h4exn79jel","1","73","85","60","","","","","","","","","","","","","","","",""
"null","audio/beep-329314.mp3","null","audio-keyboard-response","100","2.1.0","232566","F=YES, J=NO","h4exn79jel","1","73","85","60","","","","","","","","","","","","","","","",""
"null","audio/brain.wav","null","audio-keyboard-response","101","2.1.0","233206","F=YES, J=NO","h4exn79jel","1","73","85","60","","","","","","","","","","","","","","","",""
"1175","
          <p id=""word"" style=""font-size: 40px;"">throw</p>
          <p style=""font-size: 16px;"">F = YES &nbsp;&nbsp;&nbsp; J = NO</p>
        ","f","html-keyboard-response","102","2.1.0","234382","F=YES, J=NO","h4exn79jel","1","73","85","60","","","","","","","","","throw","brain","filler","filler","f","true","",""
"null","<p style=""font-size: 50px;"">+</p>","null","html-keyboard-response","103","2.1.0","234697","F=YES, J=NO","h4exn79jel","1","73","85","60","","","","","","","","","","","","","","","",""
"null","audio/beep-329314.mp3","null","audio-keyboard-response","104","2.1.0","236226","F=YES, J=NO","h4exn79jel","1","73","85","60","","","","","","","","","","","","","","","",""
"null","audio/smirk1.wav","null","audio-keyboard-response","105","2.1.0","237106","F=YES, J=NO","h4exn79jel","1","73","85","60","","","","","","","","","","","","","","","",""
"954","
          <p id=""word"" style=""font-size: 40px;"">snopt</p>
          <p style=""font-size: 16px;"">F = YES &nbsp;&nbsp;&nbsp; J = NO</p>
        ","j","html-keyboard-response","106","2.1.0","238061","F=YES, J=NO","h4exn79jel","1","73","85","60","","","","","","","","","snopt","smirk1","pseudoword","pseudoword","j","true","",""
"null","<p style=""font-size: 50px;"">+</p>","null","html-keyboard-response","107","2.1.0","238372","F=YES, J=NO","h4exn79jel","1","73","85","60","","","","","","","","","","","","","","","",""
"null","audio/beep-329314.mp3","null","audio-keyboard-response","108","2.1.0","239906","F=YES, J=NO","h4exn79jel","1","73","85","60","","","","","","","","","","","","","","","",""
"null","audio/test1.wav","null","audio-keyboard-response","109","2.1.0","240486","F=YES, J=NO","h4exn79jel","1","73","85","60","","","","","","","","","","","","","","","",""
"558","
          <p id=""word"" style=""font-size: 40px;"">twopch</p>
          <p style=""font-size: 16px;"">F = YES &nbsp;&nbsp;&nbsp; J = NO</p>
        ","j","html-keyboard-response","110","2.1.0","241045","F=YES, J=NO","h4exn79jel","1","73","85","60","","","","","","","","","twopch","test1","pseudoword","pseudoword","j","true","",""
"null","<p style=""font-size: 50px;"">+</p>","null","html-keyboard-response","111","2.1.0","241355","F=YES, J=NO","h4exn79jel","1","73","85","60","","","","","","","","","","","","","","","",""
"null","audio/beep-329314.mp3","null","audio-keyboard-response","112","2.1.0","242886","F=YES, J=NO","h4exn79jel","1","73","85","60","","","","","","","","","","","","","","","",""
"null","audio/account1.wav","null","audio-keyboard-response","113","2.1.0","243566","F=YES, J=NO","h4exn79jel","1","73","85","60","","","","","","","","","","","","","","","",""
"672","
          <p id=""word"" style=""font-size: 40px;"">paint</p>
          <p style=""font-size: 16px;"">F = YES &nbsp;&nbsp;&nbsp; J = NO</p>
        ","f","html-keyboard-response","114","2.1.0","244239","F=YES, J=NO","h4exn79jel","1","73","85","60","","","","","","","","","paint","account1","filler","filler","f","true","",""
"1552","<p>Starting practice block 2 of 2. Press any key to continue.</p>"," ","html-keyboard-response","115","2.1.0","245791","F=YES, J=NO","h4exn79jel","1","73","85","60","","","","","","","","","","","","","","","",""
"null","<p style=""font-size: 50px;"">+</p>","null","html-keyboard-response","116","2.1.0","246092","F=YES, J=NO","h4exn79jel","1","73","85","60","","","","","","","","","","","","","","","",""
"null","audio/beep-329314.mp3","null","audio-keyboard-response","117","2.1.0","247626","F=YES, J=NO","h4exn79jel","1","73","85","60","","","","","","","","","","","","","","","",""
"null","audio/mouth1.wav","null","audio-keyboard-response","118","2.1.0","248386","F=YES, J=NO","h4exn79jel","1","73","85","60","","","","","","","","","","","","","","","",""
"803","
          <p id=""word"" style=""font-size: 40px;"">spolial</p>
          <p style=""font-size: 16px;"">F = YES &nbsp;&nbsp;&nbsp; J = NO</p>
        ","j","html-keyboard-response","119","2.1.0","249190","F=YES, J=NO","h4exn79jel","1","73","85","60","","","","","","","","","spolial","mouth1","pseudoword","pseudoword","j","true","",""
"null","<p style=""font-size: 50px;"">+</p>","null","html-keyboard-response","120","2.1.0","249494","F=YES, J=NO","h4exn79jel","1","73","85","60","","","","","","","","","","","","","","","",""
"null","audio/beep-329314.mp3","null","audio-keyboard-response","121","2.1.0","251026","F=YES, J=NO","h4exn79jel","1","73","85","60","","","","","","","","","","","","","","","",""
"null","audio/winter.wav","null","audio-keyboard-response","122","2.1.0","251606","F=YES, J=NO","h4exn79jel","1","73","85","60","","","","","","","","","","","","","","","",""
"897","
          <p id=""word"" style=""font-size: 40px;"">straven</p>
          <p style=""font-size: 16px;"">F = YES &nbsp;&nbsp;&nbsp; J = NO</p>
        ","f","html-keyboard-response","123","2.1.0","252504","F=YES, J=NO","h4exn79jel","1","73","85","60","","","","","","","","","straven","winter","pseudoword","pseudoword","j","false","",""
"null","<p style=""font-size: 50px;"">+</p>","null","html-keyboard-response","124","2.1.0","252819","F=YES, J=NO","h4exn79jel","1","73","85","60","","","","","","","","","","","","","","","",""
"null","audio/beep-329314.mp3","null","audio-keyboard-response","125","2.1.0","254346","F=YES, J=NO","h4exn79jel","1","73","85","60","","","","","","","","","","","","","","","",""
"null","audio/mile1.wav","null","audio-keyboard-response","126","2.1.0","254966","F=YES, J=NO","h4exn79jel","1","73","85","60","","","","","","","","","","","","","","","",""
"852","
          <p id=""word"" style=""font-size: 40px;"">writch</p>
          <p style=""font-size: 16px;"">F = YES &nbsp;&nbsp;&nbsp; J = NO</p>
        ","j","html-keyboard-response","127","2.1.0","255819","F=YES, J=NO","h4exn79jel","1","73","85","60","","","","","","","","","writch","mile1","pseudoword","pseudoword","j","true","",""
"null","<p style=""font-size: 50px;"">+</p>","null","html-keyboard-response","128","2.1.0","256132","F=YES, J=NO","h4exn79jel","1","73","85","60","","","","","","","","","","","","","","","",""
"null","audio/beep-329314.mp3","null","audio-keyboard-response","129","2.1.0","257666","F=YES, J=NO","h4exn79jel","1","73","85","60","","","","","","","","","","","","","","","",""
"null","audio/foot1.wav","null","audio-keyboard-response","130","2.1.0","258226","F=YES, J=NO","h4exn79jel","1","73","85","60","","","","","","","","","","","","","","","",""
"646","
          <p id=""word"" style=""font-size: 40px;"">thrutt</p>
          <p style=""font-size: 16px;"">F = YES &nbsp;&nbsp;&nbsp; J = NO</p>
        ","j","html-keyboard-response","131","2.1.0","258872","F=YES, J=NO","h4exn79jel","1","73","85","60","","","","","","","","","thrutt","foot1","pseudoword","pseudoword","j","true","",""
"null","<p style=""font-size: 50px;"">+</p>","null","html-keyboard-response","132","2.1.0","259185","F=YES, J=NO","h4exn79jel","1","73","85","60","","","","","","","","","","","","","","","",""
"null","audio/beep-329314.mp3","null","audio-keyboard-response","133","2.1.0","260706","F=YES, J=NO","h4exn79jel","1","73","85","60","","","","","","","","","","","","","","","",""
"null","audio/kettle1.wav","null","audio-keyboard-response","134","2.1.0","261186","F=YES, J=NO","h4exn79jel","1","73","85","60","","","","","","","","","","","","","","","",""
"null","
          <p id=""word"" style=""font-size: 40px;"">wrap</p>
          <p style=""font-size: 16px;"">F = YES &nbsp;&nbsp;&nbsp; J = NO</p>
        ","null","html-keyboard-response","135","2.1.0","262692","F=YES, J=NO","h4exn79jel","1","73","85","60","","","","","","","","","wrap","kettle1","filler","filler","f","false","",""
"null","<p style=""font-size: 50px;"">+</p>","null","html-keyboard-response","136","2.1.0","263001","F=YES, J=NO","h4exn79jel","1","73","85","60","","","","","","","","","","","","","","","",""
"null","audio/beep-329314.mp3","null","audio-keyboard-response","137","2.1.0","264526","F=YES, J=NO","h4exn79jel","1","73","85","60","","","","","","","","","","","","","","","",""
"null","audio/camera1.wav","null","audio-keyboard-response","138","2.1.0","265166","F=YES, J=NO","h4exn79jel","1","73","85","60","","","","","","","","","","","","","","","",""
"564","
          <p id=""word"" style=""font-size: 40px;"">stir</p>
          <p style=""font-size: 16px;"">F = YES &nbsp;&nbsp;&nbsp; J = NO</p>
        ","f","html-keyboard-response","139","2.1.0","265731","F=YES, J=NO","h4exn79jel","1","73","85","60","","","","","","","","","stir","camera1","filler","filler","f","true","",""
"null","<p style=""font-size: 50px;"">+</p>","null","html-keyboard-response","140","2.1.0","266037","F=YES, J=NO","h4exn79jel","1","73","85","60","","","","","","","","","","","","","","","",""
"null","audio/beep-329314.mp3","null","audio-keyboard-response","141","2.1.0","267566","F=YES, J=NO","h4exn79jel","1","73","85","60","","","","","","","","","","","","","","","",""
"null","audio/bishop1.wav","null","audio-keyboard-response","142","2.1.0","268306","F=YES, J=NO","h4exn79jel","1","73","85","60","","","","","","","","","","","","","","","",""
"416","
          <p id=""word"" style=""font-size: 40px;"">play</p>
          <p style=""font-size: 16px;"">F = YES &nbsp;&nbsp;&nbsp; J = NO</p>
        ","f","html-keyboard-response","143","2.1.0","268722","F=YES, J=NO","h4exn79jel","1","73","85","60","","","","","","","","","play","bishop1","filler","filler","f","true","",""
"null","<p style=""font-size: 50px;"">+</p>","null","html-keyboard-response","144","2.1.0","269029","F=YES, J=NO","h4exn79jel","1","73","85","60","","","","","","","","","","","","","","","",""
"null","audio/beep-329314.mp3","null","audio-keyboard-response","145","2.1.0","270566","F=YES, J=NO","h4exn79jel","1","73","85","60","","","","","","","","","","","","","","","",""
"null","audio/window1.wav","null","audio-keyboard-response","146","2.1.0","271186","F=YES, J=NO","h4exn79jel","1","73","85","60","","","","","","","","","","","","","","","",""
"605","
          <p id=""word"" style=""font-size: 40px;"">toss</p>
          <p style=""font-size: 16px;"">F = YES &nbsp;&nbsp;&nbsp; J = NO</p>
        ","f","html-keyboard-response","147","2.1.0","271792","F=YES, J=NO","h4exn79jel","1","73","85","60","","","","","","","","","toss","window1","filler","filler","f","true","",""
"null","<p style=""font-size: 50px;"">+</p>","null","html-keyboard-response","148","2.1.0","272102","F=YES, J=NO","h4exn79jel","1","73","85","60","","","","","","","","","","","","","","","",""
"null","audio/beep-329314.mp3","null","audio-keyboard-response","149","2.1.0","273626","F=YES, J=NO","h4exn79jel","1","73","85","60","","","","","","","","","","","","","","","",""
"null","audio/terrain.wav","null","audio-keyboard-response","150","2.1.0","274366","F=YES, J=NO","h4exn79jel","1","73","85","60","","","","","","","","","","","","","","","",""
"578","
          <p id=""word"" style=""font-size: 40px;"">twist</p>
          <p style=""font-size: 16px;"">F = YES &nbsp;&nbsp;&nbsp; J = NO</p>
        ","f","html-keyboard-response","151","2.1.0","274945","F=YES, J=NO","h4exn79jel","1","73","85","60","","","","","","","","","twist","terrain","filler","filler","f","true","",""
"null","<p style=""font-size: 50px;"">+</p>","null","html-keyboard-response","152","2.1.0","275261","F=YES, J=NO","h4exn79jel","1","73","85","60","","","","","","","","","","","","","","","",""
"null","audio/beep-329314.mp3","null","audio-keyboard-response","153","2.1.0","276787","F=YES, J=NO","h4exn79jel","1","73","85","60","","","","","","","","","","","","","","","",""
"null","audio/beach1.wav","null","audio-keyboard-response","154","2.1.0","277386","F=YES, J=NO","h4exn79jel","1","73","85","60","","","","","","","","","","","","","","","",""
"663","
          <p id=""word"" style=""font-size: 40px;"">drive</p>
          <p style=""font-size: 16px;"">F = YES &nbsp;&nbsp;&nbsp; J = NO</p>
        ","f","html-keyboard-response","155","2.1.0","278049","F=YES, J=NO","h4exn79jel","1","73","85","60","","","","","","","","","drive","beach1","filler","filler","f","true","",""
"null","<p style=""font-size: 50px;"">+</p>","null","html-keyboard-response","156","2.1.0","278360","F=YES, J=NO","h4exn79jel","1","73","85","60","","","","","","","","","","","","","","","",""
"null","audio/beep-329314.mp3","null","audio-keyboard-response","157","2.1.0","279886","F=YES, J=NO","h4exn79jel","1","73","85","60","","","","","","","","","","","","","","","",""
"null","audio/battle1.wav","null","audio-keyboard-response","158","2.1.0","280486","F=YES, J=NO","h4exn79jel","1","73","85","60","","","","","","","","","","","","","","","",""
"547","
          <p id=""word"" style=""font-size: 40px;"">boil</p>
          <p style=""font-size: 16px;"">F = YES &nbsp;&nbsp;&nbsp; J = NO</p>
        ","f","html-keyboard-response","159","2.1.0","281034","F=YES, J=NO","h4exn79jel","1","73","85","60","","","","","","","","","boil","battle1","filler","filler","f","true","",""
"null","<p style=""font-size: 50px;"">+</p>","null","html-keyboard-response","160","2.1.0","281342","F=YES, J=NO","h4exn79jel","1","73","85","60","","","","","","","","","","","","","","","",""
"null","audio/beep-329314.mp3","null","audio-keyboard-response","161","2.1.0","282866","F=YES, J=NO","h4exn79jel","1","73","85","60","","","","","","","","","","","","","","","",""
"null","audio/flaw.wav","null","audio-keyboard-response","162","2.1.0","283646","F=YES, J=NO","h4exn79jel","1","73","85","60","","","","","","","","","","","","","","","",""
"512","
          <p id=""word"" style=""font-size: 40px;"">thwool</p>
          <p style=""font-size: 16px;"">F = YES &nbsp;&nbsp;&nbsp; J = NO</p>
        ","f","html-keyboard-response","163","2.1.0","284159","F=YES, J=NO","h4exn79jel","1","73","85","60","","","","","","","","","thwool","flaw","pseudoword","pseudoword","j","false","",""
"11936","
    <div style=""max-width: 800px; margin: auto; text-align: left;"">
      <h2>Part 2: Main Trials</h2>
      <p>Great job on the practice trials!</p>
      <p>You will now begin the <strong>main set of trials</strong>.</p>
      <p>Remember your key assignments:</p>
      <ul>
        <li><strong>F</strong> = YES (real English word)</li>
        <li><strong>J</strong> = NO (not a real English word)</li>
      </ul>
      <p>Try to respond as <strong>quickly and accurately</strong> as possible.</p>
      <p style=""margin-top: 2em;"">Press any key to begin the main trials.</p>
    </div>
  "," ","html-keyboard-response","164","2.1.0","296096","F=YES, J=NO","h4exn79jel","1","73","85","60","","","","","","","","","","","","","","","",""
"1685","<p>Starting main block 1 of 8. Press any key to continue.</p>","f","html-keyboard-response","165","2.1.0","297781","F=YES, J=NO","h4exn79jel","1","73","85","60","","","","","","","","","","","","","","","",""
"null","<p style=""font-size: 50px;"">+</p>","null","html-keyboard-response","166","2.1.0","298089","F=YES, J=NO","h4exn79jel","1","73","85","60","","","","","","","","","","","","","","","",""
"null","audio/beep-329314.mp3","null","audio-keyboard-response","167","2.1.0","299602","F=YES, J=NO","h4exn79jel","1","73","85","60","","","","","","","","","","","","","","","",""
"null","audio/client1.wav","null","audio-keyboard-response","168","2.1.0","300262","F=YES, J=NO","h4exn79jel","1","73","85","60","","","","","","","","","","","","","","","",""
"1493","
          <p id=""word"" style=""font-size: 40px;"">droothe</p>
          <p style=""font-size: 16px;"">F = YES &nbsp;&nbsp;&nbsp; J = NO</p>
        ","j","html-keyboard-response","169","2.1.0","301756","F=YES, J=NO","h4exn79jel","1","73","85","60","","","","","","","","","droothe","client1","pseudoword","pseudoword","j","true","",""
"null","<p style=""font-size: 50px;"">+</p>","null","html-keyboard-response","170","2.1.0","302070","F=YES, J=NO","h4exn79jel","1","73","85","60","","","","","","","","","","","","","","","",""
"null","audio/beep-329314.mp3","null","audio-keyboard-response","171","2.1.0","303603","F=YES, J=NO","h4exn79jel","1","73","85","60","","","","","","","","","","","","","","","",""
"null","audio/bottle.wav","null","audio-keyboard-response","172","2.1.0","304062","F=YES, J=NO","h4exn79jel","1","73","85","60","","","","","","","","","","","","","","","",""
"552","
          <p id=""word"" style=""font-size: 40px;"">watch</p>
          <p style=""font-size: 16px;"">F = YES &nbsp;&nbsp;&nbsp; J = NO</p>
        ","f","html-keyboard-response","173","2.1.0","304614","F=YES, J=NO","h4exn79jel","1","73","85","60","","","","","","","","","watch","bottle","filler","filler","f","true","",""
"null","<p style=""font-size: 50px;"">+</p>","null","html-keyboard-response","174","2.1.0","304918","F=YES, J=NO","h4exn79jel","1","73","85","60","","","","","","","","","","","","","","","",""
"null","audio/beep-329314.mp3","null","audio-keyboard-response","175","2.1.0","306442","F=YES, J=NO","h4exn79jel","1","73","85","60","","","","","","","","","","","","","","","",""
"null","audio/window1.wav","null","audio-keyboard-response","176","2.1.0","307062","F=YES, J=NO","h4exn79jel","1","73","85","60","","","","","","","","","","","","","","","",""
"488","
          <p id=""word"" style=""font-size: 40px;"">break</p>
          <p style=""font-size: 16px;"">F = YES &nbsp;&nbsp;&nbsp; J = NO</p>
        ","f","html-keyboard-response","177","2.1.0","307551","F=YES, J=NO","h4exn79jel","1","73","85","60","","","","","","","","","break","window1","literal","experimental","f","true","",""
"null","<p style=""font-size: 50px;"">+</p>","null","html-keyboard-response","178","2.1.0","307857","F=YES, J=NO","h4exn79jel","1","73","85","60","","","","","","","","","","","","","","","",""
"null","audio/beep-329314.mp3","null","audio-keyboard-response","179","2.1.0","309382","F=YES, J=NO","h4exn79jel","1","73","85","60","","","","","","","","","","","","","","","",""
"null","audio/bush1.wav","null","audio-keyboard-response","180","2.1.0","309862","F=YES, J=NO","h4exn79jel","1","73","85","60","","","","","","","","","","","","","","","",""
"645","
          <p id=""word"" style=""font-size: 40px;"">platined</p>
          <p style=""font-size: 16px;"">F = YES &nbsp;&nbsp;&nbsp; J = NO</p>
        ","f","html-keyboard-response","181","2.1.0","310507","F=YES, J=NO","h4exn79jel","1","73","85","60","","","","","","","","","platined","bush1","pseudoword","pseudoword","j","false","",""
"null","<p style=""font-size: 50px;"">+</p>","null","html-keyboard-response","182","2.1.0","310822","F=YES, J=NO","h4exn79jel","1","73","85","60","","","","","","","","","","","","","","","",""
"null","audio/beep-329314.mp3","null","audio-keyboard-response","183","2.1.0","312362","F=YES, J=NO","h4exn79jel","1","73","85","60","","","","","","","","","","","","","","","",""
"null","audio/noise1.wav","null","audio-keyboard-response","184","2.1.0","312982","F=YES, J=NO","h4exn79jel","1","73","85","60","","","","","","","","","","","","","","","",""
"430","
          <p id=""word"" style=""font-size: 40px;"">slintered</p>
          <p style=""font-size: 16px;"">F = YES &nbsp;&nbsp;&nbsp; J = NO</p>
        ","j","html-keyboard-response","185","2.1.0","313413","F=YES, J=NO","h4exn79jel","1","73","85","60","","","","","","","","","slintered","noise1","pseudoword","pseudoword","j","true","",""
"null","<p style=""font-size: 50px;"">+</p>","null","html-keyboard-response","186","2.1.0","313725","F=YES, J=NO","h4exn79jel","1","73","85","60","","","","","","","","","","","","","","","",""
"null","audio/beep-329314.mp3","null","audio-keyboard-response","187","2.1.0","315262","F=YES, J=NO","h4exn79jel","1","73","85","60","","","","","","","","","","","","","","","",""
"null","audio/scar.wav","null","audio-keyboard-response","188","2.1.0","315862","F=YES, J=NO","h4exn79jel","1","73","85","60","","","","","","","","","","","","","","","",""
"712","
          <p id=""word"" style=""font-size: 40px;"">adelineate</p>
          <p style=""font-size: 16px;"">F = YES &nbsp;&nbsp;&nbsp; J = NO</p>
        ","j","html-keyboard-response","189","2.1.0","316575","F=YES, J=NO","h4exn79jel","1","73","85","60","","","","","","","","","adelineate","scar","pseudoword","pseudoword","j","true","",""
"null","<p style=""font-size: 50px;"">+</p>","null","html-keyboard-response","190","2.1.0","316884","F=YES, J=NO","h4exn79jel","1","73","85","60","","","","","","","","","","","","","","","",""
"null","audio/beep-329314.mp3","null","audio-keyboard-response","191","2.1.0","318422","F=YES, J=NO","h4exn79jel","1","73","85","60","","","","","","","","","","","","","","","",""
"null","audio/chance.wav","null","audio-keyboard-response","192","2.1.0","319062","F=YES, J=NO","h4exn79jel","1","73","85","60","","","","","","","","","","","","","","","",""
"630","
          <p id=""word"" style=""font-size: 40px;"">seize</p>
          <p style=""font-size: 16px;"">F = YES &nbsp;&nbsp;&nbsp; J = NO</p>
        ","f","html-keyboard-response","193","2.1.0","319693","F=YES, J=NO","h4exn79jel","1","73","85","60","","","","","","","","","seize","chance","metaphor","experimental","f","true","",""
"null","<p style=""font-size: 50px;"">+</p>","null","html-keyboard-response","194","2.1.0","320001","F=YES, J=NO","h4exn79jel","1","73","85","60","","","","","","","","","","","","","","","",""
"null","audio/beep-329314.mp3","null","audio-keyboard-response","195","2.1.0","321522","F=YES, J=NO","h4exn79jel","1","73","85","60","","","","","","","","","","","","","","","",""
"null","audio/pizza1.wav","null","audio-keyboard-response","196","2.1.0","322102","F=YES, J=NO","h4exn79jel","1","73","85","60","","","","","","","","","","","","","","","",""
"842","
          <p id=""word"" style=""font-size: 40px;"">devour</p>
          <p style=""font-size: 16px;"">F = YES &nbsp;&nbsp;&nbsp; J = NO</p>
        ","f","html-keyboard-response","197","2.1.0","322944","F=YES, J=NO","h4exn79jel","1","73","85","60","","","","","","","","","devour","pizza1","literal","experimental","f","true","",""
"null","<p style=""font-size: 50px;"">+</p>","null","html-keyboard-response","198","2.1.0","323245","F=YES, J=NO","h4exn79jel","1","73","85","60","","","","","","","","","","","","","","","",""
"null","audio/beep-329314.mp3","null","audio-keyboard-response","199","2.1.0","324782","F=YES, J=NO","h4exn79jel","1","73","85","60","","","","","","","","","","","","","","","",""
"null","audio/purpose.wav","null","audio-keyboard-response","200","2.1.0","325462","F=YES, J=NO","h4exn79jel","1","73","85","60","","","","","","","","","","","","","","","",""
"508","
          <p id=""word"" style=""font-size: 40px;"">whigm</p>
          <p style=""font-size: 16px;"">F = YES &nbsp;&nbsp;&nbsp; J = NO</p>
        ","j","html-keyboard-response","201","2.1.0","325971","F=YES, J=NO","h4exn79jel","1","73","85","60","","","","","","","","","whigm","purpose","pseudoword","pseudoword","j","true","",""
"null","<p style=""font-size: 50px;"">+</p>","null","html-keyboard-response","202","2.1.0","326275","F=YES, J=NO","h4exn79jel","1","73","85","60","","","","","","","","","","","","","","","",""
"null","audio/beep-329314.mp3","null","audio-keyboard-response","203","2.1.0","327802","F=YES, J=NO","h4exn79jel","1","73","85","60","","","","","","","","","","","","","","","",""
"null","audio/test1.wav","null","audio-keyboard-response","204","2.1.0","328382","F=YES, J=NO","h4exn79jel","1","73","85","60","","","","","","","","","","","","","","","",""
"559","
          <p id=""word"" style=""font-size: 40px;"">run</p>
          <p style=""font-size: 16px;"">F = YES &nbsp;&nbsp;&nbsp; J = NO</p>
        ","f","html-keyboard-response","205","2.1.0","328941","F=YES, J=NO","h4exn79jel","1","73","85","60","","","","","","","","","run","test1","metaphor","experimental","f","true","",""
"null","<p style=""font-size: 50px;"">+</p>","null","html-keyboard-response","206","2.1.0","329245","F=YES, J=NO","h4exn79jel","1","73","85","60","","","","","","","","","","","","","","","",""
"null","audio/beep-329314.mp3","null","audio-keyboard-response","207","2.1.0","330782","F=YES, J=NO","h4exn79jel","1","73","85","60","","","","","","","","","","","","","","","",""
"null","audio/holiday1.wav","null","audio-keyboard-response","208","2.1.0","331423","F=YES, J=NO","h4exn79jel","1","73","85","60","","","","","","","","","","","","","","","",""
"882","
          <p id=""word"" style=""font-size: 40px;"">drivets</p>
          <p style=""font-size: 16px;"">F = YES &nbsp;&nbsp;&nbsp; J = NO</p>
        ","j","html-keyboard-response","209","2.1.0","332305","F=YES, J=NO","h4exn79jel","1","73","85","60","","","","","","","","","drivets","holiday1","pseudoword","pseudoword","j","true","",""
"null","<p style=""font-size: 50px;"">+</p>","null","html-keyboard-response","210","2.1.0","332611","F=YES, J=NO","h4exn79jel","1","73","85","60","","","","","","","","","","","","","","","",""
"null","audio/beep-329314.mp3","null","audio-keyboard-response","211","2.1.0","334142","F=YES, J=NO","h4exn79jel","1","73","85","60","","","","","","","","","","","","","","","",""
"null","audio/breath.wav","null","audio-keyboard-response","212","2.1.0","334702","F=YES, J=NO","h4exn79jel","1","73","85","60","","","","","","","","","","","","","","","",""
"813","
          <p id=""word"" style=""font-size: 40px;"">twets</p>
          <p style=""font-size: 16px;"">F = YES &nbsp;&nbsp;&nbsp; J = NO</p>
        ","j","html-keyboard-response","213","2.1.0","335515","F=YES, J=NO","h4exn79jel","1","73","85","60","","","","","","","","","twets","breath","pseudoword","pseudoword","j","true","",""
"null","<p style=""font-size: 50px;"">+</p>","null","html-keyboard-response","214","2.1.0","335817","F=YES, J=NO","h4exn79jel","1","73","85","60","","","","","","","","","","","","","","","",""
"null","audio/beep-329314.mp3","null","audio-keyboard-response","215","2.1.0","337342","F=YES, J=NO","h4exn79jel","1","73","85","60","","","","","","","","","","","","","","","",""
"null","audio/meal.wav","null","audio-keyboard-response","216","2.1.0","337802","F=YES, J=NO","h4exn79jel","1","73","85","60","","","","","","","","","","","","","","","",""
"607","
          <p id=""word"" style=""font-size: 40px;"">gallite</p>
          <p style=""font-size: 16px;"">F = YES &nbsp;&nbsp;&nbsp; J = NO</p>
        ","j","html-keyboard-response","217","2.1.0","338409","F=YES, J=NO","h4exn79jel","1","73","85","60","","","","","","","","","gallite","meal","pseudoword","pseudoword","j","true","",""
"null","<p style=""font-size: 50px;"">+</p>","null","html-keyboard-response","218","2.1.0","338721","F=YES, J=NO","h4exn79jel","1","73","85","60","","","","","","","","","","","","","","","",""
"null","audio/beep-329314.mp3","null","audio-keyboard-response","219","2.1.0","340242","F=YES, J=NO","h4exn79jel","1","73","85","60","","","","","","","","","","","","","","","",""
"null","audio/life1.wav","null","audio-keyboard-response","220","2.1.0","340802","F=YES, J=NO","h4exn79jel","1","73","85","60","","","","","","","","","","","","","","","",""
"563","
          <p id=""word"" style=""font-size: 40px;"">give</p>
          <p style=""font-size: 16px;"">F = YES &nbsp;&nbsp;&nbsp; J = NO</p>
        ","f","html-keyboard-response","221","2.1.0","341365","F=YES, J=NO","h4exn79jel","1","73","85","60","","","","","","","","","give","life1","metaphor","experimental","f","true","",""
"null","<p style=""font-size: 50px;"">+</p>","null","html-keyboard-response","222","2.1.0","341678","F=YES, J=NO","h4exn79jel","1","73","85","60","","","","","","","","","","","","","","","",""
"null","audio/beep-329314.mp3","null","audio-keyboard-response","223","2.1.0","343202","F=YES, J=NO","h4exn79jel","1","73","85","60","","","","","","","","","","","","","","","",""
"null","audio/pig.wav","null","audio-keyboard-response","224","2.1.0","343602","F=YES, J=NO","h4exn79jel","1","73","85","60","","","","","","","","","","","","","","","",""
"481","
          <p id=""word"" style=""font-size: 40px;"">feed</p>
          <p style=""font-size: 16px;"">F = YES &nbsp;&nbsp;&nbsp; J = NO</p>
        ","f","html-keyboard-response","225","2.1.0","344083","F=YES, J=NO","h4exn79jel","1","73","85","60","","","","","","","","","feed","pig","literal","experimental","f","true","",""
"null","<p style=""font-size: 50px;"">+</p>","null","html-keyboard-response","226","2.1.0","344388","F=YES, J=NO","h4exn79jel","1","73","85","60","","","","","","","","","","","","","","","",""
"null","audio/beep-329314.mp3","null","audio-keyboard-response","227","2.1.0","345922","F=YES, J=NO","h4exn79jel","1","73","85","60","","","","","","","","","","","","","","","",""
"null","audio/van1.wav","null","audio-keyboard-response","228","2.1.0","346422","F=YES, J=NO","h4exn79jel","1","73","85","60","","","","","","","","","","","","","","","",""
"512","
          <p id=""word"" style=""font-size: 40px;"">push</p>
          <p style=""font-size: 16px;"">F = YES &nbsp;&nbsp;&nbsp; J = NO</p>
        ","f","html-keyboard-response","229","2.1.0","346935","F=YES, J=NO","h4exn79jel","1","73","85","60","","","","","","","","","push","van1","filler","filler","f","true","",""
"23862","<p>Excellent! You have finished block 1 of 8.</p>
                     <p>Feel free to take a 30 second break.</p>
                     <p>Press any key when you're ready to continue.</p>","f","html-keyboard-response","230","2.1.0","370797","F=YES, J=NO","h4exn79jel","1","73","85","60","","","","","","","","","","","","","","","",""
"554","<p>Starting main block 2 of 8. Press any key to continue.</p>","f","html-keyboard-response","231","2.1.0","371352","F=YES, J=NO","h4exn79jel","1","73","85","60","","","","","","","","","","","","","","","",""
"null","<p style=""font-size: 50px;"">+</p>","null","html-keyboard-response","232","2.1.0","371661","F=YES, J=NO","h4exn79jel","1","73","85","60","","","","","","","","","","","","","","","",""
"null","audio/beep-329314.mp3","null","audio-keyboard-response","233","2.1.0","373792","F=YES, J=NO","h4exn79jel","1","73","85","60","","","","","","","","","","","","","","","",""
"null","audio/trout1.wav","null","audio-keyboard-response","234","2.1.0","374372","F=YES, J=NO","h4exn79jel","1","73","85","60","","","","","","","","","","","","","","","",""
"693","
          <p id=""word"" style=""font-size: 40px;"">catch</p>
          <p style=""font-size: 16px;"">F = YES &nbsp;&nbsp;&nbsp; J = NO</p>
        ","f","html-keyboard-response","235","2.1.0","375066","F=YES, J=NO","h4exn79jel","1","73","85","60","","","","","","","","","catch","trout1","literal","experimental","f","true","",""
"null","<p style=""font-size: 50px;"">+</p>","null","html-keyboard-response","236","2.1.0","375376","F=YES, J=NO","h4exn79jel","1","73","85","60","","","","","","","","","","","","","","","",""
"null","audio/beep-329314.mp3","null","audio-keyboard-response","237","2.1.0","376912","F=YES, J=NO","h4exn79jel","1","73","85","60","","","","","","","","","","","","","","","",""
"null","audio/butter1.wav","null","audio-keyboard-response","238","2.1.0","377372","F=YES, J=NO","h4exn79jel","1","73","85","60","","","","","","","","","","","","","","","",""
"749","
          <p id=""word"" style=""font-size: 40px;"">chew</p>
          <p style=""font-size: 16px;"">F = YES &nbsp;&nbsp;&nbsp; J = NO</p>
        ","f","html-keyboard-response","239","2.1.0","378121","F=YES, J=NO","h4exn79jel","1","73","85","60","","","","","","","","","chew","butter1","filler","filler","f","true","",""
"null","<p style=""font-size: 50px;"">+</p>","null","html-keyboard-response","240","2.1.0","378432","F=YES, J=NO","h4exn79jel","1","73","85","60","","","","","","","","","","","","","","","",""
"null","audio/beep-329314.mp3","null","audio-keyboard-response","241","2.1.0","379972","F=YES, J=NO","h4exn79jel","1","73","85","60","","","","","","","","","","","","","","","",""
"null","audio/tomato.wav","null","audio-keyboard-response","242","2.1.0","380652","F=YES, J=NO","h4exn79jel","1","73","85","60","","","","","","","","","","","","","","","",""
"1239","
          <p id=""word"" style=""font-size: 40px;"">gladies</p>
          <p style=""font-size: 16px;"">F = YES &nbsp;&nbsp;&nbsp; J = NO</p>
        ","j","html-keyboard-response","243","2.1.0","381892","F=YES, J=NO","h4exn79jel","1","73","85","60","","","","","","","","","gladies","tomato","pseudoword","pseudoword","j","true","",""
"null","<p style=""font-size: 50px;"">+</p>","null","html-keyboard-response","244","2.1.0","382194","F=YES, J=NO","h4exn79jel","1","73","85","60","","","","","","","","","","","","","","","",""
"null","audio/beep-329314.mp3","null","audio-keyboard-response","245","2.1.0","383732","F=YES, J=NO","h4exn79jel","1","73","85","60","","","","","","","","","","","","","","","",""
"null","audio/cloud1.wav","null","audio-keyboard-response","246","2.1.0","384292","F=YES, J=NO","h4exn79jel","1","73","85","60","","","","","","","","","","","","","","","",""
"788","
          <p id=""word"" style=""font-size: 40px;"">brotant</p>
          <p style=""font-size: 16px;"">F = YES &nbsp;&nbsp;&nbsp; J = NO</p>
        ","j","html-keyboard-response","247","2.1.0","385081","F=YES, J=NO","h4exn79jel","1","73","85","60","","","","","","","","","brotant","cloud1","pseudoword","pseudoword","j","true","",""
"null","<p style=""font-size: 50px;"">+</p>","null","html-keyboard-response","248","2.1.0","385386","F=YES, J=NO","h4exn79jel","1","73","85","60","","","","","","","","","","","","","","","",""
"null","audio/beep-329314.mp3","null","audio-keyboard-response","249","2.1.0","386912","F=YES, J=NO","h4exn79jel","1","73","85","60","","","","","","","","","","","","","","","",""
"null","audio/ankle1.wav","null","audio-keyboard-response","250","2.1.0","387452","F=YES, J=NO","h4exn79jel","1","73","85","60","","","","","","","","","","","","","","","",""
"591","
          <p id=""word"" style=""font-size: 40px;"">kick</p>
          <p style=""font-size: 16px;"">F = YES &nbsp;&nbsp;&nbsp; J = NO</p>
        ","f","html-keyboard-response","251","2.1.0","388044","F=YES, J=NO","h4exn79jel","1","73","85","60","","","","","","","","","kick","ankle1","filler","filler","f","true","",""
"null","<p style=""font-size: 50px;"">+</p>","null","html-keyboard-response","252","2.1.0","388359","F=YES, J=NO","h4exn79jel","1","73","85","60","","","","","","","","","","","","","","","",""
"null","audio/beep-329314.mp3","null","audio-keyboard-response","253","2.1.0","389893","F=YES, J=NO","h4exn79jel","1","73","85","60","","","","","","","","","","","","","","","",""
"null","audio/foe1.wav","null","audio-keyboard-response","254","2.1.0","390412","F=YES, J=NO","h4exn79jel","1","73","85","60","","","","","","","","","","","","","","","",""
"574","
          <p id=""word"" style=""font-size: 40px;"">conquer</p>
          <p style=""font-size: 16px;"">F = YES &nbsp;&nbsp;&nbsp; J = NO</p>
        ","f","html-keyboard-response","255","2.1.0","390987","F=YES, J=NO","h4exn79jel","1","73","85","60","","","","","","","","","conquer","foe1","literal","experimental","f","true","",""
"null","<p style=""font-size: 50px;"">+</p>","null","html-keyboard-response","256","2.1.0","391299","F=YES, J=NO","h4exn79jel","1","73","85","60","","","","","","","","","","","","","","","",""
"null","audio/beep-329314.mp3","null","audio-keyboard-response","257","2.1.0","392832","F=YES, J=NO","h4exn79jel","1","73","85","60","","","","","","","","","","","","","","","",""
"null","audio/foot1.wav","null","audio-keyboard-response","258","2.1.0","393392","F=YES, J=NO","h4exn79jel","1","73","85","60","","","","","","","","","","","","","","","",""
"586","
          <p id=""word"" style=""font-size: 40px;"">close</p>
          <p style=""font-size: 16px;"">F = YES &nbsp;&nbsp;&nbsp; J = NO</p>
        ","f","html-keyboard-response","259","2.1.0","393979","F=YES, J=NO","h4exn79jel","1","73","85","60","","","","","","","","","close","foot1","unrelated","experimental","f","true","",""
"null","<p style=""font-size: 50px;"">+</p>","null","html-keyboard-response","260","2.1.0","394292","F=YES, J=NO","h4exn79jel","1","73","85","60","","","","","","","","","","","","","","","",""
"null","audio/beep-329314.mp3","null","audio-keyboard-response","261","2.1.0","395812","F=YES, J=NO","h4exn79jel","1","73","85","60","","","","","","","","","","","","","","","",""
"null","audio/planet1.wav","null","audio-keyboard-response","262","2.1.0","396412","F=YES, J=NO","h4exn79jel","1","73","85","60","","","","","","","","","","","","","","","",""
"881","
          <p id=""word"" style=""font-size: 40px;"">cratched</p>
          <p style=""font-size: 16px;"">F = YES &nbsp;&nbsp;&nbsp; J = NO</p>
        ","j","html-keyboard-response","263","2.1.0","397294","F=YES, J=NO","h4exn79jel","1","73","85","60","","","","","","","","","cratched","planet1","pseudoword","pseudoword","j","true","",""
"null","<p style=""font-size: 50px;"">+</p>","null","html-keyboard-response","264","2.1.0","397598","F=YES, J=NO","h4exn79jel","1","73","85","60","","","","","","","","","","","","","","","",""
"null","audio/beep-329314.mp3","null","audio-keyboard-response","265","2.1.0","399132","F=YES, J=NO","h4exn79jel","1","73","85","60","","","","","","","","","","","","","","","",""
"null","audio/cinema1.wav","null","audio-keyboard-response","266","2.1.0","399752","F=YES, J=NO","h4exn79jel","1","73","85","60","","","","","","","","","","","","","","","",""
"645","
          <p id=""word"" style=""font-size: 40px;"">murple</p>
          <p style=""font-size: 16px;"">F = YES &nbsp;&nbsp;&nbsp; J = NO</p>
        ","j","html-keyboard-response","267","2.1.0","400398","F=YES, J=NO","h4exn79jel","1","73","85","60","","","","","","","","","murple","cinema1","pseudoword","pseudoword","j","true","",""
"null","<p style=""font-size: 50px;"">+</p>","null","html-keyboard-response","268","2.1.0","400704","F=YES, J=NO","h4exn79jel","1","73","85","60","","","","","","","","","","","","","","","",""
"null","audio/beep-329314.mp3","null","audio-keyboard-response","269","2.1.0","402232","F=YES, J=NO","h4exn79jel","1","73","85","60","","","","","","","","","","","","","","","",""
"null","audio/truth1.wav","null","audio-keyboard-response","270","2.1.0","402792","F=YES, J=NO","h4exn79jel","1","73","85","60","","","","","","","","","","","","","","","",""
"590","
          <p id=""word"" style=""font-size: 40px;"">calitom</p>
          <p style=""font-size: 16px;"">F = YES &nbsp;&nbsp;&nbsp; J = NO</p>
        ","j","html-keyboard-response","271","2.1.0","403383","F=YES, J=NO","h4exn79jel","1","73","85","60","","","","","","","","","calitom","truth1","pseudoword","pseudoword","j","true","",""
"null","<p style=""font-size: 50px;"">+</p>","null","html-keyboard-response","272","2.1.0","403697","F=YES, J=NO","h4exn79jel","1","73","85","60","","","","","","","","","","","","","","","",""
"null","audio/beep-329314.mp3","null","audio-keyboard-response","273","2.1.0","405232","F=YES, J=NO","h4exn79jel","1","73","85","60","","","","","","","","","","","","","","","",""
"null","audio/effort.wav","null","audio-keyboard-response","274","2.1.0","405832","F=YES, J=NO","h4exn79jel","1","73","85","60","","","","","","","","","","","","","","","",""
"506","
          <p id=""word"" style=""font-size: 40px;"">whonk</p>
          <p style=""font-size: 16px;"">F = YES &nbsp;&nbsp;&nbsp; J = NO</p>
        ","j","html-keyboard-response","275","2.1.0","406339","F=YES, J=NO","h4exn79jel","1","73","85","60","","","","","","","","","whonk","effort","pseudoword","pseudoword","j","true","",""
"null","<p style=""font-size: 50px;"">+</p>","null","html-keyboard-response","276","2.1.0","406644","F=YES, J=NO","h4exn79jel","1","73","85","60","","","","","","","","","","","","","","","",""
"null","audio/beep-329314.mp3","null","audio-keyboard-response","277","2.1.0","408172","F=YES, J=NO","h4exn79jel","1","73","85","60","","","","","","","","","","","","","","","",""
"null","audio/novel.wav","null","audio-keyboard-response","278","2.1.0","408673","F=YES, J=NO","h4exn79jel","1","73","85","60","","","","","","","","","","","","","","","",""
"489","
          <p id=""word"" style=""font-size: 40px;"">type</p>
          <p style=""font-size: 16px;"">F = YES &nbsp;&nbsp;&nbsp; J = NO</p>
        ","f","html-keyboard-response","279","2.1.0","409162","F=YES, J=NO","h4exn79jel","1","73","85","60","","","","","","","","","type","novel","filler","filler","f","true","",""
"null","<p style=""font-size: 50px;"">+</p>","null","html-keyboard-response","280","2.1.0","409469","F=YES, J=NO","h4exn79jel","1","73","85","60","","","","","","","","","","","","","","","",""
"null","audio/beep-329314.mp3","null","audio-keyboard-response","281","2.1.0","410992","F=YES, J=NO","h4exn79jel","1","73","85","60","","","","","","","","","","","","","","","",""
"null","audio/radio1.wav","null","audio-keyboard-response","282","2.1.0","411592","F=YES, J=NO","h4exn79jel","1","73","85","60","","","","","","","","","","","","","","","",""
"644","
          <p id=""word"" style=""font-size: 40px;"">blanter</p>
          <p style=""font-size: 16px;"">F = YES &nbsp;&nbsp;&nbsp; J = NO</p>
        ","j","html-keyboard-response","283","2.1.0","412237","F=YES, J=NO","h4exn79jel","1","73","85","60","","","","","","","","","blanter","radio1","pseudoword","pseudoword","j","true","",""
"null","<p style=""font-size: 50px;"">+</p>","null","html-keyboard-response","284","2.1.0","412551","F=YES, J=NO","h4exn79jel","1","73","85","60","","","","","","","","","","","","","","","",""
"null","audio/beep-329314.mp3","null","audio-keyboard-response","285","2.1.0","414073","F=YES, J=NO","h4exn79jel","1","73","85","60","","","","","","","","","","","","","","","",""
"null","audio/tomato.wav","null","audio-keyboard-response","286","2.1.0","414753","F=YES, J=NO","h4exn79jel","1","73","85","60","","","","","","","","","","","","","","","",""
"397","
          <p id=""word"" style=""font-size: 40px;"">grow</p>
          <p style=""font-size: 16px;"">F = YES &nbsp;&nbsp;&nbsp; J = NO</p>
        ","f","html-keyboard-response","287","2.1.0","415150","F=YES, J=NO","h4exn79jel","1","73","85","60","","","","","","","","","grow","tomato","literal","experimental","f","true","",""
"null","<p style=""font-size: 50px;"">+</p>","null","html-keyboard-response","288","2.1.0","415459","F=YES, J=NO","h4exn79jel","1","73","85","60","","","","","","","","","","","","","","","",""
"null","audio/beep-329314.mp3","null","audio-keyboard-response","289","2.1.0","416992","F=YES, J=NO","h4exn79jel","1","73","85","60","","","","","","","","","","","","","","","",""
"null","audio/uncle1.wav","null","audio-keyboard-response","290","2.1.0","417472","F=YES, J=NO","h4exn79jel","1","73","85","60","","","","","","","","","","","","","","","",""
"598","
          <p id=""word"" style=""font-size: 40px;"">dramble</p>
          <p style=""font-size: 16px;"">F = YES &nbsp;&nbsp;&nbsp; J = NO</p>
        ","j","html-keyboard-response","291","2.1.0","418070","F=YES, J=NO","h4exn79jel","1","73","85","60","","","","","","","","","dramble","uncle1","pseudoword","pseudoword","j","true","",""
"null","<p style=""font-size: 50px;"">+</p>","null","html-keyboard-response","292","2.1.0","418377","F=YES, J=NO","h4exn79jel","1","73","85","60","","","","","","","","","","","","","","","",""
"null","audio/beep-329314.mp3","null","audio-keyboard-response","293","2.1.0","419912","F=YES, J=NO","h4exn79jel","1","73","85","60","","","","","","","","","","","","","","","",""
"null","audio/corpse1.wav","null","audio-keyboard-response","294","2.1.0","420552","F=YES, J=NO","h4exn79jel","1","73","85","60","","","","","","","","","","","","","","","",""
"530","
          <p id=""word"" style=""font-size: 40px;"">glonet</p>
          <p style=""font-size: 16px;"">F = YES &nbsp;&nbsp;&nbsp; J = NO</p>
        ","j","html-keyboard-response","295","2.1.0","421082","F=YES, J=NO","h4exn79jel","1","73","85","60","","","","","","","","","glonet","corpse1","pseudoword","pseudoword","j","true","",""
"1509","<p>Excellent! You have finished block 2 of 8.</p>
                     <p>Feel free to take a 30 second break.</p>
                     <p>Press any key when you're ready to continue.</p>"," ","html-keyboard-response","296","2.1.0","422591","F=YES, J=NO","h4exn79jel","1","73","85","60","","","","","","","","","","","","","","","",""
"997","<p>Starting main block 3 of 8. Press any key to continue.</p>"," ","html-keyboard-response","297","2.1.0","423588","F=YES, J=NO","h4exn79jel","1","73","85","60","","","","","","","","","","","","","","","",""
"null","<p style=""font-size: 50px;"">+</p>","null","html-keyboard-response","298","2.1.0","423889","F=YES, J=NO","h4exn79jel","1","73","85","60","","","","","","","","","","","","","","","",""
"null","audio/beep-329314.mp3","null","audio-keyboard-response","299","2.1.0","425413","F=YES, J=NO","h4exn79jel","1","73","85","60","","","","","","","","","","","","","","","",""
"null","audio/dollar.wav","null","audio-keyboard-response","300","2.1.0","425812","F=YES, J=NO","h4exn79jel","1","73","85","60","","","","","","","","","","","","","","","",""
"752","
          <p id=""word"" style=""font-size: 40px;"">gliptism</p>
          <p style=""font-size: 16px;"">F = YES &nbsp;&nbsp;&nbsp; J = NO</p>
        ","j","html-keyboard-response","301","2.1.0","426565","F=YES, J=NO","h4exn79jel","1","73","85","60","","","","","","","","","gliptism","dollar","pseudoword","pseudoword","j","true","",""
"null","<p style=""font-size: 50px;"">+</p>","null","html-keyboard-response","302","2.1.0","426873","F=YES, J=NO","h4exn79jel","1","73","85","60","","","","","","","","","","","","","","","",""
"null","audio/beep-329314.mp3","null","audio-keyboard-response","303","2.1.0","428412","F=YES, J=NO","h4exn79jel","1","73","85","60","","","","","","","","","","","","","","","",""
"null","audio/relief.wav","null","audio-keyboard-response","304","2.1.0","429072","F=YES, J=NO","h4exn79jel","1","73","85","60","","","","","","","","","","","","","","","",""
"496","
          <p id=""word"" style=""font-size: 40px;"">grigg</p>
          <p style=""font-size: 16px;"">F = YES &nbsp;&nbsp;&nbsp; J = NO</p>
        ","f","html-keyboard-response","305","2.1.0","429569","F=YES, J=NO","h4exn79jel","1","73","85","60","","","","","","","","","grigg","relief","pseudoword","pseudoword","j","false","",""
"null","<p style=""font-size: 50px;"">+</p>","null","html-keyboard-response","306","2.1.0","429875","F=YES, J=NO","h4exn79jel","1","73","85","60","","","","","","","","","","","","","","","",""
"null","audio/beep-329314.mp3","null","audio-keyboard-response","307","2.1.0","431412","F=YES, J=NO","h4exn79jel","1","73","85","60","","","","","","","","","","","","","","","",""
"null","audio/alarm1.wav","null","audio-keyboard-response","308","2.1.0","432012","F=YES, J=NO","h4exn79jel","1","73","85","60","","","","","","","","","","","","","","","",""
"722","
          <p id=""word"" style=""font-size: 40px;"">swetp</p>
          <p style=""font-size: 16px;"">F = YES &nbsp;&nbsp;&nbsp; J = NO</p>
        ","j","html-keyboard-response","309","2.1.0","432735","F=YES, J=NO","h4exn79jel","1","73","85","60","","","","","","","","","swetp","alarm1","pseudoword","pseudoword","j","true","",""
"null","<p style=""font-size: 50px;"">+</p>","null","html-keyboard-response","310","2.1.0","433046","F=YES, J=NO","h4exn79jel","1","73","85","60","","","","","","","","","","","","","","","",""
"null","audio/beep-329314.mp3","null","audio-keyboard-response","311","2.1.0","434572","F=YES, J=NO","h4exn79jel","1","73","85","60","","","","","","","","","","","","","","","",""
"null","audio/neck.wav","null","audio-keyboard-response","312","2.1.0","435112","F=YES, J=NO","h4exn79jel","1","73","85","60","","","","","","","","","","","","","","","",""
"802","
          <p id=""word"" style=""font-size: 40px;"">werling</p>
          <p style=""font-size: 16px;"">F = YES &nbsp;&nbsp;&nbsp; J = NO</p>
        ","j","html-keyboard-response","313","2.1.0","435915","F=YES, J=NO","h4exn79jel","1","73","85","60","","","","","","","","","werling","neck","pseudoword","pseudoword","j","true","",""
"null","<p style=""font-size: 50px;"">+</p>","null","html-keyboard-response","314","2.1.0","436227","F=YES, J=NO","h4exn79jel","1","73","85","60","","","","","","","","","","","","","","","",""
"null","audio/beep-329314.mp3","null","audio-keyboard-response","315","2.1.0","437752","F=YES, J=NO","h4exn79jel","1","73","85","60","","","","","","","","","","","","","","","",""
"null","audio/winter.wav","null","audio-keyboard-response","316","2.1.0","438332","F=YES, J=NO","h4exn79jel","1","73","85","60","","","","","","","","","","","","","","","",""
"524","
          <p id=""word"" style=""font-size: 40px;"">expose</p>
          <p style=""font-size: 16px;"">F = YES &nbsp;&nbsp;&nbsp; J = NO</p>
        ","f","html-keyboard-response","317","2.1.0","438857","F=YES, J=NO","h4exn79jel","1","73","85","60","","","","","","","","","expose","winter","unrelated","experimental","f","true","",""
"null","<p style=""font-size: 50px;"">+</p>","null","html-keyboard-response","318","2.1.0","439165","F=YES, J=NO","h4exn79jel","1","73","85","60","","","","","","","","","","","","","","","",""
"null","audio/beep-329314.mp3","null","audio-keyboard-response","319","2.1.0","440692","F=YES, J=NO","h4exn79jel","1","73","85","60","","","","","","","","","","","","","","","",""
"null","audio/ground.wav","null","audio-keyboard-response","320","2.1.0","441292","F=YES, J=NO","h4exn79jel","1","73","85","60","","","","","","","","","","","","","","","",""
"514","
          <p id=""word"" style=""font-size: 40px;"">touch</p>
          <p style=""font-size: 16px;"">F = YES &nbsp;&nbsp;&nbsp; J = NO</p>
        ","f","html-keyboard-response","321","2.1.0","441806","F=YES, J=NO","h4exn79jel","1","73","85","60","","","","","","","","","touch","ground","literal","experimental","f","true","",""
"null","<p style=""font-size: 50px;"">+</p>","null","html-keyboard-response","322","2.1.0","442122","F=YES, J=NO","h4exn79jel","1","73","85","60","","","","","","","","","","","","","","","",""
"null","audio/beep-329314.mp3","null","audio-keyboard-response","323","2.1.0","443653","F=YES, J=NO","h4exn79jel","1","73","85","60","","","","","","","","","","","","","","","",""
"null","audio/theory1.wav","null","audio-keyboard-response","324","2.1.0","444292","F=YES, J=NO","h4exn79jel","1","73","85","60","","","","","","","","","","","","","","","",""
"666","
          <p id=""word"" style=""font-size: 40px;"">scolve</p>
          <p style=""font-size: 16px;"">F = YES &nbsp;&nbsp;&nbsp; J = NO</p>
        ","j","html-keyboard-response","325","2.1.0","444959","F=YES, J=NO","h4exn79jel","1","73","85","60","","","","","","","","","scolve","theory1","pseudoword","pseudoword","j","true","",""
"null","<p style=""font-size: 50px;"">+</p>","null","html-keyboard-response","326","2.1.0","445261","F=YES, J=NO","h4exn79jel","1","73","85","60","","","","","","","","","","","","","","","",""
"null","audio/beep-329314.mp3","null","audio-keyboard-response","327","2.1.0","446792","F=YES, J=NO","h4exn79jel","1","73","85","60","","","","","","","","","","","","","","","",""
"null","audio/breath.wav","null","audio-keyboard-response","328","2.1.0","447352","F=YES, J=NO","h4exn79jel","1","73","85","60","","","","","","","","","","","","","","","",""
"555","
          <p id=""word"" style=""font-size: 40px;"">construct</p>
          <p style=""font-size: 16px;"">F = YES &nbsp;&nbsp;&nbsp; J = NO</p>
        ","f","html-keyboard-response","329","2.1.0","447908","F=YES, J=NO","h4exn79jel","1","73","85","60","","","","","","","","","construct","breath","unrelated","experimental","f","true","",""
"null","<p style=""font-size: 50px;"">+</p>","null","html-keyboard-response","330","2.1.0","448220","F=YES, J=NO","h4exn79jel","1","73","85","60","","","","","","","","","","","","","","","",""
"null","audio/beep-329314.mp3","null","audio-keyboard-response","331","2.1.0","449753","F=YES, J=NO","h4exn79jel","1","73","85","60","","","","","","","","","","","","","","","",""
"null","audio/arm.wav","null","audio-keyboard-response","332","2.1.0","450293","F=YES, J=NO","h4exn79jel","1","73","85","60","","","","","","","","","","","","","","","",""
"487","
          <p id=""word"" style=""font-size: 40px;"">fold</p>
          <p style=""font-size: 16px;"">F = YES &nbsp;&nbsp;&nbsp; J = NO</p>
        ","f","html-keyboard-response","333","2.1.0","450780","F=YES, J=NO","h4exn79jel","1","73","85","60","","","","","","","","","fold","arm","filler","filler","f","true","",""
"null","<p style=""font-size: 50px;"">+</p>","null","html-keyboard-response","334","2.1.0","451094","F=YES, J=NO","h4exn79jel","1","73","85","60","","","","","","","","","","","","","","","",""
"null","audio/beep-329314.mp3","null","audio-keyboard-response","335","2.1.0","452632","F=YES, J=NO","h4exn79jel","1","73","85","60","","","","","","","","","","","","","","","",""
"null","audio/fence.wav","null","audio-keyboard-response","336","2.1.0","453292","F=YES, J=NO","h4exn79jel","1","73","85","60","","","","","","","","","","","","","","","",""
"612","
          <p id=""word"" style=""font-size: 40px;"">trim</p>
          <p style=""font-size: 16px;"">F = YES &nbsp;&nbsp;&nbsp; J = NO</p>
        ","f","html-keyboard-response","337","2.1.0","453905","F=YES, J=NO","h4exn79jel","1","73","85","60","","","","","","","","","trim","fence","filler","filler","f","true","",""
"null","<p style=""font-size: 50px;"">+</p>","null","html-keyboard-response","338","2.1.0","454205","F=YES, J=NO","h4exn79jel","1","73","85","60","","","","","","","","","","","","","","","",""
"null","audio/beep-329314.mp3","null","audio-keyboard-response","339","2.1.0","455732","F=YES, J=NO","h4exn79jel","1","73","85","60","","","","","","","","","","","","","","","",""
"null","audio/roof1.wav","null","audio-keyboard-response","340","2.1.0","456273","F=YES, J=NO","h4exn79jel","1","73","85","60","","","","","","","","","","","","","","","",""
"461","
          <p id=""word"" style=""font-size: 40px;"">wronb</p>
          <p style=""font-size: 16px;"">F = YES &nbsp;&nbsp;&nbsp; J = NO</p>
        ","f","html-keyboard-response","341","2.1.0","456734","F=YES, J=NO","h4exn79jel","1","73","85","60","","","","","","","","","wronb","roof1","pseudoword","pseudoword","j","false","",""
"null","<p style=""font-size: 50px;"">+</p>","null","html-keyboard-response","342","2.1.0","457044","F=YES, J=NO","h4exn79jel","1","73","85","60","","","","","","","","","","","","","","","",""
"null","audio/beep-329314.mp3","null","audio-keyboard-response","343","2.1.0","458572","F=YES, J=NO","h4exn79jel","1","73","85","60","","","","","","","","","","","","","","","",""
"null","audio/floor.wav","null","audio-keyboard-response","344","2.1.0","459132","F=YES, J=NO","h4exn79jel","1","73","85","60","","","","","","","","","","","","","","","",""
"656","
          <p id=""word"" style=""font-size: 40px;"">cover</p>
          <p style=""font-size: 16px;"">F = YES &nbsp;&nbsp;&nbsp; J = NO</p>
        ","f","html-keyboard-response","345","2.1.0","459789","F=YES, J=NO","h4exn79jel","1","73","85","60","","","","","","","","","cover","floor","literal","experimental","f","true","",""
"null","<p style=""font-size: 50px;"">+</p>","null","html-keyboard-response","346","2.1.0","460090","F=YES, J=NO","h4exn79jel","1","73","85","60","","","","","","","","","","","","","","","",""
"null","audio/beep-329314.mp3","null","audio-keyboard-response","347","2.1.0","461612","F=YES, J=NO","h4exn79jel","1","73","85","60","","","","","","","","","","","","","","","",""
"null","audio/grass.wav","null","audio-keyboard-response","348","2.1.0","462272","F=YES, J=NO","h4exn79jel","1","73","85","60","","","","","","","","","","","","","","","",""
"654","
          <p id=""word"" style=""font-size: 40px;"">milames</p>
          <p style=""font-size: 16px;"">F = YES &nbsp;&nbsp;&nbsp; J = NO</p>
        ","j","html-keyboard-response","349","2.1.0","462927","F=YES, J=NO","h4exn79jel","1","73","85","60","","","","","","","","","milames","grass","pseudoword","pseudoword","j","true","",""
"null","<p style=""font-size: 50px;"">+</p>","null","html-keyboard-response","350","2.1.0","463236","F=YES, J=NO","h4exn79jel","1","73","85","60","","","","","","","","","","","","","","","",""
"null","audio/beep-329314.mp3","null","audio-keyboard-response","351","2.1.0","464772","F=YES, J=NO","h4exn79jel","1","73","85","60","","","","","","","","","","","","","","","",""
"null","audio/strength.wav","null","audio-keyboard-response","352","2.1.0","465512","F=YES, J=NO","h4exn79jel","1","73","85","60","","","","","","","","","","","","","","","",""
"617","
          <p id=""word"" style=""font-size: 40px;"">possess</p>
          <p style=""font-size: 16px;"">F = YES &nbsp;&nbsp;&nbsp; J = NO</p>
        ","f","html-keyboard-response","353","2.1.0","466129","F=YES, J=NO","h4exn79jel","1","73","85","60","","","","","","","","","possess","strength","metaphor","experimental","f","true","",""
"null","<p style=""font-size: 50px;"">+</p>","null","html-keyboard-response","354","2.1.0","466439","F=YES, J=NO","h4exn79jel","1","73","85","60","","","","","","","","","","","","","","","",""
"null","audio/beep-329314.mp3","null","audio-keyboard-response","355","2.1.0","467972","F=YES, J=NO","h4exn79jel","1","73","85","60","","","","","","","","","","","","","","","",""
"null","audio/foe1.wav","null","audio-keyboard-response","356","2.1.0","468492","F=YES, J=NO","h4exn79jel","1","73","85","60","","","","","","","","","","","","","","","",""
"614","
          <p id=""word"" style=""font-size: 40px;"">creth</p>
          <p style=""font-size: 16px;"">F = YES &nbsp;&nbsp;&nbsp; J = NO</p>
        ","j","html-keyboard-response","357","2.1.0","469107","F=YES, J=NO","h4exn79jel","1","73","85","60","","","","","","","","","creth","foe1","pseudoword","pseudoword","j","true","",""
"null","<p style=""font-size: 50px;"">+</p>","null","html-keyboard-response","358","2.1.0","469416","F=YES, J=NO","h4exn79jel","1","73","85","60","","","","","","","","","","","","","","","",""
"null","audio/beep-329314.mp3","null","audio-keyboard-response","359","2.1.0","470952","F=YES, J=NO","h4exn79jel","1","73","85","60","","","","","","","","","","","","","","","",""
"null","audio/effort.wav","null","audio-keyboard-response","360","2.1.0","471553","F=YES, J=NO","h4exn79jel","1","73","85","60","","","","","","","","","","","","","","","",""
"708","
          <p id=""word"" style=""font-size: 40px;"">invest</p>
          <p style=""font-size: 16px;"">F = YES &nbsp;&nbsp;&nbsp; J = NO</p>
        ","f","html-keyboard-response","361","2.1.0","472261","F=YES, J=NO","h4exn79jel","1","73","85","60","","","","","","","","","invest","effort","metaphor","experimental","f","true","",""
"1375","<p>Excellent! You have finished block 3 of 8.</p>
                     <p>Feel free to take a 30 second break.</p>
                     <p>Press any key when you're ready to continue.</p>"," ","html-keyboard-response","362","2.1.0","473636","F=YES, J=NO","h4exn79jel","1","73","85","60","","","","","","","","","","","","","","","",""
"1426","<p>Starting main block 4 of 8. Press any key to continue.</p>"," ","html-keyboard-response","363","2.1.0","475062","F=YES, J=NO","h4exn79jel","1","73","85","60","","","","","","","","","","","","","","","",""
"null","<p style=""font-size: 50px;"">+</p>","null","html-keyboard-response","364","2.1.0","475373","F=YES, J=NO","h4exn79jel","1","73","85","60","","","","","","","","","","","","","","","",""
"null","audio/beep-329314.mp3","null","audio-keyboard-response","365","2.1.0","476912","F=YES, J=NO","h4exn79jel","1","73","85","60","","","","","","","","","","","","","","","",""
"null","audio/birth1.wav","null","audio-keyboard-response","366","2.1.0","477452","F=YES, J=NO","h4exn79jel","1","73","85","60","","","","","","","","","","","","","","","",""
"502","
          <p id=""word"" style=""font-size: 40px;"">drop</p>
          <p style=""font-size: 16px;"">F = YES &nbsp;&nbsp;&nbsp; J = NO</p>
        ","f","html-keyboard-response","367","2.1.0","477955","F=YES, J=NO","h4exn79jel","1","73","85","60","","","","","","","","","drop","birth1","unrelated","experimental","f","true","",""
"null","<p style=""font-size: 50px;"">+</p>","null","html-keyboard-response","368","2.1.0","478266","F=YES, J=NO","h4exn79jel","1","73","85","60","","","","","","","","","","","","","","","",""
"null","audio/beep-329314.mp3","null","audio-keyboard-response","369","2.1.0","479793","F=YES, J=NO","h4exn79jel","1","73","85","60","","","","","","","","","","","","","","","",""
"null","audio/ankle1.wav","null","audio-keyboard-response","370","2.1.0","480332","F=YES, J=NO","h4exn79jel","1","73","85","60","","","","","","","","","","","","","","","",""
"670","
          <p id=""word"" style=""font-size: 40px;"">switm</p>
          <p style=""font-size: 16px;"">F = YES &nbsp;&nbsp;&nbsp; J = NO</p>
        ","j","html-keyboard-response","371","2.1.0","481003","F=YES, J=NO","h4exn79jel","1","73","85","60","","","","","","","","","switm","ankle1","pseudoword","pseudoword","j","true","",""
"null","<p style=""font-size: 50px;"">+</p>","null","html-keyboard-response","372","2.1.0","481306","F=YES, J=NO","h4exn79jel","1","73","85","60","","","","","","","","","","","","","","","",""
"null","audio/beep-329314.mp3","null","audio-keyboard-response","373","2.1.0","482832","F=YES, J=NO","h4exn79jel","1","73","85","60","","","","","","","","","","","","","","","",""
"null","audio/trout1.wav","null","audio-keyboard-response","374","2.1.0","483432","F=YES, J=NO","h4exn79jel","1","73","85","60","","","","","","","","","","","","","","","",""
"568","
          <p id=""word"" style=""font-size: 40px;"">spimt</p>
          <p style=""font-size: 16px;"">F = YES &nbsp;&nbsp;&nbsp; J = NO</p>
        ","j","html-keyboard-response","375","2.1.0","484001","F=YES, J=NO","h4exn79jel","1","73","85","60","","","","","","","","","spimt","trout1","pseudoword","pseudoword","j","true","",""
"null","<p style=""font-size: 50px;"">+</p>","null","html-keyboard-response","376","2.1.0","484305","F=YES, J=NO","h4exn79jel","1","73","85","60","","","","","","","","","","","","","","","",""
"null","audio/beep-329314.mp3","null","audio-keyboard-response","377","2.1.0","485832","F=YES, J=NO","h4exn79jel","1","73","85","60","","","","","","","","","","","","","","","",""
"null","audio/news.wav","null","audio-keyboard-response","378","2.1.0","486492","F=YES, J=NO","h4exn79jel","1","73","85","60","","","","","","","","","","","","","","","",""
"661","
          <p id=""word"" style=""font-size: 40px;"">digest</p>
          <p style=""font-size: 16px;"">F = YES &nbsp;&nbsp;&nbsp; J = NO</p>
        ","f","html-keyboard-response","379","2.1.0","487154","F=YES, J=NO","h4exn79jel","1","73","85","60","","","","","","","","","digest","news","metaphor","experimental","f","true","",""
"null","<p style=""font-size: 50px;"">+</p>","null","html-keyboard-response","380","2.1.0","487463","F=YES, J=NO","h4exn79jel","1","73","85","60","","","","","","","","","","","","","","","",""
"null","audio/beep-329314.mp3","null","audio-keyboard-response","381","2.1.0","488992","F=YES, J=NO","h4exn79jel","1","73","85","60","","","","","","","","","","","","","","","",""
"null","audio/show.wav","null","audio-keyboard-response","382","2.1.0","489532","F=YES, J=NO","h4exn79jel","1","73","85","60","","","","","","","","","","","","","","","",""
"674","
          <p id=""word"" style=""font-size: 40px;"">smark</p>
          <p style=""font-size: 16px;"">F = YES &nbsp;&nbsp;&nbsp; J = NO</p>
        ","j","html-keyboard-response","383","2.1.0","490207","F=YES, J=NO","h4exn79jel","1","73","85","60","","","","","","","","","smark","show","pseudoword","pseudoword","j","true","",""
"null","<p style=""font-size: 50px;"">+</p>","null","html-keyboard-response","384","2.1.0","490513","F=YES, J=NO","h4exn79jel","1","73","85","60","","","","","","","","","","","","","","","",""
"null","audio/beep-329314.mp3","null","audio-keyboard-response","385","2.1.0","492052","F=YES, J=NO","h4exn79jel","1","73","85","60","","","","","","","","","","","","","","","",""
"null","audio/baby.wav","null","audio-keyboard-response","386","2.1.0","492532","F=YES, J=NO","h4exn79jel","1","73","85","60","","","","","","","","","","","","","","","",""
"589","
          <p id=""word"" style=""font-size: 40px;"">hold</p>
          <p style=""font-size: 16px;"">F = YES &nbsp;&nbsp;&nbsp; J = NO</p>
        ","f","html-keyboard-response","387","2.1.0","493122","F=YES, J=NO","h4exn79jel","1","73","85","60","","","","","","","","","hold","baby","literal","experimental","f","true","",""
"null","<p style=""font-size: 50px;"">+</p>","null","html-keyboard-response","388","2.1.0","493433","F=YES, J=NO","h4exn79jel","1","73","85","60","","","","","","","","","","","","","","","",""
"null","audio/beep-329314.mp3","null","audio-keyboard-response","389","2.1.0","494972","F=YES, J=NO","h4exn79jel","1","73","85","60","","","","","","","","","","","","","","","",""
"null","audio/weight1.wav","null","audio-keyboard-response","390","2.1.0","495512","F=YES, J=NO","h4exn79jel","1","73","85","60","","","","","","","","","","","","","","","",""
"459","
          <p id=""word"" style=""font-size: 40px;"">support</p>
          <p style=""font-size: 16px;"">F = YES &nbsp;&nbsp;&nbsp; J = NO</p>
        ","f","html-keyboard-response","391","2.1.0","495972","F=YES, J=NO","h4exn79jel","1","73","85","60","","","","","","","","","support","weight1","literal","experimental","f","true","",""
