"rt","stimulus","response","trial_type","trial_index","plugin_version","time_elapsed","response_mapping","subject_id","list_index","lextale_score","lextale_word_score","lextale_nonword_score","success","timeout","failed_images","failed_audio","failed_video","task","isWord","isDummy","target","prime","prime_type","stimulus_type","correct_response","correct","section","question_order"
"8210","
    <div style=""max-width: 800px; margin: auto; text-align: left;"">
      <h2>STANFORD UNIVERSITY</h2>
      <h3>Research Information Sheet</h3>
      <p><strong>Protocol Director:</strong> Robert Hawkins<br>
      <strong>Protocol Title:</strong> Communication and social cognition in natural audiovisual contexts<br>
      <strong>IRB#:</strong> 77226</p>

      <p><strong>DESCRIPTION:</strong> You are invited to participate in a research study about language and communication. The purpose of the research is to understand how you interact and communicate with other people in naturalistic settings as a fluent English speaker. This research will be conducted through the Prolific platform, including participants from the US, UK, and Canada. If you decide to participate in this research, you will play a communication game in a group with one or more partners.</p>

      <p><strong>TIME INVOLVEMENT:</strong> The task will last the amount of time advertised on Prolific. You are free to withdraw from the study at any time.</p>

      <p><strong>RISKS AND BENEFITS:</strong> You may become frustrated if your partner gets distracted, or experience discomfort if other participants in your group send text that is inappropriate for the task. We ask you to please be respectful of other participants you might be interacting with to mitigate these risks. You may also experience discomfort when being asked to discuss or challenge emotionally salient political beliefs. Study data will be stored securely, in compliance with Stanford University standards, minimizing the risk of confidentiality breach. This study advances our scientific understanding of how people communicate and collaborate in naturalistic settings. This study may lead to further insights about what can go wrong in teamwork, suggest potential interventions to overcome these barriers, and help to develop assistive technologies that collaborate with human partners. We cannot and do not guarantee or promise that you will receive any benefits from this study.</p>

      <p><strong>PAYMENTS:</strong> You will receive payment in the amount advertised on Prolific. If you do not complete this study, you will receive prorated payment based on the time that you have spent. Additionally, you may be eligible for bonus payments as described in the instructions.</p>

      <p><strong>PARTICIPANT’S RIGHTS:</strong> If you have read this form and have decided to participate in this project, please understand your participation is voluntary and you have the right to withdraw your consent or discontinue participation at any time without penalty or loss of benefits to which you are otherwise entitled. The alternative is not to participate. You have the right to refuse to answer particular questions. The results of this research study may be presented at scientific or professional meetings or published in scientific journals. Your individual privacy will be maintained in all published and written data resulting from the study. In accordance with scientific norms, the data from this study may be used or shared with other researchers for future research (after removing personally identifying information) without additional consent from you.</p>

      <p><strong>CONTACT INFORMATION:</strong><br>
      Questions: If you have any questions, concerns or complaints about this research, its procedures, risks and benefits, contact the Protocol Director, Robert Hawkins (<a href=""mailto:rdhawkins@stanford.edu"">rdhawkins@stanford.edu</a>, 217-549-6923).<br>
      Independent Contact: If you are not satisfied with how this study is being conducted, or if you have any concerns, complaints, or general questions about the research or your rights as a participant, please contact the Stanford Institutional Review Board (IRB) to speak to someone independent of the research team at 650-723-2480 or toll free at 1-866-680-2906, or email at <a href=""mailto:irbnon-med@stanford.edu"">irbnon-med@stanford.edu</a>. You can also write to the Stanford IRB, Stanford University, 1705 El Camino Real, Palo Alto, CA 94306.</p>

      <p><strong>Please save or print a copy of this page for your records.</strong></p>
      <p>If you agree to participate in this research, click ""Continue"" below.</p>
    </div>
  ","0","html-button-response","0","2.1.0","8728","J=YES, F=NO","h4ydubcqt3","0","46","73","20","","","","","","","","","","","","","","","",""
"107927","
    <div style=""max-width: 800px; margin: auto; text-align: left;"">
      <h2>Welcome!</h2>
      <p>Thank you for participating in this study. The experiment consists of three parts:</p>
      <ol>
        <li>An English vocabulary test</li>
        <li>A main task in which you will hear and see words, and decide whether the written word is a real English word</li>
        <li>A brief survey about your background</li>
      </ol>
      <p>Each part will be introduced before it begins.</p>
      <p>Please make sure you are in a quiet environment and can hear audio clearly for the final task.</p>
      <p style=""margin-top: 2em;"">Press any key to begin.</p>
    </div>
  "," ","html-keyboard-response","1","2.1.0","116659","J=YES, F=NO","h4ydubcqt3","0","46","73","20","","","","","","","","","","","","","","","",""
"","","","preload","2","2.1.0","120087","J=YES, F=NO","h4ydubcqt3","0","46","73","20","true","false","[]","[]","[]","","","","","","","","","","",""
"6335","
    <div style=""max-width: 800px; margin: auto; text-align: left;"">
      <h2>Part 1: Vocabulary Test</h2>
      <p>You will now complete the first part of the study: a short English vocabulary test.</p>
      <p>This test is called <strong>LexTALE</strong> and helps us get a general sense of your English proficiency.</p>
      <p style=""margin-top: 2em;"">Press any key to continue.</p>
    </div>
  "," ","html-keyboard-response","3","2.1.0","126424","J=YES, F=NO","h4ydubcqt3","0","46","73","20","","","","","","","","","","","","","","","",""
"9847","
    <div style=""max-width: 800px; margin: auto; text-align: left;"">
      <h2>LexTALE Vocabulary Test</h2>
      <p>In this test, you will see a series of letter strings—one at a time.</p>
      <p>Your task is to decide whether each string is a real English word.</p>
      <p><strong>Key responses:</strong></p>
      <ul>
        <li><strong>J</strong> = YES (real English word)</li>
        <li><strong>F</strong> = NO (not a real English word)</li>
      </ul>
      <p>There is no time limit, but please try to be accurate.</p>
      <p style=""margin-top: 2em;"">Press any key to begin.</p>
    </div>
  "," ","html-keyboard-response","4","2.1.0","136274","J=YES, F=NO","h4ydubcqt3","0","46","73","20","","","","","","","","","","","","","","","",""
"2582","
  <p style=""font-size: 40px;"">platery</p>
  <p style=""font-size: 16px;"">J = YES &nbsp;&nbsp;&nbsp; F = NO</p>
","f","html-keyboard-response","5","2.1.0","138859","J=YES, F=NO","h4ydubcqt3","0","46","73","20","","","","","","lextale","false","true","","","","","","","",""
"1752","
  <p style=""font-size: 40px;"">denial</p>
  <p style=""font-size: 16px;"">J = YES &nbsp;&nbsp;&nbsp; F = NO</p>
","f","html-keyboard-response","6","2.1.0","140615","J=YES, F=NO","h4ydubcqt3","0","46","73","20","","","","","","lextale","true","true","","","","","","","",""
"2252","
  <p style=""font-size: 40px;"">marrit</p>
  <p style=""font-size: 16px;"">J = YES &nbsp;&nbsp;&nbsp; F = NO</p>
","f","html-keyboard-response","7","2.1.0","142869","J=YES, F=NO","h4ydubcqt3","0","46","73","20","","","","","","lextale","false","true","","","","","","","",""
"3815","
  <p style=""font-size: 40px;"">bottle</p>
  <p style=""font-size: 16px;"">J = YES &nbsp;&nbsp;&nbsp; F = NO</p>
","j","html-keyboard-response","8","2.1.0","146687","J=YES, F=NO","h4ydubcqt3","0","46","73","20","","","","","","lextale","true","false","","","","","","","",""
"1886","
  <p style=""font-size: 40px;"">birst</p>
  <p style=""font-size: 16px;"">J = YES &nbsp;&nbsp;&nbsp; F = NO</p>
","j","html-keyboard-response","9","2.1.0","148576","J=YES, F=NO","h4ydubcqt3","0","46","73","20","","","","","","lextale","false","false","","","","","","","",""
"1090","
  <p style=""font-size: 40px;"">envy</p>
  <p style=""font-size: 16px;"">J = YES &nbsp;&nbsp;&nbsp; F = NO</p>
","j","html-keyboard-response","10","2.1.0","149667","J=YES, F=NO","h4ydubcqt3","0","46","73","20","","","","","","lextale","true","false","","","","","","","",""
"2263","
  <p style=""font-size: 40px;"">brang</p>
  <p style=""font-size: 16px;"">J = YES &nbsp;&nbsp;&nbsp; F = NO</p>
","j","html-keyboard-response","11","2.1.0","151932","J=YES, F=NO","h4ydubcqt3","0","46","73","20","","","","","","lextale","false","false","","","","","","","",""
"735","
  <p style=""font-size: 40px;"">huge</p>
  <p style=""font-size: 16px;"">J = YES &nbsp;&nbsp;&nbsp; F = NO</p>
","j","html-keyboard-response","12","2.1.0","152669","J=YES, F=NO","h4ydubcqt3","0","46","73","20","","","","","","lextale","true","false","","","","","","","",""
"2169","
  <p style=""font-size: 40px;"">plove</p>
  <p style=""font-size: 16px;"">J = YES &nbsp;&nbsp;&nbsp; F = NO</p>
","j","html-keyboard-response","13","2.1.0","154840","J=YES, F=NO","h4ydubcqt3","0","46","73","20","","","","","","lextale","false","false","","","","","","","",""
"768","
  <p style=""font-size: 40px;"">border</p>
  <p style=""font-size: 16px;"">J = YES &nbsp;&nbsp;&nbsp; F = NO</p>
","j","html-keyboard-response","14","2.1.0","155611","J=YES, F=NO","h4ydubcqt3","0","46","73","20","","","","","","lextale","true","false","","","","","","","",""
"18208","
  <p style=""font-size: 40px;"">flimsy</p>
  <p style=""font-size: 16px;"">J = YES &nbsp;&nbsp;&nbsp; F = NO</p>
","j","html-keyboard-response","15","2.1.0","173821","J=YES, F=NO","h4ydubcqt3","0","46","73","20","","","","","","lextale","true","false","","","","","","","",""
"658","
  <p style=""font-size: 40px;"">drain</p>
  <p style=""font-size: 16px;"">J = YES &nbsp;&nbsp;&nbsp; F = NO</p>
","j","html-keyboard-response","16","2.1.0","174481","J=YES, F=NO","h4ydubcqt3","0","46","73","20","","","","","","lextale","true","false","","","","","","","",""
"1513","
  <p style=""font-size: 40px;"">twindle</p>
  <p style=""font-size: 16px;"">J = YES &nbsp;&nbsp;&nbsp; F = NO</p>
","j","html-keyboard-response","17","2.1.0","175996","J=YES, F=NO","h4ydubcqt3","0","46","73","20","","","","","","lextale","false","false","","","","","","","",""
"9524","
  <p style=""font-size: 40px;"">propose</p>
  <p style=""font-size: 16px;"">J = YES &nbsp;&nbsp;&nbsp; F = NO</p>
","j","html-keyboard-response","18","2.1.0","185522","J=YES, F=NO","h4ydubcqt3","0","46","73","20","","","","","","lextale","true","false","","","","","","","",""
"2473","
  <p style=""font-size: 40px;"">forlay</p>
  <p style=""font-size: 16px;"">J = YES &nbsp;&nbsp;&nbsp; F = NO</p>
","f","html-keyboard-response","19","2.1.0","187997","J=YES, F=NO","h4ydubcqt3","0","46","73","20","","","","","","lextale","false","false","","","","","","","",""
"1263","
  <p style=""font-size: 40px;"">tenant</p>
  <p style=""font-size: 16px;"">J = YES &nbsp;&nbsp;&nbsp; F = NO</p>
","f","html-keyboard-response","20","2.1.0","189261","J=YES, F=NO","h4ydubcqt3","0","46","73","20","","","","","","lextale","true","false","","","","","","","",""
"723","
  <p style=""font-size: 40px;"">strain</p>
  <p style=""font-size: 16px;"">J = YES &nbsp;&nbsp;&nbsp; F = NO</p>
","j","html-keyboard-response","21","2.1.0","189986","J=YES, F=NO","h4ydubcqt3","0","46","73","20","","","","","","lextale","true","false","","","","","","","",""
"1232","
  <p style=""font-size: 40px;"">holster</p>
  <p style=""font-size: 16px;"">J = YES &nbsp;&nbsp;&nbsp; F = NO</p>
","j","html-keyboard-response","22","2.1.0","191219","J=YES, F=NO","h4ydubcqt3","0","46","73","20","","","","","","lextale","true","false","","","","","","","",""
"3828","
  <p style=""font-size: 40px;"">hinder</p>
  <p style=""font-size: 16px;"">J = YES &nbsp;&nbsp;&nbsp; F = NO</p>
","f","html-keyboard-response","23","2.1.0","195048","J=YES, F=NO","h4ydubcqt3","0","46","73","20","","","","","","lextale","true","false","","","","","","","",""
"4124","
  <p style=""font-size: 40px;"">swindle</p>
  <p style=""font-size: 16px;"">J = YES &nbsp;&nbsp;&nbsp; F = NO</p>
","j","html-keyboard-response","24","2.1.0","199173","J=YES, F=NO","h4ydubcqt3","0","46","73","20","","","","","","lextale","true","false","","","","","","","",""
"1380","
  <p style=""font-size: 40px;"">nuder</p>
  <p style=""font-size: 16px;"">J = YES &nbsp;&nbsp;&nbsp; F = NO</p>
","j","html-keyboard-response","25","2.1.0","200555","J=YES, F=NO","h4ydubcqt3","0","46","73","20","","","","","","lextale","false","false","","","","","","","",""
"642","
  <p style=""font-size: 40px;"">pillow</p>
  <p style=""font-size: 16px;"">J = YES &nbsp;&nbsp;&nbsp; F = NO</p>
","j","html-keyboard-response","26","2.1.0","201198","J=YES, F=NO","h4ydubcqt3","0","46","73","20","","","","","","lextale","true","false","","","","","","","",""
"651","
  <p style=""font-size: 40px;"">shumble</p>
  <p style=""font-size: 16px;"">J = YES &nbsp;&nbsp;&nbsp; F = NO</p>
","j","html-keyboard-response","27","2.1.0","201851","J=YES, F=NO","h4ydubcqt3","0","46","73","20","","","","","","lextale","false","false","","","","","","","",""
"610","
  <p style=""font-size: 40px;"">thirst</p>
  <p style=""font-size: 16px;"">J = YES &nbsp;&nbsp;&nbsp; F = NO</p>
","j","html-keyboard-response","28","2.1.0","202462","J=YES, F=NO","h4ydubcqt3","0","46","73","20","","","","","","lextale","true","false","","","","","","","",""
"3882","
  <p style=""font-size: 40px;"">unsail</p>
  <p style=""font-size: 16px;"">J = YES &nbsp;&nbsp;&nbsp; F = NO</p>
","j","html-keyboard-response","29","2.1.0","206345","J=YES, F=NO","h4ydubcqt3","0","46","73","20","","","","","","lextale","false","false","","","","","","","",""
"947","
  <p style=""font-size: 40px;"">rifle</p>
  <p style=""font-size: 16px;"">J = YES &nbsp;&nbsp;&nbsp; F = NO</p>
","j","html-keyboard-response","30","2.1.0","207293","J=YES, F=NO","h4ydubcqt3","0","46","73","20","","","","","","lextale","true","false","","","","","","","",""
"2071","
  <p style=""font-size: 40px;"">mush</p>
  <p style=""font-size: 16px;"">J = YES &nbsp;&nbsp;&nbsp; F = NO</p>
","j","html-keyboard-response","31","2.1.0","209365","J=YES, F=NO","h4ydubcqt3","0","46","73","20","","","","","","lextale","false","false","","","","","","","",""
"979","
  <p style=""font-size: 40px;"">drench</p>
  <p style=""font-size: 16px;"">J = YES &nbsp;&nbsp;&nbsp; F = NO</p>
","f","html-keyboard-response","32","2.1.0","210346","J=YES, F=NO","h4ydubcqt3","0","46","73","20","","","","","","lextale","true","false","","","","","","","",""
"1006","
  <p style=""font-size: 40px;"">snirt</p>
  <p style=""font-size: 16px;"">J = YES &nbsp;&nbsp;&nbsp; F = NO</p>
","f","html-keyboard-response","33","2.1.0","211353","J=YES, F=NO","h4ydubcqt3","0","46","73","20","","","","","","lextale","false","false","","","","","","","",""
"1328","
  <p style=""font-size: 40px;"">bitter</p>
  <p style=""font-size: 16px;"">J = YES &nbsp;&nbsp;&nbsp; F = NO</p>
","f","html-keyboard-response","34","2.1.0","212683","J=YES, F=NO","h4ydubcqt3","0","46","73","20","","","","","","lextale","true","false","","","","","","","",""
"2005","
  <p style=""font-size: 40px;"">pliff</p>
  <p style=""font-size: 16px;"">J = YES &nbsp;&nbsp;&nbsp; F = NO</p>
","f","html-keyboard-response","35","2.1.0","214689","J=YES, F=NO","h4ydubcqt3","0","46","73","20","","","","","","lextale","false","false","","","","","","","",""
"644","
  <p style=""font-size: 40px;"">tablet</p>
  <p style=""font-size: 16px;"">J = YES &nbsp;&nbsp;&nbsp; F = NO</p>
","j","html-keyboard-response","36","2.1.0","215334","J=YES, F=NO","h4ydubcqt3","0","46","73","20","","","","","","lextale","true","false","","","","","","","",""
"2102","
  <p style=""font-size: 40px;"">glimmer</p>
  <p style=""font-size: 16px;"">J = YES &nbsp;&nbsp;&nbsp; F = NO</p>
","j","html-keyboard-response","37","2.1.0","217437","J=YES, F=NO","h4ydubcqt3","0","46","73","20","","","","","","lextale","true","false","","","","","","","",""
"578","
  <p style=""font-size: 40px;"">slink</p>
  <p style=""font-size: 16px;"">J = YES &nbsp;&nbsp;&nbsp; F = NO</p>
","j","html-keyboard-response","38","2.1.0","218016","J=YES, F=NO","h4ydubcqt3","0","46","73","20","","","","","","lextale","true","false","","","","","","","",""
"526","
  <p style=""font-size: 40px;"">clever</p>
  <p style=""font-size: 16px;"">J = YES &nbsp;&nbsp;&nbsp; F = NO</p>
","j","html-keyboard-response","39","2.1.0","218544","J=YES, F=NO","h4ydubcqt3","0","46","73","20","","","","","","lextale","true","false","","","","","","","",""
"917","
  <p style=""font-size: 40px;"">grum</p>
  <p style=""font-size: 16px;"">J = YES &nbsp;&nbsp;&nbsp; F = NO</p>
","j","html-keyboard-response","40","2.1.0","219462","J=YES, F=NO","h4ydubcqt3","0","46","73","20","","","","","","lextale","false","false","","","","","","","",""
"563","
  <p style=""font-size: 40px;"">string</p>
  <p style=""font-size: 16px;"">J = YES &nbsp;&nbsp;&nbsp; F = NO</p>
","j","html-keyboard-response","41","2.1.0","220026","J=YES, F=NO","h4ydubcqt3","0","46","73","20","","","","","","lextale","true","false","","","","","","","",""
"628","
  <p style=""font-size: 40px;"">plim</p>
  <p style=""font-size: 16px;"">J = YES &nbsp;&nbsp;&nbsp; F = NO</p>
","j","html-keyboard-response","42","2.1.0","220656","J=YES, F=NO","h4ydubcqt3","0","46","73","20","","","","","","lextale","false","false","","","","","","","",""
"744","
  <p style=""font-size: 40px;"">cable</p>
  <p style=""font-size: 16px;"">J = YES &nbsp;&nbsp;&nbsp; F = NO</p>
","j","html-keyboard-response","43","2.1.0","221401","J=YES, F=NO","h4ydubcqt3","0","46","73","20","","","","","","lextale","true","false","","","","","","","",""
"753","
  <p style=""font-size: 40px;"">shrivel</p>
  <p style=""font-size: 16px;"">J = YES &nbsp;&nbsp;&nbsp; F = NO</p>
","j","html-keyboard-response","44","2.1.0","222156","J=YES, F=NO","h4ydubcqt3","0","46","73","20","","","","","","lextale","true","false","","","","","","","",""
"1232","
  <p style=""font-size: 40px;"">tarnish</p>
  <p style=""font-size: 16px;"">J = YES &nbsp;&nbsp;&nbsp; F = NO</p>
","f","html-keyboard-response","45","2.1.0","223389","J=YES, F=NO","h4ydubcqt3","0","46","73","20","","","","","","lextale","true","false","","","","","","","",""
"585","
  <p style=""font-size: 40px;"">blim</p>
  <p style=""font-size: 16px;"">J = YES &nbsp;&nbsp;&nbsp; F = NO</p>
","j","html-keyboard-response","46","2.1.0","223975","J=YES, F=NO","h4ydubcqt3","0","46","73","20","","","","","","lextale","false","false","","","","","","","",""
"961","
  <p style=""font-size: 40px;"">stifle</p>
  <p style=""font-size: 16px;"">J = YES &nbsp;&nbsp;&nbsp; F = NO</p>
","j","html-keyboard-response","47","2.1.0","224937","J=YES, F=NO","h4ydubcqt3","0","46","73","20","","","","","","lextale","true","false","","","","","","","",""
"1035","
  <p style=""font-size: 40px;"">bint</p>
  <p style=""font-size: 16px;"">J = YES &nbsp;&nbsp;&nbsp; F = NO</p>
","f","html-keyboard-response","48","2.1.0","225973","J=YES, F=NO","h4ydubcqt3","0","46","73","20","","","","","","lextale","false","false","","","","","","","",""
"864","
  <p style=""font-size: 40px;"">purple</p>
  <p style=""font-size: 16px;"">J = YES &nbsp;&nbsp;&nbsp; F = NO</p>
","j","html-keyboard-response","49","2.1.0","226838","J=YES, F=NO","h4ydubcqt3","0","46","73","20","","","","","","lextale","true","false","","","","","","","",""
"737","
  <p style=""font-size: 40px;"">wriggle</p>
  <p style=""font-size: 16px;"">J = YES &nbsp;&nbsp;&nbsp; F = NO</p>
","j","html-keyboard-response","50","2.1.0","227576","J=YES, F=NO","h4ydubcqt3","0","46","73","20","","","","","","lextale","true","false","","","","","","","",""
"702","
  <p style=""font-size: 40px;"">mangle</p>
  <p style=""font-size: 16px;"">J = YES &nbsp;&nbsp;&nbsp; F = NO</p>
","j","html-keyboard-response","51","2.1.0","228279","J=YES, F=NO","h4ydubcqt3","0","46","73","20","","","","","","lextale","true","false","","","","","","","",""
"907","
  <p style=""font-size: 40px;"">shramp</p>
  <p style=""font-size: 16px;"">J = YES &nbsp;&nbsp;&nbsp; F = NO</p>
","j","html-keyboard-response","52","2.1.0","229187","J=YES, F=NO","h4ydubcqt3","0","46","73","20","","","","","","lextale","false","false","","","","","","","",""
"927","
  <p style=""font-size: 40px;"">flirt</p>
  <p style=""font-size: 16px;"">J = YES &nbsp;&nbsp;&nbsp; F = NO</p>
","j","html-keyboard-response","53","2.1.0","230115","J=YES, F=NO","h4ydubcqt3","0","46","73","20","","","","","","lextale","true","false","","","","","","","",""
"1153","
  <p style=""font-size: 40px;"">frip</p>
  <p style=""font-size: 16px;"">J = YES &nbsp;&nbsp;&nbsp; F = NO</p>
","j","html-keyboard-response","54","2.1.0","231270","J=YES, F=NO","h4ydubcqt3","0","46","73","20","","","","","","lextale","false","false","","","","","","","",""
"853","
  <p style=""font-size: 40px;"">tangle</p>
  <p style=""font-size: 16px;"">J = YES &nbsp;&nbsp;&nbsp; F = NO</p>
","j","html-keyboard-response","55","2.1.0","232124","J=YES, F=NO","h4ydubcqt3","0","46","73","20","","","","","","lextale","true","false","","","","","","","",""
"857","
  <p style=""font-size: 40px;"">crumble</p>
  <p style=""font-size: 16px;"">J = YES &nbsp;&nbsp;&nbsp; F = NO</p>
","j","html-keyboard-response","56","2.1.0","232982","J=YES, F=NO","h4ydubcqt3","0","46","73","20","","","","","","lextale","true","false","","","","","","","",""
"821","
  <p style=""font-size: 40px;"">wrinkle</p>
  <p style=""font-size: 16px;"">J = YES &nbsp;&nbsp;&nbsp; F = NO</p>
","j","html-keyboard-response","57","2.1.0","233804","J=YES, F=NO","h4ydubcqt3","0","46","73","20","","","","","","lextale","true","false","","","","","","","",""
"929","
  <p style=""font-size: 40px;"">slumb</p>
  <p style=""font-size: 16px;"">J = YES &nbsp;&nbsp;&nbsp; F = NO</p>
","j","html-keyboard-response","58","2.1.0","234735","J=YES, F=NO","h4ydubcqt3","0","46","73","20","","","","","","lextale","false","false","","","","","","","",""
"567","
  <p style=""font-size: 40px;"">jungle</p>
  <p style=""font-size: 16px;"">J = YES &nbsp;&nbsp;&nbsp; F = NO</p>
","j","html-keyboard-response","59","2.1.0","235303","J=YES, F=NO","h4ydubcqt3","0","46","73","20","","","","","","lextale","true","false","","","","","","","",""
"1462","
  <p style=""font-size: 40px;"">frolick</p>
  <p style=""font-size: 16px;"">J = YES &nbsp;&nbsp;&nbsp; F = NO</p>
","j","html-keyboard-response","60","2.1.0","236766","J=YES, F=NO","h4ydubcqt3","0","46","73","20","","","","","","lextale","false","false","","","","","","","",""
"2604","
      <h2>LexTALE Test Completed</h2>
      <p>Your LexTALE vocabulary score is: <strong>46%</strong></p>
      <p>Press any key to continue.</p>
    "," ","html-keyboard-response","61","2.1.0","239374","J=YES, F=NO","h4ydubcqt3","0","46","73","20","","","","","","","","","","","","","","","",""
"4679","
    <div style=""max-width: 800px; margin: auto; text-align: left;"">
      <h2>Break Time</h2>
      <p>You have completed the first part of the study.</p>
      <p>You may take a short <strong>30-second break</strong> before continuing.</p>
      <p>When you’re ready, press any key to continue to the final task.</p>
    </div>
  "," ","html-keyboard-response","62","2.1.0","244054","J=YES, F=NO","h4ydubcqt3","0","46","73","20","","","","","","","","","","","","","","","",""
"23213","
    <div style=""max-width: 800px; margin: auto; text-align: left;"">
      <h2>Part 2: Lexical Decision Task</h2>
      <p>You will now begin the second part of the study.</p>
      <p>Each trial will follow this sequence:</p>
      <ul>
        <li>A fixation cross (+) appears at the center of the screen.</li>
        <li>You will hear a short beep followed by a spoken word.</li>
        <li>A written word will appear briefly on the screen.</li>
      </ul>
      <p>Your task is to judge whether the <strong>written word</strong> is a real English word.</p>
      <p style=""margin-top: 1em;""><strong>Key responses:</strong></p>
      <ul>
        <li><strong>J</strong> = YES (real English word)</li>
        <li><strong>F</strong> = NO (not a real English word)</li>
      </ul>
      <p>Please respond as quickly and accurately as you can.</p>
      <p style=""margin-top: 2em;"">Press any key to continue.</p>
    </div>
  "," ","html-keyboard-response","63","2.1.0","267269","J=YES, F=NO","h4ydubcqt3","0","46","73","20","","","","","","","","","","","","","","","",""
"2205","
    <div style=""max-width: 800px; margin: auto; text-align: left;"">
      <h2>Before You Begin</h2>
      <p>Make sure your sound is turned on.</p>
      <p>You will hear audio during each trial, but your decision should be based only on the <strong>written word</strong> you see on the screen.</p>
      <p><strong>Reminder:</strong></p>
      <ul>
        <li><strong>J</strong> = YES (real English word)</li>
        <li><strong>F</strong> = NO (not a real English word)</li>
      </ul>
      <p style=""margin-top: 2em;"">Press any key when you are ready to begin.</p>
    </div>
  ","AudioVolumeUp","html-keyboard-response","64","2.1.0","269476","J=YES, F=NO","h4ydubcqt3","0","46","73","20","","","","","","","","","","","","","","","",""
"4472","
    <div style=""max-width: 800px; margin: auto; text-align: left;"">
      <h2>Part 2: Practice Trials</h2>
      <p>You will now complete a few <strong>practice trials</strong> to get familiar with the task.</p>
      <p>These trials are <strong>not scored</strong> and are only to help you get used to the format.</p>
      <p style=""margin-top: 2em;"">Press any key to begin.</p>
    </div>
  ","AudioVolumeUp","html-keyboard-response","65","2.1.0","273950","J=YES, F=NO","h4ydubcqt3","0","46","73","20","","","","","","","","","","","","","","","",""
"1330","<p>Starting practice block 1 of 2. Press any key to continue.</p>","AudioVolumeDown","html-keyboard-response","66","2.1.0","275280","J=YES, F=NO","h4ydubcqt3","0","46","73","20","","","","","","","","","","","","","","","",""
"null","<p style=""font-size: 50px;"">+</p>","null","html-keyboard-response","67","2.1.0","275592","J=YES, F=NO","h4ydubcqt3","0","46","73","20","","","","","","","","","","","","","","","",""
"null","audio/beep-329314.mp3","null","audio-keyboard-response","68","2.1.0","277236","J=YES, F=NO","h4ydubcqt3","0","46","73","20","","","","","","","","","","","","","","","",""
"null","audio/fence.wav","null","audio-keyboard-response","69","2.1.0","277985","J=YES, F=NO","h4ydubcqt3","0","46","73","20","","","","","","","","","","","","","","","",""
"null","
          <p id=""word"" style=""font-size: 40px;"">trim</p>
          <p style=""font-size: 16px;"">J = YES &nbsp;&nbsp;&nbsp; F = NO</p>
        ","null","html-keyboard-response","70","2.1.0","279491","J=YES, F=NO","h4ydubcqt3","0","46","73","20","","","","","","","","","trim","fence","filler","filler","j","false","",""
"null","<p style=""font-size: 50px;"">+</p>","null","html-keyboard-response","71","2.1.0","279806","J=YES, F=NO","h4ydubcqt3","0","46","73","20","","","","","","","","","","","","","","","",""
"null","audio/beep-329314.mp3","null","audio-keyboard-response","72","2.1.0","281335","J=YES, F=NO","h4ydubcqt3","0","46","73","20","","","","","","","","","","","","","","","",""
"null","audio/plot1.wav","null","audio-keyboard-response","73","2.1.0","282325","J=YES, F=NO","h4ydubcqt3","0","46","73","20","","","","","","","","","","","","","","","",""
"777","
          <p id=""word"" style=""font-size: 40px;"">glenter</p>
          <p style=""font-size: 16px;"">J = YES &nbsp;&nbsp;&nbsp; F = NO</p>
        ","f","html-keyboard-response","74","2.1.0","283104","J=YES, F=NO","h4ydubcqt3","0","46","73","20","","","","","","","","","glenter","plot1","pseudoword","pseudoword","f","true","",""
"null","<p style=""font-size: 50px;"">+</p>","null","html-keyboard-response","75","2.1.0","283408","J=YES, F=NO","h4ydubcqt3","0","46","73","20","","","","","","","","","","","","","","","",""
"null","audio/beep-329314.mp3","null","audio-keyboard-response","76","2.1.0","284937","J=YES, F=NO","h4ydubcqt3","0","46","73","20","","","","","","","","","","","","","","","",""
"null","audio/bush1.wav","null","audio-keyboard-response","77","2.1.0","285445","J=YES, F=NO","h4ydubcqt3","0","46","73","20","","","","","","","","","","","","","","","",""
"666","
          <p id=""word"" style=""font-size: 40px;"">platined</p>
          <p style=""font-size: 16px;"">J = YES &nbsp;&nbsp;&nbsp; F = NO</p>
        ","f","html-keyboard-response","78","2.1.0","286113","J=YES, F=NO","h4ydubcqt3","0","46","73","20","","","","","","","","","platined","bush1","pseudoword","pseudoword","f","true","",""
"null","<p style=""font-size: 50px;"">+</p>","null","html-keyboard-response","79","2.1.0","286425","J=YES, F=NO","h4ydubcqt3","0","46","73","20","","","","","","","","","","","","","","","",""
"null","audio/beep-329314.mp3","null","audio-keyboard-response","80","2.1.0","287957","J=YES, F=NO","h4ydubcqt3","0","46","73","20","","","","","","","","","","","","","","","",""
"null","audio/kettle1.wav","null","audio-keyboard-response","81","2.1.0","288427","J=YES, F=NO","h4ydubcqt3","0","46","73","20","","","","","","","","","","","","","","","",""
"650","
          <p id=""word"" style=""font-size: 40px;"">wrap</p>
          <p style=""font-size: 16px;"">J = YES &nbsp;&nbsp;&nbsp; F = NO</p>
        ","f","html-keyboard-response","82","2.1.0","289080","J=YES, F=NO","h4ydubcqt3","0","46","73","20","","","","","","","","","wrap","kettle1","filler","filler","j","false","",""
"null","<p style=""font-size: 50px;"">+</p>","null","html-keyboard-response","83","2.1.0","289395","J=YES, F=NO","h4ydubcqt3","0","46","73","20","","","","","","","","","","","","","","","",""
"null","audio/beep-329314.mp3","null","audio-keyboard-response","84","2.1.0","290935","J=YES, F=NO","h4ydubcqt3","0","46","73","20","","","","","","","","","","","","","","","",""
"null","audio/brain.wav","null","audio-keyboard-response","85","2.1.0","291445","J=YES, F=NO","h4ydubcqt3","0","46","73","20","","","","","","","","","","","","","","","",""
"1050","
          <p id=""word"" style=""font-size: 40px;"">throw</p>
          <p style=""font-size: 16px;"">J = YES &nbsp;&nbsp;&nbsp; F = NO</p>
        ","f","html-keyboard-response","86","2.1.0","292496","J=YES, F=NO","h4ydubcqt3","0","46","73","20","","","","","","","","","throw","brain","filler","filler","j","false","",""
"null","<p style=""font-size: 50px;"">+</p>","null","html-keyboard-response","87","2.1.0","292805","J=YES, F=NO","h4ydubcqt3","0","46","73","20","","","","","","","","","","","","","","","",""
"null","audio/beep-329314.mp3","null","audio-keyboard-response","88","2.1.0","294338","J=YES, F=NO","h4ydubcqt3","0","46","73","20","","","","","","","","","","","","","","","",""
"null","audio/foe1.wav","null","audio-keyboard-response","89","2.1.0","295307","J=YES, F=NO","h4ydubcqt3","0","46","73","20","","","","","","","","","","","","","","","",""
"null","
          <p id=""word"" style=""font-size: 40px;"">creth</p>
          <p style=""font-size: 16px;"">J = YES &nbsp;&nbsp;&nbsp; F = NO</p>
        ","null","html-keyboard-response","90","2.1.0","296825","J=YES, F=NO","h4ydubcqt3","0","46","73","20","","","","","","","","","creth","foe1","pseudoword","pseudoword","f","false","",""
"null","<p style=""font-size: 50px;"">+</p>","null","html-keyboard-response","91","2.1.0","297144","J=YES, F=NO","h4ydubcqt3","0","46","73","20","","","","","","","","","","","","","","","",""
"null","audio/beep-329314.mp3","null","audio-keyboard-response","92","2.1.0","298675","J=YES, F=NO","h4ydubcqt3","0","46","73","20","","","","","","","","","","","","","","","",""
"null","audio/breath.wav","null","audio-keyboard-response","93","2.1.0","299687","J=YES, F=NO","h4ydubcqt3","0","46","73","20","","","","","","","","","","","","","","","",""
"1012","
          <p id=""word"" style=""font-size: 40px;"">pack</p>
          <p style=""font-size: 16px;"">J = YES &nbsp;&nbsp;&nbsp; F = NO</p>
        ","f","html-keyboard-response","94","2.1.0","300702","J=YES, F=NO","h4ydubcqt3","0","46","73","20","","","","","","","","","pack","breath","filler","filler","j","false","",""
"null","<p style=""font-size: 50px;"">+</p>","null","html-keyboard-response","95","2.1.0","301004","J=YES, F=NO","h4ydubcqt3","0","46","73","20","","","","","","","","","","","","","","","",""
"null","audio/beep-329314.mp3","null","audio-keyboard-response","96","2.1.0","302536","J=YES, F=NO","h4ydubcqt3","0","46","73","20","","","","","","","","","","","","","","","",""
"null","audio/age1.wav","null","audio-keyboard-response","97","2.1.0","303085","J=YES, F=NO","h4ydubcqt3","0","46","73","20","","","","","","","","","","","","","","","",""
"1214","
          <p id=""word"" style=""font-size: 40px;"">bake</p>
          <p style=""font-size: 16px;"">J = YES &nbsp;&nbsp;&nbsp; F = NO</p>
        ","f","html-keyboard-response","98","2.1.0","304300","J=YES, F=NO","h4ydubcqt3","0","46","73","20","","","","","","","","","bake","age1","filler","filler","j","false","",""
"null","<p style=""font-size: 50px;"">+</p>","null","html-keyboard-response","99","2.1.0","304613","J=YES, F=NO","h4ydubcqt3","0","46","73","20","","","","","","","","","","","","","","","",""
"null","audio/beep-329314.mp3","null","audio-keyboard-response","100","2.1.0","306156","J=YES, F=NO","h4ydubcqt3","0","46","73","20","","","","","","","","","","","","","","","",""
"null","audio/gift1.wav","null","audio-keyboard-response","101","2.1.0","306625","J=YES, F=NO","h4ydubcqt3","0","46","73","20","","","","","","","","","","","","","","","",""
"960","
          <p id=""word"" style=""font-size: 40px;"">protsh</p>
          <p style=""font-size: 16px;"">J = YES &nbsp;&nbsp;&nbsp; F = NO</p>
        ","f","html-keyboard-response","102","2.1.0","307587","J=YES, F=NO","h4ydubcqt3","0","46","73","20","","","","","","","","","protsh","gift1","pseudoword","pseudoword","f","true","",""
"null","<p style=""font-size: 50px;"">+</p>","null","html-keyboard-response","103","2.1.0","307899","J=YES, F=NO","h4ydubcqt3","0","46","73","20","","","","","","","","","","","","","","","",""
"null","audio/beep-329314.mp3","null","audio-keyboard-response","104","2.1.0","309437","J=YES, F=NO","h4ydubcqt3","0","46","73","20","","","","","","","","","","","","","","","",""
"null","audio/novel.wav","null","audio-keyboard-response","105","2.1.0","310365","J=YES, F=NO","h4ydubcqt3","0","46","73","20","","","","","","","","","","","","","","","",""
"829","
          <p id=""word"" style=""font-size: 40px;"">type</p>
          <p style=""font-size: 16px;"">J = YES &nbsp;&nbsp;&nbsp; F = NO</p>
        ","j","html-keyboard-response","106","2.1.0","311197","J=YES, F=NO","h4ydubcqt3","0","46","73","20","","","","","","","","","type","novel","filler","filler","j","true","",""
"null","<p style=""font-size: 50px;"">+</p>","null","html-keyboard-response","107","2.1.0","311515","J=YES, F=NO","h4ydubcqt3","0","46","73","20","","","","","","","","","","","","","","","",""
"null","audio/beep-329314.mp3","null","audio-keyboard-response","108","2.1.0","313057","J=YES, F=NO","h4ydubcqt3","0","46","73","20","","","","","","","","","","","","","","","",""
"null","audio/account1.wav","null","audio-keyboard-response","109","2.1.0","313787","J=YES, F=NO","h4ydubcqt3","0","46","73","20","","","","","","","","","","","","","","","",""
"1022","
          <p id=""word"" style=""font-size: 40px;"">paint</p>
          <p style=""font-size: 16px;"">J = YES &nbsp;&nbsp;&nbsp; F = NO</p>
        ","j","html-keyboard-response","110","2.1.0","314813","J=YES, F=NO","h4ydubcqt3","0","46","73","20","","","","","","","","","paint","account1","filler","filler","j","true","",""
"null","<p style=""font-size: 50px;"">+</p>","null","html-keyboard-response","111","2.1.0","315135","J=YES, F=NO","h4ydubcqt3","0","46","73","20","","","","","","","","","","","","","","","",""
"null","audio/beep-329314.mp3","null","audio-keyboard-response","112","2.1.0","316675","J=YES, F=NO","h4ydubcqt3","0","46","73","20","","","","","","","","","","","","","","","",""
"null","audio/mind.wav","null","audio-keyboard-response","113","2.1.0","317405","J=YES, F=NO","h4ydubcqt3","0","46","73","20","","","","","","","","","","","","","","","",""
"1167","
          <p id=""word"" style=""font-size: 40px;"">crainate</p>
          <p style=""font-size: 16px;"">J = YES &nbsp;&nbsp;&nbsp; F = NO</p>
        ","j","html-keyboard-response","114","2.1.0","318573","J=YES, F=NO","h4ydubcqt3","0","46","73","20","","","","","","","","","crainate","mind","pseudoword","pseudoword","f","false","",""
"2106","<p>Starting practice block 2 of 2. Press any key to continue.</p>"," ","html-keyboard-response","115","2.1.0","320681","J=YES, F=NO","h4ydubcqt3","0","46","73","20","","","","","","","","","","","","","","","",""
"null","<p style=""font-size: 50px;"">+</p>","null","html-keyboard-response","116","2.1.0","320986","J=YES, F=NO","h4ydubcqt3","0","46","73","20","","","","","","","","","","","","","","","",""
"null","audio/beep-329314.mp3","null","audio-keyboard-response","117","2.1.0","322518","J=YES, F=NO","h4ydubcqt3","0","46","73","20","","","","","","","","","","","","","","","",""
"null","audio/mouth1.wav","null","audio-keyboard-response","118","2.1.0","323526","J=YES, F=NO","h4ydubcqt3","0","46","73","20","","","","","","","","","","","","","","","",""
"1112","
          <p id=""word"" style=""font-size: 40px;"">spolial</p>
          <p style=""font-size: 16px;"">J = YES &nbsp;&nbsp;&nbsp; F = NO</p>
        ","f","html-keyboard-response","119","2.1.0","324639","J=YES, F=NO","h4ydubcqt3","0","46","73","20","","","","","","","","","spolial","mouth1","pseudoword","pseudoword","f","true","",""
"null","<p style=""font-size: 50px;"">+</p>","null","html-keyboard-response","120","2.1.0","324945","J=YES, F=NO","h4ydubcqt3","0","46","73","20","","","","","","","","","","","","","","","",""
"null","audio/beep-329314.mp3","null","audio-keyboard-response","121","2.1.0","326475","J=YES, F=NO","h4ydubcqt3","0","46","73","20","","","","","","","","","","","","","","","",""
"null","audio/test1.wav","null","audio-keyboard-response","122","2.1.0","327327","J=YES, F=NO","h4ydubcqt3","0","46","73","20","","","","","","","","","","","","","","","",""
"745","
          <p id=""word"" style=""font-size: 40px;"">twopch</p>
          <p style=""font-size: 16px;"">J = YES &nbsp;&nbsp;&nbsp; F = NO</p>
        ","f","html-keyboard-response","123","2.1.0","328076","J=YES, F=NO","h4ydubcqt3","0","46","73","20","","","","","","","","","twopch","test1","pseudoword","pseudoword","f","true","",""
"null","<p style=""font-size: 50px;"">+</p>","null","html-keyboard-response","124","2.1.0","328395","J=YES, F=NO","h4ydubcqt3","0","46","73","20","","","","","","","","","","","","","","","",""
"null","audio/beep-329314.mp3","null","audio-keyboard-response","125","2.1.0","329935","J=YES, F=NO","h4ydubcqt3","0","46","73","20","","","","","","","","","","","","","","","",""
"null","audio/battle1.wav","null","audio-keyboard-response","126","2.1.0","330925","J=YES, F=NO","h4ydubcqt3","0","46","73","20","","","","","","","","","","","","","","","",""
"1104","
          <p id=""word"" style=""font-size: 40px;"">boil</p>
          <p style=""font-size: 16px;"">J = YES &nbsp;&nbsp;&nbsp; F = NO</p>
        ","f","html-keyboard-response","127","2.1.0","332031","J=YES, F=NO","h4ydubcqt3","0","46","73","20","","","","","","","","","boil","battle1","filler","filler","j","false","",""
"null","<p style=""font-size: 50px;"">+</p>","null","html-keyboard-response","128","2.1.0","332336","J=YES, F=NO","h4ydubcqt3","0","46","73","20","","","","","","","","","","","","","","","",""
"null","audio/beep-329314.mp3","null","audio-keyboard-response","129","2.1.0","333875","J=YES, F=NO","h4ydubcqt3","0","46","73","20","","","","","","","","","","","","","","","",""
"null","audio/desire.wav","null","audio-keyboard-response","130","2.1.0","342267","J=YES, F=NO","h4ydubcqt3","0","46","73","20","","","","","","","","","","","","","","","",""
"1190","
          <p id=""word"" style=""font-size: 40px;"">nophed</p>
          <p style=""font-size: 16px;"">J = YES &nbsp;&nbsp;&nbsp; F = NO</p>
        ","f","html-keyboard-response","131","2.1.0","343460","J=YES, F=NO","h4ydubcqt3","0","46","73","20","","","","","","","","","nophed","desire","pseudoword","pseudoword","f","true","",""
"null","<p style=""font-size: 50px;"">+</p>","null","html-keyboard-response","132","2.1.0","343775","J=YES, F=NO","h4ydubcqt3","0","46","73","20","","","","","","","","","","","","","","","",""
"null","audio/beep-329314.mp3","null","audio-keyboard-response","133","2.1.0","345318","J=YES, F=NO","h4ydubcqt3","0","46","73","20","","","","","","","","","","","","","","","",""
"null","audio/floor.wav","null","audio-keyboard-response","134","2.1.0","345927","J=YES, F=NO","h4ydubcqt3","0","46","73","20","","","","","","","","","","","","","","","",""
"653","
          <p id=""word"" style=""font-size: 40px;"">mop</p>
          <p style=""font-size: 16px;"">J = YES &nbsp;&nbsp;&nbsp; F = NO</p>
        ","j","html-keyboard-response","135","2.1.0","346584","J=YES, F=NO","h4ydubcqt3","0","46","73","20","","","","","","","","","mop","floor","filler","filler","j","true","",""
"null","<p style=""font-size: 50px;"">+</p>","null","html-keyboard-response","136","2.1.0","346895","J=YES, F=NO","h4ydubcqt3","0","46","73","20","","","","","","","","","","","","","","","",""
"null","audio/beep-329314.mp3","null","audio-keyboard-response","137","2.1.0","348437","J=YES, F=NO","h4ydubcqt3","0","46","73","20","","","","","","","","","","","","","","","",""
"null","audio/window1.wav","null","audio-keyboard-response","138","2.1.0","349227","J=YES, F=NO","h4ydubcqt3","0","46","73","20","","","","","","","","","","","","","","","",""
"415","
          <p id=""word"" style=""font-size: 40px;"">toss</p>
          <p style=""font-size: 16px;"">J = YES &nbsp;&nbsp;&nbsp; F = NO</p>
        ","j","html-keyboard-response","139","2.1.0","349646","J=YES, F=NO","h4ydubcqt3","0","46","73","20","","","","","","","","","toss","window1","filler","filler","j","true","",""
"null","<p style=""font-size: 50px;"">+</p>","null","html-keyboard-response","140","2.1.0","349965","J=YES, F=NO","h4ydubcqt3","0","46","73","20","","","","","","","","","","","","","","","",""
"null","audio/beep-329314.mp3","null","audio-keyboard-response","141","2.1.0","351498","J=YES, F=NO","h4ydubcqt3","0","46","73","20","","","","","","","","","","","","","","","",""
"null","audio/noise1.wav","null","audio-keyboard-response","142","2.1.0","352507","J=YES, F=NO","h4ydubcqt3","0","46","73","20","","","","","","","","","","","","","","","",""
"1041","
          <p id=""word"" style=""font-size: 40px;"">slintered</p>
          <p style=""font-size: 16px;"">J = YES &nbsp;&nbsp;&nbsp; F = NO</p>
        ","f","html-keyboard-response","143","2.1.0","353551","J=YES, F=NO","h4ydubcqt3","0","46","73","20","","","","","","","","","slintered","noise1","pseudoword","pseudoword","f","true","",""
"null","<p style=""font-size: 50px;"">+</p>","null","html-keyboard-response","144","2.1.0","353856","J=YES, F=NO","h4ydubcqt3","0","46","73","20","","","","","","","","","","","","","","","",""
"null","audio/beep-329314.mp3","null","audio-keyboard-response","145","2.1.0","355395","J=YES, F=NO","h4ydubcqt3","0","46","73","20","","","","","","","","","","","","","","","",""
"null","audio/meal.wav","null","audio-keyboard-response","146","2.1.0","355885","J=YES, F=NO","h4ydubcqt3","0","46","73","20","","","","","","","","","","","","","","","",""
"814","
          <p id=""word"" style=""font-size: 40px;"">gallite</p>
          <p style=""font-size: 16px;"">J = YES &nbsp;&nbsp;&nbsp; F = NO</p>
        ","f","html-keyboard-response","147","2.1.0","356701","J=YES, F=NO","h4ydubcqt3","0","46","73","20","","","","","","","","","gallite","meal","pseudoword","pseudoword","f","true","",""
"null","<p style=""font-size: 50px;"">+</p>","null","html-keyboard-response","148","2.1.0","357004","J=YES, F=NO","h4ydubcqt3","0","46","73","20","","","","","","","","","","","","","","","",""
"null","audio/beep-329314.mp3","null","audio-keyboard-response","149","2.1.0","358538","J=YES, F=NO","h4ydubcqt3","0","46","73","20","","","","","","","","","","","","","","","",""
"null","audio/breath.wav","null","audio-keyboard-response","150","2.1.0","359085","J=YES, F=NO","h4ydubcqt3","0","46","73","20","","","","","","","","","","","","","","","",""
"693","
          <p id=""word"" style=""font-size: 40px;"">twets</p>
          <p style=""font-size: 16px;"">J = YES &nbsp;&nbsp;&nbsp; F = NO</p>
        ","j","html-keyboard-response","151","2.1.0","359780","J=YES, F=NO","h4ydubcqt3","0","46","73","20","","","","","","","","","twets","breath","pseudoword","pseudoword","f","false","",""
"null","<p style=""font-size: 50px;"">+</p>","null","html-keyboard-response","152","2.1.0","360085","J=YES, F=NO","h4ydubcqt3","0","46","73","20","","","","","","","","","","","","","","","",""
"null","audio/beep-329314.mp3","null","audio-keyboard-response","153","2.1.0","361617","J=YES, F=NO","h4ydubcqt3","0","46","73","20","","","","","","","","","","","","","","","",""
"null","audio/baby.wav","null","audio-keyboard-response","154","2.1.0","377644","J=YES, F=NO","h4ydubcqt3","0","46","73","20","","","","","","","","","","","","","","","",""
"766","
          <p id=""word"" style=""font-size: 40px;"">lift</p>
          <p style=""font-size: 16px;"">J = YES &nbsp;&nbsp;&nbsp; F = NO</p>
        ","j","html-keyboard-response","155","2.1.0","378412","J=YES, F=NO","h4ydubcqt3","0","46","73","20","","","","","","","","","lift","baby","filler","filler","j","true","",""
"null","<p style=""font-size: 50px;"">+</p>","null","html-keyboard-response","156","2.1.0","378733","J=YES, F=NO","h4ydubcqt3","0","46","73","20","","","","","","","","","","","","","","","",""
"null","audio/beep-329314.mp3","null","audio-keyboard-response","157","2.1.0","380275","J=YES, F=NO","h4ydubcqt3","0","46","73","20","","","","","","","","","","","","","","","",""
"null","audio/golf1.wav","null","audio-keyboard-response","158","2.1.0","381285","J=YES, F=NO","h4ydubcqt3","0","46","73","20","","","","","","","","","","","","","","","",""
"667","
          <p id=""word"" style=""font-size: 40px;"">drabble</p>
          <p style=""font-size: 16px;"">J = YES &nbsp;&nbsp;&nbsp; F = NO</p>
        ","j","html-keyboard-response","159","2.1.0","381955","J=YES, F=NO","h4ydubcqt3","0","46","73","20","","","","","","","","","drabble","golf1","pseudoword","pseudoword","f","false","",""
"null","<p style=""font-size: 50px;"">+</p>","null","html-keyboard-response","160","2.1.0","382273","J=YES, F=NO","h4ydubcqt3","0","46","73","20","","","","","","","","","","","","","","","",""
"null","audio/beep-329314.mp3","null","audio-keyboard-response","161","2.1.0","383813","J=YES, F=NO","h4ydubcqt3","0","46","73","20","","","","","","","","","","","","","","","",""
"null","audio/ankle1.wav","null","audio-keyboard-response","162","2.1.0","384483","J=YES, F=NO","h4ydubcqt3","0","46","73","20","","","","","","","","","","","","","","","",""
"480","
          <p id=""word"" style=""font-size: 40px;"">kick</p>
          <p style=""font-size: 16px;"">J = YES &nbsp;&nbsp;&nbsp; F = NO</p>
        ","j","html-keyboard-response","163","2.1.0","384964","J=YES, F=NO","h4ydubcqt3","0","46","73","20","","","","","","","","","kick","ankle1","filler","filler","j","true","",""
"8272","
    <div style=""max-width: 800px; margin: auto; text-align: left;"">
      <h2>Part 2: Main Trials</h2>
      <p>Great job on the practice trials!</p>
      <p>You will now begin the <strong>main set of trials</strong>.</p>
      <p>Remember your key assignments:</p>
      <ul>
        <li><strong>J</strong> = YES (real English word)</li>
        <li><strong>F</strong> = NO (not a real English word)</li>
      </ul>
      <p>Try to respond as <strong>quickly and accurately</strong> as possible.</p>
      <p style=""margin-top: 2em;"">Press any key to begin the main trials.</p>
    </div>
  "," ","html-keyboard-response","164","2.1.0","393238","J=YES, F=NO","h4ydubcqt3","0","46","73","20","","","","","","","","","","","","","","","",""
"2309","<p>Starting main block 1 of 8. Press any key to continue.</p>"," ","html-keyboard-response","165","2.1.0","395548","J=YES, F=NO","h4ydubcqt3","0","46","73","20","","","","","","","","","","","","","","","",""
"null","<p style=""font-size: 50px;"">+</p>","null","html-keyboard-response","166","2.1.0","395850","J=YES, F=NO","h4ydubcqt3","0","46","73","20","","","","","","","","","","","","","","","",""
"null","audio/beep-329314.mp3","null","audio-keyboard-response","167","2.1.0","397375","J=YES, F=NO","h4ydubcqt3","0","46","73","20","","","","","","","","","","","","","","","",""
"null","audio/chance.wav","null","audio-keyboard-response","168","2.1.0","413574","J=YES, F=NO","h4ydubcqt3","0","46","73","20","","","","","","","","","","","","","","","",""
"1179","
          <p id=""word"" style=""font-size: 40px;"">seize</p>
          <p style=""font-size: 16px;"">J = YES &nbsp;&nbsp;&nbsp; F = NO</p>
        ","j","html-keyboard-response","169","2.1.0","414757","J=YES, F=NO","h4ydubcqt3","0","46","73","20","","","","","","","","","seize","chance","metaphor","experimental","j","true","",""
"null","<p style=""font-size: 50px;"">+</p>","null","html-keyboard-response","170","2.1.0","415061","J=YES, F=NO","h4ydubcqt3","0","46","73","20","","","","","","","","","","","","","","","",""
"null","audio/beep-329314.mp3","null","audio-keyboard-response","171","2.1.0","416602","J=YES, F=NO","h4ydubcqt3","0","46","73","20","","","","","","","","","","","","","","","",""
"null","audio/dollar.wav","null","audio-keyboard-response","172","2.1.0","416995","J=YES, F=NO","h4ydubcqt3","0","46","73","20","","","","","","","","","","","","","","","",""
"1143","
          <p id=""word"" style=""font-size: 40px;"">gliptism</p>
          <p style=""font-size: 16px;"">J = YES &nbsp;&nbsp;&nbsp; F = NO</p>
        ","f","html-keyboard-response","173","2.1.0","418142","J=YES, F=NO","h4ydubcqt3","0","46","73","20","","","","","","","","","gliptism","dollar","pseudoword","pseudoword","f","true","",""
"null","<p style=""font-size: 50px;"">+</p>","null","html-keyboard-response","174","2.1.0","418462","J=YES, F=NO","h4ydubcqt3","0","46","73","20","","","","","","","","","","","","","","","",""
"null","audio/beep-329314.mp3","null","audio-keyboard-response","175","2.1.0","420005","J=YES, F=NO","h4ydubcqt3","0","46","73","20","","","","","","","","","","","","","","","",""
"null","audio/fox.wav","null","audio-keyboard-response","176","2.1.0","420794","J=YES, F=NO","h4ydubcqt3","0","46","73","20","","","","","","","","","","","","","","","",""
"621","
          <p id=""word"" style=""font-size: 40px;"">conquer</p>
          <p style=""font-size: 16px;"">J = YES &nbsp;&nbsp;&nbsp; F = NO</p>
        ","j","html-keyboard-response","177","2.1.0","421419","J=YES, F=NO","h4ydubcqt3","0","46","73","20","","","","","","","","","conquer","fox","unrelated","experimental","j","true","",""
"null","<p style=""font-size: 50px;"">+</p>","null","html-keyboard-response","178","2.1.0","421742","J=YES, F=NO","h4ydubcqt3","0","46","73","20","","","","","","","","","","","","","","","",""
"null","audio/beep-329314.mp3","null","audio-keyboard-response","179","2.1.0","423282","J=YES, F=NO","h4ydubcqt3","0","46","73","20","","","","","","","","","","","","","","","",""
"null","audio/bridge.wav","null","audio-keyboard-response","180","2.1.0","423835","J=YES, F=NO","h4ydubcqt3","0","46","73","20","","","","","","","","","","","","","","","",""
"584","
          <p id=""word"" style=""font-size: 40px;"">crack</p>
          <p style=""font-size: 16px;"">J = YES &nbsp;&nbsp;&nbsp; F = NO</p>
        ","j","html-keyboard-response","181","2.1.0","424423","J=YES, F=NO","h4ydubcqt3","0","46","73","20","","","","","","","","","crack","bridge","filler","filler","j","true","",""
"null","<p style=""font-size: 50px;"">+</p>","null","html-keyboard-response","182","2.1.0","424741","J=YES, F=NO","h4ydubcqt3","0","46","73","20","","","","","","","","","","","","","","","",""
"null","audio/beep-329314.mp3","null","audio-keyboard-response","183","2.1.0","426284","J=YES, F=NO","h4ydubcqt3","0","46","73","20","","","","","","","","","","","","","","","",""
"null","audio/prisoner.wav","null","audio-keyboard-response","184","2.1.0","426814","J=YES, F=NO","h4ydubcqt3","0","46","73","20","","","","","","","","","","","","","","","",""
"552","
          <p id=""word"" style=""font-size: 40px;"">egotian</p>
          <p style=""font-size: 16px;"">J = YES &nbsp;&nbsp;&nbsp; F = NO</p>
        ","j","html-keyboard-response","185","2.1.0","427370","J=YES, F=NO","h4ydubcqt3","0","46","73","20","","","","","","","","","egotian","prisoner","pseudoword","pseudoword","f","false","",""
"null","<p style=""font-size: 50px;"">+</p>","null","html-keyboard-response","186","2.1.0","427691","J=YES, F=NO","h4ydubcqt3","0","46","73","20","","","","","","","","","","","","","","","",""
"null","audio/beep-329314.mp3","null","audio-keyboard-response","187","2.1.0","429224","J=YES, F=NO","h4ydubcqt3","0","46","73","20","","","","","","","","","","","","","","","",""
"null","audio/gossip1.wav","null","audio-keyboard-response","188","2.1.0","445406","J=YES, F=NO","h4ydubcqt3","0","46","73","20","","","","","","","","","","","","","","","",""
"1331","
          <p id=""word"" style=""font-size: 40px;"">wrestle</p>
          <p style=""font-size: 16px;"">J = YES &nbsp;&nbsp;&nbsp; F = NO</p>
        ","f","html-keyboard-response","189","2.1.0","446738","J=YES, F=NO","h4ydubcqt3","0","46","73","20","","","","","","","","","wrestle","gossip1","unrelated","experimental","j","false","",""
"null","<p style=""font-size: 50px;"">+</p>","null","html-keyboard-response","190","2.1.0","447055","J=YES, F=NO","h4ydubcqt3","0","46","73","20","","","","","","","","","","","","","","","",""
"null","audio/beep-329314.mp3","null","audio-keyboard-response","191","2.1.0","448596","J=YES, F=NO","h4ydubcqt3","0","46","73","20","","","","","","","","","","","","","","","",""
"null","audio/pizza1.wav","null","audio-keyboard-response","192","2.1.0","449327","J=YES, F=NO","h4ydubcqt3","0","46","73","20","","","","","","","","","","","","","","","",""
"523","
          <p id=""word"" style=""font-size: 40px;"">devour</p>
          <p style=""font-size: 16px;"">J = YES &nbsp;&nbsp;&nbsp; F = NO</p>
        ","j","html-keyboard-response","193","2.1.0","449855","J=YES, F=NO","h4ydubcqt3","0","46","73","20","","","","","","","","","devour","pizza1","literal","experimental","j","true","",""
"null","<p style=""font-size: 50px;"">+</p>","null","html-keyboard-response","194","2.1.0","450175","J=YES, F=NO","h4ydubcqt3","0","46","73","20","","","","","","","","","","","","","","","",""
"null","audio/beep-329314.mp3","null","audio-keyboard-response","195","2.1.0","451717","J=YES, F=NO","h4ydubcqt3","0","46","73","20","","","","","","","","","","","","","","","",""
"null","audio/pattern.wav","null","audio-keyboard-response","196","2.1.0","467771","J=YES, F=NO","h4ydubcqt3","0","46","73","20","","","","","","","","","","","","","","","",""
"556","
          <p id=""word"" style=""font-size: 40px;"">tug</p>
          <p style=""font-size: 16px;"">J = YES &nbsp;&nbsp;&nbsp; F = NO</p>
        ","j","html-keyboard-response","197","2.1.0","468330","J=YES, F=NO","h4ydubcqt3","0","46","73","20","","","","","","","","","tug","pattern","filler","filler","j","true","",""
"null","<p style=""font-size: 50px;"">+</p>","null","html-keyboard-response","198","2.1.0","468639","J=YES, F=NO","h4ydubcqt3","0","46","73","20","","","","","","","","","","","","","","","",""
"null","audio/beep-329314.mp3","null","audio-keyboard-response","199","2.1.0","470199","J=YES, F=NO","h4ydubcqt3","0","46","73","20","","","","","","","","","","","","","","","",""
"null","audio/cloud1.wav","null","audio-keyboard-response","200","2.1.0","471311","J=YES, F=NO","h4ydubcqt3","0","46","73","20","","","","","","","","","","","","","","","",""
"673","
          <p id=""word"" style=""font-size: 40px;"">brotant</p>
          <p style=""font-size: 16px;"">J = YES &nbsp;&nbsp;&nbsp; F = NO</p>
        ","j","html-keyboard-response","201","2.1.0","471988","J=YES, F=NO","h4ydubcqt3","0","46","73","20","","","","","","","","","brotant","cloud1","pseudoword","pseudoword","f","false","",""
"null","<p style=""font-size: 50px;"">+</p>","null","html-keyboard-response","202","2.1.0","472299","J=YES, F=NO","h4ydubcqt3","0","46","73","20","","","","","","","","","","","","","","","",""
"null","audio/beep-329314.mp3","null","audio-keyboard-response","203","2.1.0","473841","J=YES, F=NO","h4ydubcqt3","0","46","73","20","","","","","","","","","","","","","","","",""
"null","audio/ego.wav","null","audio-keyboard-response","204","2.1.0","474429","J=YES, F=NO","h4ydubcqt3","0","46","73","20","","","","","","","","","","","","","","","",""
"904","
          <p id=""word"" style=""font-size: 40px;"">bruite</p>
          <p style=""font-size: 16px;"">J = YES &nbsp;&nbsp;&nbsp; F = NO</p>
        ","j","html-keyboard-response","205","2.1.0","475334","J=YES, F=NO","h4ydubcqt3","0","46","73","20","","","","","","","","","bruite","ego","pseudoword","pseudoword","f","false","",""
"null","<p style=""font-size: 50px;"">+</p>","null","html-keyboard-response","206","2.1.0","475648","J=YES, F=NO","h4ydubcqt3","0","46","73","20","","","","","","","","","","","","","","","",""
"null","audio/beep-329314.mp3","null","audio-keyboard-response","207","2.1.0","477179","J=YES, F=NO","h4ydubcqt3","0","46","73","20","","","","","","","","","","","","","","","",""
"null","audio/theory1.wav","null","audio-keyboard-response","208","2.1.0","478189","J=YES, F=NO","h4ydubcqt3","0","46","73","20","","","","","","","","","","","","","","","",""
"609","
          <p id=""word"" style=""font-size: 40px;"">scolve</p>
          <p style=""font-size: 16px;"">J = YES &nbsp;&nbsp;&nbsp; F = NO</p>
        ","j","html-keyboard-response","209","2.1.0","478799","J=YES, F=NO","h4ydubcqt3","0","46","73","20","","","","","","","","","scolve","theory1","pseudoword","pseudoword","f","false","",""
"null","<p style=""font-size: 50px;"">+</p>","null","html-keyboard-response","210","2.1.0","479117","J=YES, F=NO","h4ydubcqt3","0","46","73","20","","","","","","","","","","","","","","","",""
"null","audio/beep-329314.mp3","null","audio-keyboard-response","211","2.1.0","480659","J=YES, F=NO","h4ydubcqt3","0","46","73","20","","","","","","","","","","","","","","","",""
"null","audio/promise1.wav","null","audio-keyboard-response","212","2.1.0","481291","J=YES, F=NO","h4ydubcqt3","0","46","73","20","","","","","","","","","","","","","","","",""
"500","
          <p id=""word"" style=""font-size: 40px;"">break</p>
          <p style=""font-size: 16px;"">J = YES &nbsp;&nbsp;&nbsp; F = NO</p>
        ","j","html-keyboard-response","213","2.1.0","481794","J=YES, F=NO","h4ydubcqt3","0","46","73","20","","","","","","","","","break","promise1","metaphor","experimental","j","true","",""
"null","<p style=""font-size: 50px;"">+</p>","null","html-keyboard-response","214","2.1.0","482099","J=YES, F=NO","h4ydubcqt3","0","46","73","20","","","","","","","","","","","","","","","",""
"null","audio/beep-329314.mp3","null","audio-keyboard-response","215","2.1.0","483641","J=YES, F=NO","h4ydubcqt3","0","46","73","20","","","","","","","","","","","","","","","",""
"null","audio/devil1.wav","null","audio-keyboard-response","216","2.1.0","484051","J=YES, F=NO","h4ydubcqt3","0","46","73","20","","","","","","","","","","","","","","","",""
"559","
          <p id=""word"" style=""font-size: 40px;"">carry</p>
          <p style=""font-size: 16px;"">J = YES &nbsp;&nbsp;&nbsp; F = NO</p>
        ","j","html-keyboard-response","217","2.1.0","484613","J=YES, F=NO","h4ydubcqt3","0","46","73","20","","","","","","","","","carry","devil1","unrelated","experimental","j","true","",""
"null","<p style=""font-size: 50px;"">+</p>","null","html-keyboard-response","218","2.1.0","484927","J=YES, F=NO","h4ydubcqt3","0","46","73","20","","","","","","","","","","","","","","","",""
"null","audio/beep-329314.mp3","null","audio-keyboard-response","219","2.1.0","486462","J=YES, F=NO","h4ydubcqt3","0","46","73","20","","","","","","","","","","","","","","","",""
"null","audio/gossip1.wav","null","audio-keyboard-response","220","2.1.0","487069","J=YES, F=NO","h4ydubcqt3","0","46","73","20","","","","","","","","","","","","","","","",""
"1160","
          <p id=""word"" style=""font-size: 40px;"">camerish</p>
          <p style=""font-size: 16px;"">J = YES &nbsp;&nbsp;&nbsp; F = NO</p>
        ","j","html-keyboard-response","221","2.1.0","488232","J=YES, F=NO","h4ydubcqt3","0","46","73","20","","","","","","","","","camerish","gossip1","pseudoword","pseudoword","f","false","",""
"null","<p style=""font-size: 50px;"">+</p>","null","html-keyboard-response","222","2.1.0","488549","J=YES, F=NO","h4ydubcqt3","0","46","73","20","","","","","","","","","","","","","","","",""
"null","audio/beep-329314.mp3","null","audio-keyboard-response","223","2.1.0","490081","J=YES, F=NO","h4ydubcqt3","0","46","73","20","","","","","","","","","","","","","","","",""
"null","audio/menu.wav","null","audio-keyboard-response","224","2.1.0","494550","J=YES, F=NO","h4ydubcqt3","0","46","73","20","","","","","","","","","","","","","","","",""
"622","
          <p id=""word"" style=""font-size: 40px;"">slice</p>
          <p style=""font-size: 16px;"">J = YES &nbsp;&nbsp;&nbsp; F = NO</p>
        ","j","html-keyboard-response","225","2.1.0","495175","J=YES, F=NO","h4ydubcqt3","0","46","73","20","","","","","","","","","slice","menu","filler","filler","j","true","",""
"null","<p style=""font-size: 50px;"">+</p>","null","html-keyboard-response","226","2.1.0","495479","J=YES, F=NO","h4ydubcqt3","0","46","73","20","","","","","","","","","","","","","","","",""
"null","audio/beep-329314.mp3","null","audio-keyboard-response","227","2.1.0","497022","J=YES, F=NO","h4ydubcqt3","0","46","73","20","","","","","","","","","","","","","","","",""
"null","audio/pine.wav","null","audio-keyboard-response","228","2.1.0","497551","J=YES, F=NO","h4ydubcqt3","0","46","73","20","","","","","","","","","","","","","","","",""
"548","
          <p id=""word"" style=""font-size: 40px;"">crebble</p>
          <p style=""font-size: 16px;"">J = YES &nbsp;&nbsp;&nbsp; F = NO</p>
        ","j","html-keyboard-response","229","2.1.0","498103","J=YES, F=NO","h4ydubcqt3","0","46","73","20","","","","","","","","","crebble","pine","pseudoword","pseudoword","f","false","",""
"43208","<p>Excellent! You have finished block 1 of 8.</p>
                     <p>Feel free to take a 30 second break.</p>
                     <p>Press any key when you're ready to continue.</p>"," ","html-keyboard-response","230","2.1.0","541314","J=YES, F=NO","h4ydubcqt3","0","46","73","20","","","","","","","","","","","","","","","",""
"1889","<p>Starting main block 2 of 8. Press any key to continue.</p>"," ","html-keyboard-response","231","2.1.0","543205","J=YES, F=NO","h4ydubcqt3","0","46","73","20","","","","","","","","","","","","","","","",""
"null","<p style=""font-size: 50px;"">+</p>","null","html-keyboard-response","232","2.1.0","543511","J=YES, F=NO","h4ydubcqt3","0","46","73","20","","","","","","","","","","","","","","","",""
"null","audio/beep-329314.mp3","null","audio-keyboard-response","233","2.1.0","545102","J=YES, F=NO","h4ydubcqt3","0","46","73","20","","","","","","","","","","","","","","","",""
"null","audio/effort.wav","null","audio-keyboard-response","234","2.1.0","561230","J=YES, F=NO","h4ydubcqt3","0","46","73","20","","","","","","","","","","","","","","","",""
"950","
          <p id=""word"" style=""font-size: 40px;"">whonk</p>
          <p style=""font-size: 16px;"">J = YES &nbsp;&nbsp;&nbsp; F = NO</p>
        ","f","html-keyboard-response","235","2.1.0","562185","J=YES, F=NO","h4ydubcqt3","0","46","73","20","","","","","","","","","whonk","effort","pseudoword","pseudoword","f","true","",""
"null","<p style=""font-size: 50px;"">+</p>","null","html-keyboard-response","236","2.1.0","562496","J=YES, F=NO","h4ydubcqt3","0","46","73","20","","","","","","","","","","","","","","","",""
"null","audio/beep-329314.mp3","null","audio-keyboard-response","237","2.1.0","564039","J=YES, F=NO","h4ydubcqt3","0","46","73","20","","","","","","","","","","","","","","","",""
"null","audio/camera1.wav","null","audio-keyboard-response","238","2.1.0","564588","J=YES, F=NO","h4ydubcqt3","0","46","73","20","","","","","","","","","","","","","","","",""
"1156","
          <p id=""word"" style=""font-size: 40px;"">stir</p>
          <p style=""font-size: 16px;"">J = YES &nbsp;&nbsp;&nbsp; F = NO</p>
        ","j","html-keyboard-response","239","2.1.0","565748","J=YES, F=NO","h4ydubcqt3","0","46","73","20","","","","","","","","","stir","camera1","filler","filler","j","true","",""
"null","<p style=""font-size: 50px;"">+</p>","null","html-keyboard-response","240","2.1.0","566068","J=YES, F=NO","h4ydubcqt3","0","46","73","20","","","","","","","","","","","","","","","",""
"null","audio/beep-329314.mp3","null","audio-keyboard-response","241","2.1.0","567600","J=YES, F=NO","h4ydubcqt3","0","46","73","20","","","","","","","","","","","","","","","",""
"null","audio/tunnel.wav","null","audio-keyboard-response","242","2.1.0","568050","J=YES, F=NO","h4ydubcqt3","0","46","73","20","","","","","","","","","","","","","","","",""
"1468","
          <p id=""word"" style=""font-size: 40px;"">gred</p>
          <p style=""font-size: 16px;"">J = YES &nbsp;&nbsp;&nbsp; F = NO</p>
        ","j","html-keyboard-response","243","2.1.0","569522","J=YES, F=NO","h4ydubcqt3","0","46","73","20","","","","","","","","","gred","tunnel","pseudoword","pseudoword","f","false","",""
"null","<p style=""font-size: 50px;"">+</p>","null","html-keyboard-response","244","2.1.0","569837","J=YES, F=NO","h4ydubcqt3","0","46","73","20","","","","","","","","","","","","","","","",""
"null","audio/beep-329314.mp3","null","audio-keyboard-response","245","2.1.0","571380","J=YES, F=NO","h4ydubcqt3","0","46","73","20","","","","","","","","","","","","","","","",""
"null","audio/cloud1.wav","null","audio-keyboard-response","246","2.1.0","571908","J=YES, F=NO","h4ydubcqt3","0","46","73","20","","","","","","","","","","","","","","","",""
"589","
          <p id=""word"" style=""font-size: 40px;"">scrap</p>
          <p style=""font-size: 16px;"">J = YES &nbsp;&nbsp;&nbsp; F = NO</p>
        ","j","html-keyboard-response","247","2.1.0","572499","J=YES, F=NO","h4ydubcqt3","0","46","73","20","","","","","","","","","scrap","cloud1","unrelated","experimental","j","true","",""
"null","<p style=""font-size: 50px;"">+</p>","null","html-keyboard-response","248","2.1.0","572818","J=YES, F=NO","h4ydubcqt3","0","46","73","20","","","","","","","","","","","","","","","",""
"null","audio/beep-329314.mp3","null","audio-keyboard-response","249","2.1.0","574359","J=YES, F=NO","h4ydubcqt3","0","46","73","20","","","","","","","","","","","","","","","",""
"null","audio/show.wav","null","audio-keyboard-response","250","2.1.0","582747","J=YES, F=NO","h4ydubcqt3","0","46","73","20","","","","","","","","","","","","","","","",""
"704","
          <p id=""word"" style=""font-size: 40px;"">hold</p>
          <p style=""font-size: 16px;"">J = YES &nbsp;&nbsp;&nbsp; F = NO</p>
        ","j","html-keyboard-response","251","2.1.0","583453","J=YES, F=NO","h4ydubcqt3","0","46","73","20","","","","","","","","","hold","show","metaphor","experimental","j","true","",""
"null","<p style=""font-size: 50px;"">+</p>","null","html-keyboard-response","252","2.1.0","583767","J=YES, F=NO","h4ydubcqt3","0","46","73","20","","","","","","","","","","","","","","","",""
"null","audio/beep-329314.mp3","null","audio-keyboard-response","253","2.1.0","585301","J=YES, F=NO","h4ydubcqt3","0","46","73","20","","","","","","","","","","","","","","","",""
"null","audio/sand.wav","null","audio-keyboard-response","254","2.1.0","586390","J=YES, F=NO","h4ydubcqt3","0","46","73","20","","","","","","","","","","","","","","","",""
"1204","
          <p id=""word"" style=""font-size: 40px;"">possess</p>
          <p style=""font-size: 16px;"">J = YES &nbsp;&nbsp;&nbsp; F = NO</p>
        ","j","html-keyboard-response","255","2.1.0","587599","J=YES, F=NO","h4ydubcqt3","0","46","73","20","","","","","","","","","possess","sand","unrelated","experimental","j","true","",""
"null","<p style=""font-size: 50px;"">+</p>","null","html-keyboard-response","256","2.1.0","587908","J=YES, F=NO","h4ydubcqt3","0","46","73","20","","","","","","","","","","","","","","","",""
"null","audio/beep-329314.mp3","null","audio-keyboard-response","257","2.1.0","589439","J=YES, F=NO","h4ydubcqt3","0","46","73","20","","","","","","","","","","","","","","","",""
"null","audio/terrain.wav","null","audio-keyboard-response","258","2.1.0","590089","J=YES, F=NO","h4ydubcqt3","0","46","73","20","","","","","","","","","","","","","","","",""
"517","
          <p id=""word"" style=""font-size: 40px;"">twist</p>
          <p style=""font-size: 16px;"">J = YES &nbsp;&nbsp;&nbsp; F = NO</p>
        ","j","html-keyboard-response","259","2.1.0","590610","J=YES, F=NO","h4ydubcqt3","0","46","73","20","","","","","","","","","twist","terrain","filler","filler","j","true","",""
"null","<p style=""font-size: 50px;"">+</p>","null","html-keyboard-response","260","2.1.0","590927","J=YES, F=NO","h4ydubcqt3","0","46","73","20","","","","","","","","","","","","","","","",""
"null","audio/beep-329314.mp3","null","audio-keyboard-response","261","2.1.0","592459","J=YES, F=NO","h4ydubcqt3","0","46","73","20","","","","","","","","","","","","","","","",""
"null","audio/arm.wav","null","audio-keyboard-response","262","2.1.0","593069","J=YES, F=NO","h4ydubcqt3","0","46","73","20","","","","","","","","","","","","","","","",""
"447","
          <p id=""word"" style=""font-size: 40px;"">fold</p>
          <p style=""font-size: 16px;"">J = YES &nbsp;&nbsp;&nbsp; F = NO</p>
        ","j","html-keyboard-response","263","2.1.0","593519","J=YES, F=NO","h4ydubcqt3","0","46","73","20","","","","","","","","","fold","arm","filler","filler","j","true","",""
"null","<p style=""font-size: 50px;"">+</p>","null","html-keyboard-response","264","2.1.0","593837","J=YES, F=NO","h4ydubcqt3","0","46","73","20","","","","","","","","","","","","","","","",""
"null","audio/beep-329314.mp3","null","audio-keyboard-response","265","2.1.0","595379","J=YES, F=NO","h4ydubcqt3","0","46","73","20","","","","","","","","","","","","","","","",""
"null","audio/cottage1.wav","null","audio-keyboard-response","266","2.1.0","596048","J=YES, F=NO","h4ydubcqt3","0","46","73","20","","","","","","","","","","","","","","","",""
"550","
          <p id=""word"" style=""font-size: 40px;"">release</p>
          <p style=""font-size: 16px;"">J = YES &nbsp;&nbsp;&nbsp; F = NO</p>
        ","j","html-keyboard-response","267","2.1.0","596600","J=YES, F=NO","h4ydubcqt3","0","46","73","20","","","","","","","","","release","cottage1","unrelated","experimental","j","true","",""
"null","<p style=""font-size: 50px;"">+</p>","null","html-keyboard-response","268","2.1.0","596908","J=YES, F=NO","h4ydubcqt3","0","46","73","20","","","","","","","","","","","","","","","",""
"null","audio/beep-329314.mp3","null","audio-keyboard-response","269","2.1.0","598440","J=YES, F=NO","h4ydubcqt3","0","46","73","20","","","","","","","","","","","","","","","",""
"null","audio/bottle.wav","null","audio-keyboard-response","270","2.1.0","599329","J=YES, F=NO","h4ydubcqt3","0","46","73","20","","","","","","","","","","","","","","","",""
"565","
          <p id=""word"" style=""font-size: 40px;"">watch</p>
          <p style=""font-size: 16px;"">J = YES &nbsp;&nbsp;&nbsp; F = NO</p>
        ","j","html-keyboard-response","271","2.1.0","599897","J=YES, F=NO","h4ydubcqt3","0","46","73","20","","","","","","","","","watch","bottle","filler","filler","j","true","",""
"null","<p style=""font-size: 50px;"">+</p>","null","html-keyboard-response","272","2.1.0","600208","J=YES, F=NO","h4ydubcqt3","0","46","73","20","","","","","","","","","","","","","","","",""
"null","audio/beep-329314.mp3","null","audio-keyboard-response","273","2.1.0","601740","J=YES, F=NO","h4ydubcqt3","0","46","73","20","","","","","","","","","","","","","","","",""
"null","audio/radio1.wav","null","audio-keyboard-response","274","2.1.0","610039","J=YES, F=NO","h4ydubcqt3","0","46","73","20","","","","","","","","","","","","","","","",""
"1079","
          <p id=""word"" style=""font-size: 40px;"">blanter</p>
          <p style=""font-size: 16px;"">J = YES &nbsp;&nbsp;&nbsp; F = NO</p>
        ","j","html-keyboard-response","275","2.1.0","611122","J=YES, F=NO","h4ydubcqt3","0","46","73","20","","","","","","","","","blanter","radio1","pseudoword","pseudoword","f","false","",""
"null","<p style=""font-size: 50px;"">+</p>","null","html-keyboard-response","276","2.1.0","611432","J=YES, F=NO","h4ydubcqt3","0","46","73","20","","","","","","","","","","","","","","","",""
"null","audio/beep-329314.mp3","null","audio-keyboard-response","277","2.1.0","612960","J=YES, F=NO","h4ydubcqt3","0","46","73","20","","","","","","","","","","","","","","","",""
"null","audio/roof1.wav","null","audio-keyboard-response","278","2.1.0","613540","J=YES, F=NO","h4ydubcqt3","0","46","73","20","","","","","","","","","","","","","","","",""
"715","
          <p id=""word"" style=""font-size: 40px;"">wronb</p>
          <p style=""font-size: 16px;"">J = YES &nbsp;&nbsp;&nbsp; F = NO</p>
        ","f","html-keyboard-response","279","2.1.0","614258","J=YES, F=NO","h4ydubcqt3","0","46","73","20","","","","","","","","","wronb","roof1","pseudoword","pseudoword","f","true","",""
"null","<p style=""font-size: 50px;"">+</p>","null","html-keyboard-response","280","2.1.0","614568","J=YES, F=NO","h4ydubcqt3","0","46","73","20","","","","","","","","","","","","","","","",""
"null","audio/beep-329314.mp3","null","audio-keyboard-response","281","2.1.0","616101","J=YES, F=NO","h4ydubcqt3","0","46","73","20","","","","","","","","","","","","","","","",""
"null","audio/age1.wav","null","audio-keyboard-response","282","2.1.0","616639","J=YES, F=NO","h4ydubcqt3","0","46","73","20","","","","","","","","","","","","","","","",""
"648","
          <p id=""word"" style=""font-size: 40px;"">lachry</p>
          <p style=""font-size: 16px;"">J = YES &nbsp;&nbsp;&nbsp; F = NO</p>
        ","f","html-keyboard-response","283","2.1.0","617291","J=YES, F=NO","h4ydubcqt3","0","46","73","20","","","","","","","","","lachry","age1","pseudoword","pseudoword","f","true","",""
"null","<p style=""font-size: 50px;"">+</p>","null","html-keyboard-response","284","2.1.0","617598","J=YES, F=NO","h4ydubcqt3","0","46","73","20","","","","","","","","","","","","","","","",""
"null","audio/beep-329314.mp3","null","audio-keyboard-response","285","2.1.0","619141","J=YES, F=NO","h4ydubcqt3","0","46","73","20","","","","","","","","","","","","","","","",""
"null","audio/cinema1.wav","null","audio-keyboard-response","286","2.1.0","620160","J=YES, F=NO","h4ydubcqt3","0","46","73","20","","","","","","","","","","","","","","","",""
"1213","
          <p id=""word"" style=""font-size: 40px;"">murple</p>
          <p style=""font-size: 16px;"">J = YES &nbsp;&nbsp;&nbsp; F = NO</p>
        ","j","html-keyboard-response","287","2.1.0","621377","J=YES, F=NO","h4ydubcqt3","0","46","73","20","","","","","","","","","murple","cinema1","pseudoword","pseudoword","f","false","",""
"null","<p style=""font-size: 50px;"">+</p>","null","html-keyboard-response","288","2.1.0","621686","J=YES, F=NO","h4ydubcqt3","0","46","73","20","","","","","","","","","","","","","","","",""
"null","audio/beep-329314.mp3","null","audio-keyboard-response","289","2.1.0","623217","J=YES, F=NO","h4ydubcqt3","0","46","73","20","","","","","","","","","","","","","","","",""
"null","audio/voice.wav","null","audio-keyboard-response","290","2.1.0","623838","J=YES, F=NO","h4ydubcqt3","0","46","73","20","","","","","","","","","","","","","","","",""
"920","
          <p id=""word"" style=""font-size: 40px;"">grintle</p>
          <p style=""font-size: 16px;"">J = YES &nbsp;&nbsp;&nbsp; F = NO</p>
        ","f","html-keyboard-response","291","2.1.0","624759","J=YES, F=NO","h4ydubcqt3","0","46","73","20","","","","","","","","","grintle","voice","pseudoword","pseudoword","f","true","",""
"null","<p style=""font-size: 50px;"">+</p>","null","html-keyboard-response","292","2.1.0","625066","J=YES, F=NO","h4ydubcqt3","0","46","73","20","","","","","","","","","","","","","","","",""
"null","audio/beep-329314.mp3","null","audio-keyboard-response","293","2.1.0","626599","J=YES, F=NO","h4ydubcqt3","0","46","73","20","","","","","","","","","","","","","","","",""
"null","audio/kettle1.wav","null","audio-keyboard-response","294","2.1.0","627059","J=YES, F=NO","h4ydubcqt3","0","46","73","20","","","","","","","","","","","","","","","",""
"1060","
          <p id=""word"" style=""font-size: 40px;"">navigate</p>
          <p style=""font-size: 16px;"">J = YES &nbsp;&nbsp;&nbsp; F = NO</p>
        ","j","html-keyboard-response","295","2.1.0","628123","J=YES, F=NO","h4ydubcqt3","0","46","73","20","","","","","","","","","navigate","kettle1","unrelated","experimental","j","true","",""
"5020","<p>Excellent! You have finished block 2 of 8.</p>
                     <p>Feel free to take a 30 second break.</p>
                     <p>Press any key when you're ready to continue.</p>"," ","html-keyboard-response","296","2.1.0","633147","J=YES, F=NO","h4ydubcqt3","0","46","73","20","","","","","","","","","","","","","","","",""
"710","<p>Starting main block 3 of 8. Press any key to continue.</p>"," ","html-keyboard-response","297","2.1.0","633860","J=YES, F=NO","h4ydubcqt3","0","46","73","20","","","","","","","","","","","","","","","",""
"null","<p style=""font-size: 50px;"">+</p>","null","html-keyboard-response","298","2.1.0","634167","J=YES, F=NO","h4ydubcqt3","0","46","73","20","","","","","","","","","","","","","","","",""
"null","audio/beep-329314.mp3","null","audio-keyboard-response","299","2.1.0","635699","J=YES, F=NO","h4ydubcqt3","0","46","73","20","","","","","","","","","","","","","","","",""
"null","audio/trout1.wav","null","audio-keyboard-response","300","2.1.0","653209","J=YES, F=NO","h4ydubcqt3","0","46","73","20","","","","","","","","","","","","","","","",""
"1252","
          <p id=""word"" style=""font-size: 40px;"">spimt</p>
          <p style=""font-size: 16px;"">J = YES &nbsp;&nbsp;&nbsp; F = NO</p>
        ","j","html-keyboard-response","301","2.1.0","654465","J=YES, F=NO","h4ydubcqt3","0","46","73","20","","","","","","","","","spimt","trout1","pseudoword","pseudoword","f","false","",""
"null","<p style=""font-size: 50px;"">+</p>","null","html-keyboard-response","302","2.1.0","654777","J=YES, F=NO","h4ydubcqt3","0","46","73","20","","","","","","","","","","","","","","","",""
"null","audio/beep-329314.mp3","null","audio-keyboard-response","303","2.1.0","656320","J=YES, F=NO","h4ydubcqt3","0","46","73","20","","","","","","","","","","","","","","","",""
"null","audio/truth1.wav","null","audio-keyboard-response","304","2.1.0","657308","J=YES, F=NO","h4ydubcqt3","0","46","73","20","","","","","","","","","","","","","","","",""
"1162","
          <p id=""word"" style=""font-size: 40px;"">calitom</p>
          <p style=""font-size: 16px;"">J = YES &nbsp;&nbsp;&nbsp; F = NO</p>
        ","f","html-keyboard-response","305","2.1.0","658474","J=YES, F=NO","h4ydubcqt3","0","46","73","20","","","","","","","","","calitom","truth1","pseudoword","pseudoword","f","true","",""
"null","<p style=""font-size: 50px;"">+</p>","null","html-keyboard-response","306","2.1.0","658797","J=YES, F=NO","h4ydubcqt3","0","46","73","20","","","","","","","","","","","","","","","",""
"null","audio/beep-329314.mp3","null","audio-keyboard-response","307","2.1.0","660339","J=YES, F=NO","h4ydubcqt3","0","46","73","20","","","","","","","","","","","","","","","",""
"null","audio/pain1.wav","null","audio-keyboard-response","308","2.1.0","660809","J=YES, F=NO","h4ydubcqt3","0","46","73","20","","","","","","","","","","","","","","","",""
"655","
          <p id=""word"" style=""font-size: 40px;"">sell</p>
          <p style=""font-size: 16px;"">J = YES &nbsp;&nbsp;&nbsp; F = NO</p>
        ","j","html-keyboard-response","309","2.1.0","661468","J=YES, F=NO","h4ydubcqt3","0","46","73","20","","","","","","","","","sell","pain1","unrelated","experimental","j","true","",""
"null","<p style=""font-size: 50px;"">+</p>","null","html-keyboard-response","310","2.1.0","661778","J=YES, F=NO","h4ydubcqt3","0","46","73","20","","","","","","","","","","","","","","","",""
"null","audio/beep-329314.mp3","null","audio-keyboard-response","311","2.1.0","663319","J=YES, F=NO","h4ydubcqt3","0","46","73","20","","","","","","","","","","","","","","","",""
"null","audio/uncle1.wav","null","audio-keyboard-response","312","2.1.0","671660","J=YES, F=NO","h4ydubcqt3","0","46","73","20","","","","","","","","","","","","","","","",""
"778","
          <p id=""word"" style=""font-size: 40px;"">dramble</p>
          <p style=""font-size: 16px;"">J = YES &nbsp;&nbsp;&nbsp; F = NO</p>
        ","j","html-keyboard-response","313","2.1.0","672442","J=YES, F=NO","h4ydubcqt3","0","46","73","20","","","","","","","","","dramble","uncle1","pseudoword","pseudoword","f","false","",""
"null","<p style=""font-size: 50px;"">+</p>","null","html-keyboard-response","314","2.1.0","672758","J=YES, F=NO","h4ydubcqt3","0","46","73","20","","","","","","","","","","","","","","","",""
"null","audio/beep-329314.mp3","null","audio-keyboard-response","315","2.1.0","674299","J=YES, F=NO","h4ydubcqt3","0","46","73","20","","","","","","","","","","","","","","","",""
"null","audio/tax1.wav","null","audio-keyboard-response","316","2.1.0","674960","J=YES, F=NO","h4ydubcqt3","0","46","73","20","","","","","","","","","","","","","","","",""
"null","
          <p id=""word"" style=""font-size: 40px;"">snate</p>
          <p style=""font-size: 16px;"">J = YES &nbsp;&nbsp;&nbsp; F = NO</p>
        ","null","html-keyboard-response","317","2.1.0","676477","J=YES, F=NO","h4ydubcqt3","0","46","73","20","","","","","","","","","snate","tax1","pseudoword","pseudoword","f","false","",""
"null","<p style=""font-size: 50px;"">+</p>","null","html-keyboard-response","318","2.1.0","676798","J=YES, F=NO","h4ydubcqt3","0","46","73","20","","","","","","","","","","","","","","","",""
"null","audio/beep-329314.mp3","null","audio-keyboard-response","319","2.1.0","678339","J=YES, F=NO","h4ydubcqt3","0","46","73","20","","","","","","","","","","","","","","","",""
"null","audio/alarm1.wav","null","audio-keyboard-response","320","2.1.0","679339","J=YES, F=NO","h4ydubcqt3","0","46","73","20","","","","","","","","","","","","","","","",""
"510","
          <p id=""word"" style=""font-size: 40px;"">lock</p>
          <p style=""font-size: 16px;"">J = YES &nbsp;&nbsp;&nbsp; F = NO</p>
        ","j","html-keyboard-response","321","2.1.0","679853","J=YES, F=NO","h4ydubcqt3","0","46","73","20","","","","","","","","","lock","alarm1","filler","filler","j","true","",""
"null","<p style=""font-size: 50px;"">+</p>","null","html-keyboard-response","322","2.1.0","680158","J=YES, F=NO","h4ydubcqt3","0","46","73","20","","","","","","","","","","","","","","","",""
"null","audio/beep-329314.mp3","null","audio-keyboard-response","323","2.1.0","681698","J=YES, F=NO","h4ydubcqt3","0","46","73","20","","","","","","","","","","","","","","","",""
"null","audio/cash1.wav","null","audio-keyboard-response","324","2.1.0","682299","J=YES, F=NO","h4ydubcqt3","0","46","73","20","","","","","","","","","","","","","","","",""
"989","
          <p id=""word"" style=""font-size: 40px;"">splear</p>
          <p style=""font-size: 16px;"">J = YES &nbsp;&nbsp;&nbsp; F = NO</p>
        ","j","html-keyboard-response","325","2.1.0","683293","J=YES, F=NO","h4ydubcqt3","0","46","73","20","","","","","","","","","splear","cash1","pseudoword","pseudoword","f","false","",""
"null","<p style=""font-size: 50px;"">+</p>","null","html-keyboard-response","326","2.1.0","683608","J=YES, F=NO","h4ydubcqt3","0","46","73","20","","","","","","","","","","","","","","","",""
"null","audio/beep-329314.mp3","null","audio-keyboard-response","327","2.1.0","685140","J=YES, F=NO","h4ydubcqt3","0","46","73","20","","","","","","","","","","","","","","","",""
"null","audio/pain1.wav","null","audio-keyboard-response","328","2.1.0","685577","J=YES, F=NO","h4ydubcqt3","0","46","73","20","","","","","","","","","","","","","","","",""
"543","
          <p id=""word"" style=""font-size: 40px;"">tritted</p>
          <p style=""font-size: 16px;"">J = YES &nbsp;&nbsp;&nbsp; F = NO</p>
        ","j","html-keyboard-response","329","2.1.0","686121","J=YES, F=NO","h4ydubcqt3","0","46","73","20","","","","","","","","","tritted","pain1","pseudoword","pseudoword","f","false","",""
"null","<p style=""font-size: 50px;"">+</p>","null","html-keyboard-response","330","2.1.0","686437","J=YES, F=NO","h4ydubcqt3","0","46","73","20","","","","","","","","","","","","","","","",""
"null","audio/beep-329314.mp3","null","audio-keyboard-response","331","2.1.0","687979","J=YES, F=NO","h4ydubcqt3","0","46","73","20","","","","","","","","","","","","","","","",""
"null","audio/arm.wav","null","audio-keyboard-response","332","2.1.0","688518","J=YES, F=NO","h4ydubcqt3","0","46","73","20","","","","","","","","","","","","","","","",""
"697","
          <p id=""word"" style=""font-size: 40px;"">pigne</p>
          <p style=""font-size: 16px;"">J = YES &nbsp;&nbsp;&nbsp; F = NO</p>
        ","f","html-keyboard-response","333","2.1.0","689218","J=YES, F=NO","h4ydubcqt3","0","46","73","20","","","","","","","","","pigne","arm","pseudoword","pseudoword","f","true","",""
"null","<p style=""font-size: 50px;"">+</p>","null","html-keyboard-response","334","2.1.0","689527","J=YES, F=NO","h4ydubcqt3","0","46","73","20","","","","","","","","","","","","","","","",""
"null","audio/beep-329314.mp3","null","audio-keyboard-response","335","2.1.0","691059","J=YES, F=NO","h4ydubcqt3","0","46","73","20","","","","","","","","","","","","","","","",""
"null","audio/theory1.wav","null","audio-keyboard-response","336","2.1.0","691679","J=YES, F=NO","h4ydubcqt3","0","46","73","20","","","","","","","","","","","","","","","",""
"892","
          <p id=""word"" style=""font-size: 40px;"">construct</p>
          <p style=""font-size: 16px;"">J = YES &nbsp;&nbsp;&nbsp; F = NO</p>
        ","j","html-keyboard-response","337","2.1.0","692575","J=YES, F=NO","h4ydubcqt3","0","46","73","20","","","","","","","","","construct","theory1","metaphor","experimental","j","true","",""
"null","<p style=""font-size: 50px;"">+</p>","null","html-keyboard-response","338","2.1.0","692883","J=YES, F=NO","h4ydubcqt3","0","46","73","20","","","","","","","","","","","","","","","",""
"null","audio/beep-329314.mp3","null","audio-keyboard-response","339","2.1.0","694417","J=YES, F=NO","h4ydubcqt3","0","46","73","20","","","","","","","","","","","","","","","",""
"null","audio/cinema1.wav","null","audio-keyboard-response","340","2.1.0","695022","J=YES, F=NO","h4ydubcqt3","0","46","73","20","","","","","","","","","","","","","","","",""
"560","
          <p id=""word"" style=""font-size: 40px;"">grow</p>
          <p style=""font-size: 16px;"">J = YES &nbsp;&nbsp;&nbsp; F = NO</p>
        ","j","html-keyboard-response","341","2.1.0","695584","J=YES, F=NO","h4ydubcqt3","0","46","73","20","","","","","","","","","grow","cinema1","unrelated","experimental","j","true","",""
"null","<p style=""font-size: 50px;"">+</p>","null","html-keyboard-response","342","2.1.0","695908","J=YES, F=NO","h4ydubcqt3","0","46","73","20","","","","","","","","","","","","","","","",""
"null","audio/beep-329314.mp3","null","audio-keyboard-response","343","2.1.0","697438","J=YES, F=NO","h4ydubcqt3","0","46","73","20","","","","","","","","","","","","","","","",""
"null","audio/purpose.wav","null","audio-keyboard-response","344","2.1.0","698519","J=YES, F=NO","h4ydubcqt3","0","46","73","20","","","","","","","","","","","","","","","",""
"546","
          <p id=""word"" style=""font-size: 40px;"">defeat</p>
          <p style=""font-size: 16px;"">J = YES &nbsp;&nbsp;&nbsp; F = NO</p>
        ","j","html-keyboard-response","345","2.1.0","699069","J=YES, F=NO","h4ydubcqt3","0","46","73","20","","","","","","","","","defeat","purpose","metaphor","experimental","j","true","",""
"null","<p style=""font-size: 50px;"">+</p>","null","html-keyboard-response","346","2.1.0","699388","J=YES, F=NO","h4ydubcqt3","0","46","73","20","","","","","","","","","","","","","","","",""
"null","audio/beep-329314.mp3","null","audio-keyboard-response","347","2.1.0","700919","J=YES, F=NO","h4ydubcqt3","0","46","73","20","","","","","","","","","","","","","","","",""
"null","audio/smirk1.wav","null","audio-keyboard-response","348","2.1.0","701677","J=YES, F=NO","h4ydubcqt3","0","46","73","20","","","","","","","","","","","","","","","",""
"590","
          <p id=""word"" style=""font-size: 40px;"">snopt</p>
          <p style=""font-size: 16px;"">J = YES &nbsp;&nbsp;&nbsp; F = NO</p>
        ","f","html-keyboard-response","349","2.1.0","702270","J=YES, F=NO","h4ydubcqt3","0","46","73","20","","","","","","","","","snopt","smirk1","pseudoword","pseudoword","f","true","",""
"null","<p style=""font-size: 50px;"">+</p>","null","html-keyboard-response","350","2.1.0","702578","J=YES, F=NO","h4ydubcqt3","0","46","73","20","","","","","","","","","","","","","","","",""
"null","audio/beep-329314.mp3","null","audio-keyboard-response","351","2.1.0","704120","J=YES, F=NO","h4ydubcqt3","0","46","73","20","","","","","","","","","","","","","","","",""
"null","audio/table1.wav","null","audio-keyboard-response","352","2.1.0","704659","J=YES, F=NO","h4ydubcqt3","0","46","73","20","","","","","","","","","","","","","","","",""
"598","
          <p id=""word"" style=""font-size: 40px;"">clear</p>
          <p style=""font-size: 16px;"">J = YES &nbsp;&nbsp;&nbsp; F = NO</p>
        ","j","html-keyboard-response","353","2.1.0","705260","J=YES, F=NO","h4ydubcqt3","0","46","73","20","","","","","","","","","clear","table1","literal","experimental","j","true","",""
"null","<p style=""font-size: 50px;"">+</p>","null","html-keyboard-response","354","2.1.0","705577","J=YES, F=NO","h4ydubcqt3","0","46","73","20","","","","","","","","","","","","","","","",""
"null","audio/beep-329314.mp3","null","audio-keyboard-response","355","2.1.0","707119","J=YES, F=NO","h4ydubcqt3","0","46","73","20","","","","","","","","","","","","","","","",""
"null","audio/trout1.wav","null","audio-keyboard-response","356","2.1.0","707698","J=YES, F=NO","h4ydubcqt3","0","46","73","20","","","","","","","","","","","","","","","",""
"695","
          <p id=""word"" style=""font-size: 40px;"">catch</p>
          <p style=""font-size: 16px;"">J = YES &nbsp;&nbsp;&nbsp; F = NO</p>
        ","j","html-keyboard-response","357","2.1.0","708395","J=YES, F=NO","h4ydubcqt3","0","46","73","20","","","","","","","","","catch","trout1","literal","experimental","j","true","",""
"null","<p style=""font-size: 50px;"">+</p>","null","html-keyboard-response","358","2.1.0","708707","J=YES, F=NO","h4ydubcqt3","0","46","73","20","","","","","","","","","","","","","","","",""
"null","audio/beep-329314.mp3","null","audio-keyboard-response","359","2.1.0","710238","J=YES, F=NO","h4ydubcqt3","0","46","73","20","","","","","","","","","","","","","","","",""
"null","audio/cash1.wav","null","audio-keyboard-response","360","2.1.0","710799","J=YES, F=NO","h4ydubcqt3","0","46","73","20","","","","","","","","","","","","","","","",""
"518","
          <p id=""word"" style=""font-size: 40px;"">invest</p>
          <p style=""font-size: 16px;"">J = YES &nbsp;&nbsp;&nbsp; F = NO</p>
        ","j","html-keyboard-response","361","2.1.0","711321","J=YES, F=NO","h4ydubcqt3","0","46","73","20","","","","","","","","","invest","cash1","literal","experimental","j","true","",""
"1029","<p>Excellent! You have finished block 3 of 8.</p>
                     <p>Feel free to take a 30 second break.</p>
                     <p>Press any key when you're ready to continue.</p>"," ","html-keyboard-response","362","2.1.0","712352","J=YES, F=NO","h4ydubcqt3","0","46","73","20","","","","","","","","","","","","","","","",""
"287","<p>Starting main block 4 of 8. Press any key to continue.</p>"," ","html-keyboard-response","363","2.1.0","712642","J=YES, F=NO","h4ydubcqt3","0","46","73","20","","","","","","","","","","","","","","","",""
"null","<p style=""font-size: 50px;"">+</p>","null","html-keyboard-response","364","2.1.0","712957","J=YES, F=NO","h4ydubcqt3","0","46","73","20","","","","","","","","","","","","","","","",""
"null","audio/beep-329314.mp3","null","audio-keyboard-response","365","2.1.0","714498","J=YES, F=NO","h4ydubcqt3","0","46","73","20","","","","","","","","","","","","","","","",""
"null","audio/holiday1.wav","null","audio-keyboard-response","366","2.1.0","715559","J=YES, F=NO","h4ydubcqt3","0","46","73","20","","","","","","","","","","","","","","","",""
"853","
          <p id=""word"" style=""font-size: 40px;"">drivets</p>
          <p style=""font-size: 16px;"">J = YES &nbsp;&nbsp;&nbsp; F = NO</p>
        ","f","html-keyboard-response","367","2.1.0","716416","J=YES, F=NO","h4ydubcqt3","0","46","73","20","","","","","","","","","drivets","holiday1","pseudoword","pseudoword","f","true","",""
"null","<p style=""font-size: 50px;"">+</p>","null","html-keyboard-response","368","2.1.0","716726","J=YES, F=NO","h4ydubcqt3","0","46","73","20","","","","","","","","","","","","","","","",""
"null","audio/beep-329314.mp3","null","audio-keyboard-response","369","2.1.0","718260","J=YES, F=NO","h4ydubcqt3","0","46","73","20","","","","","","","","","","","","","","","",""
"null","audio/ankle1.wav","null","audio-keyboard-response","370","2.1.0","718779","J=YES, F=NO","h4ydubcqt3","0","46","73","20","","","","","","","","","","","","","","","",""
"594","
          <p id=""word"" style=""font-size: 40px;"">switm</p>
          <p style=""font-size: 16px;"">J = YES &nbsp;&nbsp;&nbsp; F = NO</p>
        ","f","html-keyboard-response","371","2.1.0","719378","J=YES, F=NO","h4ydubcqt3","0","46","73","20","","","","","","","","","switm","ankle1","pseudoword","pseudoword","f","true","",""
"null","<p style=""font-size: 50px;"">+</p>","null","html-keyboard-response","372","2.1.0","719688","J=YES, F=NO","h4ydubcqt3","0","46","73","20","","","","","","","","","","","","","","","",""
"null","audio/beep-329314.mp3","null","audio-keyboard-response","373","2.1.0","721219","J=YES, F=NO","h4ydubcqt3","0","46","73","20","","","","","","","","","","","","","","","",""
"null","audio/beach1.wav","null","audio-keyboard-response","374","2.1.0","729500","J=YES, F=NO","h4ydubcqt3","0","46","73","20","","","","","","","","","","","","","","","",""
"610","
          <p id=""word"" style=""font-size: 40px;"">drive</p>
          <p style=""font-size: 16px;"">J = YES &nbsp;&nbsp;&nbsp; F = NO</p>
        ","j","html-keyboard-response","375","2.1.0","730113","J=YES, F=NO","h4ydubcqt3","0","46","73","20","","","","","","","","","drive","beach1","filler","filler","j","true","",""
"null","<p style=""font-size: 50px;"">+</p>","null","html-keyboard-response","376","2.1.0","730417","J=YES, F=NO","h4ydubcqt3","0","46","73","20","","","","","","","","","","","","","","","",""
"null","audio/beep-329314.mp3","null","audio-keyboard-response","377","2.1.0","731957","J=YES, F=NO","h4ydubcqt3","0","46","73","20","","","","","","","","","","","","","","","",""
"null","audio/scar.wav","null","audio-keyboard-response","378","2.1.0","732579","J=YES, F=NO","h4ydubcqt3","0","46","73","20","","","","","","","","","","","","","","","",""
"515","
          <p id=""word"" style=""font-size: 40px;"">hide</p>
          <p style=""font-size: 16px;"">J = YES &nbsp;&nbsp;&nbsp; F = NO</p>
        ","j","html-keyboard-response","379","2.1.0","733098","J=YES, F=NO","h4ydubcqt3","0","46","73","20","","","","","","","","","hide","scar","literal","experimental","j","true","",""
"null","<p style=""font-size: 50px;"">+</p>","null","html-keyboard-response","380","2.1.0","733406","J=YES, F=NO","h4ydubcqt3","0","46","73","20","","","","","","","","","","","","","","","",""
"null","audio/beep-329314.mp3","null","audio-keyboard-response","381","2.1.0","734940","J=YES, F=NO","h4ydubcqt3","0","46","73","20","","","","","","","","","","","","","","","",""
"null","audio/budget1.wav","null","audio-keyboard-response","382","2.1.0","735979","J=YES, F=NO","h4ydubcqt3","0","46","73","20","","","","","","","","","","","","","","","",""
"621","
          <p id=""word"" style=""font-size: 40px;"">cut</p>
          <p style=""font-size: 16px;"">J = YES &nbsp;&nbsp;&nbsp; F = NO</p>
        ","j","html-keyboard-response","383","2.1.0","736604","J=YES, F=NO","h4ydubcqt3","0","46","73","20","","","","","","","","","cut","budget1","metaphor","experimental","j","true","",""
"null","<p style=""font-size: 50px;"">+</p>","null","html-keyboard-response","384","2.1.0","736916","J=YES, F=NO","h4ydubcqt3","0","46","73","20","","","","","","","","","","","","","","","",""
"null","audio/beep-329314.mp3","null","audio-keyboard-response","385","2.1.0","738459","J=YES, F=NO","h4ydubcqt3","0","46","73","20","","","","","","","","","","","","","","","",""
"null","audio/pig.wav","null","audio-keyboard-response","386","2.1.0","738859","J=YES, F=NO","h4ydubcqt3","0","46","73","20","","","","","","","","","","","","","","","",""
"791","
          <p id=""word"" style=""font-size: 40px;"">tirlike</p>
          <p style=""font-size: 16px;"">J = YES &nbsp;&nbsp;&nbsp; F = NO</p>
        ","f","html-keyboard-response","387","2.1.0","739653","J=YES, F=NO","h4ydubcqt3","0","46","73","20","","","","","","","","","tirlike","pig","pseudoword","pseudoword","f","true","",""
"null","<p style=""font-size: 50px;"">+</p>","null","html-keyboard-response","388","2.1.0","739977","J=YES, F=NO","h4ydubcqt3","0","46","73","20","","","","","","","","","","","","","","","",""
"null","audio/beep-329314.mp3","null","audio-keyboard-response","389","2.1.0","741520","J=YES, F=NO","h4ydubcqt3","0","46","73","20","","","","","","","","","","","","","","","",""
"null","audio/cancer1.wav","null","audio-keyboard-response","390","2.1.0","742119","J=YES, F=NO","h4ydubcqt3","0","46","73","20","","","","","","","","","","","","","","","",""
"459","
          <p id=""word"" style=""font-size: 40px;"">draw</p>
          <p style=""font-size: 16px;"">J = YES &nbsp;&nbsp;&nbsp; F = NO</p>
