"rt","stimulus","response","trial_type","trial_index","plugin_version","time_elapsed","response_mapping","subject_id","list_index","lextale_score","lextale_word_score","lextale_nonword_score","success","timeout","failed_images","failed_audio","failed_video","task","isWord","isDummy","target","prime","prime_type","stimulus_type","correct_response","correct","section","question_order"
"52690","
    <div style=""max-width: 800px; margin: auto; text-align: left;"">
      <h2>STANFORD UNIVERSITY</h2>
      <h3>Research Information Sheet</h3>
      <p><strong>Protocol Director:</strong> Robert Hawkins<br>
      <strong>Protocol Title:</strong> Communication and social cognition in natural audiovisual contexts<br>
      <strong>IRB#:</strong> 77226</p>

      <p><strong>DESCRIPTION:</strong> You are invited to participate in a research study about language and communication. The purpose of the research is to understand how you interact and communicate with other people in naturalistic settings as a fluent English speaker. This research will be conducted through the Prolific platform, including participants from the US, UK, and Canada. If you decide to participate in this research, you will play a communication game in a group with one or more partners.</p>

      <p><strong>TIME INVOLVEMENT:</strong> The task will last the amount of time advertised on Prolific. You are free to withdraw from the study at any time.</p>

      <p><strong>RISKS AND BENEFITS:</strong> You may become frustrated if your partner gets distracted, or experience discomfort if other participants in your group send text that is inappropriate for the task. We ask you to please be respectful of other participants you might be interacting with to mitigate these risks. You may also experience discomfort when being asked to discuss or challenge emotionally salient political beliefs. Study data will be stored securely, in compliance with Stanford University standards, minimizing the risk of confidentiality breach. This study advances our scientific understanding of how people communicate and collaborate in naturalistic settings. This study may lead to further insights about what can go wrong in teamwork, suggest potential interventions to overcome these barriers, and help to develop assistive technologies that collaborate with human partners. We cannot and do not guarantee or promise that you will receive any benefits from this study.</p>

      <p><strong>PAYMENTS:</strong> You will receive payment in the amount advertised on Prolific. If you do not complete this study, you will receive prorated payment based on the time that you have spent. Additionally, you may be eligible for bonus payments as described in the instructions.</p>

      <p><strong>PARTICIPANT’S RIGHTS:</strong> If you have read this form and have decided to participate in this project, please understand your participation is voluntary and you have the right to withdraw your consent or discontinue participation at any time without penalty or loss of benefits to which you are otherwise entitled. The alternative is not to participate. You have the right to refuse to answer particular questions. The results of this research study may be presented at scientific or professional meetings or published in scientific journals. Your individual privacy will be maintained in all published and written data resulting from the study. In accordance with scientific norms, the data from this study may be used or shared with other researchers for future research (after removing personally identifying information) without additional consent from you.</p>

      <p><strong>CONTACT INFORMATION:</strong><br>
      Questions: If you have any questions, concerns or complaints about this research, its procedures, risks and benefits, contact the Protocol Director, Robert Hawkins (<a href=""mailto:rdhawkins@stanford.edu"">rdhawkins@stanford.edu</a>, 217-549-6923).<br>
      Independent Contact: If you are not satisfied with how this study is being conducted, or if you have any concerns, complaints, or general questions about the research or your rights as a participant, please contact the Stanford Institutional Review Board (IRB) to speak to someone independent of the research team at 650-723-2480 or toll free at 1-866-680-2906, or email at <a href=""mailto:irbnon-med@stanford.edu"">irbnon-med@stanford.edu</a>. You can also write to the Stanford IRB, Stanford University, 1705 El Camino Real, Palo Alto, CA 94306.</p>

      <p><strong>Please save or print a copy of this page for your records.</strong></p>
      <p>If you agree to participate in this research, click ""Continue"" below.</p>
    </div>
  ","0","html-button-response","0","2.1.0","52970","J=YES, F=NO","h846eaj2gu","0","63","85","40","","","","","","","","","","","","","","","",""
"5533","
    <div style=""max-width: 800px; margin: auto; text-align: left;"">
      <h2>Welcome!</h2>
      <p>Thank you for participating in this study. The experiment consists of three parts:</p>
      <ol>
        <li>An English vocabulary test</li>
        <li>A main task in which you will hear and see words, and decide whether the written word is a real English word</li>
        <li>A brief survey about your background</li>
      </ol>
      <p>Each part will be introduced before it begins.</p>
      <p>Please make sure you are in a quiet environment and can hear audio clearly for the final task.</p>
      <p style=""margin-top: 2em;"">Press any key to begin.</p>
    </div>
  "," ","html-keyboard-response","1","2.1.0","58504","J=YES, F=NO","h846eaj2gu","0","63","85","40","","","","","","","","","","","","","","","",""
"","","","preload","2","2.1.0","59005","J=YES, F=NO","h846eaj2gu","0","63","85","40","true","false","[]","[]","[]","","","","","","","","","","",""
"4279","
    <div style=""max-width: 800px; margin: auto; text-align: left;"">
      <h2>Part 1: Vocabulary Test</h2>
      <p>You will now complete the first part of the study: a short English vocabulary test.</p>
      <p>This test is called <strong>LexTALE</strong> and helps us get a general sense of your English proficiency.</p>
      <p style=""margin-top: 2em;"">Press any key to continue.</p>
    </div>
  "," ","html-keyboard-response","3","2.1.0","63285","J=YES, F=NO","h846eaj2gu","0","63","85","40","","","","","","","","","","","","","","","",""
"8209","
    <div style=""max-width: 800px; margin: auto; text-align: left;"">
      <h2>LexTALE Vocabulary Test</h2>
      <p>In this test, you will see a series of letter strings—one at a time.</p>
      <p>Your task is to decide whether each string is a real English word.</p>
      <p><strong>Key responses:</strong></p>
      <ul>
        <li><strong>J</strong> = YES (real English word)</li>
        <li><strong>F</strong> = NO (not a real English word)</li>
      </ul>
      <p>There is no time limit, but please try to be accurate.</p>
      <p style=""margin-top: 2em;"">Press any key to begin.</p>
    </div>
  ","j","html-keyboard-response","4","2.1.0","71494","J=YES, F=NO","h846eaj2gu","0","63","85","40","","","","","","","","","","","","","","","",""
"3690","
  <p style=""font-size: 40px;"">platery</p>
  <p style=""font-size: 16px;"">J = YES &nbsp;&nbsp;&nbsp; F = NO</p>
","j","html-keyboard-response","5","2.1.0","75184","J=YES, F=NO","h846eaj2gu","0","63","85","40","","","","","","lextale","false","true","","","","","","","",""
"845","
  <p style=""font-size: 40px;"">denial</p>
  <p style=""font-size: 16px;"">J = YES &nbsp;&nbsp;&nbsp; F = NO</p>
","j","html-keyboard-response","6","2.1.0","76030","J=YES, F=NO","h846eaj2gu","0","63","85","40","","","","","","lextale","true","true","","","","","","","",""
"3413","
  <p style=""font-size: 40px;"">marrit</p>
  <p style=""font-size: 16px;"">J = YES &nbsp;&nbsp;&nbsp; F = NO</p>
","f","html-keyboard-response","7","2.1.0","79444","J=YES, F=NO","h846eaj2gu","0","63","85","40","","","","","","lextale","false","true","","","","","","","",""
"765","
  <p style=""font-size: 40px;"">bottle</p>
  <p style=""font-size: 16px;"">J = YES &nbsp;&nbsp;&nbsp; F = NO</p>
","j","html-keyboard-response","8","2.1.0","80209","J=YES, F=NO","h846eaj2gu","0","63","85","40","","","","","","lextale","true","false","","","","","","","",""
"4066","
  <p style=""font-size: 40px;"">birst</p>
  <p style=""font-size: 16px;"">J = YES &nbsp;&nbsp;&nbsp; F = NO</p>
","f","html-keyboard-response","9","2.1.0","84275","J=YES, F=NO","h846eaj2gu","0","63","85","40","","","","","","lextale","false","false","","","","","","","",""
"1161","
  <p style=""font-size: 40px;"">envy</p>
  <p style=""font-size: 16px;"">J = YES &nbsp;&nbsp;&nbsp; F = NO</p>
","j","html-keyboard-response","10","2.1.0","85437","J=YES, F=NO","h846eaj2gu","0","63","85","40","","","","","","lextale","true","false","","","","","","","",""
"5184","
  <p style=""font-size: 40px;"">brang</p>
  <p style=""font-size: 16px;"">J = YES &nbsp;&nbsp;&nbsp; F = NO</p>
","f","html-keyboard-response","11","2.1.0","90621","J=YES, F=NO","h846eaj2gu","0","63","85","40","","","","","","lextale","false","false","","","","","","","",""
"668","
  <p style=""font-size: 40px;"">huge</p>
  <p style=""font-size: 16px;"">J = YES &nbsp;&nbsp;&nbsp; F = NO</p>
","j","html-keyboard-response","12","2.1.0","91289","J=YES, F=NO","h846eaj2gu","0","63","85","40","","","","","","lextale","true","false","","","","","","","",""
"1920","
  <p style=""font-size: 40px;"">plove</p>
  <p style=""font-size: 16px;"">J = YES &nbsp;&nbsp;&nbsp; F = NO</p>
","j","html-keyboard-response","13","2.1.0","93209","J=YES, F=NO","h846eaj2gu","0","63","85","40","","","","","","lextale","false","false","","","","","","","",""
"639","
  <p style=""font-size: 40px;"">border</p>
  <p style=""font-size: 16px;"">J = YES &nbsp;&nbsp;&nbsp; F = NO</p>
","j","html-keyboard-response","14","2.1.0","93848","J=YES, F=NO","h846eaj2gu","0","63","85","40","","","","","","lextale","true","false","","","","","","","",""
"1022","
  <p style=""font-size: 40px;"">flimsy</p>
  <p style=""font-size: 16px;"">J = YES &nbsp;&nbsp;&nbsp; F = NO</p>
","j","html-keyboard-response","15","2.1.0","94871","J=YES, F=NO","h846eaj2gu","0","63","85","40","","","","","","lextale","true","false","","","","","","","",""
"721","
  <p style=""font-size: 40px;"">drain</p>
  <p style=""font-size: 16px;"">J = YES &nbsp;&nbsp;&nbsp; F = NO</p>
","j","html-keyboard-response","16","2.1.0","95592","J=YES, F=NO","h846eaj2gu","0","63","85","40","","","","","","lextale","true","false","","","","","","","",""
"3138","
  <p style=""font-size: 40px;"">twindle</p>
  <p style=""font-size: 16px;"">J = YES &nbsp;&nbsp;&nbsp; F = NO</p>
","j","html-keyboard-response","17","2.1.0","98731","J=YES, F=NO","h846eaj2gu","0","63","85","40","","","","","","lextale","false","false","","","","","","","",""
"619","
  <p style=""font-size: 40px;"">propose</p>
  <p style=""font-size: 16px;"">J = YES &nbsp;&nbsp;&nbsp; F = NO</p>
","j","html-keyboard-response","18","2.1.0","99350","J=YES, F=NO","h846eaj2gu","0","63","85","40","","","","","","lextale","true","false","","","","","","","",""
"20251","
  <p style=""font-size: 40px;"">forlay</p>
  <p style=""font-size: 16px;"">J = YES &nbsp;&nbsp;&nbsp; F = NO</p>
","j","html-keyboard-response","19","2.1.0","119601","J=YES, F=NO","h846eaj2gu","0","63","85","40","","","","","","lextale","false","false","","","","","","","",""
"873","
  <p style=""font-size: 40px;"">tenant</p>
  <p style=""font-size: 16px;"">J = YES &nbsp;&nbsp;&nbsp; F = NO</p>
","j","html-keyboard-response","20","2.1.0","120475","J=YES, F=NO","h846eaj2gu","0","63","85","40","","","","","","lextale","true","false","","","","","","","",""
"805","
  <p style=""font-size: 40px;"">strain</p>
  <p style=""font-size: 16px;"">J = YES &nbsp;&nbsp;&nbsp; F = NO</p>
","j","html-keyboard-response","21","2.1.0","121281","J=YES, F=NO","h846eaj2gu","0","63","85","40","","","","","","lextale","true","false","","","","","","","",""
"1028","
  <p style=""font-size: 40px;"">holster</p>
  <p style=""font-size: 16px;"">J = YES &nbsp;&nbsp;&nbsp; F = NO</p>
","j","html-keyboard-response","22","2.1.0","122309","J=YES, F=NO","h846eaj2gu","0","63","85","40","","","","","","lextale","true","false","","","","","","","",""
"894","
  <p style=""font-size: 40px;"">hinder</p>
  <p style=""font-size: 16px;"">J = YES &nbsp;&nbsp;&nbsp; F = NO</p>
","j","html-keyboard-response","23","2.1.0","123203","J=YES, F=NO","h846eaj2gu","0","63","85","40","","","","","","lextale","true","false","","","","","","","",""
"1759","
  <p style=""font-size: 40px;"">swindle</p>
  <p style=""font-size: 16px;"">J = YES &nbsp;&nbsp;&nbsp; F = NO</p>
","j","html-keyboard-response","24","2.1.0","124962","J=YES, F=NO","h846eaj2gu","0","63","85","40","","","","","","lextale","true","false","","","","","","","",""
"1973","
  <p style=""font-size: 40px;"">nuder</p>
  <p style=""font-size: 16px;"">J = YES &nbsp;&nbsp;&nbsp; F = NO</p>
","f","html-keyboard-response","25","2.1.0","126935","J=YES, F=NO","h846eaj2gu","0","63","85","40","","","","","","lextale","false","false","","","","","","","",""
"678","
  <p style=""font-size: 40px;"">pillow</p>
  <p style=""font-size: 16px;"">J = YES &nbsp;&nbsp;&nbsp; F = NO</p>
","j","html-keyboard-response","26","2.1.0","127614","J=YES, F=NO","h846eaj2gu","0","63","85","40","","","","","","lextale","true","false","","","","","","","",""
"4007","
  <p style=""font-size: 40px;"">shumble</p>
  <p style=""font-size: 16px;"">J = YES &nbsp;&nbsp;&nbsp; F = NO</p>
","f","html-keyboard-response","27","2.1.0","131621","J=YES, F=NO","h846eaj2gu","0","63","85","40","","","","","","lextale","false","false","","","","","","","",""
"677","
  <p style=""font-size: 40px;"">thirst</p>
  <p style=""font-size: 16px;"">J = YES &nbsp;&nbsp;&nbsp; F = NO</p>
","j","html-keyboard-response","28","2.1.0","132299","J=YES, F=NO","h846eaj2gu","0","63","85","40","","","","","","lextale","true","false","","","","","","","",""
"4882","
  <p style=""font-size: 40px;"">unsail</p>
  <p style=""font-size: 16px;"">J = YES &nbsp;&nbsp;&nbsp; F = NO</p>
","j","html-keyboard-response","29","2.1.0","137181","J=YES, F=NO","h846eaj2gu","0","63","85","40","","","","","","lextale","false","false","","","","","","","",""
"1086","
  <p style=""font-size: 40px;"">rifle</p>
  <p style=""font-size: 16px;"">J = YES &nbsp;&nbsp;&nbsp; F = NO</p>
","j","html-keyboard-response","30","2.1.0","138268","J=YES, F=NO","h846eaj2gu","0","63","85","40","","","","","","lextale","true","false","","","","","","","",""
"2035","
  <p style=""font-size: 40px;"">mush</p>
  <p style=""font-size: 16px;"">J = YES &nbsp;&nbsp;&nbsp; F = NO</p>
","j","html-keyboard-response","31","2.1.0","140303","J=YES, F=NO","h846eaj2gu","0","63","85","40","","","","","","lextale","false","false","","","","","","","",""
"805","
  <p style=""font-size: 40px;"">drench</p>
  <p style=""font-size: 16px;"">J = YES &nbsp;&nbsp;&nbsp; F = NO</p>
","j","html-keyboard-response","32","2.1.0","141108","J=YES, F=NO","h846eaj2gu","0","63","85","40","","","","","","lextale","true","false","","","","","","","",""
"2006","
  <p style=""font-size: 40px;"">snirt</p>
  <p style=""font-size: 16px;"">J = YES &nbsp;&nbsp;&nbsp; F = NO</p>
","f","html-keyboard-response","33","2.1.0","143115","J=YES, F=NO","h846eaj2gu","0","63","85","40","","","","","","lextale","false","false","","","","","","","",""
"704","
  <p style=""font-size: 40px;"">bitter</p>
  <p style=""font-size: 16px;"">J = YES &nbsp;&nbsp;&nbsp; F = NO</p>
","j","html-keyboard-response","34","2.1.0","143819","J=YES, F=NO","h846eaj2gu","0","63","85","40","","","","","","lextale","true","false","","","","","","","",""
"1249","
  <p style=""font-size: 40px;"">pliff</p>
  <p style=""font-size: 16px;"">J = YES &nbsp;&nbsp;&nbsp; F = NO</p>
","j","html-keyboard-response","35","2.1.0","145068","J=YES, F=NO","h846eaj2gu","0","63","85","40","","","","","","lextale","false","false","","","","","","","",""
"1138","
  <p style=""font-size: 40px;"">tablet</p>
  <p style=""font-size: 16px;"">J = YES &nbsp;&nbsp;&nbsp; F = NO</p>
","j","html-keyboard-response","36","2.1.0","146207","J=YES, F=NO","h846eaj2gu","0","63","85","40","","","","","","lextale","true","false","","","","","","","",""
"709","
  <p style=""font-size: 40px;"">glimmer</p>
  <p style=""font-size: 16px;"">J = YES &nbsp;&nbsp;&nbsp; F = NO</p>
","j","html-keyboard-response","37","2.1.0","146916","J=YES, F=NO","h846eaj2gu","0","63","85","40","","","","","","lextale","true","false","","","","","","","",""
"936","
  <p style=""font-size: 40px;"">slink</p>
  <p style=""font-size: 16px;"">J = YES &nbsp;&nbsp;&nbsp; F = NO</p>
","j","html-keyboard-response","38","2.1.0","147852","J=YES, F=NO","h846eaj2gu","0","63","85","40","","","","","","lextale","true","false","","","","","","","",""
"680","
  <p style=""font-size: 40px;"">clever</p>
  <p style=""font-size: 16px;"">J = YES &nbsp;&nbsp;&nbsp; F = NO</p>
","j","html-keyboard-response","39","2.1.0","148533","J=YES, F=NO","h846eaj2gu","0","63","85","40","","","","","","lextale","true","false","","","","","","","",""
"1164","
  <p style=""font-size: 40px;"">grum</p>
  <p style=""font-size: 16px;"">J = YES &nbsp;&nbsp;&nbsp; F = NO</p>
","j","html-keyboard-response","40","2.1.0","149698","J=YES, F=NO","h846eaj2gu","0","63","85","40","","","","","","lextale","false","false","","","","","","","",""
"678","
  <p style=""font-size: 40px;"">string</p>
  <p style=""font-size: 16px;"">J = YES &nbsp;&nbsp;&nbsp; F = NO</p>
","j","html-keyboard-response","41","2.1.0","150377","J=YES, F=NO","h846eaj2gu","0","63","85","40","","","","","","lextale","true","false","","","","","","","",""
"2012","
  <p style=""font-size: 40px;"">plim</p>
  <p style=""font-size: 16px;"">J = YES &nbsp;&nbsp;&nbsp; F = NO</p>
","f","html-keyboard-response","42","2.1.0","152389","J=YES, F=NO","h846eaj2gu","0","63","85","40","","","","","","lextale","false","false","","","","","","","",""
"818","
  <p style=""font-size: 40px;"">cable</p>
  <p style=""font-size: 16px;"">J = YES &nbsp;&nbsp;&nbsp; F = NO</p>
","j","html-keyboard-response","43","2.1.0","153208","J=YES, F=NO","h846eaj2gu","0","63","85","40","","","","","","lextale","true","false","","","","","","","",""
"5367","
  <p style=""font-size: 40px;"">shrivel</p>
  <p style=""font-size: 16px;"">J = YES &nbsp;&nbsp;&nbsp; F = NO</p>
","j","html-keyboard-response","44","2.1.0","158575","J=YES, F=NO","h846eaj2gu","0","63","85","40","","","","","","lextale","true","false","","","","","","","",""
"731","
  <p style=""font-size: 40px;"">tarnish</p>
  <p style=""font-size: 16px;"">J = YES &nbsp;&nbsp;&nbsp; F = NO</p>
","j","html-keyboard-response","45","2.1.0","159306","J=YES, F=NO","h846eaj2gu","0","63","85","40","","","","","","lextale","true","false","","","","","","","",""
"1660","
  <p style=""font-size: 40px;"">blim</p>
  <p style=""font-size: 16px;"">J = YES &nbsp;&nbsp;&nbsp; F = NO</p>
","j","html-keyboard-response","46","2.1.0","160967","J=YES, F=NO","h846eaj2gu","0","63","85","40","","","","","","lextale","false","false","","","","","","","",""
"1435","
  <p style=""font-size: 40px;"">stifle</p>
  <p style=""font-size: 16px;"">J = YES &nbsp;&nbsp;&nbsp; F = NO</p>
","j","html-keyboard-response","47","2.1.0","162402","J=YES, F=NO","h846eaj2gu","0","63","85","40","","","","","","lextale","true","false","","","","","","","",""
"3198","
  <p style=""font-size: 40px;"">bint</p>
  <p style=""font-size: 16px;"">J = YES &nbsp;&nbsp;&nbsp; F = NO</p>
","f","html-keyboard-response","48","2.1.0","165600","J=YES, F=NO","h846eaj2gu","0","63","85","40","","","","","","lextale","false","false","","","","","","","",""
"779","
  <p style=""font-size: 40px;"">purple</p>
  <p style=""font-size: 16px;"">J = YES &nbsp;&nbsp;&nbsp; F = NO</p>
","j","html-keyboard-response","49","2.1.0","166380","J=YES, F=NO","h846eaj2gu","0","63","85","40","","","","","","lextale","true","false","","","","","","","",""
"1328","
  <p style=""font-size: 40px;"">wriggle</p>
  <p style=""font-size: 16px;"">J = YES &nbsp;&nbsp;&nbsp; F = NO</p>
","j","html-keyboard-response","50","2.1.0","167708","J=YES, F=NO","h846eaj2gu","0","63","85","40","","","","","","lextale","true","false","","","","","","","",""
"1282","
  <p style=""font-size: 40px;"">mangle</p>
  <p style=""font-size: 16px;"">J = YES &nbsp;&nbsp;&nbsp; F = NO</p>
","j","html-keyboard-response","51","2.1.0","168990","J=YES, F=NO","h846eaj2gu","0","63","85","40","","","","","","lextale","true","false","","","","","","","",""
"694","
  <p style=""font-size: 40px;"">shramp</p>
  <p style=""font-size: 16px;"">J = YES &nbsp;&nbsp;&nbsp; F = NO</p>
","j","html-keyboard-response","52","2.1.0","169685","J=YES, F=NO","h846eaj2gu","0","63","85","40","","","","","","lextale","false","false","","","","","","","",""
"2242","
  <p style=""font-size: 40px;"">flirt</p>
  <p style=""font-size: 16px;"">J = YES &nbsp;&nbsp;&nbsp; F = NO</p>
","j","html-keyboard-response","53","2.1.0","171927","J=YES, F=NO","h846eaj2gu","0","63","85","40","","","","","","lextale","true","false","","","","","","","",""
"1785","
  <p style=""font-size: 40px;"">frip</p>
  <p style=""font-size: 16px;"">J = YES &nbsp;&nbsp;&nbsp; F = NO</p>
","f","html-keyboard-response","54","2.1.0","173713","J=YES, F=NO","h846eaj2gu","0","63","85","40","","","","","","lextale","false","false","","","","","","","",""
"698","
  <p style=""font-size: 40px;"">tangle</p>
  <p style=""font-size: 16px;"">J = YES &nbsp;&nbsp;&nbsp; F = NO</p>
","j","html-keyboard-response","55","2.1.0","174411","J=YES, F=NO","h846eaj2gu","0","63","85","40","","","","","","lextale","true","false","","","","","","","",""
"973","
  <p style=""font-size: 40px;"">crumble</p>
  <p style=""font-size: 16px;"">J = YES &nbsp;&nbsp;&nbsp; F = NO</p>
","j","html-keyboard-response","56","2.1.0","175384","J=YES, F=NO","h846eaj2gu","0","63","85","40","","","","","","lextale","true","false","","","","","","","",""
"1243","
  <p style=""font-size: 40px;"">wrinkle</p>
  <p style=""font-size: 16px;"">J = YES &nbsp;&nbsp;&nbsp; F = NO</p>
","j","html-keyboard-response","57","2.1.0","176628","J=YES, F=NO","h846eaj2gu","0","63","85","40","","","","","","lextale","true","false","","","","","","","",""
"999","
  <p style=""font-size: 40px;"">slumb</p>
  <p style=""font-size: 16px;"">J = YES &nbsp;&nbsp;&nbsp; F = NO</p>
","j","html-keyboard-response","58","2.1.0","177627","J=YES, F=NO","h846eaj2gu","0","63","85","40","","","","","","lextale","false","false","","","","","","","",""
"839","
  <p style=""font-size: 40px;"">jungle</p>
  <p style=""font-size: 16px;"">J = YES &nbsp;&nbsp;&nbsp; F = NO</p>
","j","html-keyboard-response","59","2.1.0","178466","J=YES, F=NO","h846eaj2gu","0","63","85","40","","","","","","lextale","true","false","","","","","","","",""
"2351","
  <p style=""font-size: 40px;"">frolick</p>
  <p style=""font-size: 16px;"">J = YES &nbsp;&nbsp;&nbsp; F = NO</p>
","j","html-keyboard-response","60","2.1.0","180818","J=YES, F=NO","h846eaj2gu","0","63","85","40","","","","","","lextale","false","false","","","","","","","",""
"2377","
      <h2>LexTALE Test Completed</h2>
      <p>Your LexTALE vocabulary score is: <strong>63%</strong></p>
      <p>Press any key to continue.</p>
    ","j","html-keyboard-response","61","2.1.0","183195","J=YES, F=NO","h846eaj2gu","0","63","85","40","","","","","","","","","","","","","","","",""
"8402","
    <div style=""max-width: 800px; margin: auto; text-align: left;"">
      <h2>Break Time</h2>
      <p>You have completed the first part of the study.</p>
      <p>You may take a short <strong>30-second break</strong> before continuing.</p>
      <p>When you’re ready, press any key to continue to the final task.</p>
    </div>
  ","j","html-keyboard-response","62","2.1.0","191597","J=YES, F=NO","h846eaj2gu","0","63","85","40","","","","","","","","","","","","","","","",""
"21397","
    <div style=""max-width: 800px; margin: auto; text-align: left;"">
      <h2>Part 2: Lexical Decision Task</h2>
      <p>You will now begin the second part of the study.</p>
      <p>Each trial will follow this sequence:</p>
      <ul>
        <li>A fixation cross (+) appears at the center of the screen.</li>
        <li>You will hear a short beep followed by a spoken word.</li>
        <li>A written word will appear briefly on the screen.</li>
      </ul>
      <p>Your task is to judge whether the <strong>written word</strong> is a real English word.</p>
      <p style=""margin-top: 1em;""><strong>Key responses:</strong></p>
      <ul>
        <li><strong>J</strong> = YES (real English word)</li>
        <li><strong>F</strong> = NO (not a real English word)</li>
      </ul>
      <p>Please respond as quickly and accurately as you can.</p>
      <p style=""margin-top: 2em;"">Press any key to continue.</p>
    </div>
  ","j","html-keyboard-response","63","2.1.0","212994","J=YES, F=NO","h846eaj2gu","0","63","85","40","","","","","","","","","","","","","","","",""
"4894","
    <div style=""max-width: 800px; margin: auto; text-align: left;"">
      <h2>Before You Begin</h2>
      <p>Make sure your sound is turned on.</p>
      <p>You will hear audio during each trial, but your decision should be based only on the <strong>written word</strong> you see on the screen.</p>
      <p><strong>Reminder:</strong></p>
      <ul>
        <li><strong>J</strong> = YES (real English word)</li>
        <li><strong>F</strong> = NO (not a real English word)</li>
      </ul>
      <p style=""margin-top: 2em;"">Press any key when you are ready to begin.</p>
    </div>
  ","j","html-keyboard-response","64","2.1.0","217889","J=YES, F=NO","h846eaj2gu","0","63","85","40","","","","","","","","","","","","","","","",""
"6123","
    <div style=""max-width: 800px; margin: auto; text-align: left;"">
      <h2>Part 2: Practice Trials</h2>
      <p>You will now complete a few <strong>practice trials</strong> to get familiar with the task.</p>
      <p>These trials are <strong>not scored</strong> and are only to help you get used to the format.</p>
      <p style=""margin-top: 2em;"">Press any key to begin.</p>
    </div>
  ","j","html-keyboard-response","65","2.1.0","224012","J=YES, F=NO","h846eaj2gu","0","63","85","40","","","","","","","","","","","","","","","",""
"2135","<p>Starting practice block 1 of 2. Press any key to continue.</p>","j","html-keyboard-response","66","2.1.0","226147","J=YES, F=NO","h846eaj2gu","0","63","85","40","","","","","","","","","","","","","","","",""
"null","<p style=""font-size: 50px;"">+</p>","null","html-keyboard-response","67","2.1.0","226454","J=YES, F=NO","h846eaj2gu","0","63","85","40","","","","","","","","","","","","","","","",""
"null","audio/beep-329314.mp3","null","audio-keyboard-response","68","2.1.0","228001","J=YES, F=NO","h846eaj2gu","0","63","85","40","","","","","","","","","","","","","","","",""
"null","audio/meal.wav","null","audio-keyboard-response","69","2.1.0","228581","J=YES, F=NO","h846eaj2gu","0","63","85","40","","","","","","","","","","","","","","","",""
"null","
          <p id=""word"" style=""font-size: 40px;"">gallite</p>
          <p style=""font-size: 16px;"">J = YES &nbsp;&nbsp;&nbsp; F = NO</p>
        ","null","html-keyboard-response","70","2.1.0","230094","J=YES, F=NO","h846eaj2gu","0","63","85","40","","","","","","","","","gallite","meal","pseudoword","pseudoword","f","false","",""
"null","<p style=""font-size: 50px;"">+</p>","null","html-keyboard-response","71","2.1.0","230406","J=YES, F=NO","h846eaj2gu","0","63","85","40","","","","","","","","","","","","","","","",""
"null","audio/beep-329314.mp3","null","audio-keyboard-response","72","2.1.0","231942","J=YES, F=NO","h846eaj2gu","0","63","85","40","","","","","","","","","","","","","","","",""
"null","audio/battle1.wav","null","audio-keyboard-response","73","2.1.0","232400","J=YES, F=NO","h846eaj2gu","0","63","85","40","","","","","","","","","","","","","","","",""
"1108","
          <p id=""word"" style=""font-size: 40px;"">boil</p>
          <p style=""font-size: 16px;"">J = YES &nbsp;&nbsp;&nbsp; F = NO</p>
        ","f","html-keyboard-response","74","2.1.0","233509","J=YES, F=NO","h846eaj2gu","0","63","85","40","","","","","","","","","boil","battle1","filler","filler","j","false","",""
"null","<p style=""font-size: 50px;"">+</p>","null","html-keyboard-response","75","2.1.0","233820","J=YES, F=NO","h846eaj2gu","0","63","85","40","","","","","","","","","","","","","","","",""
"null","audio/beep-329314.mp3","null","audio-keyboard-response","76","2.1.0","235342","J=YES, F=NO","h846eaj2gu","0","63","85","40","","","","","","","","","","","","","","","",""
"null","audio/relief.wav","null","audio-keyboard-response","77","2.1.0","236142","J=YES, F=NO","h846eaj2gu","0","63","85","40","","","","","","","","","","","","","","","",""
"831","
          <p id=""word"" style=""font-size: 40px;"">grigg</p>
          <p style=""font-size: 16px;"">J = YES &nbsp;&nbsp;&nbsp; F = NO</p>
        ","f","html-keyboard-response","78","2.1.0","236973","J=YES, F=NO","h846eaj2gu","0","63","85","40","","","","","","","","","grigg","relief","pseudoword","pseudoword","f","true","",""
"null","<p style=""font-size: 50px;"">+</p>","null","html-keyboard-response","79","2.1.0","237289","J=YES, F=NO","h846eaj2gu","0","63","85","40","","","","","","","","","","","","","","","",""
"null","audio/beep-329314.mp3","null","audio-keyboard-response","80","2.1.0","238822","J=YES, F=NO","h846eaj2gu","0","63","85","40","","","","","","","","","","","","","","","",""
"null","audio/cinema1.wav","null","audio-keyboard-response","81","2.1.0","239582","J=YES, F=NO","h846eaj2gu","0","63","85","40","","","","","","","","","","","","","","","",""
"721","
          <p id=""word"" style=""font-size: 40px;"">murple</p>
          <p style=""font-size: 16px;"">J = YES &nbsp;&nbsp;&nbsp; F = NO</p>
        ","f","html-keyboard-response","82","2.1.0","240304","J=YES, F=NO","h846eaj2gu","0","63","85","40","","","","","","","","","murple","cinema1","pseudoword","pseudoword","f","true","",""
"null","<p style=""font-size: 50px;"">+</p>","null","html-keyboard-response","83","2.1.0","240620","J=YES, F=NO","h846eaj2gu","0","63","85","40","","","","","","","","","","","","","","","",""
"null","audio/beep-329314.mp3","null","audio-keyboard-response","84","2.1.0","242143","J=YES, F=NO","h846eaj2gu","0","63","85","40","","","","","","","","","","","","","","","",""
"null","audio/kettle1.wav","null","audio-keyboard-response","85","2.1.0","242641","J=YES, F=NO","h846eaj2gu","0","63","85","40","","","","","","","","","","","","","","","",""
"934","
          <p id=""word"" style=""font-size: 40px;"">wrap</p>
          <p style=""font-size: 16px;"">J = YES &nbsp;&nbsp;&nbsp; F = NO</p>
        ","j","html-keyboard-response","86","2.1.0","243575","J=YES, F=NO","h846eaj2gu","0","63","85","40","","","","","","","","","wrap","kettle1","filler","filler","j","true","",""
"null","<p style=""font-size: 50px;"">+</p>","null","html-keyboard-response","87","2.1.0","243883","J=YES, F=NO","h846eaj2gu","0","63","85","40","","","","","","","","","","","","","","","",""
"null","audio/beep-329314.mp3","null","audio-keyboard-response","88","2.1.0","245422","J=YES, F=NO","h846eaj2gu","0","63","85","40","","","","","","","","","","","","","","","",""
"null","audio/birth1.wav","null","audio-keyboard-response","89","2.1.0","245981","J=YES, F=NO","h846eaj2gu","0","63","85","40","","","","","","","","","","","","","","","",""
"791","
          <p id=""word"" style=""font-size: 40px;"">peel</p>
          <p style=""font-size: 16px;"">J = YES &nbsp;&nbsp;&nbsp; F = NO</p>
        ","j","html-keyboard-response","90","2.1.0","246772","J=YES, F=NO","h846eaj2gu","0","63","85","40","","","","","","","","","peel","birth1","filler","filler","j","true","",""
"null","<p style=""font-size: 50px;"">+</p>","null","html-keyboard-response","91","2.1.0","247083","J=YES, F=NO","h846eaj2gu","0","63","85","40","","","","","","","","","","","","","","","",""
"null","audio/beep-329314.mp3","null","audio-keyboard-response","92","2.1.0","248622","J=YES, F=NO","h846eaj2gu","0","63","85","40","","","","","","","","","","","","","","","",""
"null","audio/fence.wav","null","audio-keyboard-response","93","2.1.0","249302","J=YES, F=NO","h846eaj2gu","0","63","85","40","","","","","","","","","","","","","","","",""
"675","
          <p id=""word"" style=""font-size: 40px;"">trim</p>
          <p style=""font-size: 16px;"">J = YES &nbsp;&nbsp;&nbsp; F = NO</p>
        ","j","html-keyboard-response","94","2.1.0","249977","J=YES, F=NO","h846eaj2gu","0","63","85","40","","","","","","","","","trim","fence","filler","filler","j","true","",""
"null","<p style=""font-size: 50px;"">+</p>","null","html-keyboard-response","95","2.1.0","250287","J=YES, F=NO","h846eaj2gu","0","63","85","40","","","","","","","","","","","","","","","",""
"null","audio/beep-329314.mp3","null","audio-keyboard-response","96","2.1.0","251822","J=YES, F=NO","h846eaj2gu","0","63","85","40","","","","","","","","","","","","","","","",""
"null","audio/bridge.wav","null","audio-keyboard-response","97","2.1.0","252381","J=YES, F=NO","h846eaj2gu","0","63","85","40","","","","","","","","","","","","","","","",""
"697","
          <p id=""word"" style=""font-size: 40px;"">crack</p>
          <p style=""font-size: 16px;"">J = YES &nbsp;&nbsp;&nbsp; F = NO</p>
        ","j","html-keyboard-response","98","2.1.0","253079","J=YES, F=NO","h846eaj2gu","0","63","85","40","","","","","","","","","crack","bridge","filler","filler","j","true","",""
"null","<p style=""font-size: 50px;"">+</p>","null","html-keyboard-response","99","2.1.0","253393","J=YES, F=NO","h846eaj2gu","0","63","85","40","","","","","","","","","","","","","","","",""
"null","audio/beep-329314.mp3","null","audio-keyboard-response","100","2.1.0","254922","J=YES, F=NO","h846eaj2gu","0","63","85","40","","","","","","","","","","","","","","","",""
"null","audio/sand.wav","null","audio-keyboard-response","101","2.1.0","255602","J=YES, F=NO","h846eaj2gu","0","63","85","40","","","","","","","","","","","","","","","",""
"907","
          <p id=""word"" style=""font-size: 40px;"">proted</p>
          <p style=""font-size: 16px;"">J = YES &nbsp;&nbsp;&nbsp; F = NO</p>
        ","f","html-keyboard-response","102","2.1.0","256510","J=YES, F=NO","h846eaj2gu","0","63","85","40","","","","","","","","","proted","sand","pseudoword","pseudoword","f","true","",""
"null","<p style=""font-size: 50px;"">+</p>","null","html-keyboard-response","103","2.1.0","256812","J=YES, F=NO","h846eaj2gu","0","63","85","40","","","","","","","","","","","","","","","",""
"null","audio/beep-329314.mp3","null","audio-keyboard-response","104","2.1.0","258342","J=YES, F=NO","h846eaj2gu","0","63","85","40","","","","","","","","","","","","","","","",""
"null","audio/flaw.wav","null","audio-keyboard-response","105","2.1.0","258981","J=YES, F=NO","h846eaj2gu","0","63","85","40","","","","","","","","","","","","","","","",""
"828","
          <p id=""word"" style=""font-size: 40px;"">thwool</p>
          <p style=""font-size: 16px;"">J = YES &nbsp;&nbsp;&nbsp; F = NO</p>
        ","f","html-keyboard-response","106","2.1.0","259809","J=YES, F=NO","h846eaj2gu","0","63","85","40","","","","","","","","","thwool","flaw","pseudoword","pseudoword","f","true","",""
"null","<p style=""font-size: 50px;"">+</p>","null","html-keyboard-response","107","2.1.0","260121","J=YES, F=NO","h846eaj2gu","0","63","85","40","","","","","","","","","","","","","","","",""
"null","audio/beep-329314.mp3","null","audio-keyboard-response","108","2.1.0","261642","J=YES, F=NO","h846eaj2gu","0","63","85","40","","","","","","","","","","","","","","","",""
"null","audio/bush1.wav","null","audio-keyboard-response","109","2.1.0","262142","J=YES, F=NO","h846eaj2gu","0","63","85","40","","","","","","","","","","","","","","","",""
"1179","
          <p id=""word"" style=""font-size: 40px;"">platined</p>
          <p style=""font-size: 16px;"">J = YES &nbsp;&nbsp;&nbsp; F = NO</p>
        ","f","html-keyboard-response","110","2.1.0","263320","J=YES, F=NO","h846eaj2gu","0","63","85","40","","","","","","","","","platined","bush1","pseudoword","pseudoword","f","true","",""
"null","<p style=""font-size: 50px;"">+</p>","null","html-keyboard-response","111","2.1.0","263627","J=YES, F=NO","h846eaj2gu","0","63","85","40","","","","","","","","","","","","","","","",""
"null","audio/beep-329314.mp3","null","audio-keyboard-response","112","2.1.0","265162","J=YES, F=NO","h846eaj2gu","0","63","85","40","","","","","","","","","","","","","","","",""
"null","audio/bomb1.wav","null","audio-keyboard-response","113","2.1.0","265581","J=YES, F=NO","h846eaj2gu","0","63","85","40","","","","","","","","","","","","","","","",""
"860","
          <p id=""word"" style=""font-size: 40px;"">clean</p>
          <p style=""font-size: 16px;"">J = YES &nbsp;&nbsp;&nbsp; F = NO</p>
        ","j","html-keyboard-response","114","2.1.0","266441","J=YES, F=NO","h846eaj2gu","0","63","85","40","","","","","","","","","clean","bomb1","filler","filler","j","true","",""
"1706","<p>Starting practice block 2 of 2. Press any key to continue.</p>","j","html-keyboard-response","115","2.1.0","268148","J=YES, F=NO","h846eaj2gu","0","63","85","40","","","","","","","","","","","","","","","",""
"null","<p style=""font-size: 50px;"">+</p>","null","html-keyboard-response","116","2.1.0","268449","J=YES, F=NO","h846eaj2gu","0","63","85","40","","","","","","","","","","","","","","","",""
"null","audio/beep-329314.mp3","null","audio-keyboard-response","117","2.1.0","269982","J=YES, F=NO","h846eaj2gu","0","63","85","40","","","","","","","","","","","","","","","",""
"null","audio/burden.wav","null","audio-keyboard-response","118","2.1.0","270641","J=YES, F=NO","h846eaj2gu","0","63","85","40","","","","","","","","","","","","","","","",""
"725","
          <p id=""word"" style=""font-size: 40px;"">whotth</p>
          <p style=""font-size: 16px;"">J = YES &nbsp;&nbsp;&nbsp; F = NO</p>
        ","f","html-keyboard-response","119","2.1.0","271366","J=YES, F=NO","h846eaj2gu","0","63","85","40","","","","","","","","","whotth","burden","pseudoword","pseudoword","f","true","",""
"null","<p style=""font-size: 50px;"">+</p>","null","html-keyboard-response","120","2.1.0","271677","J=YES, F=NO","h846eaj2gu","0","63","85","40","","","","","","","","","","","","","","","",""
"null","audio/beep-329314.mp3","null","audio-keyboard-response","121","2.1.0","273202","J=YES, F=NO","h846eaj2gu","0","63","85","40","","","","","","","","","","","","","","","",""
"null","audio/prisoner.wav","null","audio-keyboard-response","122","2.1.0","273721","J=YES, F=NO","h846eaj2gu","0","63","85","40","","","","","","","","","","","","","","","",""
"920","
          <p id=""word"" style=""font-size: 40px;"">egotian</p>
          <p style=""font-size: 16px;"">J = YES &nbsp;&nbsp;&nbsp; F = NO</p>
        ","f","html-keyboard-response","123","2.1.0","274641","J=YES, F=NO","h846eaj2gu","0","63","85","40","","","","","","","","","egotian","prisoner","pseudoword","pseudoword","f","true","",""
"null","<p style=""font-size: 50px;"">+</p>","null","html-keyboard-response","124","2.1.0","274956","J=YES, F=NO","h846eaj2gu","0","63","85","40","","","","","","","","","","","","","","","",""
"null","audio/beep-329314.mp3","null","audio-keyboard-response","125","2.1.0","276482","J=YES, F=NO","h846eaj2gu","0","63","85","40","","","","","","","","","","","","","","","",""
"null","audio/purpose.wav","null","audio-keyboard-response","126","2.1.0","277303","J=YES, F=NO","h846eaj2gu","0","63","85","40","","","","","","","","","","","","","","","",""
"657","
          <p id=""word"" style=""font-size: 40px;"">whigm</p>
          <p style=""font-size: 16px;"">J = YES &nbsp;&nbsp;&nbsp; F = NO</p>
        ","f","html-keyboard-response","127","2.1.0","277960","J=YES, F=NO","h846eaj2gu","0","63","85","40","","","","","","","","","whigm","purpose","pseudoword","pseudoword","f","true","",""
"null","<p style=""font-size: 50px;"">+</p>","null","html-keyboard-response","128","2.1.0","278273","J=YES, F=NO","h846eaj2gu","0","63","85","40","","","","","","","","","","","","","","","",""
"null","audio/beep-329314.mp3","null","audio-keyboard-response","129","2.1.0","279802","J=YES, F=NO","h846eaj2gu","0","63","85","40","","","","","","","","","","","","","","","",""
"null","audio/ankle1.wav","null","audio-keyboard-response","130","2.1.0","280351","J=YES, F=NO","h846eaj2gu","0","63","85","40","","","","","","","","","","","","","","","",""
"585","
          <p id=""word"" style=""font-size: 40px;"">kick</p>
          <p style=""font-size: 16px;"">J = YES &nbsp;&nbsp;&nbsp; F = NO</p>
        ","j","html-keyboard-response","131","2.1.0","280937","J=YES, F=NO","h846eaj2gu","0","63","85","40","","","","","","","","","kick","ankle1","filler","filler","j","true","",""
"null","<p style=""font-size: 50px;"">+</p>","null","html-keyboard-response","132","2.1.0","281244","J=YES, F=NO","h846eaj2gu","0","63","85","40","","","","","","","","","","","","","","","",""
"null","audio/beep-329314.mp3","null","audio-keyboard-response","133","2.1.0","282792","J=YES, F=NO","h846eaj2gu","0","63","85","40","","","","","","","","","","","","","","","",""
"null","audio/novel.wav","null","audio-keyboard-response","134","2.1.0","283310","J=YES, F=NO","h846eaj2gu","0","63","85","40","","","","","","","","","","","","","","","",""
"590","
          <p id=""word"" style=""font-size: 40px;"">type</p>
          <p style=""font-size: 16px;"">J = YES &nbsp;&nbsp;&nbsp; F = NO</p>
        ","j","html-keyboard-response","135","2.1.0","283901","J=YES, F=NO","h846eaj2gu","0","63","85","40","","","","","","","","","type","novel","filler","filler","j","true","",""
"null","<p style=""font-size: 50px;"">+</p>","null","html-keyboard-response","136","2.1.0","284205","J=YES, F=NO","h846eaj2gu","0","63","85","40","","","","","","","","","","","","","","","",""
"null","audio/beep-329314.mp3","null","audio-keyboard-response","137","2.1.0","285753","J=YES, F=NO","h846eaj2gu","0","63","85","40","","","","","","","","","","","","","","","",""
"null","audio/bishop1.wav","null","audio-keyboard-response","138","2.1.0","286351","J=YES, F=NO","h846eaj2gu","0","63","85","40","","","","","","","","","","","","","","","",""
"449","
          <p id=""word"" style=""font-size: 40px;"">play</p>
          <p style=""font-size: 16px;"">J = YES &nbsp;&nbsp;&nbsp; F = NO</p>
        ","j","html-keyboard-response","139","2.1.0","286799","J=YES, F=NO","h846eaj2gu","0","63","85","40","","","","","","","","","play","bishop1","filler","filler","j","true","",""
"null","<p style=""font-size: 50px;"">+</p>","null","html-keyboard-response","140","2.1.0","287114","J=YES, F=NO","h846eaj2gu","0","63","85","40","","","","","","","","","","","","","","","",""
"null","audio/beep-329314.mp3","null","audio-keyboard-response","141","2.1.0","288673","J=YES, F=NO","h846eaj2gu","0","63","85","40","","","","","","","","","","","","","","","",""
"null","audio/belief.wav","null","audio-keyboard-response","142","2.1.0","289452","J=YES, F=NO","h846eaj2gu","0","63","85","40","","","","","","","","","","","","","","","",""
"500","
          <p id=""word"" style=""font-size: 40px;"">read</p>
          <p style=""font-size: 16px;"">J = YES &nbsp;&nbsp;&nbsp; F = NO</p>
        ","j","html-keyboard-response","143","2.1.0","289953","J=YES, F=NO","h846eaj2gu","0","63","85","40","","","","","","","","","read","belief","filler","filler","j","true","",""
"null","<p style=""font-size: 50px;"">+</p>","null","html-keyboard-response","144","2.1.0","290260","J=YES, F=NO","h846eaj2gu","0","63","85","40","","","","","","","","","","","","","","","",""
"null","audio/beep-329314.mp3","null","audio-keyboard-response","145","2.1.0","291812","J=YES, F=NO","h846eaj2gu","0","63","85","40","","","","","","","","","","","","","","","",""
"null","audio/cancer1.wav","null","audio-keyboard-response","146","2.1.0","292392","J=YES, F=NO","h846eaj2gu","0","63","85","40","","","","","","","","","","","","","","","",""
"678","
          <p id=""word"" style=""font-size: 40px;"">draw</p>
          <p style=""font-size: 16px;"">J = YES &nbsp;&nbsp;&nbsp; F = NO</p>
        ","j","html-keyboard-response","147","2.1.0","293070","J=YES, F=NO","h846eaj2gu","0","63","85","40","","","","","","","","","draw","cancer1","filler","filler","j","true","",""
"null","<p style=""font-size: 50px;"">+</p>","null","html-keyboard-response","148","2.1.0","293374","J=YES, F=NO","h846eaj2gu","0","63","85","40","","","","","","","","","","","","","","","",""
"null","audio/beep-329314.mp3","null","audio-keyboard-response","149","2.1.0","294932","J=YES, F=NO","h846eaj2gu","0","63","85","40","","","","","","","","","","","","","","","",""
"null","audio/desire.wav","null","audio-keyboard-response","150","2.1.0","295572","J=YES, F=NO","h846eaj2gu","0","63","85","40","","","","","","","","","","","","","","","",""
"668","
          <p id=""word"" style=""font-size: 40px;"">nophed</p>
          <p style=""font-size: 16px;"">J = YES &nbsp;&nbsp;&nbsp; F = NO</p>
        ","j","html-keyboard-response","151","2.1.0","296240","J=YES, F=NO","h846eaj2gu","0","63","85","40","","","","","","","","","nophed","desire","pseudoword","pseudoword","f","false","",""
"null","<p style=""font-size: 50px;"">+</p>","null","html-keyboard-response","152","2.1.0","296550","J=YES, F=NO","h846eaj2gu","0","63","85","40","","","","","","","","","","","","","","","",""
"null","audio/beep-329314.mp3","null","audio-keyboard-response","153","2.1.0","298093","J=YES, F=NO","h846eaj2gu","0","63","85","40","","","","","","","","","","","","","","","",""
"null","audio/floor.wav","null","audio-keyboard-response","154","2.1.0","298671","J=YES, F=NO","h846eaj2gu","0","63","85","40","","","","","","","","","","","","","","","",""
"597","
          <p id=""word"" style=""font-size: 40px;"">mop</p>
          <p style=""font-size: 16px;"">J = YES &nbsp;&nbsp;&nbsp; F = NO</p>
        ","j","html-keyboard-response","155","2.1.0","299268","J=YES, F=NO","h846eaj2gu","0","63","85","40","","","","","","","","","mop","floor","filler","filler","j","true","",""
"null","<p style=""font-size: 50px;"">+</p>","null","html-keyboard-response","156","2.1.0","299583","J=YES, F=NO","h846eaj2gu","0","63","85","40","","","","","","","","","","","","","","","",""
"null","audio/beep-329314.mp3","null","audio-keyboard-response","157","2.1.0","301133","J=YES, F=NO","h846eaj2gu","0","63","85","40","","","","","","","","","","","","","","","",""
"null","audio/pine.wav","null","audio-keyboard-response","158","2.1.0","301651","J=YES, F=NO","h846eaj2gu","0","63","85","40","","","","","","","","","","","","","","","",""
"893","
          <p id=""word"" style=""font-size: 40px;"">crebble</p>
          <p style=""font-size: 16px;"">J = YES &nbsp;&nbsp;&nbsp; F = NO</p>
        ","j","html-keyboard-response","159","2.1.0","302545","J=YES, F=NO","h846eaj2gu","0","63","85","40","","","","","","","","","crebble","pine","pseudoword","pseudoword","f","false","",""
"null","<p style=""font-size: 50px;"">+</p>","null","html-keyboard-response","160","2.1.0","302858","J=YES, F=NO","h846eaj2gu","0","63","85","40","","","","","","","","","","","","","","","",""
"null","audio/beep-329314.mp3","null","audio-keyboard-response","161","2.1.0","304412","J=YES, F=NO","h846eaj2gu","0","63","85","40","","","","","","","","","","","","","","","",""
"null","audio/empire.wav","null","audio-keyboard-response","162","2.1.0","305072","J=YES, F=NO","h846eaj2gu","0","63","85","40","","","","","","","","","","","","","","","",""
"830","
          <p id=""word"" style=""font-size: 40px;"">slorby</p>
          <p style=""font-size: 16px;"">J = YES &nbsp;&nbsp;&nbsp; F = NO</p>
        ","f","html-keyboard-response","163","2.1.0","305903","J=YES, F=NO","h846eaj2gu","0","63","85","40","","","","","","","","","slorby","empire","pseudoword","pseudoword","f","true","",""
"5017","
    <div style=""max-width: 800px; margin: auto; text-align: left;"">
      <h2>Part 2: Main Trials</h2>
      <p>Great job on the practice trials!</p>
      <p>You will now begin the <strong>main set of trials</strong>.</p>
      <p>Remember your key assignments:</p>
      <ul>
        <li><strong>J</strong> = YES (real English word)</li>
        <li><strong>F</strong> = NO (not a real English word)</li>
      </ul>
      <p>Try to respond as <strong>quickly and accurately</strong> as possible.</p>
      <p style=""margin-top: 2em;"">Press any key to begin the main trials.</p>
    </div>
  ","j","html-keyboard-response","164","2.1.0","310920","J=YES, F=NO","h846eaj2gu","0","63","85","40","","","","","","","","","","","","","","","",""
"75080","<p>Starting main block 1 of 8. Press any key to continue.</p>","j","html-keyboard-response","165","2.1.0","386000","J=YES, F=NO","h846eaj2gu","0","63","85","40","","","","","","","","","","","","","","","",""
"null","<p style=""font-size: 50px;"">+</p>","null","html-keyboard-response","166","2.1.0","386303","J=YES, F=NO","h846eaj2gu","0","63","85","40","","","","","","","","","","","","","","","",""
"null","audio/beep-329314.mp3","null","audio-keyboard-response","167","2.1.0","387820","J=YES, F=NO","h846eaj2gu","0","63","85","40","","","","","","","","","","","","","","","",""
"null","audio/cloud1.wav","null","audio-keyboard-response","168","2.1.0","388370","J=YES, F=NO","h846eaj2gu","0","63","85","40","","","","","","","","","","","","","","","",""
"null","
          <p id=""word"" style=""font-size: 40px;"">brotant</p>
          <p style=""font-size: 16px;"">J = YES &nbsp;&nbsp;&nbsp; F = NO</p>
        ","null","html-keyboard-response","169","2.1.0","389884","J=YES, F=NO","h846eaj2gu","0","63","85","40","","","","","","","","","brotant","cloud1","pseudoword","pseudoword","f","false","",""
"null","<p style=""font-size: 50px;"">+</p>","null","html-keyboard-response","170","2.1.0","390194","J=YES, F=NO","h846eaj2gu","0","63","85","40","","","","","","","","","","","","","","","",""
"null","audio/beep-329314.mp3","null","audio-keyboard-response","171","2.1.0","391722","J=YES, F=NO","h846eaj2gu","0","63","85","40","","","","","","","","","","","","","","","",""
"null","audio/gossip1.wav","null","audio-keyboard-response","172","2.1.0","392370","J=YES, F=NO","h846eaj2gu","0","63","85","40","","","","","","","","","","","","","","","",""
"1033","
          <p id=""word"" style=""font-size: 40px;"">wrestle</p>
          <p style=""font-size: 16px;"">J = YES &nbsp;&nbsp;&nbsp; F = NO</p>
        ","j","html-keyboard-response","173","2.1.0","393403","J=YES, F=NO","h846eaj2gu","0","63","85","40","","","","","","","","","wrestle","gossip1","unrelated","experimental","j","true","",""
"null","<p style=""font-size: 50px;"">+</p>","null","html-keyboard-response","174","2.1.0","393708","J=YES, F=NO","h846eaj2gu","0","63","85","40","","","","","","","","","","","","","","","",""
"null","audio/beep-329314.mp3","null","audio-keyboard-response","175","2.1.0","395242","J=YES, F=NO","h846eaj2gu","0","63","85","40","","","","","","","","","","","","","","","",""
"null","audio/vehicle1.wav","null","audio-keyboard-response","176","2.1.0","395930","J=YES, F=NO","h846eaj2gu","0","63","85","40","","","","","","","","","","","","","","","",""
"null","
          <p id=""word"" style=""font-size: 40px;"">dropt</p>
          <p style=""font-size: 16px;"">J = YES &nbsp;&nbsp;&nbsp; F = NO</p>
        ","null","html-keyboard-response","177","2.1.0","397445","J=YES, F=NO","h846eaj2gu","0","63","85","40","","","","","","","","","dropt","vehicle1","pseudoword","pseudoword","f","false","",""
"null","<p style=""font-size: 50px;"">+</p>","null","html-keyboard-response","178","2.1.0","397759","J=YES, F=NO","h846eaj2gu","0","63","85","40","","","","","","","","","","","","","","","",""
"null","audio/beep-329314.mp3","null","audio-keyboard-response","179","2.1.0","399281","J=YES, F=NO","h846eaj2gu","0","63","85","40","","","","","","","","","","","","","","","",""
"null","audio/mouth1.wav","null","audio-keyboard-response","180","2.1.0","399890","J=YES, F=NO","h846eaj2gu","0","63","85","40","","","","","","","","","","","","","","","",""
"871","
          <p id=""word"" style=""font-size: 40px;"">spolial</p>
          <p style=""font-size: 16px;"">J = YES &nbsp;&nbsp;&nbsp; F = NO</p>
        ","f","html-keyboard-response","181","2.1.0","400762","J=YES, F=NO","h846eaj2gu","0","63","85","40","","","","","","","","","spolial","mouth1","pseudoword","pseudoword","f","true","",""
"null","<p style=""font-size: 50px;"">+</p>","null","html-keyboard-response","182","2.1.0","401067","J=YES, F=NO","h846eaj2gu","0","63","85","40","","","","","","","","","","","","","","","",""
"null","audio/beep-329314.mp3","null","audio-keyboard-response","183","2.1.0","402601","J=YES, F=NO","h846eaj2gu","0","63","85","40","","","","","","","","","","","","","","","",""
"null","audio/baby.wav","null","audio-keyboard-response","184","2.1.0","403089","J=YES, F=NO","h846eaj2gu","0","63","85","40","","","","","","","","","","","","","","","",""
"953","
          <p id=""word"" style=""font-size: 40px;"">lift</p>
          <p style=""font-size: 16px;"">J = YES &nbsp;&nbsp;&nbsp; F = NO</p>
        ","j","html-keyboard-response","185","2.1.0","404042","J=YES, F=NO","h846eaj2gu","0","63","85","40","","","","","","","","","lift","baby","filler","filler","j","true","",""
"null","<p style=""font-size: 50px;"">+</p>","null","html-keyboard-response","186","2.1.0","404356","J=YES, F=NO","h846eaj2gu","0","63","85","40","","","","","","","","","","","","","","","",""
"null","audio/beep-329314.mp3","null","audio-keyboard-response","187","2.1.0","405881","J=YES, F=NO","h846eaj2gu","0","63","85","40","","","","","","","","","","","","","","","",""
"null","audio/table1.wav","null","audio-keyboard-response","188","2.1.0","406410","J=YES, F=NO","h846eaj2gu","0","63","85","40","","","","","","","","","","","","","","","",""
"843","
          <p id=""word"" style=""font-size: 40px;"">stimb</p>
          <p style=""font-size: 16px;"">J = YES &nbsp;&nbsp;&nbsp; F = NO</p>
        ","f","html-keyboard-response","189","2.1.0","407253","J=YES, F=NO","h846eaj2gu","0","63","85","40","","","","","","","","","stimb","table1","pseudoword","pseudoword","f","true","",""
"null","<p style=""font-size: 50px;"">+</p>","null","html-keyboard-response","190","2.1.0","407554","J=YES, F=NO","h846eaj2gu","0","63","85","40","","","","","","","","","","","","","","","",""
"null","audio/beep-329314.mp3","null","audio-keyboard-response","191","2.1.0","409082","J=YES, F=NO","h846eaj2gu","0","63","85","40","","","","","","","","","","","","","","","",""
"null","audio/stain.wav","null","audio-keyboard-response","192","2.1.0","409751","J=YES, F=NO","h846eaj2gu","0","63","85","40","","","","","","","","","","","","","","","",""
"963","
          <p id=""word"" style=""font-size: 40px;"">rumpsied</p>
          <p style=""font-size: 16px;"">J = YES &nbsp;&nbsp;&nbsp; F = NO</p>
        ","f","html-keyboard-response","193","2.1.0","410715","J=YES, F=NO","h846eaj2gu","0","63","85","40","","","","","","","","","rumpsied","stain","pseudoword","pseudoword","f","true","",""
"null","<p style=""font-size: 50px;"">+</p>","null","html-keyboard-response","194","2.1.0","411023","J=YES, F=NO","h846eaj2gu","0","63","85","40","","","","","","","","","","","","","","","",""
"null","audio/beep-329314.mp3","null","audio-keyboard-response","195","2.1.0","412561","J=YES, F=NO","h846eaj2gu","0","63","85","40","","","","","","","","","","","","","","","",""
"null","audio/camp.wav","null","audio-keyboard-response","196","2.1.0","413110","J=YES, F=NO","h846eaj2gu","0","63","85","40","","","","","","","","","","","","","","","",""
"648","
          <p id=""word"" style=""font-size: 40px;"">touch</p>
          <p style=""font-size: 16px;"">J = YES &nbsp;&nbsp;&nbsp; F = NO</p>
        ","j","html-keyboard-response","197","2.1.0","413759","J=YES, F=NO","h846eaj2gu","0","63","85","40","","","","","","","","","touch","camp","unrelated","experimental","j","true","",""
"null","<p style=""font-size: 50px;"">+</p>","null","html-keyboard-response","198","2.1.0","414074","J=YES, F=NO","h846eaj2gu","0","63","85","40","","","","","","","","","","","","","","","",""
"null","audio/beep-329314.mp3","null","audio-keyboard-response","199","2.1.0","415601","J=YES, F=NO","h846eaj2gu","0","63","85","40","","","","","","","","","","","","","","","",""
"null","audio/beach1.wav","null","audio-keyboard-response","200","2.1.0","416210","J=YES, F=NO","h846eaj2gu","0","63","85","40","","","","","","","","","","","","","","","",""
"532","
          <p id=""word"" style=""font-size: 40px;"">cut</p>
          <p style=""font-size: 16px;"">J = YES &nbsp;&nbsp;&nbsp; F = NO</p>
        ","j","html-keyboard-response","201","2.1.0","416742","J=YES, F=NO","h846eaj2gu","0","63","85","40","","","","","","","","","cut","beach1","unrelated","experimental","j","true","",""
"null","<p style=""font-size: 50px;"">+</p>","null","html-keyboard-response","202","2.1.0","417044","J=YES, F=NO","h846eaj2gu","0","63","85","40","","","","","","","","","","","","","","","",""
"null","audio/beep-329314.mp3","null","audio-keyboard-response","203","2.1.0","418581","J=YES, F=NO","h846eaj2gu","0","63","85","40","","","","","","","","","","","","","","","",""
"null","audio/sugar1.wav","null","audio-keyboard-response","204","2.1.0","419110","J=YES, F=NO","h846eaj2gu","0","63","85","40","","","","","","","","","","","","","","","",""
"736","
          <p id=""word"" style=""font-size: 40px;"">glung</p>
          <p style=""font-size: 16px;"">J = YES &nbsp;&nbsp;&nbsp; F = NO</p>
        ","f","html-keyboard-response","205","2.1.0","419847","J=YES, F=NO","h846eaj2gu","0","63","85","40","","","","","","","","","glung","sugar1","pseudoword","pseudoword","f","true","",""
"null","<p style=""font-size: 50px;"">+</p>","null","html-keyboard-response","206","2.1.0","420153","J=YES, F=NO","h846eaj2gu","0","63","85","40","","","","","","","","","","","","","","","",""
"null","audio/beep-329314.mp3","null","audio-keyboard-response","207","2.1.0","421681","J=YES, F=NO","h846eaj2gu","0","63","85","40","","","","","","","","","","","","","","","",""
"null","audio/hawk1.wav","null","audio-keyboard-response","208","2.1.0","422431","J=YES, F=NO","h846eaj2gu","0","63","85","40","","","","","","","","","","","","","","","",""
"842","
          <p id=""word"" style=""font-size: 40px;"">ostach</p>
          <p style=""font-size: 16px;"">J = YES &nbsp;&nbsp;&nbsp; F = NO</p>
        ","f","html-keyboard-response","209","2.1.0","423273","J=YES, F=NO","h846eaj2gu","0","63","85","40","","","","","","","","","ostach","hawk1","pseudoword","pseudoword","f","true","",""
"null","<p style=""font-size: 50px;"">+</p>","null","html-keyboard-response","210","2.1.0","423582","J=YES, F=NO","h846eaj2gu","0","63","85","40","","","","","","","","","","","","","","","",""
"null","audio/beep-329314.mp3","null","audio-keyboard-response","211","2.1.0","425121","J=YES, F=NO","h846eaj2gu","0","63","85","40","","","","","","","","","","","","","","","",""
"null","audio/handle.wav","null","audio-keyboard-response","212","2.1.0","425771","J=YES, F=NO","h846eaj2gu","0","63","85","40","","","","","","","","","","","","","","","",""
"855","
          <p id=""word"" style=""font-size: 40px;"">moutes</p>
          <p style=""font-size: 16px;"">J = YES &nbsp;&nbsp;&nbsp; F = NO</p>
        ","f","html-keyboard-response","213","2.1.0","426627","J=YES, F=NO","h846eaj2gu","0","63","85","40","","","","","","","","","moutes","handle","pseudoword","pseudoword","f","true","",""
"null","<p style=""font-size: 50px;"">+</p>","null","html-keyboard-response","214","2.1.0","426933","J=YES, F=NO","h846eaj2gu","0","63","85","40","","","","","","","","","","","","","","","",""
"null","audio/beep-329314.mp3","null","audio-keyboard-response","215","2.1.0","428462","J=YES, F=NO","h846eaj2gu","0","63","85","40","","","","","","","","","","","","","","","",""
"null","audio/budget1.wav","null","audio-keyboard-response","216","2.1.0","429111","J=YES, F=NO","h846eaj2gu","0","63","85","40","","","","","","","","","","","","","","","",""
"814","
          <p id=""word"" style=""font-size: 40px;"">sulist</p>
          <p style=""font-size: 16px;"">J = YES &nbsp;&nbsp;&nbsp; F = NO</p>
        ","f","html-keyboard-response","217","2.1.0","429925","J=YES, F=NO","h846eaj2gu","0","63","85","40","","","","","","","","","sulist","budget1","pseudoword","pseudoword","f","true","",""
"null","<p style=""font-size: 50px;"">+</p>","null","html-keyboard-response","218","2.1.0","430226","J=YES, F=NO","h846eaj2gu","0","63","85","40","","","","","","","","","","","","","","","",""
"null","audio/beep-329314.mp3","null","audio-keyboard-response","219","2.1.0","431761","J=YES, F=NO","h846eaj2gu","0","63","85","40","","","","","","","","","","","","","","","",""
"null","audio/skin1.wav","null","audio-keyboard-response","220","2.1.0","432349","J=YES, F=NO","h846eaj2gu","0","63","85","40","","","","","","","","","","","","","","","",""
"781","
          <p id=""word"" style=""font-size: 40px;"">expose</p>
          <p style=""font-size: 16px;"">J = YES &nbsp;&nbsp;&nbsp; F = NO</p>
        ","j","html-keyboard-response","221","2.1.0","433130","J=YES, F=NO","h846eaj2gu","0","63","85","40","","","","","","","","","expose","skin1","literal","experimental","j","true","",""
"null","<p style=""font-size: 50px;"">+</p>","null","html-keyboard-response","222","2.1.0","433432","J=YES, F=NO","h846eaj2gu","0","63","85","40","","","","","","","","","","","","","","","",""
"null","audio/beep-329314.mp3","null","audio-keyboard-response","223","2.1.0","434961","J=YES, F=NO","h846eaj2gu","0","63","85","40","","","","","","","","","","","","","","","",""
"null","audio/rank1.wav","null","audio-keyboard-response","224","2.1.0","435550","J=YES, F=NO","h846eaj2gu","0","63","85","40","","","","","","","","","","","","","","","",""
"576","
          <p id=""word"" style=""font-size: 40px;"">climb</p>
          <p style=""font-size: 16px;"">J = YES &nbsp;&nbsp;&nbsp; F = NO</p>
        ","j","html-keyboard-response","225","2.1.0","436126","J=YES, F=NO","h846eaj2gu","0","63","85","40","","","","","","","","","climb","rank1","metaphor","experimental","j","true","",""
"null","<p style=""font-size: 50px;"">+</p>","null","html-keyboard-response","226","2.1.0","436433","J=YES, F=NO","h846eaj2gu","0","63","85","40","","","","","","","","","","","","","","","",""
"null","audio/beep-329314.mp3","null","audio-keyboard-response","227","2.1.0","437961","J=YES, F=NO","h846eaj2gu","0","63","85","40","","","","","","","","","","","","","","","",""
"null","audio/hawk1.wav","null","audio-keyboard-response","228","2.1.0","438550","J=YES, F=NO","h846eaj2gu","0","63","85","40","","","","","","","","","","","","","","","",""
"845","
          <p id=""word"" style=""font-size: 40px;"">wipe</p>
          <p style=""font-size: 16px;"">J = YES &nbsp;&nbsp;&nbsp; F = NO</p>
        ","j","html-keyboard-response","229","2.1.0","439395","J=YES, F=NO","h846eaj2gu","0","63","85","40","","","","","","","","","wipe","hawk1","unrelated","experimental","j","true","",""
"3831","<p>Excellent! You have finished block 1 of 8.</p>
                     <p>Feel free to take a 30 second break.</p>
                     <p>Press any key when you're ready to continue.</p>","j","html-keyboard-response","230","2.1.0","443227","J=YES, F=NO","h846eaj2gu","0","63","85","40","","","","","","","","","","","","","","","",""
"648","<p>Starting main block 2 of 8. Press any key to continue.</p>","j","html-keyboard-response","231","2.1.0","443876","J=YES, F=NO","h846eaj2gu","0","63","85","40","","","","","","","","","","","","","","","",""
"null","<p style=""font-size: 50px;"">+</p>","null","html-keyboard-response","232","2.1.0","444191","J=YES, F=NO","h846eaj2gu","0","63","85","40","","","","","","","","","","","","","","","",""
"null","audio/beep-329314.mp3","null","audio-keyboard-response","233","2.1.0","445721","J=YES, F=NO","h846eaj2gu","0","63","85","40","","","","","","","","","","","","","","","",""
"null","audio/age1.wav","null","audio-keyboard-response","234","2.1.0","446310","J=YES, F=NO","h846eaj2gu","0","63","85","40","","","","","","","","","","","","","","","",""
"694","
          <p id=""word"" style=""font-size: 40px;"">lachry</p>
          <p style=""font-size: 16px;"">J = YES &nbsp;&nbsp;&nbsp; F = NO</p>
        ","f","html-keyboard-response","235","2.1.0","447005","J=YES, F=NO","h846eaj2gu","0","63","85","40","","","","","","","","","lachry","age1","pseudoword","pseudoword","f","true","",""
"null","<p style=""font-size: 50px;"">+</p>","null","html-keyboard-response","236","2.1.0","447316","J=YES, F=NO","h846eaj2gu","0","63","85","40","","","","","","","","","","","","","","","",""
"null","audio/beep-329314.mp3","null","audio-keyboard-response","237","2.1.0","448842","J=YES, F=NO","h846eaj2gu","0","63","85","40","","","","","","","","","","","","","","","",""
"null","audio/mile1.wav","null","audio-keyboard-response","238","2.1.0","449330","J=YES, F=NO","h846eaj2gu","0","63","85","40","","","","","","","","","","","","","","","",""
"539","
          <p id=""word"" style=""font-size: 40px;"">run</p>
          <p style=""font-size: 16px;"">J = YES &nbsp;&nbsp;&nbsp; F = NO</p>
        ","j","html-keyboard-response","239","2.1.0","449869","J=YES, F=NO","h846eaj2gu","0","63","85","40","","","","","","","","","run","mile1","literal","experimental","j","true","",""
"null","<p style=""font-size: 50px;"">+</p>","null","html-keyboard-response","240","2.1.0","450184","J=YES, F=NO","h846eaj2gu","0","63","85","40","","","","","","","","","","","","","","","",""
"null","audio/beep-329314.mp3","null","audio-keyboard-response","241","2.1.0","451721","J=YES, F=NO","h846eaj2gu","0","63","85","40","","","","","","","","","","","","","","","",""
"null","audio/planet1.wav","null","audio-keyboard-response","242","2.1.0","452330","J=YES, F=NO","h846eaj2gu","0","63","85","40","","","","","","","","","","","","","","","",""
"893","
          <p id=""word"" style=""font-size: 40px;"">cratched</p>
          <p style=""font-size: 16px;"">J = YES &nbsp;&nbsp;&nbsp; F = NO</p>
        ","j","html-keyboard-response","243","2.1.0","453223","J=YES, F=NO","h846eaj2gu","0","63","85","40","","","","","","","","","cratched","planet1","pseudoword","pseudoword","f","false","",""
"null","<p style=""font-size: 50px;"">+</p>","null","html-keyboard-response","244","2.1.0","453530","J=YES, F=NO","h846eaj2gu","0","63","85","40","","","","","","","","","","","","","","","",""
"null","audio/beep-329314.mp3","null","audio-keyboard-response","245","2.1.0","455061","J=YES, F=NO","h846eaj2gu","0","63","85","40","","","","","","","","","","","","","","","",""
"null","audio/life1.wav","null","audio-keyboard-response","246","2.1.0","455650","J=YES, F=NO","h846eaj2gu","0","63","85","40","","","","","","","","","","","","","","","",""
"952","
          <p id=""word"" style=""font-size: 40px;"">flimch</p>
          <p style=""font-size: 16px;"">J = YES &nbsp;&nbsp;&nbsp; F = NO</p>
        ","f","html-keyboard-response","247","2.1.0","456602","J=YES, F=NO","h846eaj2gu","0","63","85","40","","","","","","","","","flimch","life1","pseudoword","pseudoword","f","true","",""
"null","<p style=""font-size: 50px;"">+</p>","null","html-keyboard-response","248","2.1.0","456913","J=YES, F=NO","h846eaj2gu","0","63","85","40","","","","","","","","","","","","","","","",""
"null","audio/beep-329314.mp3","null","audio-keyboard-response","249","2.1.0","458441","J=YES, F=NO","h846eaj2gu","0","63","85","40","","","","","","","","","","","","","","","",""
"null","audio/flaw.wav","null","audio-keyboard-response","250","2.1.0","459070","J=YES, F=NO","h846eaj2gu","0","63","85","40","","","","","","","","","","","","","","","",""
"528","
          <p id=""word"" style=""font-size: 40px;"">hide</p>
          <p style=""font-size: 16px;"">J = YES &nbsp;&nbsp;&nbsp; F = NO</p>
        ","j","html-keyboard-response","251","2.1.0","459598","J=YES, F=NO","h846eaj2gu","0","63","85","40","","","","","","","","","hide","flaw","metaphor","experimental","j","true","",""
"null","<p style=""font-size: 50px;"">+</p>","null","html-keyboard-response","252","2.1.0","459903","J=YES, F=NO","h846eaj2gu","0","63","85","40","","","","","","","","","","","","","","","",""
"null","audio/beep-329314.mp3","null","audio-keyboard-response","253","2.1.0","461441","J=YES, F=NO","h846eaj2gu","0","63","85","40","","","","","","","","","","","","","","","",""
"null","audio/corpse1.wav","null","audio-keyboard-response","254","2.1.0","462111","J=YES, F=NO","h846eaj2gu","0","63","85","40","","","","","","","","","","","","","","","",""
"611","
          <p id=""word"" style=""font-size: 40px;"">glonet</p>
          <p style=""font-size: 16px;"">J = YES &nbsp;&nbsp;&nbsp; F = NO</p>
        ","f","html-keyboard-response","255","2.1.0","462722","J=YES, F=NO","h846eaj2gu","0","63","85","40","","","","","","","","","glonet","corpse1","pseudoword","pseudoword","f","true","",""
"null","<p style=""font-size: 50px;"">+</p>","null","html-keyboard-response","256","2.1.0","463030","J=YES, F=NO","h846eaj2gu","0","63","85","40","","","","","","","","","","","","","","","",""
"null","audio/beep-329314.mp3","null","audio-keyboard-response","257","2.1.0","464561","J=YES, F=NO","h846eaj2gu","0","63","85","40","","","","","","","","","","","","","","","",""
"null","audio/promise1.wav","null","audio-keyboard-response","258","2.1.0","465210","J=YES, F=NO","h846eaj2gu","0","63","85","40","","","","","","","","","","","","","","","",""
"628","
          <p id=""word"" style=""font-size: 40px;"">break</p>
          <p style=""font-size: 16px;"">J = YES &nbsp;&nbsp;&nbsp; F = NO</p>
        ","j","html-keyboard-response","259","2.1.0","465839","J=YES, F=NO","h846eaj2gu","0","63","85","40","","","","","","","","","break","promise1","metaphor","experimental","j","true","",""
"null","<p style=""font-size: 50px;"">+</p>","null","html-keyboard-response","260","2.1.0","466147","J=YES, F=NO","h846eaj2gu","0","63","85","40","","","","","","","","","","","","","","","",""
"null","audio/beep-329314.mp3","null","audio-keyboard-response","261","2.1.0","467681","J=YES, F=NO","h846eaj2gu","0","63","85","40","","","","","","","","","","","","","","","",""
"null","audio/pain1.wav","null","audio-keyboard-response","262","2.1.0","468129","J=YES, F=NO","h846eaj2gu","0","63","85","40","","","","","","","","","","","","","","","",""
"564","
          <p id=""word"" style=""font-size: 40px;"">sell</p>
          <p style=""font-size: 16px;"">J = YES &nbsp;&nbsp;&nbsp; F = NO</p>
        ","j","html-keyboard-response","263","2.1.0","468693","J=YES, F=NO","h846eaj2gu","0","63","85","40","","","","","","","","","sell","pain1","unrelated","experimental","j","true","",""
"null","<p style=""font-size: 50px;"">+</p>","null","html-keyboard-response","264","2.1.0","469005","J=YES, F=NO","h846eaj2gu","0","63","85","40","","","","","","","","","","","","","","","",""
"null","audio/beep-329314.mp3","null","audio-keyboard-response","265","2.1.0","470541","J=YES, F=NO","h846eaj2gu","0","63","85","40","","","","","","","","","","","","","","","",""
"null","audio/client1.wav","null","audio-keyboard-response","266","2.1.0","471351","J=YES, F=NO","h846eaj2gu","0","63","85","40","","","","","","","","","","","","","","","",""
"585","
          <p id=""word"" style=""font-size: 40px;"">droothe</p>
          <p style=""font-size: 16px;"">J = YES &nbsp;&nbsp;&nbsp; F = NO</p>
        ","f","html-keyboard-response","267","2.1.0","471936","J=YES, F=NO","h846eaj2gu","0","63","85","40","","","","","","","","","droothe","client1","pseudoword","pseudoword","f","true","",""
"null","<p style=""font-size: 50px;"">+</p>","null","html-keyboard-response","268","2.1.0","472240","J=YES, F=NO","h846eaj2gu","0","63","85","40","","","","","","","","","","","","","","","",""
"null","audio/beep-329314.mp3","null","audio-keyboard-response","269","2.1.0","473761","J=YES, F=NO","h846eaj2gu","0","63","85","40","","","","","","","","","","","","","","","",""
"null","audio/winter.wav","null","audio-keyboard-response","270","2.1.0","474350","J=YES, F=NO","h846eaj2gu","0","63","85","40","","","","","","","","","","","","","","","",""
"713","
          <p id=""word"" style=""font-size: 40px;"">straven</p>
          <p style=""font-size: 16px;"">J = YES &nbsp;&nbsp;&nbsp; F = NO</p>
        ","f","html-keyboard-response","271","2.1.0","475064","J=YES, F=NO","h846eaj2gu","0","63","85","40","","","","","","","","","straven","winter","pseudoword","pseudoword","f","true","",""
"null","<p style=""font-size: 50px;"">+</p>","null","html-keyboard-response","272","2.1.0","475371","J=YES, F=NO","h846eaj2gu","0","63","85","40","","","","","","","","","","","","","","","",""
"null","audio/beep-329314.mp3","null","audio-keyboard-response","273","2.1.0","476902","J=YES, F=NO","h846eaj2gu","0","63","85","40","","","","","","","","","","","","","","","",""
"null","audio/weight1.wav","null","audio-keyboard-response","274","2.1.0","477450","J=YES, F=NO","h846eaj2gu","0","63","85","40","","","","","","","","","","","","","","","",""
"561","
          <p id=""word"" style=""font-size: 40px;"">support</p>
          <p style=""font-size: 16px;"">J = YES &nbsp;&nbsp;&nbsp; F = NO</p>
        ","j","html-keyboard-response","275","2.1.0","478011","J=YES, F=NO","h846eaj2gu","0","63","85","40","","","","","","","","","support","weight1","literal","experimental","j","true","",""
"null","<p style=""font-size: 50px;"">+</p>","null","html-keyboard-response","276","2.1.0","478313","J=YES, F=NO","h846eaj2gu","0","63","85","40","","","","","","","","","","","","","","","",""
"null","audio/beep-329314.mp3","null","audio-keyboard-response","277","2.1.0","479841","J=YES, F=NO","h846eaj2gu","0","63","85","40","","","","","","","","","","","","","","","",""
"null","audio/van1.wav","null","audio-keyboard-response","278","2.1.0","480350","J=YES, F=NO","h846eaj2gu","0","63","85","40","","","","","","","","","","","","","","","",""
"638","
          <p id=""word"" style=""font-size: 40px;"">push</p>
          <p style=""font-size: 16px;"">J = YES &nbsp;&nbsp;&nbsp; F = NO</p>
        ","j","html-keyboard-response","279","2.1.0","480989","J=YES, F=NO","h846eaj2gu","0","63","85","40","","","","","","","","","push","van1","filler","filler","j","true","",""
"null","<p style=""font-size: 50px;"">+</p>","null","html-keyboard-response","280","2.1.0","481305","J=YES, F=NO","h846eaj2gu","0","63","85","40","","","","","","","","","","","","","","","",""
"null","audio/beep-329314.mp3","null","audio-keyboard-response","281","2.1.0","482842","J=YES, F=NO","h846eaj2gu","0","63","85","40","","","","","","","","","","","","","","","",""
"null","audio/pride1.wav","null","audio-keyboard-response","282","2.1.0","483531","J=YES, F=NO","h846eaj2gu","0","63","85","40","","","","","","","","","","","","","","","",""
"509","
          <p id=""word"" style=""font-size: 40px;"">hurt</p>
          <p style=""font-size: 16px;"">J = YES &nbsp;&nbsp;&nbsp; F = NO</p>
        ","j","html-keyboard-response","283","2.1.0","484040","J=YES, F=NO","h846eaj2gu","0","63","85","40","","","","","","","","","hurt","pride1","metaphor","experimental","j","true","",""
"null","<p style=""font-size: 50px;"">+</p>","null","html-keyboard-response","284","2.1.0","484352","J=YES, F=NO","h846eaj2gu","0","63","85","40","","","","","","","","","","","","","","","",""
"null","audio/beep-329314.mp3","null","audio-keyboard-response","285","2.1.0","485881","J=YES, F=NO","h846eaj2gu","0","63","85","40","","","","","","","","","","","","","","","",""
"null","audio/devil1.wav","null","audio-keyboard-response","286","2.1.0","486290","J=YES, F=NO","h846eaj2gu","0","63","85","40","","","","","","","","","","","","","","","",""
"819","
          <p id=""word"" style=""font-size: 40px;"">carry</p>
          <p style=""font-size: 16px;"">J = YES &nbsp;&nbsp;&nbsp; F = NO</p>
        ","j","html-keyboard-response","287","2.1.0","487108","J=YES, F=NO","h846eaj2gu","0","63","85","40","","","","","","","","","carry","devil1","unrelated","experimental","j","true","",""
"null","<p style=""font-size: 50px;"">+</p>","null","html-keyboard-response","288","2.1.0","487413","J=YES, F=NO","h846eaj2gu","0","63","85","40","","","","","","","","","","","","","","","",""
"null","audio/beep-329314.mp3","null","audio-keyboard-response","289","2.1.0","488941","J=YES, F=NO","h846eaj2gu","0","63","85","40","","","","","","","","","","","","","","","",""
"null","audio/purpose.wav","null","audio-keyboard-response","290","2.1.0","489612","J=YES, F=NO","h846eaj2gu","0","63","85","40","","","","","","","","","","","","","","","",""
"600","
          <p id=""word"" style=""font-size: 40px;"">defeat</p>
          <p style=""font-size: 16px;"">J = YES &nbsp;&nbsp;&nbsp; F = NO</p>
        ","j","html-keyboard-response","291","2.1.0","490212","J=YES, F=NO","h846eaj2gu","0","63","85","40","","","","","","","","","defeat","purpose","metaphor","experimental","j","true","",""
"null","<p style=""font-size: 50px;"">+</p>","null","html-keyboard-response","292","2.1.0","490517","J=YES, F=NO","h846eaj2gu","0","63","85","40","","","","","","","","","","","","","","","",""
"null","audio/beep-329314.mp3","null","audio-keyboard-response","293","2.1.0","492041","J=YES, F=NO","h846eaj2gu","0","63","85","40","","","","","","","","","","","","","","","",""
"null","audio/trust.wav","null","audio-keyboard-response","294","2.1.0","492690","J=YES, F=NO","h846eaj2gu","0","63","85","40","","","","","","","","","","","","","","","",""
"762","
          <p id=""word"" style=""font-size: 40px;"">swint</p>
          <p style=""font-size: 16px;"">J = YES &nbsp;&nbsp;&nbsp; F = NO</p>
        ","f","html-keyboard-response","295","2.1.0","493452","J=YES, F=NO","h846eaj2gu","0","63","85","40","","","","","","","","","swint","trust","pseudoword","pseudoword","f","true","",""
"2040","<p>Excellent! You have finished block 2 of 8.</p>
                     <p>Feel free to take a 30 second break.</p>
                     <p>Press any key when you're ready to continue.</p>","j","html-keyboard-response","296","2.1.0","495493","J=YES, F=NO","h846eaj2gu","0","63","85","40","","","","","","","","","","","","","","","",""
"617","<p>Starting main block 3 of 8. Press any key to continue.</p>","j","html-keyboard-response","297","2.1.0","496110","J=YES, F=NO","h846eaj2gu","0","63","85","40","","","","","","","","","","","","","","","",""
"null","<p style=""font-size: 50px;"">+</p>","null","html-keyboard-response","298","2.1.0","496419","J=YES, F=NO","h846eaj2gu","0","63","85","40","","","","","","","","","","","","","","","",""
"null","audio/beep-329314.mp3","null","audio-keyboard-response","299","2.1.0","497961","J=YES, F=NO","h846eaj2gu","0","63","85","40","","","","","","","","","","","","","","","",""
"null","audio/window1.wav","null","audio-keyboard-response","300","2.1.0","498610","J=YES, F=NO","h846eaj2gu","0","63","85","40","","","","","","","","","","","","","","","",""
"655","
          <p id=""word"" style=""font-size: 40px;"">toss</p>
          <p style=""font-size: 16px;"">J = YES &nbsp;&nbsp;&nbsp; F = NO</p>
        ","j","html-keyboard-response","301","2.1.0","499265","J=YES, F=NO","h846eaj2gu","0","63","85","40","","","","","","","","","toss","window1","filler","filler","j","true","",""
"null","<p style=""font-size: 50px;"">+</p>","null","html-keyboard-response","302","2.1.0","499566","J=YES, F=NO","h846eaj2gu","0","63","85","40","","","","","","","","","","","","","","","",""
"null","audio/beep-329314.mp3","null","audio-keyboard-response","303","2.1.0","501102","J=YES, F=NO","h846eaj2gu","0","63","85","40","","","","","","","","","","","","","","","",""
"null","audio/show.wav","null","audio-keyboard-response","304","2.1.0","501649","J=YES, F=NO","h846eaj2gu","0","63","85","40","","","","","","","","","","","","","","","",""
"492","
          <p id=""word"" style=""font-size: 40px;"">hold</p>
          <p style=""font-size: 16px;"">J = YES &nbsp;&nbsp;&nbsp; F = NO</p>
        ","j","html-keyboard-response","305","2.1.0","502142","J=YES, F=NO","h846eaj2gu","0","63","85","40","","","","","","","","","hold","show","metaphor","experimental","j","true","",""
"null","<p style=""font-size: 50px;"">+</p>","null","html-keyboard-response","306","2.1.0","502452","J=YES, F=NO","h846eaj2gu","0","63","85","40","","","","","","","","","","","","","","","",""
"null","audio/beep-329314.mp3","null","audio-keyboard-response","307","2.1.0","503981","J=YES, F=NO","h846eaj2gu","0","63","85","40","","","","","","","","","","","","","","","",""
"null","audio/ship.wav","null","audio-keyboard-response","308","2.1.0","504550","J=YES, F=NO","h846eaj2gu","0","63","85","40","","","","","","","","","","","","","","","",""
"676","
          <p id=""word"" style=""font-size: 40px;"">scrap</p>
          <p style=""font-size: 16px;"">J = YES &nbsp;&nbsp;&nbsp; F = NO</p>
        ","j","html-keyboard-response","309","2.1.0","505226","J=YES, F=NO","h846eaj2gu","0","63","85","40","","","","","","","","","scrap","ship","literal","experimental","j","true","",""
"null","<p style=""font-size: 50px;"">+</p>","null","html-keyboard-response","310","2.1.0","505537","J=YES, F=NO","h846eaj2gu","0","63","85","40","","","","","","","","","","","","","","","",""
"null","audio/beep-329314.mp3","null","audio-keyboard-response","311","2.1.0","507061","J=YES, F=NO","h846eaj2gu","0","63","85","40","","","","","","","","","","","","","","","",""
"null","audio/weight1.wav","null","audio-keyboard-response","312","2.1.0","507590","J=YES, F=NO","h846eaj2gu","0","63","85","40","","","","","","","","","","","","","","","",""
"735","
          <p id=""word"" style=""font-size: 40px;"">crimsh</p>
          <p style=""font-size: 16px;"">J = YES &nbsp;&nbsp;&nbsp; F = NO</p>
        ","f","html-keyboard-response","313","2.1.0","508325","J=YES, F=NO","h846eaj2gu","0","63","85","40","","","","","","","","","crimsh","weight1","pseudoword","pseudoword","f","true","",""
"null","<p style=""font-size: 50px;"">+</p>","null","html-keyboard-response","314","2.1.0","508632","J=YES, F=NO","h846eaj2gu","0","63","85","40","","","","","","","","","","","","","","","",""
"null","audio/beep-329314.mp3","null","audio-keyboard-response","315","2.1.0","510161","J=YES, F=NO","h846eaj2gu","0","63","85","40","","","","","","","","","","","","","","","",""
"null","audio/pig.wav","null","audio-keyboard-response","316","2.1.0","510569","J=YES, F=NO","h846eaj2gu","0","63","85","40","","","","","","","","","","","","","","","",""
"721","
          <p id=""word"" style=""font-size: 40px;"">tirlike</p>
          <p style=""font-size: 16px;"">J = YES &nbsp;&nbsp;&nbsp; F = NO</p>
        ","f","html-keyboard-response","317","2.1.0","511290","J=YES, F=NO","h846eaj2gu","0","63","85","40","","","","","","","","","tirlike","pig","pseudoword","pseudoword","f","true","",""
"null","<p style=""font-size: 50px;"">+</p>","null","html-keyboard-response","318","2.1.0","511594","J=YES, F=NO","h846eaj2gu","0","63","85","40","","","","","","","","","","","","","","","",""
"null","audio/beep-329314.mp3","null","audio-keyboard-response","319","2.1.0","513122","J=YES, F=NO","h846eaj2gu","0","63","85","40","","","","","","","","","","","","","","","",""
"null","audio/strength.wav","null","audio-keyboard-response","320","2.1.0","513891","J=YES, F=NO","h846eaj2gu","0","63","85","40","","","","","","","","","","","","","","","",""
"1011","
          <p id=""word"" style=""font-size: 40px;"">plabet</p>
          <p style=""font-size: 16px;"">J = YES &nbsp;&nbsp;&nbsp; F = NO</p>
        ","f","html-keyboard-response","321","2.1.0","514903","J=YES, F=NO","h846eaj2gu","0","63","85","40","","","","","","","","","plabet","strength","pseudoword","pseudoword","f","true","",""
"null","<p style=""font-size: 50px;"">+</p>","null","html-keyboard-response","322","2.1.0","515216","J=YES, F=NO","h846eaj2gu","0","63","85","40","","","","","","","","","","","","","","","",""
"null","audio/beep-329314.mp3","null","audio-keyboard-response","323","2.1.0","516741","J=YES, F=NO","h846eaj2gu","0","63","85","40","","","","","","","","","","","","","","","",""
"null","audio/theory1.wav","null","audio-keyboard-response","324","2.1.0","517411","J=YES, F=NO","h846eaj2gu","0","63","85","40","","","","","","","","","","","","","","","",""
"1157","
          <p id=""word"" style=""font-size: 40px;"">scolve</p>
          <p style=""font-size: 16px;"">J = YES &nbsp;&nbsp;&nbsp; F = NO</p>
        ","j","html-keyboard-response","325","2.1.0","518568","J=YES, F=NO","h846eaj2gu","0","63","85","40","","","","","","","","","scolve","theory1","pseudoword","pseudoword","f","false","",""
"null","<p style=""font-size: 50px;"">+</p>","null","html-keyboard-response","326","2.1.0","518872","J=YES, F=NO","h846eaj2gu","0","63","85","40","","","","","","","","","","","","","","","",""
"null","audio/beep-329314.mp3","null","audio-keyboard-response","327","2.1.0","520401","J=YES, F=NO","h846eaj2gu","0","63","85","40","","","","","","","","","","","","","","","",""
"null","audio/emotion.wav","null","audio-keyboard-response","328","2.1.0","521091","J=YES, F=NO","h846eaj2gu","0","63","85","40","","","","","","","","","","","","","","","",""
"627","
          <p id=""word"" style=""font-size: 40px;"">bury</p>
          <p style=""font-size: 16px;"">J = YES &nbsp;&nbsp;&nbsp; F = NO</p>
        ","j","html-keyboard-response","329","2.1.0","521718","J=YES, F=NO","h846eaj2gu","0","63","85","40","","","","","","","","","bury","emotion","metaphor","experimental","j","true","",""
"null","<p style=""font-size: 50px;"">+</p>","null","html-keyboard-response","330","2.1.0","522019","J=YES, F=NO","h846eaj2gu","0","63","85","40","","","","","","","","","","","","","","","",""
"null","audio/beep-329314.mp3","null","audio-keyboard-response","331","2.1.0","523541","J=YES, F=NO","h846eaj2gu","0","63","85","40","","","","","","","","","","","","","","","",""
"null","audio/fortune1.wav","null","audio-keyboard-response","332","2.1.0","524452","J=YES, F=NO","h846eaj2gu","0","63","85","40","","","","","","","","","","","","","","","",""
"1124","
          <p id=""word"" style=""font-size: 40px;"">spend</p>
          <p style=""font-size: 16px;"">J = YES &nbsp;&nbsp;&nbsp; F = NO</p>
        ","j","html-keyboard-response","333","2.1.0","525576","J=YES, F=NO","h846eaj2gu","0","63","85","40","","","","","","","","","spend","fortune1","literal","experimental","j","true","",""
"null","<p style=""font-size: 50px;"">+</p>","null","html-keyboard-response","334","2.1.0","525889","J=YES, F=NO","h846eaj2gu","0","63","85","40","","","","","","","","","","","","","","","",""
"null","audio/beep-329314.mp3","null","audio-keyboard-response","335","2.1.0","527421","J=YES, F=NO","h846eaj2gu","0","63","85","40","","","","","","","","","","","","","","","",""
"null","audio/tunnel.wav","null","audio-keyboard-response","336","2.1.0","527850","J=YES, F=NO","h846eaj2gu","0","63","85","40","","","","","","","","","","","","","","","",""
"783","
          <p id=""word"" style=""font-size: 40px;"">gred</p>
          <p style=""font-size: 16px;"">J = YES &nbsp;&nbsp;&nbsp; F = NO</p>
        ","f","html-keyboard-response","337","2.1.0","528634","J=YES, F=NO","h846eaj2gu","0","63","85","40","","","","","","","","","gred","tunnel","pseudoword","pseudoword","f","true","",""
"null","<p style=""font-size: 50px;"">+</p>","null","html-keyboard-response","338","2.1.0","528947","J=YES, F=NO","h846eaj2gu","0","63","85","40","","","","","","","","","","","","","","","",""
"null","audio/beep-329314.mp3","null","audio-keyboard-response","339","2.1.0","530481","J=YES, F=NO","h846eaj2gu","0","63","85","40","","","","","","","","","","","","","","","",""
"null","audio/dome.wav","null","audio-keyboard-response","340","2.1.0","530950","J=YES, F=NO","h846eaj2gu","0","63","85","40","","","","","","","","","","","","","","","",""
"631","
          <p id=""word"" style=""font-size: 40px;"">feed</p>
          <p style=""font-size: 16px;"">J = YES &nbsp;&nbsp;&nbsp; F = NO</p>
        ","j","html-keyboard-response","341","2.1.0","531581","J=YES, F=NO","h846eaj2gu","0","63","85","40","","","","","","","","","feed","dome","unrelated","experimental","j","true","",""
"null","<p style=""font-size: 50px;"">+</p>","null","html-keyboard-response","342","2.1.0","531883","J=YES, F=NO","h846eaj2gu","0","63","85","40","","","","","","","","","","","","","","","",""
"null","audio/beep-329314.mp3","null","audio-keyboard-response","343","2.1.0","533421","J=YES, F=NO","h846eaj2gu","0","63","85","40","","","","","","","","","","","","","","","",""
"null","audio/arm.wav","null","audio-keyboard-response","344","2.1.0","533989","J=YES, F=NO","h846eaj2gu","0","63","85","40","","","","","","","","","","","","","","","",""
"904","
          <p id=""word"" style=""font-size: 40px;"">pigne</p>
          <p style=""font-size: 16px;"">J = YES &nbsp;&nbsp;&nbsp; F = NO</p>
        ","f","html-keyboard-response","345","2.1.0","534894","J=YES, F=NO","h846eaj2gu","0","63","85","40","","","","","","","","","pigne","arm","pseudoword","pseudoword","f","true","",""
"null","<p style=""font-size: 50px;"">+</p>","null","html-keyboard-response","346","2.1.0","535206","J=YES, F=NO","h846eaj2gu","0","63","85","40","","","","","","","","","","","","","","","",""
"null","audio/beep-329314.mp3","null","audio-keyboard-response","347","2.1.0","536741","J=YES, F=NO","h846eaj2gu","0","63","85","40","","","","","","","","","","","","","","","",""
"null","audio/test1.wav","null","audio-keyboard-response","348","2.1.0","537349","J=YES, F=NO","h846eaj2gu","0","63","85","40","","","","","","","","","","","","","","","",""
"806","
          <p id=""word"" style=""font-size: 40px;"">twopch</p>
          <p style=""font-size: 16px;"">J = YES &nbsp;&nbsp;&nbsp; F = NO</p>
        ","f","html-keyboard-response","349","2.1.0","538156","J=YES, F=NO","h846eaj2gu","0","63","85","40","","","","","","","","","twopch","test1","pseudoword","pseudoword","f","true","",""
"null","<p style=""font-size: 50px;"">+</p>","null","html-keyboard-response","350","2.1.0","538459","J=YES, F=NO","h846eaj2gu","0","63","85","40","","","","","","","","","","","","","","","",""
"null","audio/beep-329314.mp3","null","audio-keyboard-response","351","2.1.0","539982","J=YES, F=NO","h846eaj2gu","0","63","85","40","","","","","","","","","","","","","","","",""
"null","audio/bridge.wav","null","audio-keyboard-response","352","2.1.0","540514","J=YES, F=NO","h846eaj2gu","0","63","85","40","","","","","","","","","","","","","","","",""
"542","
          <p id=""word"" style=""font-size: 40px;"">build</p>
          <p style=""font-size: 16px;"">J = YES &nbsp;&nbsp;&nbsp; F = NO</p>
        ","j","html-keyboard-response","353","2.1.0","541056","J=YES, F=NO","h846eaj2gu","0","63","85","40","","","","","","","","","build","bridge","literal","experimental","j","true","",""
"null","<p style=""font-size: 50px;"">+</p>","null","html-keyboard-response","354","2.1.0","541367","J=YES, F=NO","h846eaj2gu","0","63","85","40","","","","","","","","","","","","","","","",""
"null","audio/beep-329314.mp3","null","audio-keyboard-response","355","2.1.0","542901","J=YES, F=NO","h846eaj2gu","0","63","85","40","","","","","","","","","","","","","","","",""
"null","audio/alarm1.wav","null","audio-keyboard-response","356","2.1.0","543510","J=YES, F=NO","h846eaj2gu","0","63","85","40","","","","","","","","","","","","","","","",""
"903","
          <p id=""word"" style=""font-size: 40px;"">swetp</p>
          <p style=""font-size: 16px;"">J = YES &nbsp;&nbsp;&nbsp; F = NO</p>
        ","j","html-keyboard-response","357","2.1.0","544412","J=YES, F=NO","h846eaj2gu","0","63","85","40","","","","","","","","","swetp","alarm1","pseudoword","pseudoword","f","false","",""
"null","<p style=""font-size: 50px;"">+</p>","null","html-keyboard-response","358","2.1.0","544715","J=YES, F=NO","h846eaj2gu","0","63","85","40","","","","","","","","","","","","","","","",""
"null","audio/beep-329314.mp3","null","audio-keyboard-response","359","2.1.0","546241","J=YES, F=NO","h846eaj2gu","0","63","85","40","","","","","","","","","","","","","","","",""
"null","audio/foe1.wav","null","audio-keyboard-response","360","2.1.0","546790","J=YES, F=NO","h846eaj2gu","0","63","85","40","","","","","","","","","","","","","","","",""
"1315","
          <p id=""word"" style=""font-size: 40px;"">creth</p>
          <p style=""font-size: 16px;"">J = YES &nbsp;&nbsp;&nbsp; F = NO</p>
        ","j","html-keyboard-response","361","2.1.0","548105","J=YES, F=NO","h846eaj2gu","0","63","85","40","","","","","","","","","creth","foe1","pseudoword","pseudoword","f","false","",""
"1546","<p>Excellent! You have finished block 3 of 8.</p>
                     <p>Feel free to take a 30 second break.</p>
                     <p>Press any key when you're ready to continue.</p>","j","html-keyboard-response","362","2.1.0","549651","J=YES, F=NO","h846eaj2gu","0","63","85","40","","","","","","","","","","","","","","","",""
"744","<p>Starting main block 4 of 8. Press any key to continue.</p>","j","html-keyboard-response","363","2.1.0","550396","J=YES, F=NO","h846eaj2gu","0","63","85","40","","","","","","","","","","","","","","","",""
"null","<p style=""font-size: 50px;"">+</p>","null","html-keyboard-response","364","2.1.0","550699","J=YES, F=NO","h846eaj2gu","0","63","85","40","","","","","","","","","","","","","","","",""
"null","audio/beep-329314.mp3","null","audio-keyboard-response","365","2.1.0","552221","J=YES, F=NO","h846eaj2gu","0","63","85","40","","","","","","","","","","","","","","","",""
"null","audio/show.wav","null","audio-keyboard-response","366","2.1.0","552750","J=YES, F=NO","h846eaj2gu","0","63","85","40","","","","","","","","","","","","","","","",""
"769","
          <p id=""word"" style=""font-size: 40px;"">smark</p>
          <p style=""font-size: 16px;"">J = YES &nbsp;&nbsp;&nbsp; F = NO</p>
        ","f","html-keyboard-response","367","2.1.0","553520","J=YES, F=NO","h846eaj2gu","0","63","85","40","","","","","","","","","smark","show","pseudoword","pseudoword","f","true","",""
"null","<p style=""font-size: 50px;"">+</p>","null","html-keyboard-response","368","2.1.0","553837","J=YES, F=NO","h846eaj2gu","0","63","85","40","","","","","","","","","","","","","","","",""
"null","audio/beep-329314.mp3","null","audio-keyboard-response","369","2.1.0","555361","J=YES, F=NO","h846eaj2gu","0","63","85","40","","","","","","","","","","","","","","","",""
"null","audio/topic.wav","null","audio-keyboard-response","370","2.1.0","556071","J=YES, F=NO","h846eaj2gu","0","63","85","40","","","","","","","","","","","","","","","",""
"797","
          <p id=""word"" style=""font-size: 40px;"">infortuitist</p>
          <p style=""font-size: 16px;"">J = YES &nbsp;&nbsp;&nbsp; F = NO</p>
        ","j","html-keyboard-response","371","2.1.0","556868","J=YES, F=NO","h846eaj2gu","0","63","85","40","","","","","","","","","infortuitist","topic","pseudoword","pseudoword","f","false","",""
"null","<p style=""font-size: 50px;"">+</p>","null","html-keyboard-response","372","2.1.0","557169","J=YES, F=NO","h846eaj2gu","0","63","85","40","","","","","","","","","","","","","","","",""
"null","audio/beep-329314.mp3","null","audio-keyboard-response","373","2.1.0","558701","J=YES, F=NO","h846eaj2gu","0","63","85","40","","","","","","","","","","","","","","","",""
"null","audio/gift1.wav","null","audio-keyboard-response","374","2.1.0","559210","J=YES, F=NO","h846eaj2gu","0","63","85","40","","","","","","","","","","","","","","","",""
"855","
          <p id=""word"" style=""font-size: 40px;"">protsh</p>
          <p style=""font-size: 16px;"">J = YES &nbsp;&nbsp;&nbsp; F = NO</p>
        ","f","html-keyboard-response","375","2.1.0","560066","J=YES, F=NO","h846eaj2gu","0","63","85","40","","","","","","","","","protsh","gift1","pseudoword","pseudoword","f","true","",""
"null","<p style=""font-size: 50px;"">+</p>","null","html-keyboard-response","376","2.1.0","560377","J=YES, F=NO","h846eaj2gu","0","63","85","40","","","","","","","","","","","","","","","",""
"null","audio/beep-329314.mp3","null","audio-keyboard-response","377","2.1.0","561901","J=YES, F=NO","h846eaj2gu","0","63","85","40","","","","","","","","","","","","","","","",""
"null","audio/road.wav","null","audio-keyboard-response","378","2.1.0","562330","J=YES, F=NO","h846eaj2gu","0","63","85","40","","","","","","","","","","","","","","","",""
"1129","
          <p id=""word"" style=""font-size: 40px;"">wappings</p>
          <p style=""font-size: 16px;"">J = YES &nbsp;&nbsp;&nbsp; F = NO</p>
        ","f","html-keyboard-response","379","2.1.0","563460","J=YES, F=NO","h846eaj2gu","0","63","85","40","","","","","","","","","wappings","road","pseudoword","pseudoword","f","true","",""
"null","<p style=""font-size: 50px;"">+</p>","null","html-keyboard-response","380","2.1.0","563764","J=YES, F=NO","h846eaj2gu","0","63","85","40","","","","","","","","","","","","","","","",""
"null","audio/beep-329314.mp3","null","audio-keyboard-response","381","2.1.0","565301","J=YES, F=NO","h846eaj2gu","0","63","85","40","","","","","","","","","","","","","","","",""
"null","audio/truth1.wav","null","audio-keyboard-response","382","2.1.0","565889","J=YES, F=NO","h846eaj2gu","0","63","85","40","","","","","","","","","","","","","","","",""
"1277","
          <p id=""word"" style=""font-size: 40px;"">calitom</p>
          <p style=""font-size: 16px;"">J = YES &nbsp;&nbsp;&nbsp; F = NO</p>
        ","f","html-keyboard-response","383","2.1.0","567167","J=YES, F=NO","h846eaj2gu","0","63","85","40","","","","","","","","","calitom","truth1","pseudoword","pseudoword","f","true","",""
"null","<p style=""font-size: 50px;"">+</p>","null","html-keyboard-response","384","2.1.0","567475","J=YES, F=NO","h846eaj2gu","0","63","85","40","","","","","","","","","","","","","","","",""
"null","audio/beep-329314.mp3","null","audio-keyboard-response","385","2.1.0","569001","J=YES, F=NO","h846eaj2gu","0","63","85","40","","","","","","","","","","","","","","","",""
"null","audio/mood1.wav","null","audio-keyboard-response","386","2.1.0","569509","J=YES, F=NO","h846eaj2gu","0","63","85","40","","","","","","","","","","","","","","","",""
"583","
          <p id=""word"" style=""font-size: 40px;"">give</p>
          <p style=""font-size: 16px;"">J = YES &nbsp;&nbsp;&nbsp; F = NO</p>
        ","j","html-keyboard-response","387","2.1.0","570092","J=YES, F=NO","h846eaj2gu","0","63","85","40","","","","","","","","","give","mood1","unrelated","experimental","j","true","",""
"null","<p style=""font-size: 50px;"">+</p>","null","html-keyboard-response","388","2.1.0","570398","J=YES, F=NO","h846eaj2gu","0","63","85","40","","","","","","","","","","","","","","","",""
"null","audio/beep-329314.mp3","null","audio-keyboard-response","389","2.1.0","571921","J=YES, F=NO","h846eaj2gu","0","63","85","40","","","","","","","","","","","","","","","",""
"null","audio/foe1.wav","null","audio-keyboard-response","390","2.1.0","572430","J=YES, F=NO","h846eaj2gu","0","63","85","40","","","","","","","","","","","","","","","",""
"932","
          <p id=""word"" style=""font-size: 40px;"">conquer</p>
          <p style=""font-size: 16px;"">J = YES &nbsp;&nbsp;&nbsp; F = NO</p>
