"rt","stimulus","response","trial_type","trial_index","plugin_version","time_elapsed","response_mapping","subject_id","list_index","lextale_score","lextale_word_score","lextale_nonword_score","success","timeout","failed_images","failed_audio","failed_video","task","isWord","isDummy","target","prime","prime_type","stimulus_type","correct_response","correct","section","question_order"
"2202","
    <div style=""max-width: 800px; margin: auto; text-align: left;"">
      <h2>STANFORD UNIVERSITY</h2>
      <h3>Research Information Sheet</h3>
      <p><strong>Protocol Director:</strong> Robert Hawkins<br>
      <strong>Protocol Title:</strong> Communication and social cognition in natural audiovisual contexts<br>
      <strong>IRB#:</strong> 77226</p>

      <p><strong>DESCRIPTION:</strong> You are invited to participate in a research study about language and communication. The purpose of the research is to understand how you interact and communicate with other people in naturalistic settings as a fluent English speaker. This research will be conducted through the Prolific platform, including participants from the US, UK, and Canada. If you decide to participate in this research, you will play a communication game in a group with one or more partners.</p>

      <p><strong>TIME INVOLVEMENT:</strong> The task will last the amount of time advertised on Prolific. You are free to withdraw from the study at any time.</p>

      <p><strong>RISKS AND BENEFITS:</strong> You may become frustrated if your partner gets distracted, or experience discomfort if other participants in your group send text that is inappropriate for the task. We ask you to please be respectful of other participants you might be interacting with to mitigate these risks. You may also experience discomfort when being asked to discuss or challenge emotionally salient political beliefs. Study data will be stored securely, in compliance with Stanford University standards, minimizing the risk of confidentiality breach. This study advances our scientific understanding of how people communicate and collaborate in naturalistic settings. This study may lead to further insights about what can go wrong in teamwork, suggest potential interventions to overcome these barriers, and help to develop assistive technologies that collaborate with human partners. We cannot and do not guarantee or promise that you will receive any benefits from this study.</p>

      <p><strong>PAYMENTS:</strong> You will receive payment in the amount advertised on Prolific. If you do not complete this study, you will receive prorated payment based on the time that you have spent. Additionally, you may be eligible for bonus payments as described in the instructions.</p>

      <p><strong>PARTICIPANT’S RIGHTS:</strong> If you have read this form and have decided to participate in this project, please understand your participation is voluntary and you have the right to withdraw your consent or discontinue participation at any time without penalty or loss of benefits to which you are otherwise entitled. The alternative is not to participate. You have the right to refuse to answer particular questions. The results of this research study may be presented at scientific or professional meetings or published in scientific journals. Your individual privacy will be maintained in all published and written data resulting from the study. In accordance with scientific norms, the data from this study may be used or shared with other researchers for future research (after removing personally identifying information) without additional consent from you.</p>

      <p><strong>CONTACT INFORMATION:</strong><br>
      Questions: If you have any questions, concerns or complaints about this research, its procedures, risks and benefits, contact the Protocol Director, Robert Hawkins (<a href=""mailto:rdhawkins@stanford.edu"">rdhawkins@stanford.edu</a>, 217-549-6923).<br>
      Independent Contact: If you are not satisfied with how this study is being conducted, or if you have any concerns, complaints, or general questions about the research or your rights as a participant, please contact the Stanford Institutional Review Board (IRB) to speak to someone independent of the research team at 650-723-2480 or toll free at 1-866-680-2906, or email at <a href=""mailto:irbnon-med@stanford.edu"">irbnon-med@stanford.edu</a>. You can also write to the Stanford IRB, Stanford University, 1705 El Camino Real, Palo Alto, CA 94306.</p>

      <p><strong>Please save or print a copy of this page for your records.</strong></p>
      <p>If you agree to participate in this research, click ""Continue"" below.</p>
    </div>
  ","0","html-button-response","0","2.1.0","2206","F=YES, J=NO","hf15x8e5gc","0","75","75","75","","","","","","","","","","","","","","","",""
"14778","
    <div style=""max-width: 800px; margin: auto; text-align: left;"">
      <h2>Welcome!</h2>
      <p>Thank you for participating in this study. The experiment consists of three parts:</p>
      <ol>
        <li>An English vocabulary test</li>
        <li>A main task in which you will hear and see words, and decide whether the written word is a real English word</li>
        <li>A brief survey about your background</li>
      </ol>
      <p>Each part will be introduced before it begins.</p>
      <p>Please make sure you are in a quiet environment and can hear audio clearly for the final task.</p>
      <p style=""margin-top: 2em;"">Press any key to begin.</p>
    </div>
  ","ArrowRight","html-keyboard-response","1","2.1.0","16985","F=YES, J=NO","hf15x8e5gc","0","75","75","75","","","","","","","","","","","","","","","",""
"","","","preload","2","2.1.0","17669","F=YES, J=NO","hf15x8e5gc","0","75","75","75","true","false","[]","[]","[]","","","","","","","","","","",""
"8635","
    <div style=""max-width: 800px; margin: auto; text-align: left;"">
      <h2>Part 1: Vocabulary Test</h2>
      <p>You will now complete the first part of the study: a short English vocabulary test.</p>
      <p>This test is called <strong>LexTALE</strong> and helps us get a general sense of your English proficiency.</p>
      <p style=""margin-top: 2em;"">Press any key to continue.</p>
    </div>
  ","ArrowRight","html-keyboard-response","3","2.1.0","26306","F=YES, J=NO","hf15x8e5gc","0","75","75","75","","","","","","","","","","","","","","","",""
"13079","
    <div style=""max-width: 800px; margin: auto; text-align: left;"">
      <h2>LexTALE Vocabulary Test</h2>
      <p>In this test, you will see a series of letter strings—one at a time.</p>
      <p>Your task is to decide whether each string is a real English word.</p>
      <p><strong>Key responses:</strong></p>
      <ul>
        <li><strong>F</strong> = YES (real English word)</li>
        <li><strong>J</strong> = NO (not a real English word)</li>
      </ul>
      <p>There is no time limit, but please try to be accurate.</p>
      <p style=""margin-top: 2em;"">Press any key to begin.</p>
    </div>
  "," ","html-keyboard-response","4","2.1.0","39385","F=YES, J=NO","hf15x8e5gc","0","75","75","75","","","","","","","","","","","","","","","",""
"1271","
  <p style=""font-size: 40px;"">platery</p>
  <p style=""font-size: 16px;"">F = YES &nbsp;&nbsp;&nbsp; J = NO</p>
","f","html-keyboard-response","5","2.1.0","40657","F=YES, J=NO","hf15x8e5gc","0","75","75","75","","","","","","lextale","false","true","","","","","","","",""
"962","
  <p style=""font-size: 40px;"">denial</p>
  <p style=""font-size: 16px;"">F = YES &nbsp;&nbsp;&nbsp; J = NO</p>
","f","html-keyboard-response","6","2.1.0","41619","F=YES, J=NO","hf15x8e5gc","0","75","75","75","","","","","","lextale","true","true","","","","","","","",""
"1528","
  <p style=""font-size: 40px;"">marrit</p>
  <p style=""font-size: 16px;"">F = YES &nbsp;&nbsp;&nbsp; J = NO</p>
","f","html-keyboard-response","7","2.1.0","43147","F=YES, J=NO","hf15x8e5gc","0","75","75","75","","","","","","lextale","false","true","","","","","","","",""
"659","
  <p style=""font-size: 40px;"">bottle</p>
  <p style=""font-size: 16px;"">F = YES &nbsp;&nbsp;&nbsp; J = NO</p>
","f","html-keyboard-response","8","2.1.0","43806","F=YES, J=NO","hf15x8e5gc","0","75","75","75","","","","","","lextale","true","false","","","","","","","",""
"1272","
  <p style=""font-size: 40px;"">birst</p>
  <p style=""font-size: 16px;"">F = YES &nbsp;&nbsp;&nbsp; J = NO</p>
","j","html-keyboard-response","9","2.1.0","45079","F=YES, J=NO","hf15x8e5gc","0","75","75","75","","","","","","lextale","false","false","","","","","","","",""
"710","
  <p style=""font-size: 40px;"">envy</p>
  <p style=""font-size: 16px;"">F = YES &nbsp;&nbsp;&nbsp; J = NO</p>
","f","html-keyboard-response","10","2.1.0","45789","F=YES, J=NO","hf15x8e5gc","0","75","75","75","","","","","","lextale","true","false","","","","","","","",""
"1139","
  <p style=""font-size: 40px;"">brang</p>
  <p style=""font-size: 16px;"">F = YES &nbsp;&nbsp;&nbsp; J = NO</p>
","j","html-keyboard-response","11","2.1.0","46929","F=YES, J=NO","hf15x8e5gc","0","75","75","75","","","","","","lextale","false","false","","","","","","","",""
"711","
  <p style=""font-size: 40px;"">huge</p>
  <p style=""font-size: 16px;"">F = YES &nbsp;&nbsp;&nbsp; J = NO</p>
","f","html-keyboard-response","12","2.1.0","47640","F=YES, J=NO","hf15x8e5gc","0","75","75","75","","","","","","lextale","true","false","","","","","","","",""
"1549","
  <p style=""font-size: 40px;"">plove</p>
  <p style=""font-size: 16px;"">F = YES &nbsp;&nbsp;&nbsp; J = NO</p>
","j","html-keyboard-response","13","2.1.0","49189","F=YES, J=NO","hf15x8e5gc","0","75","75","75","","","","","","lextale","false","false","","","","","","","",""
"1150","
  <p style=""font-size: 40px;"">border</p>
  <p style=""font-size: 16px;"">F = YES &nbsp;&nbsp;&nbsp; J = NO</p>
","f","html-keyboard-response","14","2.1.0","50340","F=YES, J=NO","hf15x8e5gc","0","75","75","75","","","","","","lextale","true","false","","","","","","","",""
"3696","
  <p style=""font-size: 40px;"">flimsy</p>
  <p style=""font-size: 16px;"">F = YES &nbsp;&nbsp;&nbsp; J = NO</p>
","f","html-keyboard-response","15","2.1.0","54036","F=YES, J=NO","hf15x8e5gc","0","75","75","75","","","","","","lextale","true","false","","","","","","","",""
"683","
  <p style=""font-size: 40px;"">drain</p>
  <p style=""font-size: 16px;"">F = YES &nbsp;&nbsp;&nbsp; J = NO</p>
","f","html-keyboard-response","16","2.1.0","54719","F=YES, J=NO","hf15x8e5gc","0","75","75","75","","","","","","lextale","true","false","","","","","","","",""
"2544","
  <p style=""font-size: 40px;"">twindle</p>
  <p style=""font-size: 16px;"">F = YES &nbsp;&nbsp;&nbsp; J = NO</p>
","f","html-keyboard-response","17","2.1.0","57263","F=YES, J=NO","hf15x8e5gc","0","75","75","75","","","","","","lextale","false","false","","","","","","","",""
"656","
  <p style=""font-size: 40px;"">propose</p>
  <p style=""font-size: 16px;"">F = YES &nbsp;&nbsp;&nbsp; J = NO</p>
","f","html-keyboard-response","18","2.1.0","57919","F=YES, J=NO","hf15x8e5gc","0","75","75","75","","","","","","lextale","true","false","","","","","","","",""
"2137","
  <p style=""font-size: 40px;"">forlay</p>
  <p style=""font-size: 16px;"">F = YES &nbsp;&nbsp;&nbsp; J = NO</p>
","j","html-keyboard-response","19","2.1.0","60056","F=YES, J=NO","hf15x8e5gc","0","75","75","75","","","","","","lextale","false","false","","","","","","","",""
"1016","
  <p style=""font-size: 40px;"">tenant</p>
  <p style=""font-size: 16px;"">F = YES &nbsp;&nbsp;&nbsp; J = NO</p>
","f","html-keyboard-response","20","2.1.0","61073","F=YES, J=NO","hf15x8e5gc","0","75","75","75","","","","","","lextale","true","false","","","","","","","",""
"1013","
  <p style=""font-size: 40px;"">strain</p>
  <p style=""font-size: 16px;"">F = YES &nbsp;&nbsp;&nbsp; J = NO</p>
","f","html-keyboard-response","21","2.1.0","62087","F=YES, J=NO","hf15x8e5gc","0","75","75","75","","","","","","lextale","true","false","","","","","","","",""
"2248","
  <p style=""font-size: 40px;"">holster</p>
  <p style=""font-size: 16px;"">F = YES &nbsp;&nbsp;&nbsp; J = NO</p>
","j","html-keyboard-response","22","2.1.0","64335","F=YES, J=NO","hf15x8e5gc","0","75","75","75","","","","","","lextale","true","false","","","","","","","",""
"689","
  <p style=""font-size: 40px;"">hinder</p>
  <p style=""font-size: 16px;"">F = YES &nbsp;&nbsp;&nbsp; J = NO</p>
","f","html-keyboard-response","23","2.1.0","65024","F=YES, J=NO","hf15x8e5gc","0","75","75","75","","","","","","lextale","true","false","","","","","","","",""
"686","
  <p style=""font-size: 40px;"">swindle</p>
  <p style=""font-size: 16px;"">F = YES &nbsp;&nbsp;&nbsp; J = NO</p>
","f","html-keyboard-response","24","2.1.0","65710","F=YES, J=NO","hf15x8e5gc","0","75","75","75","","","","","","lextale","true","false","","","","","","","",""
"1725","
  <p style=""font-size: 40px;"">nuder</p>
  <p style=""font-size: 16px;"">F = YES &nbsp;&nbsp;&nbsp; J = NO</p>
","j","html-keyboard-response","25","2.1.0","67435","F=YES, J=NO","hf15x8e5gc","0","75","75","75","","","","","","lextale","false","false","","","","","","","",""
"1799","
  <p style=""font-size: 40px;"">pillow</p>
  <p style=""font-size: 16px;"">F = YES &nbsp;&nbsp;&nbsp; J = NO</p>
","f","html-keyboard-response","26","2.1.0","69234","F=YES, J=NO","hf15x8e5gc","0","75","75","75","","","","","","lextale","true","false","","","","","","","",""
"2380","
  <p style=""font-size: 40px;"">shumble</p>
  <p style=""font-size: 16px;"">F = YES &nbsp;&nbsp;&nbsp; J = NO</p>
","j","html-keyboard-response","27","2.1.0","71614","F=YES, J=NO","hf15x8e5gc","0","75","75","75","","","","","","lextale","false","false","","","","","","","",""
"773","
  <p style=""font-size: 40px;"">thirst</p>
  <p style=""font-size: 16px;"">F = YES &nbsp;&nbsp;&nbsp; J = NO</p>
","f","html-keyboard-response","28","2.1.0","72387","F=YES, J=NO","hf15x8e5gc","0","75","75","75","","","","","","lextale","true","false","","","","","","","",""
"1067","
  <p style=""font-size: 40px;"">unsail</p>
  <p style=""font-size: 16px;"">F = YES &nbsp;&nbsp;&nbsp; J = NO</p>
","f","html-keyboard-response","29","2.1.0","73455","F=YES, J=NO","hf15x8e5gc","0","75","75","75","","","","","","lextale","false","false","","","","","","","",""
"779","
  <p style=""font-size: 40px;"">rifle</p>
  <p style=""font-size: 16px;"">F = YES &nbsp;&nbsp;&nbsp; J = NO</p>
","f","html-keyboard-response","30","2.1.0","74234","F=YES, J=NO","hf15x8e5gc","0","75","75","75","","","","","","lextale","true","false","","","","","","","",""
"719","
  <p style=""font-size: 40px;"">mush</p>
  <p style=""font-size: 16px;"">F = YES &nbsp;&nbsp;&nbsp; J = NO</p>
","f","html-keyboard-response","31","2.1.0","74953","F=YES, J=NO","hf15x8e5gc","0","75","75","75","","","","","","lextale","false","false","","","","","","","",""
"1381","
  <p style=""font-size: 40px;"">drench</p>
  <p style=""font-size: 16px;"">F = YES &nbsp;&nbsp;&nbsp; J = NO</p>
","f","html-keyboard-response","32","2.1.0","76335","F=YES, J=NO","hf15x8e5gc","0","75","75","75","","","","","","lextale","true","false","","","","","","","",""
"1042","
  <p style=""font-size: 40px;"">snirt</p>
  <p style=""font-size: 16px;"">F = YES &nbsp;&nbsp;&nbsp; J = NO</p>
","j","html-keyboard-response","33","2.1.0","77378","F=YES, J=NO","hf15x8e5gc","0","75","75","75","","","","","","lextale","false","false","","","","","","","",""
"771","
  <p style=""font-size: 40px;"">bitter</p>
  <p style=""font-size: 16px;"">F = YES &nbsp;&nbsp;&nbsp; J = NO</p>
","f","html-keyboard-response","34","2.1.0","78149","F=YES, J=NO","hf15x8e5gc","0","75","75","75","","","","","","lextale","true","false","","","","","","","",""
"1893","
  <p style=""font-size: 40px;"">pliff</p>
  <p style=""font-size: 16px;"">F = YES &nbsp;&nbsp;&nbsp; J = NO</p>
","j","html-keyboard-response","35","2.1.0","80042","F=YES, J=NO","hf15x8e5gc","0","75","75","75","","","","","","lextale","false","false","","","","","","","",""
"673","
  <p style=""font-size: 40px;"">tablet</p>
  <p style=""font-size: 16px;"">F = YES &nbsp;&nbsp;&nbsp; J = NO</p>
","f","html-keyboard-response","36","2.1.0","80715","F=YES, J=NO","hf15x8e5gc","0","75","75","75","","","","","","lextale","true","false","","","","","","","",""
"942","
  <p style=""font-size: 40px;"">glimmer</p>
  <p style=""font-size: 16px;"">F = YES &nbsp;&nbsp;&nbsp; J = NO</p>
","f","html-keyboard-response","37","2.1.0","81657","F=YES, J=NO","hf15x8e5gc","0","75","75","75","","","","","","lextale","true","false","","","","","","","",""
"2542","
  <p style=""font-size: 40px;"">slink</p>
  <p style=""font-size: 16px;"">F = YES &nbsp;&nbsp;&nbsp; J = NO</p>
","j","html-keyboard-response","38","2.1.0","84199","F=YES, J=NO","hf15x8e5gc","0","75","75","75","","","","","","lextale","true","false","","","","","","","",""
"588","
  <p style=""font-size: 40px;"">clever</p>
  <p style=""font-size: 16px;"">F = YES &nbsp;&nbsp;&nbsp; J = NO</p>
","f","html-keyboard-response","39","2.1.0","84787","F=YES, J=NO","hf15x8e5gc","0","75","75","75","","","","","","lextale","true","false","","","","","","","",""
"2953","
  <p style=""font-size: 40px;"">grum</p>
  <p style=""font-size: 16px;"">F = YES &nbsp;&nbsp;&nbsp; J = NO</p>
","j","html-keyboard-response","40","2.1.0","87740","F=YES, J=NO","hf15x8e5gc","0","75","75","75","","","","","","lextale","false","false","","","","","","","",""
"665","
  <p style=""font-size: 40px;"">string</p>
  <p style=""font-size: 16px;"">F = YES &nbsp;&nbsp;&nbsp; J = NO</p>
","f","html-keyboard-response","41","2.1.0","88406","F=YES, J=NO","hf15x8e5gc","0","75","75","75","","","","","","lextale","true","false","","","","","","","",""
"1429","
  <p style=""font-size: 40px;"">plim</p>
  <p style=""font-size: 16px;"">F = YES &nbsp;&nbsp;&nbsp; J = NO</p>
","j","html-keyboard-response","42","2.1.0","89834","F=YES, J=NO","hf15x8e5gc","0","75","75","75","","","","","","lextale","false","false","","","","","","","",""
"658","
  <p style=""font-size: 40px;"">cable</p>
  <p style=""font-size: 16px;"">F = YES &nbsp;&nbsp;&nbsp; J = NO</p>
","f","html-keyboard-response","43","2.1.0","90493","F=YES, J=NO","hf15x8e5gc","0","75","75","75","","","","","","lextale","true","false","","","","","","","",""
"1152","
  <p style=""font-size: 40px;"">shrivel</p>
  <p style=""font-size: 16px;"">F = YES &nbsp;&nbsp;&nbsp; J = NO</p>
","j","html-keyboard-response","44","2.1.0","91645","F=YES, J=NO","hf15x8e5gc","0","75","75","75","","","","","","lextale","true","false","","","","","","","",""
"1039","
  <p style=""font-size: 40px;"">tarnish</p>
  <p style=""font-size: 16px;"">F = YES &nbsp;&nbsp;&nbsp; J = NO</p>
","f","html-keyboard-response","45","2.1.0","92684","F=YES, J=NO","hf15x8e5gc","0","75","75","75","","","","","","lextale","true","false","","","","","","","",""
"1554","
  <p style=""font-size: 40px;"">blim</p>
  <p style=""font-size: 16px;"">F = YES &nbsp;&nbsp;&nbsp; J = NO</p>
","j","html-keyboard-response","46","2.1.0","94238","F=YES, J=NO","hf15x8e5gc","0","75","75","75","","","","","","lextale","false","false","","","","","","","",""
"2998","
  <p style=""font-size: 40px;"">stifle</p>
  <p style=""font-size: 16px;"">F = YES &nbsp;&nbsp;&nbsp; J = NO</p>
","j","html-keyboard-response","47","2.1.0","97236","F=YES, J=NO","hf15x8e5gc","0","75","75","75","","","","","","lextale","true","false","","","","","","","",""
"957","
  <p style=""font-size: 40px;"">bint</p>
  <p style=""font-size: 16px;"">F = YES &nbsp;&nbsp;&nbsp; J = NO</p>
","j","html-keyboard-response","48","2.1.0","98193","F=YES, J=NO","hf15x8e5gc","0","75","75","75","","","","","","lextale","false","false","","","","","","","",""
"611","
  <p style=""font-size: 40px;"">purple</p>
  <p style=""font-size: 16px;"">F = YES &nbsp;&nbsp;&nbsp; J = NO</p>
","f","html-keyboard-response","49","2.1.0","98804","F=YES, J=NO","hf15x8e5gc","0","75","75","75","","","","","","lextale","true","false","","","","","","","",""
"1147","
  <p style=""font-size: 40px;"">wriggle</p>
  <p style=""font-size: 16px;"">F = YES &nbsp;&nbsp;&nbsp; J = NO</p>
","f","html-keyboard-response","50","2.1.0","99951","F=YES, J=NO","hf15x8e5gc","0","75","75","75","","","","","","lextale","true","false","","","","","","","",""
"922","
  <p style=""font-size: 40px;"">mangle</p>
  <p style=""font-size: 16px;"">F = YES &nbsp;&nbsp;&nbsp; J = NO</p>
","f","html-keyboard-response","51","2.1.0","100873","F=YES, J=NO","hf15x8e5gc","0","75","75","75","","","","","","lextale","true","false","","","","","","","",""
"667","
  <p style=""font-size: 40px;"">shramp</p>
  <p style=""font-size: 16px;"">F = YES &nbsp;&nbsp;&nbsp; J = NO</p>
","f","html-keyboard-response","52","2.1.0","101541","F=YES, J=NO","hf15x8e5gc","0","75","75","75","","","","","","lextale","false","false","","","","","","","",""
"927","
  <p style=""font-size: 40px;"">flirt</p>
  <p style=""font-size: 16px;"">F = YES &nbsp;&nbsp;&nbsp; J = NO</p>
","f","html-keyboard-response","53","2.1.0","102468","F=YES, J=NO","hf15x8e5gc","0","75","75","75","","","","","","lextale","true","false","","","","","","","",""
"1259","
  <p style=""font-size: 40px;"">frip</p>
  <p style=""font-size: 16px;"">F = YES &nbsp;&nbsp;&nbsp; J = NO</p>
","j","html-keyboard-response","54","2.1.0","103728","F=YES, J=NO","hf15x8e5gc","0","75","75","75","","","","","","lextale","false","false","","","","","","","",""
"2097","
  <p style=""font-size: 40px;"">tangle</p>
  <p style=""font-size: 16px;"">F = YES &nbsp;&nbsp;&nbsp; J = NO</p>
","f","html-keyboard-response","55","2.1.0","105825","F=YES, J=NO","hf15x8e5gc","0","75","75","75","","","","","","lextale","true","false","","","","","","","",""
"1187","
  <p style=""font-size: 40px;"">crumble</p>
  <p style=""font-size: 16px;"">F = YES &nbsp;&nbsp;&nbsp; J = NO</p>
","f","html-keyboard-response","56","2.1.0","107012","F=YES, J=NO","hf15x8e5gc","0","75","75","75","","","","","","lextale","true","false","","","","","","","",""
"963","
  <p style=""font-size: 40px;"">wrinkle</p>
  <p style=""font-size: 16px;"">F = YES &nbsp;&nbsp;&nbsp; J = NO</p>
","f","html-keyboard-response","57","2.1.0","107975","F=YES, J=NO","hf15x8e5gc","0","75","75","75","","","","","","lextale","true","false","","","","","","","",""
"3783","
  <p style=""font-size: 40px;"">slumb</p>
  <p style=""font-size: 16px;"">F = YES &nbsp;&nbsp;&nbsp; J = NO</p>
","j","html-keyboard-response","58","2.1.0","111758","F=YES, J=NO","hf15x8e5gc","0","75","75","75","","","","","","lextale","false","false","","","","","","","",""
"657","
  <p style=""font-size: 40px;"">jungle</p>
  <p style=""font-size: 16px;"">F = YES &nbsp;&nbsp;&nbsp; J = NO</p>
","f","html-keyboard-response","59","2.1.0","112415","F=YES, J=NO","hf15x8e5gc","0","75","75","75","","","","","","lextale","true","false","","","","","","","",""
"1523","
  <p style=""font-size: 40px;"">frolick</p>
  <p style=""font-size: 16px;"">F = YES &nbsp;&nbsp;&nbsp; J = NO</p>
","j","html-keyboard-response","60","2.1.0","113938","F=YES, J=NO","hf15x8e5gc","0","75","75","75","","","","","","lextale","false","false","","","","","","","",""
"2134","
      <h2>LexTALE Test Completed</h2>
      <p>Your LexTALE vocabulary score is: <strong>75%</strong></p>
      <p>Press any key to continue.</p>
    "," ","html-keyboard-response","61","2.1.0","116074","F=YES, J=NO","hf15x8e5gc","0","75","75","75","","","","","","","","","","","","","","","",""
"4438","
    <div style=""max-width: 800px; margin: auto; text-align: left;"">
      <h2>Break Time</h2>
      <p>You have completed the first part of the study.</p>
      <p>You may take a short <strong>30-second break</strong> before continuing.</p>
      <p>When you’re ready, press any key to continue to the final task.</p>
    </div>
  "," ","html-keyboard-response","62","2.1.0","120512","F=YES, J=NO","hf15x8e5gc","0","75","75","75","","","","","","","","","","","","","","","",""
"12764","
    <div style=""max-width: 800px; margin: auto; text-align: left;"">
      <h2>Part 2: Lexical Decision Task</h2>
      <p>You will now begin the second part of the study.</p>
      <p>Each trial will follow this sequence:</p>
      <ul>
        <li>A fixation cross (+) appears at the center of the screen.</li>
        <li>You will hear a short beep followed by a spoken word.</li>
        <li>A written word will appear briefly on the screen.</li>
      </ul>
      <p>Your task is to judge whether the <strong>written word</strong> is a real English word.</p>
      <p style=""margin-top: 1em;""><strong>Key responses:</strong></p>
      <ul>
        <li><strong>F</strong> = YES (real English word)</li>
        <li><strong>J</strong> = NO (not a real English word)</li>
      </ul>
      <p>Please respond as quickly and accurately as you can.</p>
      <p style=""margin-top: 2em;"">Press any key to continue.</p>
    </div>
  "," ","html-keyboard-response","63","2.1.0","133276","F=YES, J=NO","hf15x8e5gc","0","75","75","75","","","","","","","","","","","","","","","",""
"9934","
    <div style=""max-width: 800px; margin: auto; text-align: left;"">
      <h2>Before You Begin</h2>
      <p>Make sure your sound is turned on.</p>
      <p>You will hear audio during each trial, but your decision should be based only on the <strong>written word</strong> you see on the screen.</p>
      <p><strong>Reminder:</strong></p>
      <ul>
        <li><strong>F</strong> = YES (real English word)</li>
        <li><strong>J</strong> = NO (not a real English word)</li>
      </ul>
      <p style=""margin-top: 2em;"">Press any key when you are ready to begin.</p>
    </div>
  "," ","html-keyboard-response","64","2.1.0","143211","F=YES, J=NO","hf15x8e5gc","0","75","75","75","","","","","","","","","","","","","","","",""
"3772","
    <div style=""max-width: 800px; margin: auto; text-align: left;"">
      <h2>Part 2: Practice Trials</h2>
      <p>You will now complete a few <strong>practice trials</strong> to get familiar with the task.</p>
      <p>These trials are <strong>not scored</strong> and are only to help you get used to the format.</p>
      <p style=""margin-top: 2em;"">Press any key to begin.</p>
    </div>
  "," ","html-keyboard-response","65","2.1.0","146983","F=YES, J=NO","hf15x8e5gc","0","75","75","75","","","","","","","","","","","","","","","",""
"2436","<p>Starting practice block 1 of 2. Press any key to continue.</p>"," ","html-keyboard-response","66","2.1.0","149419","F=YES, J=NO","hf15x8e5gc","0","75","75","75","","","","","","","","","","","","","","","",""
"null","<p style=""font-size: 50px;"">+</p>","null","html-keyboard-response","67","2.1.0","149729","F=YES, J=NO","hf15x8e5gc","0","75","75","75","","","","","","","","","","","","","","","",""
"null","audio/beep-329314.mp3","null","audio-keyboard-response","68","2.1.0","151397","F=YES, J=NO","hf15x8e5gc","0","75","75","75","","","","","","","","","","","","","","","",""
"null","audio/novel.wav","null","audio-keyboard-response","69","2.1.0","152017","F=YES, J=NO","hf15x8e5gc","0","75","75","75","","","","","","","","","","","","","","","",""
"1276","
          <p id=""word"" style=""font-size: 40px;"">type</p>
          <p style=""font-size: 16px;"">F = YES &nbsp;&nbsp;&nbsp; J = NO</p>
        ","f","html-keyboard-response","70","2.1.0","153293","F=YES, J=NO","hf15x8e5gc","0","75","75","75","","","","","","","","","type","novel","filler","filler","f","true","",""
"null","<p style=""font-size: 50px;"">+</p>","null","html-keyboard-response","71","2.1.0","153596","F=YES, J=NO","hf15x8e5gc","0","75","75","75","","","","","","","","","","","","","","","",""
"null","audio/beep-329314.mp3","null","audio-keyboard-response","72","2.1.0","155117","F=YES, J=NO","hf15x8e5gc","0","75","75","75","","","","","","","","","","","","","","","",""
"null","audio/menu.wav","null","audio-keyboard-response","73","2.1.0","155717","F=YES, J=NO","hf15x8e5gc","0","75","75","75","","","","","","","","","","","","","","","",""
"728","
          <p id=""word"" style=""font-size: 40px;"">slice</p>
          <p style=""font-size: 16px;"">F = YES &nbsp;&nbsp;&nbsp; J = NO</p>
        ","f","html-keyboard-response","74","2.1.0","156446","F=YES, J=NO","hf15x8e5gc","0","75","75","75","","","","","","","","","slice","menu","filler","filler","f","true","",""
"null","<p style=""font-size: 50px;"">+</p>","null","html-keyboard-response","75","2.1.0","156756","F=YES, J=NO","hf15x8e5gc","0","75","75","75","","","","","","","","","","","","","","","",""
"null","audio/beep-329314.mp3","null","audio-keyboard-response","76","2.1.0","158278","F=YES, J=NO","hf15x8e5gc","0","75","75","75","","","","","","","","","","","","","","","",""
"null","audio/sand.wav","null","audio-keyboard-response","77","2.1.0","158957","F=YES, J=NO","hf15x8e5gc","0","75","75","75","","","","","","","","","","","","","","","",""
"871","
          <p id=""word"" style=""font-size: 40px;"">proted</p>
          <p style=""font-size: 16px;"">F = YES &nbsp;&nbsp;&nbsp; J = NO</p>
        ","j","html-keyboard-response","78","2.1.0","159829","F=YES, J=NO","hf15x8e5gc","0","75","75","75","","","","","","","","","proted","sand","pseudoword","pseudoword","j","true","",""
"null","<p style=""font-size: 50px;"">+</p>","null","html-keyboard-response","79","2.1.0","160137","F=YES, J=NO","hf15x8e5gc","0","75","75","75","","","","","","","","","","","","","","","",""
"null","audio/beep-329314.mp3","null","audio-keyboard-response","80","2.1.0","161658","F=YES, J=NO","hf15x8e5gc","0","75","75","75","","","","","","","","","","","","","","","",""
"null","audio/cash1.wav","null","audio-keyboard-response","81","2.1.0","162258","F=YES, J=NO","hf15x8e5gc","0","75","75","75","","","","","","","","","","","","","","","",""
"1000","
          <p id=""word"" style=""font-size: 40px;"">splear</p>
          <p style=""font-size: 16px;"">F = YES &nbsp;&nbsp;&nbsp; J = NO</p>
        ","j","html-keyboard-response","82","2.1.0","163258","F=YES, J=NO","hf15x8e5gc","0","75","75","75","","","","","","","","","splear","cash1","pseudoword","pseudoword","j","true","",""
"null","<p style=""font-size: 50px;"">+</p>","null","html-keyboard-response","83","2.1.0","163565","F=YES, J=NO","hf15x8e5gc","0","75","75","75","","","","","","","","","","","","","","","",""
"null","audio/beep-329314.mp3","null","audio-keyboard-response","84","2.1.0","165098","F=YES, J=NO","hf15x8e5gc","0","75","75","75","","","","","","","","","","","","","","","",""
"null","audio/gossip1.wav","null","audio-keyboard-response","85","2.1.0","165758","F=YES, J=NO","hf15x8e5gc","0","75","75","75","","","","","","","","","","","","","","","",""
"949","
          <p id=""word"" style=""font-size: 40px;"">camerish</p>
          <p style=""font-size: 16px;"">F = YES &nbsp;&nbsp;&nbsp; J = NO</p>
        ","j","html-keyboard-response","86","2.1.0","166707","F=YES, J=NO","hf15x8e5gc","0","75","75","75","","","","","","","","","camerish","gossip1","pseudoword","pseudoword","j","true","",""
"null","<p style=""font-size: 50px;"">+</p>","null","html-keyboard-response","87","2.1.0","167014","F=YES, J=NO","hf15x8e5gc","0","75","75","75","","","","","","","","","","","","","","","",""
"null","audio/beep-329314.mp3","null","audio-keyboard-response","88","2.1.0","168538","F=YES, J=NO","hf15x8e5gc","0","75","75","75","","","","","","","","","","","","","","","",""
"null","audio/age1.wav","null","audio-keyboard-response","89","2.1.0","169078","F=YES, J=NO","hf15x8e5gc","0","75","75","75","","","","","","","","","","","","","","","",""
"699","
          <p id=""word"" style=""font-size: 40px;"">bake</p>
          <p style=""font-size: 16px;"">F = YES &nbsp;&nbsp;&nbsp; J = NO</p>
        ","f","html-keyboard-response","90","2.1.0","169777","F=YES, J=NO","hf15x8e5gc","0","75","75","75","","","","","","","","","bake","age1","filler","filler","f","true","",""
"null","<p style=""font-size: 50px;"">+</p>","null","html-keyboard-response","91","2.1.0","170090","F=YES, J=NO","hf15x8e5gc","0","75","75","75","","","","","","","","","","","","","","","",""
"null","audio/beep-329314.mp3","null","audio-keyboard-response","92","2.1.0","171618","F=YES, J=NO","hf15x8e5gc","0","75","75","75","","","","","","","","","","","","","","","",""
"null","audio/gift1.wav","null","audio-keyboard-response","93","2.1.0","172078","F=YES, J=NO","hf15x8e5gc","0","75","75","75","","","","","","","","","","","","","","","",""
"745","
          <p id=""word"" style=""font-size: 40px;"">protsh</p>
          <p style=""font-size: 16px;"">F = YES &nbsp;&nbsp;&nbsp; J = NO</p>
        ","j","html-keyboard-response","94","2.1.0","172824","F=YES, J=NO","hf15x8e5gc","0","75","75","75","","","","","","","","","protsh","gift1","pseudoword","pseudoword","j","true","",""
"null","<p style=""font-size: 50px;"">+</p>","null","html-keyboard-response","95","2.1.0","173134","F=YES, J=NO","hf15x8e5gc","0","75","75","75","","","","","","","","","","","","","","","",""
"null","audio/beep-329314.mp3","null","audio-keyboard-response","96","2.1.0","174658","F=YES, J=NO","hf15x8e5gc","0","75","75","75","","","","","","","","","","","","","","","",""
"null","audio/floor.wav","null","audio-keyboard-response","97","2.1.0","175238","F=YES, J=NO","hf15x8e5gc","0","75","75","75","","","","","","","","","","","","","","","",""
"1098","
          <p id=""word"" style=""font-size: 40px;"">mop</p>
          <p style=""font-size: 16px;"">F = YES &nbsp;&nbsp;&nbsp; J = NO</p>
        ","f","html-keyboard-response","98","2.1.0","176337","F=YES, J=NO","hf15x8e5gc","0","75","75","75","","","","","","","","","mop","floor","filler","filler","f","true","",""
"null","<p style=""font-size: 50px;"">+</p>","null","html-keyboard-response","99","2.1.0","176652","F=YES, J=NO","hf15x8e5gc","0","75","75","75","","","","","","","","","","","","","","","",""
"null","audio/beep-329314.mp3","null","audio-keyboard-response","100","2.1.0","178179","F=YES, J=NO","hf15x8e5gc","0","75","75","75","","","","","","","","","","","","","","","",""
"null","audio/neck.wav","null","audio-keyboard-response","101","2.1.0","178859","F=YES, J=NO","hf15x8e5gc","0","75","75","75","","","","","","","","","","","","","","","",""
"710","
          <p id=""word"" style=""font-size: 40px;"">werling</p>
          <p style=""font-size: 16px;"">F = YES &nbsp;&nbsp;&nbsp; J = NO</p>
        ","j","html-keyboard-response","102","2.1.0","179569","F=YES, J=NO","hf15x8e5gc","0","75","75","75","","","","","","","","","werling","neck","pseudoword","pseudoword","j","true","",""
"null","<p style=""font-size: 50px;"">+</p>","null","html-keyboard-response","103","2.1.0","179872","F=YES, J=NO","hf15x8e5gc","0","75","75","75","","","","","","","","","","","","","","","",""
"null","audio/beep-329314.mp3","null","audio-keyboard-response","104","2.1.0","181399","F=YES, J=NO","hf15x8e5gc","0","75","75","75","","","","","","","","","","","","","","","",""
"null","audio/vehicle1.wav","null","audio-keyboard-response","105","2.1.0","182159","F=YES, J=NO","hf15x8e5gc","0","75","75","75","","","","","","","","","","","","","","","",""
"866","
          <p id=""word"" style=""font-size: 40px;"">dropt</p>
          <p style=""font-size: 16px;"">F = YES &nbsp;&nbsp;&nbsp; J = NO</p>
        ","j","html-keyboard-response","106","2.1.0","183025","F=YES, J=NO","hf15x8e5gc","0","75","75","75","","","","","","","","","dropt","vehicle1","pseudoword","pseudoword","j","true","",""
"null","<p style=""font-size: 50px;"">+</p>","null","html-keyboard-response","107","2.1.0","183333","F=YES, J=NO","hf15x8e5gc","0","75","75","75","","","","","","","","","","","","","","","",""
"null","audio/beep-329314.mp3","null","audio-keyboard-response","108","2.1.0","184859","F=YES, J=NO","hf15x8e5gc","0","75","75","75","","","","","","","","","","","","","","","",""
"null","audio/butter1.wav","null","audio-keyboard-response","109","2.1.0","185339","F=YES, J=NO","hf15x8e5gc","0","75","75","75","","","","","","","","","","","","","","","",""
"805","
          <p id=""word"" style=""font-size: 40px;"">chew</p>
          <p style=""font-size: 16px;"">F = YES &nbsp;&nbsp;&nbsp; J = NO</p>
        ","f","html-keyboard-response","110","2.1.0","186145","F=YES, J=NO","hf15x8e5gc","0","75","75","75","","","","","","","","","chew","butter1","filler","filler","f","true","",""
"null","<p style=""font-size: 50px;"">+</p>","null","html-keyboard-response","111","2.1.0","186446","F=YES, J=NO","hf15x8e5gc","0","75","75","75","","","","","","","","","","","","","","","",""
"null","audio/beep-329314.mp3","null","audio-keyboard-response","112","2.1.0","187980","F=YES, J=NO","hf15x8e5gc","0","75","75","75","","","","","","","","","","","","","","","",""
"null","audio/belief.wav","null","audio-keyboard-response","113","2.1.0","188720","F=YES, J=NO","hf15x8e5gc","0","75","75","75","","","","","","","","","","","","","","","",""
"615","
          <p id=""word"" style=""font-size: 40px;"">read</p>
          <p style=""font-size: 16px;"">F = YES &nbsp;&nbsp;&nbsp; J = NO</p>
        ","f","html-keyboard-response","114","2.1.0","189335","F=YES, J=NO","hf15x8e5gc","0","75","75","75","","","","","","","","","read","belief","filler","filler","f","true","",""
"1372","<p>Starting practice block 2 of 2. Press any key to continue.</p>"," ","html-keyboard-response","115","2.1.0","190707","F=YES, J=NO","hf15x8e5gc","0","75","75","75","","","","","","","","","","","","","","","",""
"null","<p style=""font-size: 50px;"">+</p>","null","html-keyboard-response","116","2.1.0","191021","F=YES, J=NO","hf15x8e5gc","0","75","75","75","","","","","","","","","","","","","","","",""
"null","audio/beep-329314.mp3","null","audio-keyboard-response","117","2.1.0","192560","F=YES, J=NO","hf15x8e5gc","0","75","75","75","","","","","","","","","","","","","","","",""
"null","audio/ankle1.wav","null","audio-keyboard-response","118","2.1.0","193080","F=YES, J=NO","hf15x8e5gc","0","75","75","75","","","","","","","","","","","","","","","",""
"664","
          <p id=""word"" style=""font-size: 40px;"">switm</p>
          <p style=""font-size: 16px;"">F = YES &nbsp;&nbsp;&nbsp; J = NO</p>
        ","j","html-keyboard-response","119","2.1.0","193744","F=YES, J=NO","hf15x8e5gc","0","75","75","75","","","","","","","","","switm","ankle1","pseudoword","pseudoword","j","true","",""
"null","<p style=""font-size: 50px;"">+</p>","null","html-keyboard-response","120","2.1.0","194049","F=YES, J=NO","hf15x8e5gc","0","75","75","75","","","","","","","","","","","","","","","",""
"null","audio/beep-329314.mp3","null","audio-keyboard-response","121","2.1.0","195580","F=YES, J=NO","hf15x8e5gc","0","75","75","75","","","","","","","","","","","","","","","",""
"null","audio/grass.wav","null","audio-keyboard-response","122","2.1.0","196220","F=YES, J=NO","hf15x8e5gc","0","75","75","75","","","","","","","","","","","","","","","",""
"743","
          <p id=""word"" style=""font-size: 40px;"">milames</p>
          <p style=""font-size: 16px;"">F = YES &nbsp;&nbsp;&nbsp; J = NO</p>
        ","j","html-keyboard-response","123","2.1.0","196963","F=YES, J=NO","hf15x8e5gc","0","75","75","75","","","","","","","","","milames","grass","pseudoword","pseudoword","j","true","",""
"null","<p style=""font-size: 50px;"">+</p>","null","html-keyboard-response","124","2.1.0","197278","F=YES, J=NO","hf15x8e5gc","0","75","75","75","","","","","","","","","","","","","","","",""
"null","audio/beep-329314.mp3","null","audio-keyboard-response","125","2.1.0","198800","F=YES, J=NO","hf15x8e5gc","0","75","75","75","","","","","","","","","","","","","","","",""
"null","audio/pain1.wav","null","audio-keyboard-response","126","2.1.0","199380","F=YES, J=NO","hf15x8e5gc","0","75","75","75","","","","","","","","","","","","","","","",""
"727","
          <p id=""word"" style=""font-size: 40px;"">tritted</p>
          <p style=""font-size: 16px;"">F = YES &nbsp;&nbsp;&nbsp; J = NO</p>
        ","j","html-keyboard-response","127","2.1.0","200107","F=YES, J=NO","hf15x8e5gc","0","75","75","75","","","","","","","","","tritted","pain1","pseudoword","pseudoword","j","true","",""
"null","<p style=""font-size: 50px;"">+</p>","null","html-keyboard-response","128","2.1.0","200414","F=YES, J=NO","hf15x8e5gc","0","75","75","75","","","","","","","","","","","","","","","",""
"null","audio/beep-329314.mp3","null","audio-keyboard-response","129","2.1.0","201940","F=YES, J=NO","hf15x8e5gc","0","75","75","75","","","","","","","","","","","","","","","",""
"null","audio/handle.wav","null","audio-keyboard-response","130","2.1.0","202601","F=YES, J=NO","hf15x8e5gc","0","75","75","75","","","","","","","","","","","","","","","",""
"640","
          <p id=""word"" style=""font-size: 40px;"">moutes</p>
          <p style=""font-size: 16px;"">F = YES &nbsp;&nbsp;&nbsp; J = NO</p>
        ","j","html-keyboard-response","131","2.1.0","203241","F=YES, J=NO","hf15x8e5gc","0","75","75","75","","","","","","","","","moutes","handle","pseudoword","pseudoword","j","true","",""
"null","<p style=""font-size: 50px;"">+</p>","null","html-keyboard-response","132","2.1.0","203545","F=YES, J=NO","hf15x8e5gc","0","75","75","75","","","","","","","","","","","","","","","",""
"null","audio/beep-329314.mp3","null","audio-keyboard-response","133","2.1.0","205081","F=YES, J=NO","hf15x8e5gc","0","75","75","75","","","","","","","","","","","","","","","",""
"null","audio/cancer1.wav","null","audio-keyboard-response","134","2.1.0","205761","F=YES, J=NO","hf15x8e5gc","0","75","75","75","","","","","","","","","","","","","","","",""
"821","
          <p id=""word"" style=""font-size: 40px;"">draw</p>
          <p style=""font-size: 16px;"">F = YES &nbsp;&nbsp;&nbsp; J = NO</p>
        ","f","html-keyboard-response","135","2.1.0","206582","F=YES, J=NO","hf15x8e5gc","0","75","75","75","","","","","","","","","draw","cancer1","filler","filler","f","true","",""
"null","<p style=""font-size: 50px;"">+</p>","null","html-keyboard-response","136","2.1.0","206886","F=YES, J=NO","hf15x8e5gc","0","75","75","75","","","","","","","","","","","","","","","",""
"null","audio/beep-329314.mp3","null","audio-keyboard-response","137","2.1.0","208421","F=YES, J=NO","hf15x8e5gc","0","75","75","75","","","","","","","","","","","","","","","",""
"null","audio/van1.wav","null","audio-keyboard-response","138","2.1.0","208941","F=YES, J=NO","hf15x8e5gc","0","75","75","75","","","","","","","","","","","","","","","",""
"707","
          <p id=""word"" style=""font-size: 40px;"">push</p>
          <p style=""font-size: 16px;"">F = YES &nbsp;&nbsp;&nbsp; J = NO</p>
        ","f","html-keyboard-response","139","2.1.0","209648","F=YES, J=NO","hf15x8e5gc","0","75","75","75","","","","","","","","","push","van1","filler","filler","f","true","",""
"null","<p style=""font-size: 50px;"">+</p>","null","html-keyboard-response","140","2.1.0","209964","F=YES, J=NO","hf15x8e5gc","0","75","75","75","","","","","","","","","","","","","","","",""
"null","audio/beep-329314.mp3","null","audio-keyboard-response","141","2.1.0","211501","F=YES, J=NO","hf15x8e5gc","0","75","75","75","","","","","","","","","","","","","","","",""
"null","audio/mile1.wav","null","audio-keyboard-response","142","2.1.0","212121","F=YES, J=NO","hf15x8e5gc","0","75","75","75","","","","","","","","","","","","","","","",""
"766","
          <p id=""word"" style=""font-size: 40px;"">writch</p>
          <p style=""font-size: 16px;"">F = YES &nbsp;&nbsp;&nbsp; J = NO</p>
        ","j","html-keyboard-response","143","2.1.0","212887","F=YES, J=NO","hf15x8e5gc","0","75","75","75","","","","","","","","","writch","mile1","pseudoword","pseudoword","j","true","",""
"null","<p style=""font-size: 50px;"">+</p>","null","html-keyboard-response","144","2.1.0","213203","F=YES, J=NO","hf15x8e5gc","0","75","75","75","","","","","","","","","","","","","","","",""
"null","audio/beep-329314.mp3","null","audio-keyboard-response","145","2.1.0","214741","F=YES, J=NO","hf15x8e5gc","0","75","75","75","","","","","","","","","","","","","","","",""
"null","audio/pattern.wav","null","audio-keyboard-response","146","2.1.0","215281","F=YES, J=NO","hf15x8e5gc","0","75","75","75","","","","","","","","","","","","","","","",""
"707","
          <p id=""word"" style=""font-size: 40px;"">tug</p>
          <p style=""font-size: 16px;"">F = YES &nbsp;&nbsp;&nbsp; J = NO</p>
        ","j","html-keyboard-response","147","2.1.0","215989","F=YES, J=NO","hf15x8e5gc","0","75","75","75","","","","","","","","","tug","pattern","filler","filler","f","false","",""
"null","<p style=""font-size: 50px;"">+</p>","null","html-keyboard-response","148","2.1.0","216294","F=YES, J=NO","hf15x8e5gc","0","75","75","75","","","","","","","","","","","","","","","",""
"null","audio/beep-329314.mp3","null","audio-keyboard-response","149","2.1.0","217822","F=YES, J=NO","hf15x8e5gc","0","75","75","75","","","","","","","","","","","","","","","",""
"null","audio/client1.wav","null","audio-keyboard-response","150","2.1.0","218502","F=YES, J=NO","hf15x8e5gc","0","75","75","75","","","","","","","","","","","","","","","",""
"614","
          <p id=""word"" style=""font-size: 40px;"">droothe</p>
          <p style=""font-size: 16px;"">F = YES &nbsp;&nbsp;&nbsp; J = NO</p>
        ","j","html-keyboard-response","151","2.1.0","219116","F=YES, J=NO","hf15x8e5gc","0","75","75","75","","","","","","","","","droothe","client1","pseudoword","pseudoword","j","true","",""
"null","<p style=""font-size: 50px;"">+</p>","null","html-keyboard-response","152","2.1.0","219427","F=YES, J=NO","hf15x8e5gc","0","75","75","75","","","","","","","","","","","","","","","",""
"null","audio/beep-329314.mp3","null","audio-keyboard-response","153","2.1.0","220962","F=YES, J=NO","hf15x8e5gc","0","75","75","75","","","","","","","","","","","","","","","",""
"null","audio/bishop1.wav","null","audio-keyboard-response","154","2.1.0","221582","F=YES, J=NO","hf15x8e5gc","0","75","75","75","","","","","","","","","","","","","","","",""
"584","
          <p id=""word"" style=""font-size: 40px;"">play</p>
          <p style=""font-size: 16px;"">F = YES &nbsp;&nbsp;&nbsp; J = NO</p>
        ","f","html-keyboard-response","155","2.1.0","222166","F=YES, J=NO","hf15x8e5gc","0","75","75","75","","","","","","","","","play","bishop1","filler","filler","f","true","",""
"null","<p style=""font-size: 50px;"">+</p>","null","html-keyboard-response","156","2.1.0","222476","F=YES, J=NO","hf15x8e5gc","0","75","75","75","","","","","","","","","","","","","","","",""
"null","audio/beep-329314.mp3","null","audio-keyboard-response","157","2.1.0","224002","F=YES, J=NO","hf15x8e5gc","0","75","75","75","","","","","","","","","","","","","","","",""
"null","audio/account1.wav","null","audio-keyboard-response","158","2.1.0","224722","F=YES, J=NO","hf15x8e5gc","0","75","75","75","","","","","","","","","","","","","","","",""
"864","
          <p id=""word"" style=""font-size: 40px;"">paint</p>
          <p style=""font-size: 16px;"">F = YES &nbsp;&nbsp;&nbsp; J = NO</p>
        ","f","html-keyboard-response","159","2.1.0","225586","F=YES, J=NO","hf15x8e5gc","0","75","75","75","","","","","","","","","paint","account1","filler","filler","f","true","",""
"null","<p style=""font-size: 50px;"">+</p>","null","html-keyboard-response","160","2.1.0","225895","F=YES, J=NO","hf15x8e5gc","0","75","75","75","","","","","","","","","","","","","","","",""
"null","audio/beep-329314.mp3","null","audio-keyboard-response","161","2.1.0","227422","F=YES, J=NO","hf15x8e5gc","0","75","75","75","","","","","","","","","","","","","","","",""
"null","audio/fence.wav","null","audio-keyboard-response","162","2.1.0","228103","F=YES, J=NO","hf15x8e5gc","0","75","75","75","","","","","","","","","","","","","","","",""
"1141","
          <p id=""word"" style=""font-size: 40px;"">trim</p>
          <p style=""font-size: 16px;"">F = YES &nbsp;&nbsp;&nbsp; J = NO</p>
        ","f","html-keyboard-response","163","2.1.0","229244","F=YES, J=NO","hf15x8e5gc","0","75","75","75","","","","","","","","","trim","fence","filler","filler","f","true","",""
"3762","
    <div style=""max-width: 800px; margin: auto; text-align: left;"">
      <h2>Part 2: Main Trials</h2>
      <p>Great job on the practice trials!</p>
      <p>You will now begin the <strong>main set of trials</strong>.</p>
      <p>Remember your key assignments:</p>
      <ul>
        <li><strong>F</strong> = YES (real English word)</li>
        <li><strong>J</strong> = NO (not a real English word)</li>
      </ul>
      <p>Try to respond as <strong>quickly and accurately</strong> as possible.</p>
      <p style=""margin-top: 2em;"">Press any key to begin the main trials.</p>
    </div>
  "," ","html-keyboard-response","164","2.1.0","233006","F=YES, J=NO","hf15x8e5gc","0","75","75","75","","","","","","","","","","","","","","","",""
"1460","<p>Starting main block 1 of 8. Press any key to continue.</p>"," ","html-keyboard-response","165","2.1.0","234466","F=YES, J=NO","hf15x8e5gc","0","75","75","75","","","","","","","","","","","","","","","",""
"null","<p style=""font-size: 50px;"">+</p>","null","html-keyboard-response","166","2.1.0","234768","F=YES, J=NO","hf15x8e5gc","0","75","75","75","","","","","","","","","","","","","","","",""
"null","audio/beep-329314.mp3","null","audio-keyboard-response","167","2.1.0","236303","F=YES, J=NO","hf15x8e5gc","0","75","75","75","","","","","","","","","","","","","","","",""
"null","audio/farm1.wav","null","audio-keyboard-response","168","2.1.0","236883","F=YES, J=NO","hf15x8e5gc","0","75","75","75","","","","","","","","","","","","","","","",""
"583","
          <p id=""word"" style=""font-size: 40px;"">catch</p>
          <p style=""font-size: 16px;"">F = YES &nbsp;&nbsp;&nbsp; J = NO</p>
        ","f","html-keyboard-response","169","2.1.0","237466","F=YES, J=NO","hf15x8e5gc","0","75","75","75","","","","","","","","","catch","farm1","unrelated","experimental","f","true","",""
"null","<p style=""font-size: 50px;"">+</p>","null","html-keyboard-response","170","2.1.0","237775","F=YES, J=NO","hf15x8e5gc","0","75","75","75","","","","","","","","","","","","","","","",""
"null","audio/beep-329314.mp3","null","audio-keyboard-response","171","2.1.0","239303","F=YES, J=NO","hf15x8e5gc","0","75","75","75","","","","","","","","","","","","","","","",""
"null","audio/grass.wav","null","audio-keyboard-response","172","2.1.0","239943","F=YES, J=NO","hf15x8e5gc","0","75","75","75","","","","","","","","","","","","","","","",""
"574","
          <p id=""word"" style=""font-size: 40px;"">cut</p>
          <p style=""font-size: 16px;"">F = YES &nbsp;&nbsp;&nbsp; J = NO</p>
        ","f","html-keyboard-response","173","2.1.0","240518","F=YES, J=NO","hf15x8e5gc","0","75","75","75","","","","","","","","","cut","grass","literal","experimental","f","true","",""
"null","<p style=""font-size: 50px;"">+</p>","null","html-keyboard-response","174","2.1.0","240821","F=YES, J=NO","hf15x8e5gc","0","75","75","75","","","","","","","","","","","","","","","",""
"null","audio/beep-329314.mp3","null","audio-keyboard-response","175","2.1.0","242343","F=YES, J=NO","hf15x8e5gc","0","75","75","75","","","","","","","","","","","","","","","",""
"null","audio/cancer1.wav","null","audio-keyboard-response","176","2.1.0","242884","F=YES, J=NO","hf15x8e5gc","0","75","75","75","","","","","","","","","","","","","","","",""
"836","
          <p id=""word"" style=""font-size: 40px;"">fight</p>
          <p style=""font-size: 16px;"">F = YES &nbsp;&nbsp;&nbsp; J = NO</p>
        ","f","html-keyboard-response","177","2.1.0","243720","F=YES, J=NO","hf15x8e5gc","0","75","75","75","","","","","","","","","fight","cancer1","metaphor","experimental","f","true","",""
"null","<p style=""font-size: 50px;"">+</p>","null","html-keyboard-response","178","2.1.0","244034","F=YES, J=NO","hf15x8e5gc","0","75","75","75","","","","","","","","","","","","","","","",""
"null","audio/beep-329314.mp3","null","audio-keyboard-response","179","2.1.0","245564","F=YES, J=NO","hf15x8e5gc","0","75","75","75","","","","","","","","","","","","","","","",""
"null","audio/noise1.wav","null","audio-keyboard-response","180","2.1.0","246164","F=YES, J=NO","hf15x8e5gc","0","75","75","75","","","","","","","","","","","","","","","",""
"1499","
          <p id=""word"" style=""font-size: 40px;"">slintered</p>
          <p style=""font-size: 16px;"">F = YES &nbsp;&nbsp;&nbsp; J = NO</p>
        ","j","html-keyboard-response","181","2.1.0","247663","F=YES, J=NO","hf15x8e5gc","0","75","75","75","","","","","","","","","slintered","noise1","pseudoword","pseudoword","j","true","",""
"null","<p style=""font-size: 50px;"">+</p>","null","html-keyboard-response","182","2.1.0","247966","F=YES, J=NO","hf15x8e5gc","0","75","75","75","","","","","","","","","","","","","","","",""
"null","audio/beep-329314.mp3","null","audio-keyboard-response","183","2.1.0","249504","F=YES, J=NO","hf15x8e5gc","0","75","75","75","","","","","","","","","","","","","","","",""
"null","audio/tunnel.wav","null","audio-keyboard-response","184","2.1.0","249924","F=YES, J=NO","hf15x8e5gc","0","75","75","75","","","","","","","","","","","","","","","",""
"1160","
          <p id=""word"" style=""font-size: 40px;"">gred</p>
          <p style=""font-size: 16px;"">F = YES &nbsp;&nbsp;&nbsp; J = NO</p>
        ","j","html-keyboard-response","185","2.1.0","251085","F=YES, J=NO","hf15x8e5gc","0","75","75","75","","","","","","","","","gred","tunnel","pseudoword","pseudoword","j","true","",""
"null","<p style=""font-size: 50px;"">+</p>","null","html-keyboard-response","186","2.1.0","251385","F=YES, J=NO","hf15x8e5gc","0","75","75","75","","","","","","","","","","","","","","","",""
"null","audio/beep-329314.mp3","null","audio-keyboard-response","187","2.1.0","252924","F=YES, J=NO","hf15x8e5gc","0","75","75","75","","","","","","","","","","","","","","","",""
"null","audio/cave1.wav","null","audio-keyboard-response","188","2.1.0","253464","F=YES, J=NO","hf15x8e5gc","0","75","75","75","","","","","","","","","","","","","","","",""
"587","
          <p id=""word"" style=""font-size: 40px;"">hurt</p>
          <p style=""font-size: 16px;"">F = YES &nbsp;&nbsp;&nbsp; J = NO</p>
        ","f","html-keyboard-response","189","2.1.0","254052","F=YES, J=NO","hf15x8e5gc","0","75","75","75","","","","","","","","","hurt","cave1","unrelated","experimental","f","true","",""
"null","<p style=""font-size: 50px;"">+</p>","null","html-keyboard-response","190","2.1.0","254356","F=YES, J=NO","hf15x8e5gc","0","75","75","75","","","","","","","","","","","","","","","",""
"null","audio/beep-329314.mp3","null","audio-keyboard-response","191","2.1.0","255885","F=YES, J=NO","hf15x8e5gc","0","75","75","75","","","","","","","","","","","","","","","",""
"null","audio/corpse1.wav","null","audio-keyboard-response","192","2.1.0","256505","F=YES, J=NO","hf15x8e5gc","0","75","75","75","","","","","","","","","","","","","","","",""
"644","
          <p id=""word"" style=""font-size: 40px;"">glonet</p>
          <p style=""font-size: 16px;"">F = YES &nbsp;&nbsp;&nbsp; J = NO</p>
        ","j","html-keyboard-response","193","2.1.0","257149","F=YES, J=NO","hf15x8e5gc","0","75","75","75","","","","","","","","","glonet","corpse1","pseudoword","pseudoword","j","true","",""
"null","<p style=""font-size: 50px;"">+</p>","null","html-keyboard-response","194","2.1.0","257453","F=YES, J=NO","hf15x8e5gc","0","75","75","75","","","","","","","","","","","","","","","",""
"null","audio/beep-329314.mp3","null","audio-keyboard-response","195","2.1.0","258985","F=YES, J=NO","hf15x8e5gc","0","75","75","75","","","","","","","","","","","","","","","",""
"null","audio/holiday1.wav","null","audio-keyboard-response","196","2.1.0","259605","F=YES, J=NO","hf15x8e5gc","0","75","75","75","","","","","","","","","","","","","","","",""
"789","
          <p id=""word"" style=""font-size: 40px;"">drivets</p>
          <p style=""font-size: 16px;"">F = YES &nbsp;&nbsp;&nbsp; J = NO</p>
        ","j","html-keyboard-response","197","2.1.0","260394","F=YES, J=NO","hf15x8e5gc","0","75","75","75","","","","","","","","","drivets","holiday1","pseudoword","pseudoword","j","true","",""
"null","<p style=""font-size: 50px;"">+</p>","null","html-keyboard-response","198","2.1.0","260708","F=YES, J=NO","hf15x8e5gc","0","75","75","75","","","","","","","","","","","","","","","",""
"null","audio/beep-329314.mp3","null","audio-keyboard-response","199","2.1.0","262245","F=YES, J=NO","hf15x8e5gc","0","75","75","75","","","","","","","","","","","","","","","",""
"null","audio/winter.wav","null","audio-keyboard-response","200","2.1.0","262805","F=YES, J=NO","hf15x8e5gc","0","75","75","75","","","","","","","","","","","","","","","",""
"826","
          <p id=""word"" style=""font-size: 40px;"">straven</p>
          <p style=""font-size: 16px;"">F = YES &nbsp;&nbsp;&nbsp; J = NO</p>
        ","j","html-keyboard-response","201","2.1.0","263631","F=YES, J=NO","hf15x8e5gc","0","75","75","75","","","","","","","","","straven","winter","pseudoword","pseudoword","j","true","",""
"null","<p style=""font-size: 50px;"">+</p>","null","html-keyboard-response","202","2.1.0","263933","F=YES, J=NO","hf15x8e5gc","0","75","75","75","","","","","","","","","","","","","","","",""
"null","audio/beep-329314.mp3","null","audio-keyboard-response","203","2.1.0","265465","F=YES, J=NO","hf15x8e5gc","0","75","75","75","","","","","","","","","","","","","","","",""
"null","audio/scar.wav","null","audio-keyboard-response","204","2.1.0","266045","F=YES, J=NO","hf15x8e5gc","0","75","75","75","","","","","","","","","","","","","","","",""
"null","
          <p id=""word"" style=""font-size: 40px;"">adelineate</p>
          <p style=""font-size: 16px;"">F = YES &nbsp;&nbsp;&nbsp; J = NO</p>
        ","null","html-keyboard-response","205","2.1.0","267556","F=YES, J=NO","hf15x8e5gc","0","75","75","75","","","","","","","","","adelineate","scar","pseudoword","pseudoword","j","false","",""
"null","<p style=""font-size: 50px;"">+</p>","null","html-keyboard-response","206","2.1.0","267869","F=YES, J=NO","hf15x8e5gc","0","75","75","75","","","","","","","","","","","","","","","",""
"null","audio/beep-329314.mp3","null","audio-keyboard-response","207","2.1.0","269406","F=YES, J=NO","hf15x8e5gc","0","75","75","75","","","","","","","","","","","","","","","",""
"null","audio/plot1.wav","null","audio-keyboard-response","208","2.1.0","269946","F=YES, J=NO","hf15x8e5gc","0","75","75","75","","","","","","","","","","","","","","","",""
"760","
          <p id=""word"" style=""font-size: 40px;"">glenter</p>
          <p style=""font-size: 16px;"">F = YES &nbsp;&nbsp;&nbsp; J = NO</p>
        ","j","html-keyboard-response","209","2.1.0","270706","F=YES, J=NO","hf15x8e5gc","0","75","75","75","","","","","","","","","glenter","plot1","pseudoword","pseudoword","j","true","",""
"null","<p style=""font-size: 50px;"">+</p>","null","html-keyboard-response","210","2.1.0","271009","F=YES, J=NO","hf15x8e5gc","0","75","75","75","","","","","","","","","","","","","","","",""
"null","audio/beep-329314.mp3","null","audio-keyboard-response","211","2.1.0","272546","F=YES, J=NO","hf15x8e5gc","0","75","75","75","","","","","","","","","","","","","","","",""
"null","audio/pig.wav","null","audio-keyboard-response","212","2.1.0","272926","F=YES, J=NO","hf15x8e5gc","0","75","75","75","","","","","","","","","","","","","","","",""
"661","
          <p id=""word"" style=""font-size: 40px;"">tirlike</p>
          <p style=""font-size: 16px;"">F = YES &nbsp;&nbsp;&nbsp; J = NO</p>
        ","j","html-keyboard-response","213","2.1.0","273587","F=YES, J=NO","hf15x8e5gc","0","75","75","75","","","","","","","","","tirlike","pig","pseudoword","pseudoword","j","true","",""
"null","<p style=""font-size: 50px;"">+</p>","null","html-keyboard-response","214","2.1.0","273903","F=YES, J=NO","hf15x8e5gc","0","75","75","75","","","","","","","","","","","","","","","",""
"null","audio/beep-329314.mp3","null","audio-keyboard-response","215","2.1.0","275426","F=YES, J=NO","hf15x8e5gc","0","75","75","75","","","","","","","","","","","","","","","",""
"null","audio/mind.wav","null","audio-keyboard-response","216","2.1.0","275986","F=YES, J=NO","hf15x8e5gc","0","75","75","75","","","","","","","","","","","","","","","",""
"1079","
          <p id=""word"" style=""font-size: 40px;"">crainate</p>
          <p style=""font-size: 16px;"">F = YES &nbsp;&nbsp;&nbsp; J = NO</p>
        ","j","html-keyboard-response","217","2.1.0","277066","F=YES, J=NO","hf15x8e5gc","0","75","75","75","","","","","","","","","crainate","mind","pseudoword","pseudoword","j","true","",""
"null","<p style=""font-size: 50px;"">+</p>","null","html-keyboard-response","218","2.1.0","277381","F=YES, J=NO","hf15x8e5gc","0","75","75","75","","","","","","","","","","","","","","","",""
"null","audio/beep-329314.mp3","null","audio-keyboard-response","219","2.1.0","278906","F=YES, J=NO","hf15x8e5gc","0","75","75","75","","","","","","","","","","","","","","","",""
"null","audio/alarm1.wav","null","audio-keyboard-response","220","2.1.0","279486","F=YES, J=NO","hf15x8e5gc","0","75","75","75","","","","","","","","","","","","","","","",""
"954","
          <p id=""word"" style=""font-size: 40px;"">swetp</p>
          <p style=""font-size: 16px;"">F = YES &nbsp;&nbsp;&nbsp; J = NO</p>
        ","j","html-keyboard-response","221","2.1.0","280441","F=YES, J=NO","hf15x8e5gc","0","75","75","75","","","","","","","","","swetp","alarm1","pseudoword","pseudoword","j","true","",""
"null","<p style=""font-size: 50px;"">+</p>","null","html-keyboard-response","222","2.1.0","280754","F=YES, J=NO","hf15x8e5gc","0","75","75","75","","","","","","","","","","","","","","","",""
"null","audio/beep-329314.mp3","null","audio-keyboard-response","223","2.1.0","282287","F=YES, J=NO","hf15x8e5gc","0","75","75","75","","","","","","","","","","","","","","","",""
"null","audio/smirk1.wav","null","audio-keyboard-response","224","2.1.0","283007","F=YES, J=NO","hf15x8e5gc","0","75","75","75","","","","","","","","","","","","","","","",""
"780","
          <p id=""word"" style=""font-size: 40px;"">snopt</p>
          <p style=""font-size: 16px;"">F = YES &nbsp;&nbsp;&nbsp; J = NO</p>
        ","j","html-keyboard-response","225","2.1.0","283787","F=YES, J=NO","hf15x8e5gc","0","75","75","75","","","","","","","","","snopt","smirk1","pseudoword","pseudoword","j","true","",""
"null","<p style=""font-size: 50px;"">+</p>","null","html-keyboard-response","226","2.1.0","284093","F=YES, J=NO","hf15x8e5gc","0","75","75","75","","","","","","","","","","","","","","","",""
"null","audio/beep-329314.mp3","null","audio-keyboard-response","227","2.1.0","285627","F=YES, J=NO","hf15x8e5gc","0","75","75","75","","","","","","","","","","","","","","","",""
"null","audio/essence1.wav","null","audio-keyboard-response","228","2.1.0","286347","F=YES, J=NO","hf15x8e5gc","0","75","75","75","","","","","","","","","","","","","","","",""
"658","
          <p id=""word"" style=""font-size: 40px;"">grasp</p>
          <p style=""font-size: 16px;"">F = YES &nbsp;&nbsp;&nbsp; J = NO</p>
        ","f","html-keyboard-response","229","2.1.0","287005","F=YES, J=NO","hf15x8e5gc","0","75","75","75","","","","","","","","","grasp","essence1","metaphor","experimental","f","true","",""
"6945","<p>Excellent! You have finished block 1 of 8.</p>
                     <p>Feel free to take a 30 second break.</p>
                     <p>Press any key when you're ready to continue.</p>"," ","html-keyboard-response","230","2.1.0","293951","F=YES, J=NO","hf15x8e5gc","0","75","75","75","","","","","","","","","","","","","","","",""
"1026","<p>Starting main block 2 of 8. Press any key to continue.</p>"," ","html-keyboard-response","231","2.1.0","294978","F=YES, J=NO","hf15x8e5gc","0","75","75","75","","","","","","","","","","","","","","","",""
"null","<p style=""font-size: 50px;"">+</p>","null","html-keyboard-response","232","2.1.0","295283","F=YES, J=NO","hf15x8e5gc","0","75","75","75","","","","","","","","","","","","","","","",""
"null","audio/beep-329314.mp3","null","audio-keyboard-response","233","2.1.0","296807","F=YES, J=NO","hf15x8e5gc","0","75","75","75","","","","","","","","","","","","","","","",""
"null","audio/road.wav","null","audio-keyboard-response","234","2.1.0","297198","F=YES, J=NO","hf15x8e5gc","0","75","75","75","","","","","","","","","","","","","","","",""
"717","
          <p id=""word"" style=""font-size: 40px;"">wappings</p>
          <p style=""font-size: 16px;"">F = YES &nbsp;&nbsp;&nbsp; J = NO</p>
        ","j","html-keyboard-response","235","2.1.0","297916","F=YES, J=NO","hf15x8e5gc","0","75","75","75","","","","","","","","","wappings","road","pseudoword","pseudoword","j","true","",""
"null","<p style=""font-size: 50px;"">+</p>","null","html-keyboard-response","236","2.1.0","298217","F=YES, J=NO","hf15x8e5gc","0","75","75","75","","","","","","","","","","","","","","","",""
"null","audio/beep-329314.mp3","null","audio-keyboard-response","237","2.1.0","299748","F=YES, J=NO","hf15x8e5gc","0","75","75","75","","","","","","","","","","","","","","","",""
"null","audio/belief.wav","null","audio-keyboard-response","238","2.1.0","300358","F=YES, J=NO","hf15x8e5gc","0","75","75","75","","","","","","","","","","","","","","","",""
"478","
          <p id=""word"" style=""font-size: 40px;"">share</p>
          <p style=""font-size: 16px;"">F = YES &nbsp;&nbsp;&nbsp; J = NO</p>
        ","f","html-keyboard-response","239","2.1.0","300837","F=YES, J=NO","hf15x8e5gc","0","75","75","75","","","","","","","","","share","belief","metaphor","experimental","f","true","",""
"null","<p style=""font-size: 50px;"">+</p>","null","html-keyboard-response","240","2.1.0","301150","F=YES, J=NO","hf15x8e5gc","0","75","75","75","","","","","","","","","","","","","","","",""
"null","audio/beep-329314.mp3","null","audio-keyboard-response","241","2.1.0","302688","F=YES, J=NO","hf15x8e5gc","0","75","75","75","","","","","","","","","","","","","","","",""
"null","audio/life1.wav","null","audio-keyboard-response","242","2.1.0","303378","F=YES, J=NO","hf15x8e5gc","0","75","75","75","","","","","","","","","","","","","","","",""
"917","
          <p id=""word"" style=""font-size: 40px;"">flimch</p>
          <p style=""font-size: 16px;"">F = YES &nbsp;&nbsp;&nbsp; J = NO</p>
        ","j","html-keyboard-response","243","2.1.0","304296","F=YES, J=NO","hf15x8e5gc","0","75","75","75","","","","","","","","","flimch","life1","pseudoword","pseudoword","j","true","",""
"null","<p style=""font-size: 50px;"">+</p>","null","html-keyboard-response","244","2.1.0","304602","F=YES, J=NO","hf15x8e5gc","0","75","75","75","","","","","","","","","","","","","","","",""
"null","audio/beep-329314.mp3","null","audio-keyboard-response","245","2.1.0","306128","F=YES, J=NO","hf15x8e5gc","0","75","75","75","","","","","","","","","","","","","","","",""
"null","audio/weight1.wav","null","audio-keyboard-response","246","2.1.0","306658","F=YES, J=NO","hf15x8e5gc","0","75","75","75","","","","","","","","","","","","","","","",""
"775","
          <p id=""word"" style=""font-size: 40px;"">crimsh</p>
          <p style=""font-size: 16px;"">F = YES &nbsp;&nbsp;&nbsp; J = NO</p>
        ","j","html-keyboard-response","247","2.1.0","307434","F=YES, J=NO","hf15x8e5gc","0","75","75","75","","","","","","","","","crimsh","weight1","pseudoword","pseudoword","j","true","",""
"null","<p style=""font-size: 50px;"">+</p>","null","html-keyboard-response","248","2.1.0","307749","F=YES, J=NO","hf15x8e5gc","0","75","75","75","","","","","","","","","","","","","","","",""
"null","audio/beep-329314.mp3","null","audio-keyboard-response","249","2.1.0","309288","F=YES, J=NO","hf15x8e5gc","0","75","75","75","","","","","","","","","","","","","","","",""
"null","audio/stain.wav","null","audio-keyboard-response","250","2.1.0","309938","F=YES, J=NO","hf15x8e5gc","0","75","75","75","","","","","","","","","","","","","","","",""
"855","
          <p id=""word"" style=""font-size: 40px;"">rumpsied</p>
          <p style=""font-size: 16px;"">F = YES &nbsp;&nbsp;&nbsp; J = NO</p>
        ","j","html-keyboard-response","251","2.1.0","310794","F=YES, J=NO","hf15x8e5gc","0","75","75","75","","","","","","","","","rumpsied","stain","pseudoword","pseudoword","j","true","",""
"null","<p style=""font-size: 50px;"">+</p>","null","html-keyboard-response","252","2.1.0","311097","F=YES, J=NO","hf15x8e5gc","0","75","75","75","","","","","","","","","","","","","","","",""
"null","audio/beep-329314.mp3","null","audio-keyboard-response","253","2.1.0","312629","F=YES, J=NO","hf15x8e5gc","0","75","75","75","","","","","","","","","","","","","","","",""
"null","audio/gold1.wav","null","audio-keyboard-response","254","2.1.0","313179","F=YES, J=NO","hf15x8e5gc","0","75","75","75","","","","","","","","","","","","","","","",""
"597","
          <p id=""word"" style=""font-size: 40px;"">sell</p>
          <p style=""font-size: 16px;"">F = YES &nbsp;&nbsp;&nbsp; J = NO</p>
        ","f","html-keyboard-response","255","2.1.0","313776","F=YES, J=NO","hf15x8e5gc","0","75","75","75","","","","","","","","","sell","gold1","literal","experimental","f","true","",""
"null","<p style=""font-size: 50px;"">+</p>","null","html-keyboard-response","256","2.1.0","314077","F=YES, J=NO","hf15x8e5gc","0","75","75","75","","","","","","","","","","","","","","","",""
"null","audio/beep-329314.mp3","null","audio-keyboard-response","257","2.1.0","315609","F=YES, J=NO","hf15x8e5gc","0","75","75","75","","","","","","","","","","","","","","","",""
"null","audio/trust.wav","null","audio-keyboard-response","258","2.1.0","316239","F=YES, J=NO","hf15x8e5gc","0","75","75","75","","","","","","","","","","","","","","","",""
"622","
          <p id=""word"" style=""font-size: 40px;"">swint</p>
          <p style=""font-size: 16px;"">F = YES &nbsp;&nbsp;&nbsp; J = NO</p>
        ","j","html-keyboard-response","259","2.1.0","316861","F=YES, J=NO","hf15x8e5gc","0","75","75","75","","","","","","","","","swint","trust","pseudoword","pseudoword","j","true","",""
"null","<p style=""font-size: 50px;"">+</p>","null","html-keyboard-response","260","2.1.0","317169","F=YES, J=NO","hf15x8e5gc","0","75","75","75","","","","","","","","","","","","","","","",""
"null","audio/beep-329314.mp3","null","audio-keyboard-response","261","2.1.0","318709","F=YES, J=NO","hf15x8e5gc","0","75","75","75","","","","","","","","","","","","","","","",""
"null","audio/sugar1.wav","null","audio-keyboard-response","262","2.1.0","319199","F=YES, J=NO","hf15x8e5gc","0","75","75","75","","","","","","","","","","","","","","","",""
"641","
          <p id=""word"" style=""font-size: 40px;"">glung</p>
          <p style=""font-size: 16px;"">F = YES &nbsp;&nbsp;&nbsp; J = NO</p>
        ","j","html-keyboard-response","263","2.1.0","319840","F=YES, J=NO","hf15x8e5gc","0","75","75","75","","","","","","","","","glung","sugar1","pseudoword","pseudoword","j","true","",""
"null","<p style=""font-size: 50px;"">+</p>","null","html-keyboard-response","264","2.1.0","320155","F=YES, J=NO","hf15x8e5gc","0","75","75","75","","","","","","","","","","","","","","","",""
"null","audio/beep-329314.mp3","null","audio-keyboard-response","265","2.1.0","321689","F=YES, J=NO","hf15x8e5gc","0","75","75","75","","","","","","","","","","","","","","","",""
"null","audio/empire.wav","null","audio-keyboard-response","266","2.1.0","322319","F=YES, J=NO","hf15x8e5gc","0","75","75","75","","","","","","","","","","","","","","","",""
"691","
          <p id=""word"" style=""font-size: 40px;"">bring</p>
          <p style=""font-size: 16px;"">F = YES &nbsp;&nbsp;&nbsp; J = NO</p>
        ","f","html-keyboard-response","267","2.1.0","323011","F=YES, J=NO","hf15x8e5gc","0","75","75","75","","","","","","","","","bring","empire","unrelated","experimental","f","true","",""
"null","<p style=""font-size: 50px;"">+</p>","null","html-keyboard-response","268","2.1.0","323316","F=YES, J=NO","hf15x8e5gc","0","75","75","75","","","","","","","","","","","","","","","",""
"null","audio/beep-329314.mp3","null","audio-keyboard-response","269","2.1.0","324850","F=YES, J=NO","hf15x8e5gc","0","75","75","75","","","","","","","","","","","","","","","",""
"null","audio/bridge.wav","null","audio-keyboard-response","270","2.1.0","325400","F=YES, J=NO","hf15x8e5gc","0","75","75","75","","","","","","","","","","","","","","","",""
"650","
          <p id=""word"" style=""font-size: 40px;"">crack</p>
          <p style=""font-size: 16px;"">F = YES &nbsp;&nbsp;&nbsp; J = NO</p>
        ","f","html-keyboard-response","271","2.1.0","326051","F=YES, J=NO","hf15x8e5gc","0","75","75","75","","","","","","","","","crack","bridge","filler","filler","f","true","",""
"null","<p style=""font-size: 50px;"">+</p>","null","html-keyboard-response","272","2.1.0","326365","F=YES, J=NO","hf15x8e5gc","0","75","75","75","","","","","","","","","","","","","","","",""
"null","audio/beep-329314.mp3","null","audio-keyboard-response","273","2.1.0","327890","F=YES, J=NO","hf15x8e5gc","0","75","75","75","","","","","","","","","","","","","","","",""
"null","audio/cloud1.wav","null","audio-keyboard-response","274","2.1.0","328460","F=YES, J=NO","hf15x8e5gc","0","75","75","75","","","","","","","","","","","","","","","",""
"630","
          <p id=""word"" style=""font-size: 40px;"">brotant</p>
          <p style=""font-size: 16px;"">F = YES &nbsp;&nbsp;&nbsp; J = NO</p>
        ","j","html-keyboard-response","275","2.1.0","329090","F=YES, J=NO","hf15x8e5gc","0","75","75","75","","","","","","","","","brotant","cloud1","pseudoword","pseudoword","j","true","",""
"null","<p style=""font-size: 50px;"">+</p>","null","html-keyboard-response","276","2.1.0","329393","F=YES, J=NO","hf15x8e5gc","0","75","75","75","","","","","","","","","","","","","","","",""
"null","audio/beep-329314.mp3","null","audio-keyboard-response","277","2.1.0","330930","F=YES, J=NO","hf15x8e5gc","0","75","75","75","","","","","","","","","","","","","","","",""
"null","audio/bomb1.wav","null","audio-keyboard-response","278","2.1.0","331300","F=YES, J=NO","hf15x8e5gc","0","75","75","75","","","","","","","","","","","","","","","",""
"576","
          <p id=""word"" style=""font-size: 40px;"">clean</p>
          <p style=""font-size: 16px;"">F = YES &nbsp;&nbsp;&nbsp; J = NO</p>
        ","f","html-keyboard-response","279","2.1.0","331876","F=YES, J=NO","hf15x8e5gc","0","75","75","75","","","","","","","","","clean","bomb1","filler","filler","f","true","",""
"null","<p style=""font-size: 50px;"">+</p>","null","html-keyboard-response","280","2.1.0","332184","F=YES, J=NO","hf15x8e5gc","0","75","75","75","","","","","","","","","","","","","","","",""
"null","audio/beep-329314.mp3","null","audio-keyboard-response","281","2.1.0","333710","F=YES, J=NO","hf15x8e5gc","0","75","75","75","","","","","","","","","","","","","","","",""
"null","audio/noise1.wav","null","audio-keyboard-response","282","2.1.0","334300","F=YES, J=NO","hf15x8e5gc","0","75","75","75","","","","","","","","","","","","","","","",""
"850","
          <p id=""word"" style=""font-size: 40px;"">build</p>
          <p style=""font-size: 16px;"">F = YES &nbsp;&nbsp;&nbsp; J = NO</p>
        ","f","html-keyboard-response","283","2.1.0","335151","F=YES, J=NO","hf15x8e5gc","0","75","75","75","","","","","","","","","build","noise1","unrelated","experimental","f","true","",""
"null","<p style=""font-size: 50px;"">+</p>","null","html-keyboard-response","284","2.1.0","335456","F=YES, J=NO","hf15x8e5gc","0","75","75","75","","","","","","","","","","","","","","","",""
"null","audio/beep-329314.mp3","null","audio-keyboard-response","285","2.1.0","336990","F=YES, J=NO","hf15x8e5gc","0","75","75","75","","","","","","","","","","","","","","","",""
"null","audio/client1.wav","null","audio-keyboard-response","286","2.1.0","337661","F=YES, J=NO","hf15x8e5gc","0","75","75","75","","","","","","","","","","","","","","","",""
"777","
          <p id=""word"" style=""font-size: 40px;"">land</p>
          <p style=""font-size: 16px;"">F = YES &nbsp;&nbsp;&nbsp; J = NO</p>
        ","f","html-keyboard-response","287","2.1.0","338438","F=YES, J=NO","hf15x8e5gc","0","75","75","75","","","","","","","","","land","client1","metaphor","experimental","f","true","",""
"null","<p style=""font-size: 50px;"">+</p>","null","html-keyboard-response","288","2.1.0","338741","F=YES, J=NO","hf15x8e5gc","0","75","75","75","","","","","","","","","","","","","","","",""
"null","audio/beep-329314.mp3","null","audio-keyboard-response","289","2.1.0","340271","F=YES, J=NO","hf15x8e5gc","0","75","75","75","","","","","","","","","","","","","","","",""
"null","audio/camera1.wav","null","audio-keyboard-response","290","2.1.0","340881","F=YES, J=NO","hf15x8e5gc","0","75","75","75","","","","","","","","","","","","","","","",""
"864","
          <p id=""word"" style=""font-size: 40px;"">stir</p>
          <p style=""font-size: 16px;"">F = YES &nbsp;&nbsp;&nbsp; J = NO</p>
        ","f","html-keyboard-response","291","2.1.0","341746","F=YES, J=NO","hf15x8e5gc","0","75","75","75","","","","","","","","","stir","camera1","filler","filler","f","true","",""
"null","<p style=""font-size: 50px;"">+</p>","null","html-keyboard-response","292","2.1.0","342060","F=YES, J=NO","hf15x8e5gc","0","75","75","75","","","","","","","","","","","","","","","",""
"null","audio/beep-329314.mp3","null","audio-keyboard-response","293","2.1.0","343591","F=YES, J=NO","hf15x8e5gc","0","75","75","75","","","","","","","","","","","","","","","",""
"null","audio/fence.wav","null","audio-keyboard-response","294","2.1.0","344221","F=YES, J=NO","hf15x8e5gc","0","75","75","75","","","","","","","","","","","","","","","",""
"752","
          <p id=""word"" style=""font-size: 40px;"">climb</p>
          <p style=""font-size: 16px;"">F = YES &nbsp;&nbsp;&nbsp; J = NO</p>
        ","f","html-keyboard-response","295","2.1.0","344973","F=YES, J=NO","hf15x8e5gc","0","75","75","75","","","","","","","","","climb","fence","literal","experimental","f","true","",""
"6539","<p>Excellent! You have finished block 2 of 8.</p>
                     <p>Feel free to take a 30 second break.</p>
                     <p>Press any key when you're ready to continue.</p>"," ","html-keyboard-response","296","2.1.0","351513","F=YES, J=NO","hf15x8e5gc","0","75","75","75","","","","","","","","","","","","","","","",""
"1035","<p>Starting main block 3 of 8. Press any key to continue.</p>"," ","html-keyboard-response","297","2.1.0","352548","F=YES, J=NO","hf15x8e5gc","0","75","75","75","","","","","","","","","","","","","","","",""
"null","<p style=""font-size: 50px;"">+</p>","null","html-keyboard-response","298","2.1.0","352862","F=YES, J=NO","hf15x8e5gc","0","75","75","75","","","","","","","","","","","","","","","",""
"null","audio/beep-329314.mp3","null","audio-keyboard-response","299","2.1.0","354392","F=YES, J=NO","hf15x8e5gc","0","75","75","75","","","","","","","","","","","","","","","",""
"null","audio/golf1.wav","null","audio-keyboard-response","300","2.1.0","355062","F=YES, J=NO","hf15x8e5gc","0","75","75","75","","","","","","","","","","","","","","","",""
"968","
          <p id=""word"" style=""font-size: 40px;"">drabble</p>
          <p style=""font-size: 16px;"">F = YES &nbsp;&nbsp;&nbsp; J = NO</p>
        ","j","html-keyboard-response","301","2.1.0","356030","F=YES, J=NO","hf15x8e5gc","0","75","75","75","","","","","","","","","drabble","golf1","pseudoword","pseudoword","j","true","",""
"null","<p style=""font-size: 50px;"">+</p>","null","html-keyboard-response","302","2.1.0","356341","F=YES, J=NO","hf15x8e5gc","0","75","75","75","","","","","","","","","","","","","","","",""
"null","audio/beep-329314.mp3","null","audio-keyboard-response","303","2.1.0","357872","F=YES, J=NO","hf15x8e5gc","0","75","75","75","","","","","","","","","","","","","","","",""
"null","audio/battle1.wav","null","audio-keyboard-response","304","2.1.0","358342","F=YES, J=NO","hf15x8e5gc","0","75","75","75","","","","","","","","","","","","","","","",""
"724","
          <p id=""word"" style=""font-size: 40px;"">boil</p>
          <p style=""font-size: 16px;"">F = YES &nbsp;&nbsp;&nbsp; J = NO</p>
        ","f","html-keyboard-response","305","2.1.0","359067","F=YES, J=NO","hf15x8e5gc","0","75","75","75","","","","","","","","","boil","battle1","filler","filler","f","true","",""
"null","<p style=""font-size: 50px;"">+</p>","null","html-keyboard-response","306","2.1.0","359377","F=YES, J=NO","hf15x8e5gc","0","75","75","75","","","","","","","","","","","","","","","",""
"null","audio/beep-329314.mp3","null","audio-keyboard-response","307","2.1.0","360912","F=YES, J=NO","hf15x8e5gc","0","75","75","75","","","","","","","","","","","","","","","",""
"null","audio/strength.wav","null","audio-keyboard-response","308","2.1.0","361643","F=YES, J=NO","hf15x8e5gc","0","75","75","75","","","","","","","","","","","","","","","",""
"812","
          <p id=""word"" style=""font-size: 40px;"">plabet</p>
          <p style=""font-size: 16px;"">F = YES &nbsp;&nbsp;&nbsp; J = NO</p>
        ","j","html-keyboard-response","309","2.1.0","362456","F=YES, J=NO","hf15x8e5gc","0","75","75","75","","","","","","","","","plabet","strength","pseudoword","pseudoword","j","true","",""
"null","<p style=""font-size: 50px;"">+</p>","null","html-keyboard-response","310","2.1.0","362761","F=YES, J=NO","hf15x8e5gc","0","75","75","75","","","","","","","","","","","","","","","",""
"null","audio/beep-329314.mp3","null","audio-keyboard-response","311","2.1.0","364292","F=YES, J=NO","hf15x8e5gc","0","75","75","75","","","","","","","","","","","","","","","",""
"null","audio/arm.wav","null","audio-keyboard-response","312","2.1.0","364963","F=YES, J=NO","hf15x8e5gc","0","75","75","75","","","","","","","","","","","","","","","",""
"663","
          <p id=""word"" style=""font-size: 40px;"">fold</p>
          <p style=""font-size: 16px;"">F = YES &nbsp;&nbsp;&nbsp; J = NO</p>
        ","f","html-keyboard-response","313","2.1.0","365626","F=YES, J=NO","hf15x8e5gc","0","75","75","75","","","","","","","","","fold","arm","filler","filler","f","true","",""
"null","<p style=""font-size: 50px;"">+</p>","null","html-keyboard-response","314","2.1.0","365927","F=YES, J=NO","hf15x8e5gc","0","75","75","75","","","","","","","","","","","","","","","",""
"null","audio/beep-329314.mp3","null","audio-keyboard-response","315","2.1.0","367453","F=YES, J=NO","hf15x8e5gc","0","75","75","75","","","","","","","","","","","","","","","",""
"null","audio/dome.wav","null","audio-keyboard-response","316","2.1.0","367883","F=YES, J=NO","hf15x8e5gc","0","75","75","75","","","","","","","","","","","","","","","",""
"979","
          <p id=""word"" style=""font-size: 40px;"">scrupliness</p>
          <p style=""font-size: 16px;"">F = YES &nbsp;&nbsp;&nbsp; J = NO</p>
        ","j","html-keyboard-response","317","2.1.0","368863","F=YES, J=NO","hf15x8e5gc","0","75","75","75","","","","","","","","","scrupliness","dome","pseudoword","pseudoword","j","true","",""
"null","<p style=""font-size: 50px;"">+</p>","null","html-keyboard-response","318","2.1.0","369177","F=YES, J=NO","hf15x8e5gc","0","75","75","75","","","","","","","","","","","","","","","",""
"null","audio/beep-329314.mp3","null","audio-keyboard-response","319","2.1.0","370713","F=YES, J=NO","hf15x8e5gc","0","75","75","75","","","","","","","","","","","","","","","",""
"null","audio/ship.wav","null","audio-keyboard-response","320","2.1.0","371403","F=YES, J=NO","hf15x8e5gc","0","75","75","75","","","","","","","","","","","","","","","",""
"703","
          <p id=""word"" style=""font-size: 40px;"">scrap</p>
          <p style=""font-size: 16px;"">F = YES &nbsp;&nbsp;&nbsp; J = NO</p>
        ","f","html-keyboard-response","321","2.1.0","372106","F=YES, J=NO","hf15x8e5gc","0","75","75","75","","","","","","","","","scrap","ship","literal","experimental","f","true","",""
"null","<p style=""font-size: 50px;"">+</p>","null","html-keyboard-response","322","2.1.0","372421","F=YES, J=NO","hf15x8e5gc","0","75","75","75","","","","","","","","","","","","","","","",""
"null","audio/beep-329314.mp3","null","audio-keyboard-response","323","2.1.0","373953","F=YES, J=NO","hf15x8e5gc","0","75","75","75","","","","","","","","","","","","","","","",""
"null","audio/baby.wav","null","audio-keyboard-response","324","2.1.0","374623","F=YES, J=NO","hf15x8e5gc","0","75","75","75","","","","","","","","","","","","","","","",""
"590","
          <p id=""word"" style=""font-size: 40px;"">hold</p>
          <p style=""font-size: 16px;"">F = YES &nbsp;&nbsp;&nbsp; J = NO</p>
        ","f","html-keyboard-response","325","2.1.0","375214","F=YES, J=NO","hf15x8e5gc","0","75","75","75","","","","","","","","","hold","baby","literal","experimental","f","true","",""
"null","<p style=""font-size: 50px;"">+</p>","null","html-keyboard-response","326","2.1.0","375514","F=YES, J=NO","hf15x8e5gc","0","75","75","75","","","","","","","","","","","","","","","",""
"null","audio/beep-329314.mp3","null","audio-keyboard-response","327","2.1.0","377053","F=YES, J=NO","hf15x8e5gc","0","75","75","75","","","","","","","","","","","","","","","",""
"null","audio/fear.wav","null","audio-keyboard-response","328","2.1.0","377604","F=YES, J=NO","hf15x8e5gc","0","75","75","75","","","","","","","","","","","","","","","",""
"728","
          <p id=""word"" style=""font-size: 40px;"">spread</p>
          <p style=""font-size: 16px;"">F = YES &nbsp;&nbsp;&nbsp; J = NO</p>
        ","f","html-keyboard-response","329","2.1.0","378333","F=YES, J=NO","hf15x8e5gc","0","75","75","75","","","","","","","","","spread","fear","metaphor","experimental","f","true","",""
"null","<p style=""font-size: 50px;"">+</p>","null","html-keyboard-response","330","2.1.0","378647","F=YES, J=NO","hf15x8e5gc","0","75","75","75","","","","","","","","","","","","","","","",""
"null","audio/beep-329314.mp3","null","audio-keyboard-response","331","2.1.0","380174","F=YES, J=NO","hf15x8e5gc","0","75","75","75","","","","","","","","","","","","","","","",""
"null","audio/garden1.wav","null","audio-keyboard-response","332","2.1.0","380724","F=YES, J=NO","hf15x8e5gc","0","75","75","75","","","","","","","","","","","","","","","",""
"681","
          <p id=""word"" style=""font-size: 40px;"">invest</p>
          <p style=""font-size: 16px;"">F = YES &nbsp;&nbsp;&nbsp; J = NO</p>
        ","f","html-keyboard-response","333","2.1.0","381406","F=YES, J=NO","hf15x8e5gc","0","75","75","75","","","","","","","","","invest","garden1","unrelated","experimental","f","true","",""
"null","<p style=""font-size: 50px;"">+</p>","null","html-keyboard-response","334","2.1.0","381721","F=YES, J=NO","hf15x8e5gc","0","75","75","75","","","","","","","","","","","","","","","",""
"null","audio/beep-329314.mp3","null","audio-keyboard-response","335","2.1.0","383254","F=YES, J=NO","hf15x8e5gc","0","75","75","75","","","","","","","","","","","","","","","",""
"null","audio/cottage1.wav","null","audio-keyboard-response","336","2.1.0","383924","F=YES, J=NO","hf15x8e5gc","0","75","75","75","","","","","","","","","","","","","","","",""
"703","
          <p id=""word"" style=""font-size: 40px;"">release</p>
          <p style=""font-size: 16px;"">F = YES &nbsp;&nbsp;&nbsp; J = NO</p>
        ","f","html-keyboard-response","337","2.1.0","384627","F=YES, J=NO","hf15x8e5gc","0","75","75","75","","","","","","","","","release","cottage1","unrelated","experimental","f","true","",""
"null","<p style=""font-size: 50px;"">+</p>","null","html-keyboard-response","338","2.1.0","384937","F=YES, J=NO","hf15x8e5gc","0","75","75","75","","","","","","","","","","","","","","","",""
"null","audio/beep-329314.mp3","null","audio-keyboard-response","339","2.1.0","386474","F=YES, J=NO","hf15x8e5gc","0","75","75","75","","","","","","","","","","","","","","","",""
"null","audio/show.wav","null","audio-keyboard-response","340","2.1.0","387024","F=YES, J=NO","hf15x8e5gc","0","75","75","75","","","","","","","","","","","","","","","",""
"755","
          <p id=""word"" style=""font-size: 40px;"">smark</p>
          <p style=""font-size: 16px;"">F = YES &nbsp;&nbsp;&nbsp; J = NO</p>
        ","j","html-keyboard-response","341","2.1.0","387779","F=YES, J=NO","hf15x8e5gc","0","75","75","75","","","","","","","","","smark","show","pseudoword","pseudoword","j","true","",""
"null","<p style=""font-size: 50px;"">+</p>","null","html-keyboard-response","342","2.1.0","388094","F=YES, J=NO","hf15x8e5gc","0","75","75","75","","","","","","","","","","","","","","","",""
"null","audio/beep-329314.mp3","null","audio-keyboard-response","343","2.1.0","389634","F=YES, J=NO","hf15x8e5gc","0","75","75","75","","","","","","","","","","","","","","","",""
"null","audio/baby.wav","null","audio-keyboard-response","344","2.1.0","390085","F=YES, J=NO","hf15x8e5gc","0","75","75","75","","","","","","","","","","","","","","","",""
"844","
          <p id=""word"" style=""font-size: 40px;"">lift</p>
          <p style=""font-size: 16px;"">F = YES &nbsp;&nbsp;&nbsp; J = NO</p>
        ","f","html-keyboard-response","345","2.1.0","390929","F=YES, J=NO","hf15x8e5gc","0","75","75","75","","","","","","","","","lift","baby","filler","filler","f","true","",""
"null","<p style=""font-size: 50px;"">+</p>","null","html-keyboard-response","346","2.1.0","391230","F=YES, J=NO","hf15x8e5gc","0","75","75","75","","","","","","","","","","","","","","","",""
"null","audio/beep-329314.mp3","null","audio-keyboard-response","347","2.1.0","392755","F=YES, J=NO","hf15x8e5gc","0","75","75","75","","","","","","","","","","","","","","","",""
"null","audio/key1.wav","null","audio-keyboard-response","348","2.1.0","393105","F=YES, J=NO","hf15x8e5gc","0","75","75","75","","","","","","","","","","","","","","","",""
"1022","
          <p id=""word"" style=""font-size: 40px;"">sminsh</p>
          <p style=""font-size: 16px;"">F = YES &nbsp;&nbsp;&nbsp; J = NO</p>
        ","j","html-keyboard-response","349","2.1.0","394127","F=YES, J=NO","hf15x8e5gc","0","75","75","75","","","","","","","","","sminsh","key1","pseudoword","pseudoword","j","true","",""
"null","<p style=""font-size: 50px;"">+</p>","null","html-keyboard-response","350","2.1.0","394439","F=YES, J=NO","hf15x8e5gc","0","75","75","75","","","","","","","","","","","","","","","",""
"null","audio/beep-329314.mp3","null","audio-keyboard-response","351","2.1.0","395975","F=YES, J=NO","hf15x8e5gc","0","75","75","75","","","","","","","","","","","","","","","",""
"null","audio/trout1.wav","null","audio-keyboard-response","352","2.1.0","396565","F=YES, J=NO","hf15x8e5gc","0","75","75","75","","","","","","","","","","","","","","","",""
"796","
          <p id=""word"" style=""font-size: 40px;"">spimt</p>
          <p style=""font-size: 16px;"">F = YES &nbsp;&nbsp;&nbsp; J = NO</p>
        ","j","html-keyboard-response","353","2.1.0","397362","F=YES, J=NO","hf15x8e5gc","0","75","75","75","","","","","","","","","spimt","trout1","pseudoword","pseudoword","j","true","",""
"null","<p style=""font-size: 50px;"">+</p>","null","html-keyboard-response","354","2.1.0","397677","F=YES, J=NO","hf15x8e5gc","0","75","75","75","","","","","","","","","","","","","","","",""
"null","audio/beep-329314.mp3","null","audio-keyboard-response","355","2.1.0","399215","F=YES, J=NO","hf15x8e5gc","0","75","75","75","","","","","","","","","","","","","","","",""
"null","audio/dollar.wav","null","audio-keyboard-response","356","2.1.0","399585","F=YES, J=NO","hf15x8e5gc","0","75","75","75","","","","","","","","","","","","","","","",""
"629","
          <p id=""word"" style=""font-size: 40px;"">save</p>
          <p style=""font-size: 16px;"">F = YES &nbsp;&nbsp;&nbsp; J = NO</p>
        ","f","html-keyboard-response","357","2.1.0","400214","F=YES, J=NO","hf15x8e5gc","0","75","75","75","","","","","","","","","save","dollar","literal","experimental","f","true","",""
"null","<p style=""font-size: 50px;"">+</p>","null","html-keyboard-response","358","2.1.0","400523","F=YES, J=NO","hf15x8e5gc","0","75","75","75","","","","","","","","","","","","","","","",""
"null","audio/beep-329314.mp3","null","audio-keyboard-response","359","2.1.0","402055","F=YES, J=NO","hf15x8e5gc","0","75","75","75","","","","","","","","","","","","","","","",""
"null","audio/empire.wav","null","audio-keyboard-response","360","2.1.0","402665","F=YES, J=NO","hf15x8e5gc","0","75","75","75","","","","","","","","","","","","","","","",""
"613","
          <p id=""word"" style=""font-size: 40px;"">slorby</p>
          <p style=""font-size: 16px;"">F = YES &nbsp;&nbsp;&nbsp; J = NO</p>
        ","j","html-keyboard-response","361","2.1.0","403279","F=YES, J=NO","hf15x8e5gc","0","75","75","75","","","","","","","","","slorby","empire","pseudoword","pseudoword","j","true","",""
"17542","<p>Excellent! You have finished block 3 of 8.</p>
                     <p>Feel free to take a 30 second break.</p>
                     <p>Press any key when you're ready to continue.</p>"," ","html-keyboard-response","362","2.1.0","420821","F=YES, J=NO","hf15x8e5gc","0","75","75","75","","","","","","","","","","","","","","","",""
"2851","<p>Starting main block 4 of 8. Press any key to continue.</p>"," ","html-keyboard-response","363","2.1.0","423672","F=YES, J=NO","hf15x8e5gc","0","75","75","75","","","","","","","","","","","","","","","",""
"null","<p style=""font-size: 50px;"">+</p>","null","html-keyboard-response","364","2.1.0","423986","F=YES, J=NO","hf15x8e5gc","0","75","75","75","","","","","","","","","","","","","","","",""
"null","audio/beep-329314.mp3","null","audio-keyboard-response","365","2.1.0","425501","F=YES, J=NO","hf15x8e5gc","0","75","75","75","","","","","","","","","","","","","","","",""
"null","audio/test1.wav","null","audio-keyboard-response","366","2.1.0","426041","F=YES, J=NO","hf15x8e5gc","0","75","75","75","","","","","","","","","","","","","","","",""
"665","
          <p id=""word"" style=""font-size: 40px;"">twopch</p>
          <p style=""font-size: 16px;"">F = YES &nbsp;&nbsp;&nbsp; J = NO</p>
        ","j","html-keyboard-response","367","2.1.0","426706","F=YES, J=NO","hf15x8e5gc","0","75","75","75","","","","","","","","","twopch","test1","pseudoword","pseudoword","j","true","",""
"null","<p style=""font-size: 50px;"">+</p>","null","html-keyboard-response","368","2.1.0","427011","F=YES, J=NO","hf15x8e5gc","0","75","75","75","","","","","","","","","","","","","","","",""
"null","audio/beep-329314.mp3","null","audio-keyboard-response","369","2.1.0","428541","F=YES, J=NO","hf15x8e5gc","0","75","75","75","","","","","","","","","","","","","","","",""
"null","audio/table1.wav","null","audio-keyboard-response","370","2.1.0","429161","F=YES, J=NO","hf15x8e5gc","0","75","75","75","","","","","","","","","","","","","","","",""
"580","
          <p id=""word"" style=""font-size: 40px;"">clear</p>
          <p style=""font-size: 16px;"">F = YES &nbsp;&nbsp;&nbsp; J = NO</p>
        ","f","html-keyboard-response","371","2.1.0","429742","F=YES, J=NO","hf15x8e5gc","0","75","75","75","","","","","","","","","clear","table1","literal","experimental","f","true","",""
"null","<p style=""font-size: 50px;"">+</p>","null","html-keyboard-response","372","2.1.0","430052","F=YES, J=NO","hf15x8e5gc","0","75","75","75","","","","","","","","","","","","","","","",""
"null","audio/beep-329314.mp3","null","audio-keyboard-response","373","2.1.0","431581","F=YES, J=NO","hf15x8e5gc","0","75","75","75","","","","","","","","","","","","","","","",""
"null","audio/camp.wav","null","audio-keyboard-response","374","2.1.0","432262","F=YES, J=NO","hf15x8e5gc","0","75","75","75","","","","","","","","","","","","","","","",""
"587","
          <p id=""word"" style=""font-size: 40px;"">touch</p>
          <p style=""font-size: 16px;"">F = YES &nbsp;&nbsp;&nbsp; J = NO</p>
        ","f","html-keyboard-response","375","2.1.0","432849","F=YES, J=NO","hf15x8e5gc","0","75","75","75","","","","","","","","","touch","camp","unrelated","experimental","f","true","",""
"null","<p style=""font-size: 50px;"">+</p>","null","html-keyboard-response","376","2.1.0","433155","F=YES, J=NO","hf15x8e5gc","0","75","75","75","","","","","","","","","","","","","","","",""
"null","audio/beep-329314.mp3","null","audio-keyboard-response","377","2.1.0","434682","F=YES, J=NO","hf15x8e5gc","0","75","75","75","","","","","","","","","","","","","","","",""
"null","audio/cave1.wav","null","audio-keyboard-response","378","2.1.0","435222","F=YES, J=NO","hf15x8e5gc","0","75","75","75","","","","","","","","","","","","","","","",""
"683","
          <p id=""word"" style=""font-size: 40px;"">blacket</p>
          <p style=""font-size: 16px;"">F = YES &nbsp;&nbsp;&nbsp; J = NO</p>
        ","f","html-keyboard-response","379","2.1.0","435905","F=YES, J=NO","hf15x8e5gc","0","75","75","75","","","","","","","","","blacket","cave1","pseudoword","pseudoword","j","false","",""
"null","<p style=""font-size: 50px;"">+</p>","null","html-keyboard-response","380","2.1.0","436207","F=YES, J=NO","hf15x8e5gc","0","75","75","75","","","","","","","","","","","","","","","",""
"null","audio/beep-329314.mp3","null","audio-keyboard-response","381","2.1.0","437742","F=YES, J=NO","hf15x8e5gc","0","75","75","75","","","","","","","","","","","","","","","",""
"null","audio/foe1.wav","null","audio-keyboard-response","382","2.1.0","438282","F=YES, J=NO","hf15x8e5gc","0","75","75","75","","","","","","","","","","","","","","","",""
"832","
          <p id=""word"" style=""font-size: 40px;"">creth</p>
          <p style=""font-size: 16px;"">F = YES &nbsp;&nbsp;&nbsp; J = NO</p>
        ","j","html-keyboard-response","383","2.1.0","439115","F=YES, J=NO","hf15x8e5gc","0","75","75","75","","","","","","","","","creth","foe1","pseudoword","pseudoword","j","true","",""
"null","<p style=""font-size: 50px;"">+</p>","null","html-keyboard-response","384","2.1.0","439423","F=YES, J=NO","hf15x8e5gc","0","75","75","75","","","","","","","","","","","","","","","",""
"null","audio/beep-329314.mp3","null","audio-keyboard-response","385","2.1.0","440962","F=YES, J=NO","hf15x8e5gc","0","75","75","75","","","","","","","","","","","","","","","",""
"null","audio/mouth1.wav","null","audio-keyboard-response","386","2.1.0","441662","F=YES, J=NO","hf15x8e5gc","0","75","75","75","","","","","","","","","","","","","","","",""
"728","
          <p id=""word"" style=""font-size: 40px;"">spolial</p>
          <p style=""font-size: 16px;"">F = YES &nbsp;&nbsp;&nbsp; J = NO</p>
        ","j","html-keyboard-response","387","2.1.0","442391","F=YES, J=NO","hf15x8e5gc","0","75","75","75","","","","","","","","","spolial","mouth1","pseudoword","pseudoword","j","true","",""
"null","<p style=""font-size: 50px;"">+</p>","null","html-keyboard-response","388","2.1.0","442702","F=YES, J=NO","hf15x8e5gc","0","75","75","75","","","","","","","","","","","","","","","",""
"null","audio/beep-329314.mp3","null","audio-keyboard-response","389","2.1.0","444242","F=YES, J=NO","hf15x8e5gc","0","75","75","75","","","","","","","","","","","","","","","",""
"null","audio/theory1.wav","null","audio-keyboard-response","390","2.1.0","444882","F=YES, J=NO","hf15x8e5gc","0","75","75","75","","","","","","","","","","","","","","","",""
"875","
          <p id=""word"" style=""font-size: 40px;"">construct</p>
          <p style=""font-size: 16px;"">F = YES &nbsp;&nbsp;&nbsp; J = NO</p>
        ","f","html-keyboard-response","391","2.1.0","445758","F=YES, J=NO","hf15x8e5gc","0","75","75","75","","","","","","","","","construct","theory1","metaphor","experimental","f","true","",""
