"rt","stimulus","response","trial_type","trial_index","plugin_version","time_elapsed","response_mapping","subject_id","list_index","lextale_score","lextale_word_score","lextale_nonword_score","success","timeout","failed_images","failed_audio","failed_video","task","isWord","isDummy","target","prime","prime_type","stimulus_type","correct_response","correct","section","question_order"
"31095","
    <div style=""max-width: 800px; margin: auto; text-align: left;"">
      <h2>STANFORD UNIVERSITY</h2>
      <h3>Research Information Sheet</h3>
      <p><strong>Protocol Director:</strong> Robert Hawkins<br>
      <strong>Protocol Title:</strong> Communication and social cognition in natural audiovisual contexts<br>
      <strong>IRB#:</strong> 77226</p>

      <p><strong>DESCRIPTION:</strong> You are invited to participate in a research study about language and communication. The purpose of the research is to understand how you interact and communicate with other people in naturalistic settings as a fluent English speaker. This research will be conducted through the Prolific platform, including participants from the US, UK, and Canada. If you decide to participate in this research, you will play a communication game in a group with one or more partners.</p>

      <p><strong>TIME INVOLVEMENT:</strong> The task will last the amount of time advertised on Prolific. You are free to withdraw from the study at any time.</p>

      <p><strong>RISKS AND BENEFITS:</strong> You may become frustrated if your partner gets distracted, or experience discomfort if other participants in your group send text that is inappropriate for the task. We ask you to please be respectful of other participants you might be interacting with to mitigate these risks. You may also experience discomfort when being asked to discuss or challenge emotionally salient political beliefs. Study data will be stored securely, in compliance with Stanford University standards, minimizing the risk of confidentiality breach. This study advances our scientific understanding of how people communicate and collaborate in naturalistic settings. This study may lead to further insights about what can go wrong in teamwork, suggest potential interventions to overcome these barriers, and help to develop assistive technologies that collaborate with human partners. We cannot and do not guarantee or promise that you will receive any benefits from this study.</p>

      <p><strong>PAYMENTS:</strong> You will receive payment in the amount advertised on Prolific. If you do not complete this study, you will receive prorated payment based on the time that you have spent. Additionally, you may be eligible for bonus payments as described in the instructions.</p>

      <p><strong>PARTICIPANT’S RIGHTS:</strong> If you have read this form and have decided to participate in this project, please understand your participation is voluntary and you have the right to withdraw your consent or discontinue participation at any time without penalty or loss of benefits to which you are otherwise entitled. The alternative is not to participate. You have the right to refuse to answer particular questions. The results of this research study may be presented at scientific or professional meetings or published in scientific journals. Your individual privacy will be maintained in all published and written data resulting from the study. In accordance with scientific norms, the data from this study may be used or shared with other researchers for future research (after removing personally identifying information) without additional consent from you.</p>

      <p><strong>CONTACT INFORMATION:</strong><br>
      Questions: If you have any questions, concerns or complaints about this research, its procedures, risks and benefits, contact the Protocol Director, Robert Hawkins (<a href=""mailto:rdhawkins@stanford.edu"">rdhawkins@stanford.edu</a>, 217-549-6923).<br>
      Independent Contact: If you are not satisfied with how this study is being conducted, or if you have any concerns, complaints, or general questions about the research or your rights as a participant, please contact the Stanford Institutional Review Board (IRB) to speak to someone independent of the research team at 650-723-2480 or toll free at 1-866-680-2906, or email at <a href=""mailto:irbnon-med@stanford.edu"">irbnon-med@stanford.edu</a>. You can also write to the Stanford IRB, Stanford University, 1705 El Camino Real, Palo Alto, CA 94306.</p>

      <p><strong>Please save or print a copy of this page for your records.</strong></p>
      <p>If you agree to participate in this research, click ""Continue"" below.</p>
    </div>
  ","0","html-button-response","0","2.1.0","31107","F=YES, J=NO","hqny8erlla","1","70","70","70","","","","","","","","","","","","","","","",""
"14830","
    <div style=""max-width: 800px; margin: auto; text-align: left;"">
      <h2>Welcome!</h2>
      <p>Thank you for participating in this study. The experiment consists of three parts:</p>
      <ol>
        <li>An English vocabulary test</li>
        <li>A main task in which you will hear and see words, and decide whether the written word is a real English word</li>
        <li>A brief survey about your background</li>
      </ol>
      <p>Each part will be introduced before it begins.</p>
      <p>Please make sure you are in a quiet environment and can hear audio clearly for the final task.</p>
      <p style=""margin-top: 2em;"">Press any key to begin.</p>
    </div>
  "," ","html-keyboard-response","1","2.1.0","45943","F=YES, J=NO","hqny8erlla","1","70","70","70","","","","","","","","","","","","","","","",""
"","","","preload","2","2.1.0","50033","F=YES, J=NO","hqny8erlla","1","70","70","70","true","false","[]","[]","[]","","","","","","","","","","",""
"7069","
    <div style=""max-width: 800px; margin: auto; text-align: left;"">
      <h2>Part 1: Vocabulary Test</h2>
      <p>You will now complete the first part of the study: a short English vocabulary test.</p>
      <p>This test is called <strong>LexTALE</strong> and helps us get a general sense of your English proficiency.</p>
      <p style=""margin-top: 2em;"">Press any key to continue.</p>
    </div>
  "," ","html-keyboard-response","3","2.1.0","57104","F=YES, J=NO","hqny8erlla","1","70","70","70","","","","","","","","","","","","","","","",""
"5225","
    <div style=""max-width: 800px; margin: auto; text-align: left;"">
      <h2>LexTALE Vocabulary Test</h2>
      <p>In this test, you will see a series of letter strings—one at a time.</p>
      <p>Your task is to decide whether each string is a real English word.</p>
      <p><strong>Key responses:</strong></p>
      <ul>
        <li><strong>F</strong> = YES (real English word)</li>
        <li><strong>J</strong> = NO (not a real English word)</li>
      </ul>
      <p>There is no time limit, but please try to be accurate.</p>
      <p style=""margin-top: 2em;"">Press any key to begin.</p>
    </div>
  "," ","html-keyboard-response","4","2.1.0","62335","F=YES, J=NO","hqny8erlla","1","70","70","70","","","","","","","","","","","","","","","",""
"1857","
  <p style=""font-size: 40px;"">platery</p>
  <p style=""font-size: 16px;"">F = YES &nbsp;&nbsp;&nbsp; J = NO</p>
","f","html-keyboard-response","5","2.1.0","64198","F=YES, J=NO","hqny8erlla","1","70","70","70","","","","","","lextale","false","true","","","","","","","",""
"931","
  <p style=""font-size: 40px;"">denial</p>
  <p style=""font-size: 16px;"">F = YES &nbsp;&nbsp;&nbsp; J = NO</p>
","f","html-keyboard-response","6","2.1.0","65135","F=YES, J=NO","hqny8erlla","1","70","70","70","","","","","","lextale","true","true","","","","","","","",""
"905","
  <p style=""font-size: 40px;"">marrit</p>
  <p style=""font-size: 16px;"">F = YES &nbsp;&nbsp;&nbsp; J = NO</p>
","j","html-keyboard-response","7","2.1.0","66047","F=YES, J=NO","hqny8erlla","1","70","70","70","","","","","","lextale","false","true","","","","","","","",""
"834","
  <p style=""font-size: 40px;"">bottle</p>
  <p style=""font-size: 16px;"">F = YES &nbsp;&nbsp;&nbsp; J = NO</p>
","f","html-keyboard-response","8","2.1.0","66887","F=YES, J=NO","hqny8erlla","1","70","70","70","","","","","","lextale","true","false","","","","","","","",""
"2737","
  <p style=""font-size: 40px;"">birst</p>
  <p style=""font-size: 16px;"">F = YES &nbsp;&nbsp;&nbsp; J = NO</p>
","j","html-keyboard-response","9","2.1.0","69629","F=YES, J=NO","hqny8erlla","1","70","70","70","","","","","","lextale","false","false","","","","","","","",""
"694","
  <p style=""font-size: 40px;"">envy</p>
  <p style=""font-size: 16px;"">F = YES &nbsp;&nbsp;&nbsp; J = NO</p>
","f","html-keyboard-response","10","2.1.0","70325","F=YES, J=NO","hqny8erlla","1","70","70","70","","","","","","lextale","true","false","","","","","","","",""
"3925","
  <p style=""font-size: 40px;"">brang</p>
  <p style=""font-size: 16px;"">F = YES &nbsp;&nbsp;&nbsp; J = NO</p>
","j","html-keyboard-response","11","2.1.0","74252","F=YES, J=NO","hqny8erlla","1","70","70","70","","","","","","lextale","false","false","","","","","","","",""
"661","
  <p style=""font-size: 40px;"">huge</p>
  <p style=""font-size: 16px;"">F = YES &nbsp;&nbsp;&nbsp; J = NO</p>
","f","html-keyboard-response","12","2.1.0","74916","F=YES, J=NO","hqny8erlla","1","70","70","70","","","","","","lextale","true","false","","","","","","","",""
"1125","
  <p style=""font-size: 40px;"">plove</p>
  <p style=""font-size: 16px;"">F = YES &nbsp;&nbsp;&nbsp; J = NO</p>
","j","html-keyboard-response","13","2.1.0","76044","F=YES, J=NO","hqny8erlla","1","70","70","70","","","","","","lextale","false","false","","","","","","","",""
"574","
  <p style=""font-size: 40px;"">border</p>
  <p style=""font-size: 16px;"">F = YES &nbsp;&nbsp;&nbsp; J = NO</p>
","f","html-keyboard-response","14","2.1.0","76620","F=YES, J=NO","hqny8erlla","1","70","70","70","","","","","","lextale","true","false","","","","","","","",""
"1183","
  <p style=""font-size: 40px;"">flimsy</p>
  <p style=""font-size: 16px;"">F = YES &nbsp;&nbsp;&nbsp; J = NO</p>
","j","html-keyboard-response","15","2.1.0","77805","F=YES, J=NO","hqny8erlla","1","70","70","70","","","","","","lextale","true","false","","","","","","","",""
"575","
  <p style=""font-size: 40px;"">drain</p>
  <p style=""font-size: 16px;"">F = YES &nbsp;&nbsp;&nbsp; J = NO</p>
","f","html-keyboard-response","16","2.1.0","78380","F=YES, J=NO","hqny8erlla","1","70","70","70","","","","","","lextale","true","false","","","","","","","",""
"896","
  <p style=""font-size: 40px;"">twindle</p>
  <p style=""font-size: 16px;"">F = YES &nbsp;&nbsp;&nbsp; J = NO</p>
","f","html-keyboard-response","17","2.1.0","79277","F=YES, J=NO","hqny8erlla","1","70","70","70","","","","","","lextale","false","false","","","","","","","",""
"623","
  <p style=""font-size: 40px;"">propose</p>
  <p style=""font-size: 16px;"">F = YES &nbsp;&nbsp;&nbsp; J = NO</p>
","f","html-keyboard-response","18","2.1.0","79901","F=YES, J=NO","hqny8erlla","1","70","70","70","","","","","","lextale","true","false","","","","","","","",""
"1759","
  <p style=""font-size: 40px;"">forlay</p>
  <p style=""font-size: 16px;"">F = YES &nbsp;&nbsp;&nbsp; J = NO</p>
","j","html-keyboard-response","19","2.1.0","81661","F=YES, J=NO","hqny8erlla","1","70","70","70","","","","","","lextale","false","false","","","","","","","",""
"1727","
  <p style=""font-size: 40px;"">tenant</p>
  <p style=""font-size: 16px;"">F = YES &nbsp;&nbsp;&nbsp; J = NO</p>
","j","html-keyboard-response","20","2.1.0","83389","F=YES, J=NO","hqny8erlla","1","70","70","70","","","","","","lextale","true","false","","","","","","","",""
"592","
  <p style=""font-size: 40px;"">strain</p>
  <p style=""font-size: 16px;"">F = YES &nbsp;&nbsp;&nbsp; J = NO</p>
","f","html-keyboard-response","21","2.1.0","83981","F=YES, J=NO","hqny8erlla","1","70","70","70","","","","","","lextale","true","false","","","","","","","",""
"2608","
  <p style=""font-size: 40px;"">holster</p>
  <p style=""font-size: 16px;"">F = YES &nbsp;&nbsp;&nbsp; J = NO</p>
","j","html-keyboard-response","22","2.1.0","86589","F=YES, J=NO","hqny8erlla","1","70","70","70","","","","","","lextale","true","false","","","","","","","",""
"1343","
  <p style=""font-size: 40px;"">hinder</p>
  <p style=""font-size: 16px;"">F = YES &nbsp;&nbsp;&nbsp; J = NO</p>
","j","html-keyboard-response","23","2.1.0","87933","F=YES, J=NO","hqny8erlla","1","70","70","70","","","","","","lextale","true","false","","","","","","","",""
"736","
  <p style=""font-size: 40px;"">swindle</p>
  <p style=""font-size: 16px;"">F = YES &nbsp;&nbsp;&nbsp; J = NO</p>
","f","html-keyboard-response","24","2.1.0","88669","F=YES, J=NO","hqny8erlla","1","70","70","70","","","","","","lextale","true","false","","","","","","","",""
"3703","
  <p style=""font-size: 40px;"">nuder</p>
  <p style=""font-size: 16px;"">F = YES &nbsp;&nbsp;&nbsp; J = NO</p>
","j","html-keyboard-response","25","2.1.0","92373","F=YES, J=NO","hqny8erlla","1","70","70","70","","","","","","lextale","false","false","","","","","","","",""
"616","
  <p style=""font-size: 40px;"">pillow</p>
  <p style=""font-size: 16px;"">F = YES &nbsp;&nbsp;&nbsp; J = NO</p>
","f","html-keyboard-response","26","2.1.0","92989","F=YES, J=NO","hqny8erlla","1","70","70","70","","","","","","lextale","true","false","","","","","","","",""
"1471","
  <p style=""font-size: 40px;"">shumble</p>
  <p style=""font-size: 16px;"">F = YES &nbsp;&nbsp;&nbsp; J = NO</p>
","f","html-keyboard-response","27","2.1.0","94461","F=YES, J=NO","hqny8erlla","1","70","70","70","","","","","","lextale","false","false","","","","","","","",""
"799","
  <p style=""font-size: 40px;"">thirst</p>
  <p style=""font-size: 16px;"">F = YES &nbsp;&nbsp;&nbsp; J = NO</p>
","f","html-keyboard-response","28","2.1.0","95261","F=YES, J=NO","hqny8erlla","1","70","70","70","","","","","","lextale","true","false","","","","","","","",""
"3183","
  <p style=""font-size: 40px;"">unsail</p>
  <p style=""font-size: 16px;"">F = YES &nbsp;&nbsp;&nbsp; J = NO</p>
","j","html-keyboard-response","29","2.1.0","98444","F=YES, J=NO","hqny8erlla","1","70","70","70","","","","","","lextale","false","false","","","","","","","",""
"1000","
  <p style=""font-size: 40px;"">rifle</p>
  <p style=""font-size: 16px;"">F = YES &nbsp;&nbsp;&nbsp; J = NO</p>
","f","html-keyboard-response","30","2.1.0","99444","F=YES, J=NO","hqny8erlla","1","70","70","70","","","","","","lextale","true","false","","","","","","","",""
"1199","
  <p style=""font-size: 40px;"">mush</p>
  <p style=""font-size: 16px;"">F = YES &nbsp;&nbsp;&nbsp; J = NO</p>
","f","html-keyboard-response","31","2.1.0","100644","F=YES, J=NO","hqny8erlla","1","70","70","70","","","","","","lextale","false","false","","","","","","","",""
"1079","
  <p style=""font-size: 40px;"">drench</p>
  <p style=""font-size: 16px;"">F = YES &nbsp;&nbsp;&nbsp; J = NO</p>
","f","html-keyboard-response","32","2.1.0","101724","F=YES, J=NO","hqny8erlla","1","70","70","70","","","","","","lextale","true","false","","","","","","","",""
"768","
  <p style=""font-size: 40px;"">snirt</p>
  <p style=""font-size: 16px;"">F = YES &nbsp;&nbsp;&nbsp; J = NO</p>
","j","html-keyboard-response","33","2.1.0","102493","F=YES, J=NO","hqny8erlla","1","70","70","70","","","","","","lextale","false","false","","","","","","","",""
"767","
  <p style=""font-size: 40px;"">bitter</p>
  <p style=""font-size: 16px;"">F = YES &nbsp;&nbsp;&nbsp; J = NO</p>
","f","html-keyboard-response","34","2.1.0","103260","F=YES, J=NO","hqny8erlla","1","70","70","70","","","","","","lextale","true","false","","","","","","","",""
"2703","
  <p style=""font-size: 40px;"">pliff</p>
  <p style=""font-size: 16px;"">F = YES &nbsp;&nbsp;&nbsp; J = NO</p>
","j","html-keyboard-response","35","2.1.0","105964","F=YES, J=NO","hqny8erlla","1","70","70","70","","","","","","lextale","false","false","","","","","","","",""
"615","
  <p style=""font-size: 40px;"">tablet</p>
  <p style=""font-size: 16px;"">F = YES &nbsp;&nbsp;&nbsp; J = NO</p>
","f","html-keyboard-response","36","2.1.0","106580","F=YES, J=NO","hqny8erlla","1","70","70","70","","","","","","lextale","true","false","","","","","","","",""
"1664","
  <p style=""font-size: 40px;"">glimmer</p>
  <p style=""font-size: 16px;"">F = YES &nbsp;&nbsp;&nbsp; J = NO</p>
","f","html-keyboard-response","37","2.1.0","108244","F=YES, J=NO","hqny8erlla","1","70","70","70","","","","","","lextale","true","false","","","","","","","",""
"735","
  <p style=""font-size: 40px;"">slink</p>
  <p style=""font-size: 16px;"">F = YES &nbsp;&nbsp;&nbsp; J = NO</p>
","f","html-keyboard-response","38","2.1.0","108980","F=YES, J=NO","hqny8erlla","1","70","70","70","","","","","","lextale","true","false","","","","","","","",""
"911","
  <p style=""font-size: 40px;"">clever</p>
  <p style=""font-size: 16px;"">F = YES &nbsp;&nbsp;&nbsp; J = NO</p>
","f","html-keyboard-response","39","2.1.0","109892","F=YES, J=NO","hqny8erlla","1","70","70","70","","","","","","lextale","true","false","","","","","","","",""
"927","
  <p style=""font-size: 40px;"">grum</p>
  <p style=""font-size: 16px;"">F = YES &nbsp;&nbsp;&nbsp; J = NO</p>
","j","html-keyboard-response","40","2.1.0","110820","F=YES, J=NO","hqny8erlla","1","70","70","70","","","","","","lextale","false","false","","","","","","","",""
"3784","
  <p style=""font-size: 40px;"">string</p>
  <p style=""font-size: 16px;"">F = YES &nbsp;&nbsp;&nbsp; J = NO</p>
","f","html-keyboard-response","41","2.1.0","114605","F=YES, J=NO","hqny8erlla","1","70","70","70","","","","","","lextale","true","false","","","","","","","",""
"767","
  <p style=""font-size: 40px;"">plim</p>
  <p style=""font-size: 16px;"">F = YES &nbsp;&nbsp;&nbsp; J = NO</p>
","j","html-keyboard-response","42","2.1.0","115372","F=YES, J=NO","hqny8erlla","1","70","70","70","","","","","","lextale","false","false","","","","","","","",""
"591","
  <p style=""font-size: 40px;"">cable</p>
  <p style=""font-size: 16px;"">F = YES &nbsp;&nbsp;&nbsp; J = NO</p>
","f","html-keyboard-response","43","2.1.0","115964","F=YES, J=NO","hqny8erlla","1","70","70","70","","","","","","lextale","true","false","","","","","","","",""
"743","
  <p style=""font-size: 40px;"">shrivel</p>
  <p style=""font-size: 16px;"">F = YES &nbsp;&nbsp;&nbsp; J = NO</p>
","j","html-keyboard-response","44","2.1.0","116708","F=YES, J=NO","hqny8erlla","1","70","70","70","","","","","","lextale","true","false","","","","","","","",""
"1799","
  <p style=""font-size: 40px;"">tarnish</p>
  <p style=""font-size: 16px;"">F = YES &nbsp;&nbsp;&nbsp; J = NO</p>
","f","html-keyboard-response","45","2.1.0","118508","F=YES, J=NO","hqny8erlla","1","70","70","70","","","","","","lextale","true","false","","","","","","","",""
"647","
  <p style=""font-size: 40px;"">blim</p>
  <p style=""font-size: 16px;"">F = YES &nbsp;&nbsp;&nbsp; J = NO</p>
","j","html-keyboard-response","46","2.1.0","119156","F=YES, J=NO","hqny8erlla","1","70","70","70","","","","","","lextale","false","false","","","","","","","",""
"1071","
  <p style=""font-size: 40px;"">stifle</p>
  <p style=""font-size: 16px;"">F = YES &nbsp;&nbsp;&nbsp; J = NO</p>
","f","html-keyboard-response","47","2.1.0","120228","F=YES, J=NO","hqny8erlla","1","70","70","70","","","","","","lextale","true","false","","","","","","","",""
"728","
  <p style=""font-size: 40px;"">bint</p>
  <p style=""font-size: 16px;"">F = YES &nbsp;&nbsp;&nbsp; J = NO</p>
","j","html-keyboard-response","48","2.1.0","120956","F=YES, J=NO","hqny8erlla","1","70","70","70","","","","","","lextale","false","false","","","","","","","",""
"623","
  <p style=""font-size: 40px;"">purple</p>
  <p style=""font-size: 16px;"">F = YES &nbsp;&nbsp;&nbsp; J = NO</p>
","f","html-keyboard-response","49","2.1.0","121581","F=YES, J=NO","hqny8erlla","1","70","70","70","","","","","","lextale","true","false","","","","","","","",""
"879","
  <p style=""font-size: 40px;"">wriggle</p>
  <p style=""font-size: 16px;"">F = YES &nbsp;&nbsp;&nbsp; J = NO</p>
","f","html-keyboard-response","50","2.1.0","122460","F=YES, J=NO","hqny8erlla","1","70","70","70","","","","","","lextale","true","false","","","","","","","",""
"1135","
  <p style=""font-size: 40px;"">mangle</p>
  <p style=""font-size: 16px;"">F = YES &nbsp;&nbsp;&nbsp; J = NO</p>
","j","html-keyboard-response","51","2.1.0","123596","F=YES, J=NO","hqny8erlla","1","70","70","70","","","","","","lextale","true","false","","","","","","","",""
"599","
  <p style=""font-size: 40px;"">shramp</p>
  <p style=""font-size: 16px;"">F = YES &nbsp;&nbsp;&nbsp; J = NO</p>
","f","html-keyboard-response","52","2.1.0","124196","F=YES, J=NO","hqny8erlla","1","70","70","70","","","","","","lextale","false","false","","","","","","","",""
"800","
  <p style=""font-size: 40px;"">flirt</p>
  <p style=""font-size: 16px;"">F = YES &nbsp;&nbsp;&nbsp; J = NO</p>
","f","html-keyboard-response","53","2.1.0","124996","F=YES, J=NO","hqny8erlla","1","70","70","70","","","","","","lextale","true","false","","","","","","","",""
"808","
  <p style=""font-size: 40px;"">frip</p>
  <p style=""font-size: 16px;"">F = YES &nbsp;&nbsp;&nbsp; J = NO</p>
","j","html-keyboard-response","54","2.1.0","125804","F=YES, J=NO","hqny8erlla","1","70","70","70","","","","","","lextale","false","false","","","","","","","",""
"575","
  <p style=""font-size: 40px;"">tangle</p>
  <p style=""font-size: 16px;"">F = YES &nbsp;&nbsp;&nbsp; J = NO</p>
","f","html-keyboard-response","55","2.1.0","126380","F=YES, J=NO","hqny8erlla","1","70","70","70","","","","","","lextale","true","false","","","","","","","",""
"1311","
  <p style=""font-size: 40px;"">crumble</p>
  <p style=""font-size: 16px;"">F = YES &nbsp;&nbsp;&nbsp; J = NO</p>
","f","html-keyboard-response","56","2.1.0","127692","F=YES, J=NO","hqny8erlla","1","70","70","70","","","","","","lextale","true","false","","","","","","","",""
"711","
  <p style=""font-size: 40px;"">wrinkle</p>
  <p style=""font-size: 16px;"">F = YES &nbsp;&nbsp;&nbsp; J = NO</p>
","f","html-keyboard-response","57","2.1.0","128404","F=YES, J=NO","hqny8erlla","1","70","70","70","","","","","","lextale","true","false","","","","","","","",""
"2023","
  <p style=""font-size: 40px;"">slumb</p>
  <p style=""font-size: 16px;"">F = YES &nbsp;&nbsp;&nbsp; J = NO</p>
","f","html-keyboard-response","58","2.1.0","130428","F=YES, J=NO","hqny8erlla","1","70","70","70","","","","","","lextale","false","false","","","","","","","",""
"568","
  <p style=""font-size: 40px;"">jungle</p>
  <p style=""font-size: 16px;"">F = YES &nbsp;&nbsp;&nbsp; J = NO</p>
","f","html-keyboard-response","59","2.1.0","130997","F=YES, J=NO","hqny8erlla","1","70","70","70","","","","","","lextale","true","false","","","","","","","",""
"799","
  <p style=""font-size: 40px;"">frolick</p>
  <p style=""font-size: 16px;"">F = YES &nbsp;&nbsp;&nbsp; J = NO</p>
","j","html-keyboard-response","60","2.1.0","131796","F=YES, J=NO","hqny8erlla","1","70","70","70","","","","","","lextale","false","false","","","","","","","",""
"2382","
      <h2>LexTALE Test Completed</h2>
      <p>Your LexTALE vocabulary score is: <strong>70%</strong></p>
      <p>Press any key to continue.</p>
    "," ","html-keyboard-response","61","2.1.0","134180","F=YES, J=NO","hqny8erlla","1","70","70","70","","","","","","","","","","","","","","","",""
"4871","
    <div style=""max-width: 800px; margin: auto; text-align: left;"">
      <h2>Break Time</h2>
      <p>You have completed the first part of the study.</p>
      <p>You may take a short <strong>30-second break</strong> before continuing.</p>
      <p>When you’re ready, press any key to continue to the final task.</p>
    </div>
  "," ","html-keyboard-response","62","2.1.0","139052","F=YES, J=NO","hqny8erlla","1","70","70","70","","","","","","","","","","","","","","","",""
"29458","
    <div style=""max-width: 800px; margin: auto; text-align: left;"">
      <h2>Part 2: Lexical Decision Task</h2>
      <p>You will now begin the second part of the study.</p>
      <p>Each trial will follow this sequence:</p>
      <ul>
        <li>A fixation cross (+) appears at the center of the screen.</li>
        <li>You will hear a short beep followed by a spoken word.</li>
        <li>A written word will appear briefly on the screen.</li>
      </ul>
      <p>Your task is to judge whether the <strong>written word</strong> is a real English word.</p>
      <p style=""margin-top: 1em;""><strong>Key responses:</strong></p>
      <ul>
        <li><strong>F</strong> = YES (real English word)</li>
        <li><strong>J</strong> = NO (not a real English word)</li>
      </ul>
      <p>Please respond as quickly and accurately as you can.</p>
      <p style=""margin-top: 2em;"">Press any key to continue.</p>
    </div>
  "," ","html-keyboard-response","63","2.1.0","168511","F=YES, J=NO","hqny8erlla","1","70","70","70","","","","","","","","","","","","","","","",""
"13646","
    <div style=""max-width: 800px; margin: auto; text-align: left;"">
      <h2>Before You Begin</h2>
      <p>Make sure your sound is turned on.</p>
      <p>You will hear audio during each trial, but your decision should be based only on the <strong>written word</strong> you see on the screen.</p>
      <p><strong>Reminder:</strong></p>
      <ul>
        <li><strong>F</strong> = YES (real English word)</li>
        <li><strong>J</strong> = NO (not a real English word)</li>
      </ul>
      <p style=""margin-top: 2em;"">Press any key when you are ready to begin.</p>
    </div>
  "," ","html-keyboard-response","64","2.1.0","182159","F=YES, J=NO","hqny8erlla","1","70","70","70","","","","","","","","","","","","","","","",""
"5405","
    <div style=""max-width: 800px; margin: auto; text-align: left;"">
      <h2>Part 2: Practice Trials</h2>
      <p>You will now complete a few <strong>practice trials</strong> to get familiar with the task.</p>
      <p>These trials are <strong>not scored</strong> and are only to help you get used to the format.</p>
      <p style=""margin-top: 2em;"">Press any key to begin.</p>
    </div>
  "," ","html-keyboard-response","65","2.1.0","187566","F=YES, J=NO","hqny8erlla","1","70","70","70","","","","","","","","","","","","","","","",""
"1791","<p>Starting practice block 1 of 2. Press any key to continue.</p>"," ","html-keyboard-response","66","2.1.0","189358","F=YES, J=NO","hqny8erlla","1","70","70","70","","","","","","","","","","","","","","","",""
"null","<p style=""font-size: 50px;"">+</p>","null","html-keyboard-response","67","2.1.0","189661","F=YES, J=NO","hqny8erlla","1","70","70","70","","","","","","","","","","","","","","","",""
"null","audio/beep-329314.mp3","null","audio-keyboard-response","68","2.1.0","192108","F=YES, J=NO","hqny8erlla","1","70","70","70","","","","","","","","","","","","","","","",""
"null","audio/emotion.wav","null","audio-keyboard-response","69","2.1.0","192877","F=YES, J=NO","hqny8erlla","1","70","70","70","","","","","","","","","","","","","","","",""
"null","
          <p id=""word"" style=""font-size: 40px;"">devering</p>
          <p style=""font-size: 16px;"">F = YES &nbsp;&nbsp;&nbsp; J = NO</p>
        ","null","html-keyboard-response","70","2.1.0","194390","F=YES, J=NO","hqny8erlla","1","70","70","70","","","","","","","","","devering","emotion","pseudoword","pseudoword","j","false","",""
"null","<p style=""font-size: 50px;"">+</p>","null","html-keyboard-response","71","2.1.0","194705","F=YES, J=NO","hqny8erlla","1","70","70","70","","","","","","","","","","","","","","","",""
"null","audio/beep-329314.mp3","null","audio-keyboard-response","72","2.1.0","196246","F=YES, J=NO","hqny8erlla","1","70","70","70","","","","","","","","","","","","","","","",""
"null","audio/pine.wav","null","audio-keyboard-response","73","2.1.0","196956","F=YES, J=NO","hqny8erlla","1","70","70","70","","","","","","","","","","","","","","","",""
"1224","
          <p id=""word"" style=""font-size: 40px;"">crebble</p>
          <p style=""font-size: 16px;"">F = YES &nbsp;&nbsp;&nbsp; J = NO</p>
        ","j","html-keyboard-response","74","2.1.0","198182","F=YES, J=NO","hqny8erlla","1","70","70","70","","","","","","","","","crebble","pine","pseudoword","pseudoword","j","true","",""
"null","<p style=""font-size: 50px;"">+</p>","null","html-keyboard-response","75","2.1.0","198490","F=YES, J=NO","hqny8erlla","1","70","70","70","","","","","","","","","","","","","","","",""
"null","audio/beep-329314.mp3","null","audio-keyboard-response","76","2.1.0","200027","F=YES, J=NO","hqny8erlla","1","70","70","70","","","","","","","","","","","","","","","",""
"null","audio/alarm1.wav","null","audio-keyboard-response","77","2.1.0","200816","F=YES, J=NO","hqny8erlla","1","70","70","70","","","","","","","","","","","","","","","",""
"819","
          <p id=""word"" style=""font-size: 40px;"">swetp</p>
          <p style=""font-size: 16px;"">F = YES &nbsp;&nbsp;&nbsp; J = NO</p>
        ","j","html-keyboard-response","78","2.1.0","201637","F=YES, J=NO","hqny8erlla","1","70","70","70","","","","","","","","","swetp","alarm1","pseudoword","pseudoword","j","true","",""
"null","<p style=""font-size: 50px;"">+</p>","null","html-keyboard-response","79","2.1.0","201938","F=YES, J=NO","hqny8erlla","1","70","70","70","","","","","","","","","","","","","","","",""
"null","audio/beep-329314.mp3","null","audio-keyboard-response","80","2.1.0","203467","F=YES, J=NO","hqny8erlla","1","70","70","70","","","","","","","","","","","","","","","",""
"null","audio/theory1.wav","null","audio-keyboard-response","81","2.1.0","204297","F=YES, J=NO","hqny8erlla","1","70","70","70","","","","","","","","","","","","","","","",""
"883","
          <p id=""word"" style=""font-size: 40px;"">scolve</p>
          <p style=""font-size: 16px;"">F = YES &nbsp;&nbsp;&nbsp; J = NO</p>
        ","j","html-keyboard-response","82","2.1.0","205181","F=YES, J=NO","hqny8erlla","1","70","70","70","","","","","","","","","scolve","theory1","pseudoword","pseudoword","j","true","",""
"null","<p style=""font-size: 50px;"">+</p>","null","html-keyboard-response","83","2.1.0","205483","F=YES, J=NO","hqny8erlla","1","70","70","70","","","","","","","","","","","","","","","",""
"null","audio/beep-329314.mp3","null","audio-keyboard-response","84","2.1.0","207007","F=YES, J=NO","hqny8erlla","1","70","70","70","","","","","","","","","","","","","","","",""
"null","audio/belief.wav","null","audio-keyboard-response","85","2.1.0","207736","F=YES, J=NO","hqny8erlla","1","70","70","70","","","","","","","","","","","","","","","",""
"643","
          <p id=""word"" style=""font-size: 40px;"">read</p>
          <p style=""font-size: 16px;"">F = YES &nbsp;&nbsp;&nbsp; J = NO</p>
        ","f","html-keyboard-response","86","2.1.0","208381","F=YES, J=NO","hqny8erlla","1","70","70","70","","","","","","","","","read","belief","filler","filler","f","true","",""
"null","<p style=""font-size: 50px;"">+</p>","null","html-keyboard-response","87","2.1.0","208697","F=YES, J=NO","hqny8erlla","1","70","70","70","","","","","","","","","","","","","","","",""
"null","audio/beep-329314.mp3","null","audio-keyboard-response","88","2.1.0","210227","F=YES, J=NO","hqny8erlla","1","70","70","70","","","","","","","","","","","","","","","",""
"null","audio/key1.wav","null","audio-keyboard-response","89","2.1.0","211077","F=YES, J=NO","hqny8erlla","1","70","70","70","","","","","","","","","","","","","","","",""
"751","
          <p id=""word"" style=""font-size: 40px;"">sminsh</p>
          <p style=""font-size: 16px;"">F = YES &nbsp;&nbsp;&nbsp; J = NO</p>
        ","j","html-keyboard-response","90","2.1.0","211830","F=YES, J=NO","hqny8erlla","1","70","70","70","","","","","","","","","sminsh","key1","pseudoword","pseudoword","j","true","",""
"null","<p style=""font-size: 50px;"">+</p>","null","html-keyboard-response","91","2.1.0","212142","F=YES, J=NO","hqny8erlla","1","70","70","70","","","","","","","","","","","","","","","",""
"null","audio/beep-329314.mp3","null","audio-keyboard-response","92","2.1.0","213667","F=YES, J=NO","hqny8erlla","1","70","70","70","","","","","","","","","","","","","","","",""
"null","audio/account1.wav","null","audio-keyboard-response","93","2.1.0","214537","F=YES, J=NO","hqny8erlla","1","70","70","70","","","","","","","","","","","","","","","",""
"572","
          <p id=""word"" style=""font-size: 40px;"">paint</p>
          <p style=""font-size: 16px;"">F = YES &nbsp;&nbsp;&nbsp; J = NO</p>
        ","f","html-keyboard-response","94","2.1.0","215110","F=YES, J=NO","hqny8erlla","1","70","70","70","","","","","","","","","paint","account1","filler","filler","f","true","",""
"null","<p style=""font-size: 50px;"">+</p>","null","html-keyboard-response","95","2.1.0","215421","F=YES, J=NO","hqny8erlla","1","70","70","70","","","","","","","","","","","","","","","",""
"null","audio/beep-329314.mp3","null","audio-keyboard-response","96","2.1.0","216947","F=YES, J=NO","hqny8erlla","1","70","70","70","","","","","","","","","","","","","","","",""
"null","audio/survey1.wav","null","audio-keyboard-response","97","2.1.0","217897","F=YES, J=NO","hqny8erlla","1","70","70","70","","","","","","","","","","","","","","","",""
"652","
          <p id=""word"" style=""font-size: 40px;"">imploth</p>
          <p style=""font-size: 16px;"">F = YES &nbsp;&nbsp;&nbsp; J = NO</p>
        ","j","html-keyboard-response","98","2.1.0","218551","F=YES, J=NO","hqny8erlla","1","70","70","70","","","","","","","","","imploth","survey1","pseudoword","pseudoword","j","true","",""
"null","<p style=""font-size: 50px;"">+</p>","null","html-keyboard-response","99","2.1.0","218853","F=YES, J=NO","hqny8erlla","1","70","70","70","","","","","","","","","","","","","","","",""
"null","audio/beep-329314.mp3","null","audio-keyboard-response","100","2.1.0","220386","F=YES, J=NO","hqny8erlla","1","70","70","70","","","","","","","","","","","","","","","",""
"null","audio/pain1.wav","null","audio-keyboard-response","101","2.1.0","221057","F=YES, J=NO","hqny8erlla","1","70","70","70","","","","","","","","","","","","","","","",""
"1124","
          <p id=""word"" style=""font-size: 40px;"">tritted</p>
          <p style=""font-size: 16px;"">F = YES &nbsp;&nbsp;&nbsp; J = NO</p>
        ","j","html-keyboard-response","102","2.1.0","222183","F=YES, J=NO","hqny8erlla","1","70","70","70","","","","","","","","","tritted","pain1","pseudoword","pseudoword","j","true","",""
"null","<p style=""font-size: 50px;"">+</p>","null","html-keyboard-response","103","2.1.0","222492","F=YES, J=NO","hqny8erlla","1","70","70","70","","","","","","","","","","","","","","","",""
"null","audio/beep-329314.mp3","null","audio-keyboard-response","104","2.1.0","224027","F=YES, J=NO","hqny8erlla","1","70","70","70","","","","","","","","","","","","","","","",""
"null","audio/brain.wav","null","audio-keyboard-response","105","2.1.0","224697","F=YES, J=NO","hqny8erlla","1","70","70","70","","","","","","","","","","","","","","","",""
"683","
          <p id=""word"" style=""font-size: 40px;"">throw</p>
          <p style=""font-size: 16px;"">F = YES &nbsp;&nbsp;&nbsp; J = NO</p>
        ","f","html-keyboard-response","106","2.1.0","225383","F=YES, J=NO","hqny8erlla","1","70","70","70","","","","","","","","","throw","brain","filler","filler","f","true","",""
"null","<p style=""font-size: 50px;"">+</p>","null","html-keyboard-response","107","2.1.0","225688","F=YES, J=NO","hqny8erlla","1","70","70","70","","","","","","","","","","","","","","","",""
"null","audio/beep-329314.mp3","null","audio-keyboard-response","108","2.1.0","227227","F=YES, J=NO","hqny8erlla","1","70","70","70","","","","","","","","","","","","","","","",""
"null","audio/floor.wav","null","audio-keyboard-response","109","2.1.0","227897","F=YES, J=NO","hqny8erlla","1","70","70","70","","","","","","","","","","","","","","","",""
"null","
          <p id=""word"" style=""font-size: 40px;"">mop</p>
          <p style=""font-size: 16px;"">F = YES &nbsp;&nbsp;&nbsp; J = NO</p>
        ","null","html-keyboard-response","110","2.1.0","229406","F=YES, J=NO","hqny8erlla","1","70","70","70","","","","","","","","","mop","floor","filler","filler","f","false","",""
"null","<p style=""font-size: 50px;"">+</p>","null","html-keyboard-response","111","2.1.0","229720","F=YES, J=NO","hqny8erlla","1","70","70","70","","","","","","","","","","","","","","","",""
"null","audio/beep-329314.mp3","null","audio-keyboard-response","112","2.1.0","231246","F=YES, J=NO","hqny8erlla","1","70","70","70","","","","","","","","","","","","","","","",""
"null","audio/mind.wav","null","audio-keyboard-response","113","2.1.0","231877","F=YES, J=NO","hqny8erlla","1","70","70","70","","","","","","","","","","","","","","","",""
"1064","
          <p id=""word"" style=""font-size: 40px;"">crainate</p>
          <p style=""font-size: 16px;"">F = YES &nbsp;&nbsp;&nbsp; J = NO</p>
        ","j","html-keyboard-response","114","2.1.0","232943","F=YES, J=NO","hqny8erlla","1","70","70","70","","","","","","","","","crainate","mind","pseudoword","pseudoword","j","true","",""
"74381","<p>Starting practice block 2 of 2. Press any key to continue.</p>"," ","html-keyboard-response","115","2.1.0","307325","F=YES, J=NO","hqny8erlla","1","70","70","70","","","","","","","","","","","","","","","",""
"null","<p style=""font-size: 50px;"">+</p>","null","html-keyboard-response","116","2.1.0","307627","F=YES, J=NO","hqny8erlla","1","70","70","70","","","","","","","","","","","","","","","",""
"null","audio/beep-329314.mp3","null","audio-keyboard-response","117","2.1.0","309447","F=YES, J=NO","hqny8erlla","1","70","70","70","","","","","","","","","","","","","","","",""
"null","audio/age1.wav","null","audio-keyboard-response","118","2.1.0","310037","F=YES, J=NO","hqny8erlla","1","70","70","70","","","","","","","","","","","","","","","",""
"832","
          <p id=""word"" style=""font-size: 40px;"">bake</p>
          <p style=""font-size: 16px;"">F = YES &nbsp;&nbsp;&nbsp; J = NO</p>
        ","f","html-keyboard-response","119","2.1.0","310870","F=YES, J=NO","hqny8erlla","1","70","70","70","","","","","","","","","bake","age1","filler","filler","f","true","",""
"null","<p style=""font-size: 50px;"">+</p>","null","html-keyboard-response","120","2.1.0","311173","F=YES, J=NO","hqny8erlla","1","70","70","70","","","","","","","","","","","","","","","",""
"null","audio/beep-329314.mp3","null","audio-keyboard-response","121","2.1.0","312849","F=YES, J=NO","hqny8erlla","1","70","70","70","","","","","","","","","","","","","","","",""
"null","audio/ankle1.wav","null","audio-keyboard-response","122","2.1.0","313457","F=YES, J=NO","hqny8erlla","1","70","70","70","","","","","","","","","","","","","","","",""
"690","
          <p id=""word"" style=""font-size: 40px;"">kick</p>
          <p style=""font-size: 16px;"">F = YES &nbsp;&nbsp;&nbsp; J = NO</p>
        ","f","html-keyboard-response","123","2.1.0","314149","F=YES, J=NO","hqny8erlla","1","70","70","70","","","","","","","","","kick","ankle1","filler","filler","f","true","",""
"null","<p style=""font-size: 50px;"">+</p>","null","html-keyboard-response","124","2.1.0","314461","F=YES, J=NO","hqny8erlla","1","70","70","70","","","","","","","","","","","","","","","",""
"null","audio/beep-329314.mp3","null","audio-keyboard-response","125","2.1.0","316128","F=YES, J=NO","hqny8erlla","1","70","70","70","","","","","","","","","","","","","","","",""
"null","audio/baby.wav","null","audio-keyboard-response","126","2.1.0","316678","F=YES, J=NO","hqny8erlla","1","70","70","70","","","","","","","","","","","","","","","",""
"735","
          <p id=""word"" style=""font-size: 40px;"">lift</p>
          <p style=""font-size: 16px;"">F = YES &nbsp;&nbsp;&nbsp; J = NO</p>
        ","f","html-keyboard-response","127","2.1.0","317415","F=YES, J=NO","hqny8erlla","1","70","70","70","","","","","","","","","lift","baby","filler","filler","f","true","",""
"null","<p style=""font-size: 50px;"">+</p>","null","html-keyboard-response","128","2.1.0","317722","F=YES, J=NO","hqny8erlla","1","70","70","70","","","","","","","","","","","","","","","",""
"null","audio/beep-329314.mp3","null","audio-keyboard-response","129","2.1.0","319388","F=YES, J=NO","hqny8erlla","1","70","70","70","","","","","","","","","","","","","","","",""
"null","audio/birth1.wav","null","audio-keyboard-response","130","2.1.0","320118","F=YES, J=NO","hqny8erlla","1","70","70","70","","","","","","","","","","","","","","","",""
"847","
          <p id=""word"" style=""font-size: 40px;"">peel</p>
          <p style=""font-size: 16px;"">F = YES &nbsp;&nbsp;&nbsp; J = NO</p>
        ","f","html-keyboard-response","131","2.1.0","320968","F=YES, J=NO","hqny8erlla","1","70","70","70","","","","","","","","","peel","birth1","filler","filler","f","true","",""
"null","<p style=""font-size: 50px;"">+</p>","null","html-keyboard-response","132","2.1.0","321278","F=YES, J=NO","hqny8erlla","1","70","70","70","","","","","","","","","","","","","","","",""
"null","audio/beep-329314.mp3","null","audio-keyboard-response","133","2.1.0","322948","F=YES, J=NO","hqny8erlla","1","70","70","70","","","","","","","","","","","","","","","",""
"null","audio/window1.wav","null","audio-keyboard-response","134","2.1.0","323598","F=YES, J=NO","hqny8erlla","1","70","70","70","","","","","","","","","","","","","","","",""
"790","
          <p id=""word"" style=""font-size: 40px;"">toss</p>
          <p style=""font-size: 16px;"">F = YES &nbsp;&nbsp;&nbsp; J = NO</p>
        ","f","html-keyboard-response","135","2.1.0","324390","F=YES, J=NO","hqny8erlla","1","70","70","70","","","","","","","","","toss","window1","filler","filler","f","true","",""
"null","<p style=""font-size: 50px;"">+</p>","null","html-keyboard-response","136","2.1.0","324701","F=YES, J=NO","hqny8erlla","1","70","70","70","","","","","","","","","","","","","","","",""
"null","audio/beep-329314.mp3","null","audio-keyboard-response","137","2.1.0","326367","F=YES, J=NO","hqny8erlla","1","70","70","70","","","","","","","","","","","","","","","",""
"null","audio/noise1.wav","null","audio-keyboard-response","138","2.1.0","327137","F=YES, J=NO","hqny8erlla","1","70","70","70","","","","","","","","","","","","","","","",""
"1037","
          <p id=""word"" style=""font-size: 40px;"">slintered</p>
          <p style=""font-size: 16px;"">F = YES &nbsp;&nbsp;&nbsp; J = NO</p>
        ","j","html-keyboard-response","139","2.1.0","328175","F=YES, J=NO","hqny8erlla","1","70","70","70","","","","","","","","","slintered","noise1","pseudoword","pseudoword","j","true","",""
"null","<p style=""font-size: 50px;"">+</p>","null","html-keyboard-response","140","2.1.0","328483","F=YES, J=NO","hqny8erlla","1","70","70","70","","","","","","","","","","","","","","","",""
"null","audio/beep-329314.mp3","null","audio-keyboard-response","141","2.1.0","330148","F=YES, J=NO","hqny8erlla","1","70","70","70","","","","","","","","","","","","","","","",""
"null","audio/bishop1.wav","null","audio-keyboard-response","142","2.1.0","330837","F=YES, J=NO","hqny8erlla","1","70","70","70","","","","","","","","","","","","","","","",""
"615","
          <p id=""word"" style=""font-size: 40px;"">play</p>
          <p style=""font-size: 16px;"">F = YES &nbsp;&nbsp;&nbsp; J = NO</p>
        ","f","html-keyboard-response","143","2.1.0","331454","F=YES, J=NO","hqny8erlla","1","70","70","70","","","","","","","","","play","bishop1","filler","filler","f","true","",""
"null","<p style=""font-size: 50px;"">+</p>","null","html-keyboard-response","144","2.1.0","331757","F=YES, J=NO","hqny8erlla","1","70","70","70","","","","","","","","","","","","","","","",""
"null","audio/beep-329314.mp3","null","audio-keyboard-response","145","2.1.0","333428","F=YES, J=NO","hqny8erlla","1","70","70","70","","","","","","","","","","","","","","","",""
"null","audio/foot1.wav","null","audio-keyboard-response","146","2.1.0","334197","F=YES, J=NO","hqny8erlla","1","70","70","70","","","","","","","","","","","","","","","",""
"936","
          <p id=""word"" style=""font-size: 40px;"">thrutt</p>
          <p style=""font-size: 16px;"">F = YES &nbsp;&nbsp;&nbsp; J = NO</p>
        ","j","html-keyboard-response","147","2.1.0","335134","F=YES, J=NO","hqny8erlla","1","70","70","70","","","","","","","","","thrutt","foot1","pseudoword","pseudoword","j","true","",""
"null","<p style=""font-size: 50px;"">+</p>","null","html-keyboard-response","148","2.1.0","335441","F=YES, J=NO","hqny8erlla","1","70","70","70","","","","","","","","","","","","","","","",""
"null","audio/beep-329314.mp3","null","audio-keyboard-response","149","2.1.0","337108","F=YES, J=NO","hqny8erlla","1","70","70","70","","","","","","","","","","","","","","","",""
"null","audio/sand.wav","null","audio-keyboard-response","150","2.1.0","337837","F=YES, J=NO","hqny8erlla","1","70","70","70","","","","","","","","","","","","","","","",""
"1120","
          <p id=""word"" style=""font-size: 40px;"">proted</p>
          <p style=""font-size: 16px;"">F = YES &nbsp;&nbsp;&nbsp; J = NO</p>
        ","j","html-keyboard-response","151","2.1.0","338959","F=YES, J=NO","hqny8erlla","1","70","70","70","","","","","","","","","proted","sand","pseudoword","pseudoword","j","true","",""
"null","<p style=""font-size: 50px;"">+</p>","null","html-keyboard-response","152","2.1.0","339276","F=YES, J=NO","hqny8erlla","1","70","70","70","","","","","","","","","","","","","","","",""
"null","audio/beep-329314.mp3","null","audio-keyboard-response","153","2.1.0","340948","F=YES, J=NO","hqny8erlla","1","70","70","70","","","","","","","","","","","","","","","",""
"null","audio/cancer1.wav","null","audio-keyboard-response","154","2.1.0","341618","F=YES, J=NO","hqny8erlla","1","70","70","70","","","","","","","","","","","","","","","",""
"586","
          <p id=""word"" style=""font-size: 40px;"">draw</p>
          <p style=""font-size: 16px;"">F = YES &nbsp;&nbsp;&nbsp; J = NO</p>
        ","f","html-keyboard-response","155","2.1.0","342207","F=YES, J=NO","hqny8erlla","1","70","70","70","","","","","","","","","draw","cancer1","filler","filler","f","true","",""
"null","<p style=""font-size: 50px;"">+</p>","null","html-keyboard-response","156","2.1.0","342520","F=YES, J=NO","hqny8erlla","1","70","70","70","","","","","","","","","","","","","","","",""
"null","audio/beep-329314.mp3","null","audio-keyboard-response","157","2.1.0","344188","F=YES, J=NO","hqny8erlla","1","70","70","70","","","","","","","","","","","","","","","",""
"null","audio/pattern.wav","null","audio-keyboard-response","158","2.1.0","344918","F=YES, J=NO","hqny8erlla","1","70","70","70","","","","","","","","","","","","","","","",""
"774","
          <p id=""word"" style=""font-size: 40px;"">tug</p>
          <p style=""font-size: 16px;"">F = YES &nbsp;&nbsp;&nbsp; J = NO</p>
        ","j","html-keyboard-response","159","2.1.0","345694","F=YES, J=NO","hqny8erlla","1","70","70","70","","","","","","","","","tug","pattern","filler","filler","f","false","",""
"null","<p style=""font-size: 50px;"">+</p>","null","html-keyboard-response","160","2.1.0","346003","F=YES, J=NO","hqny8erlla","1","70","70","70","","","","","","","","","","","","","","","",""
"null","audio/beep-329314.mp3","null","audio-keyboard-response","161","2.1.0","347667","F=YES, J=NO","hqny8erlla","1","70","70","70","","","","","","","","","","","","","","","",""
"null","audio/flaw.wav","null","audio-keyboard-response","162","2.1.0","348477","F=YES, J=NO","hqny8erlla","1","70","70","70","","","","","","","","","","","","","","","",""
"1278","
          <p id=""word"" style=""font-size: 40px;"">thwool</p>
          <p style=""font-size: 16px;"">F = YES &nbsp;&nbsp;&nbsp; J = NO</p>
        ","f","html-keyboard-response","163","2.1.0","349756","F=YES, J=NO","hqny8erlla","1","70","70","70","","","","","","","","","thwool","flaw","pseudoword","pseudoword","j","false","",""
"55359","
    <div style=""max-width: 800px; margin: auto; text-align: left;"">
      <h2>Part 2: Main Trials</h2>
      <p>Great job on the practice trials!</p>
      <p>You will now begin the <strong>main set of trials</strong>.</p>
      <p>Remember your key assignments:</p>
      <ul>
        <li><strong>F</strong> = YES (real English word)</li>
        <li><strong>J</strong> = NO (not a real English word)</li>
      </ul>
      <p>Try to respond as <strong>quickly and accurately</strong> as possible.</p>
      <p style=""margin-top: 2em;"">Press any key to begin the main trials.</p>
    </div>
  "," ","html-keyboard-response","164","2.1.0","405116","F=YES, J=NO","hqny8erlla","1","70","70","70","","","","","","","","","","","","","","","",""
"3768","<p>Starting main block 1 of 8. Press any key to continue.</p>"," ","html-keyboard-response","165","2.1.0","408885","F=YES, J=NO","hqny8erlla","1","70","70","70","","","","","","","","","","","","","","","",""
"null","<p style=""font-size: 50px;"">+</p>","null","html-keyboard-response","166","2.1.0","409203","F=YES, J=NO","hqny8erlla","1","70","70","70","","","","","","","","","","","","","","","",""
"null","audio/beep-329314.mp3","null","audio-keyboard-response","167","2.1.0","411192","F=YES, J=NO","hqny8erlla","1","70","70","70","","","","","","","","","","","","","","","",""
"null","audio/budget1.wav","null","audio-keyboard-response","168","2.1.0","411842","F=YES, J=NO","hqny8erlla","1","70","70","70","","","","","","","","","","","","","","","",""
"745","
          <p id=""word"" style=""font-size: 40px;"">cut</p>
          <p style=""font-size: 16px;"">F = YES &nbsp;&nbsp;&nbsp; J = NO</p>
        ","f","html-keyboard-response","169","2.1.0","412588","F=YES, J=NO","hqny8erlla","1","70","70","70","","","","","","","","","cut","budget1","metaphor","experimental","f","true","",""
"null","<p style=""font-size: 50px;"">+</p>","null","html-keyboard-response","170","2.1.0","412905","F=YES, J=NO","hqny8erlla","1","70","70","70","","","","","","","","","","","","","","","",""
"null","audio/beep-329314.mp3","null","audio-keyboard-response","171","2.1.0","414573","F=YES, J=NO","hqny8erlla","1","70","70","70","","","","","","","","","","","","","","","",""
"null","audio/arm.wav","null","audio-keyboard-response","172","2.1.0","415202","F=YES, J=NO","hqny8erlla","1","70","70","70","","","","","","","","","","","","","","","",""
"1025","
          <p id=""word"" style=""font-size: 40px;"">fold</p>
          <p style=""font-size: 16px;"">F = YES &nbsp;&nbsp;&nbsp; J = NO</p>
        ","j","html-keyboard-response","173","2.1.0","416228","F=YES, J=NO","hqny8erlla","1","70","70","70","","","","","","","","","fold","arm","filler","filler","f","false","",""
"null","<p style=""font-size: 50px;"">+</p>","null","html-keyboard-response","174","2.1.0","416531","F=YES, J=NO","hqny8erlla","1","70","70","70","","","","","","","","","","","","","","","",""
"null","audio/beep-329314.mp3","null","audio-keyboard-response","175","2.1.0","418213","F=YES, J=NO","hqny8erlla","1","70","70","70","","","","","","","","","","","","","","","",""
"null","audio/price.wav","null","audio-keyboard-response","176","2.1.0","419003","F=YES, J=NO","hqny8erlla","1","70","70","70","","","","","","","","","","","","","","","",""
"450","
          <p id=""word"" style=""font-size: 40px;"">drop</p>
          <p style=""font-size: 16px;"">F = YES &nbsp;&nbsp;&nbsp; J = NO</p>
        ","f","html-keyboard-response","177","2.1.0","419453","F=YES, J=NO","hqny8erlla","1","70","70","70","","","","","","","","","drop","price","metaphor","experimental","f","true","",""
"null","<p style=""font-size: 50px;"">+</p>","null","html-keyboard-response","178","2.1.0","419767","F=YES, J=NO","hqny8erlla","1","70","70","70","","","","","","","","","","","","","","","",""
"null","audio/beep-329314.mp3","null","audio-keyboard-response","179","2.1.0","421433","F=YES, J=NO","hqny8erlla","1","70","70","70","","","","","","","","","","","","","","","",""
"null","audio/account1.wav","null","audio-keyboard-response","180","2.1.0","422102","F=YES, J=NO","hqny8erlla","1","70","70","70","","","","","","","","","","","","","","","",""
"478","
          <p id=""word"" style=""font-size: 40px;"">open</p>
          <p style=""font-size: 16px;"">F = YES &nbsp;&nbsp;&nbsp; J = NO</p>
        ","f","html-keyboard-response","181","2.1.0","422583","F=YES, J=NO","hqny8erlla","1","70","70","70","","","","","","","","","open","account1","metaphor","experimental","f","true","",""
"null","<p style=""font-size: 50px;"">+</p>","null","html-keyboard-response","182","2.1.0","422899","F=YES, J=NO","hqny8erlla","1","70","70","70","","","","","","","","","","","","","","","",""
"null","audio/beep-329314.mp3","null","audio-keyboard-response","183","2.1.0","424572","F=YES, J=NO","hqny8erlla","1","70","70","70","","","","","","","","","","","","","","","",""
"null","audio/tomato.wav","null","audio-keyboard-response","184","2.1.0","425303","F=YES, J=NO","hqny8erlla","1","70","70","70","","","","","","","","","","","","","","","",""
"974","
          <p id=""word"" style=""font-size: 40px;"">gladies</p>
          <p style=""font-size: 16px;"">F = YES &nbsp;&nbsp;&nbsp; J = NO</p>
        ","j","html-keyboard-response","185","2.1.0","426279","F=YES, J=NO","hqny8erlla","1","70","70","70","","","","","","","","","gladies","tomato","pseudoword","pseudoword","j","true","",""
"null","<p style=""font-size: 50px;"">+</p>","null","html-keyboard-response","186","2.1.0","426587","F=YES, J=NO","hqny8erlla","1","70","70","70","","","","","","","","","","","","","","","",""
"null","audio/beep-329314.mp3","null","audio-keyboard-response","187","2.1.0","428252","F=YES, J=NO","hqny8erlla","1","70","70","70","","","","","","","","","","","","","","","",""
"null","audio/age1.wav","null","audio-keyboard-response","188","2.1.0","428783","F=YES, J=NO","hqny8erlla","1","70","70","70","","","","","","","","","","","","","","","",""
"894","
          <p id=""word"" style=""font-size: 40px;"">seize</p>
          <p style=""font-size: 16px;"">F = YES &nbsp;&nbsp;&nbsp; J = NO</p>
        ","j","html-keyboard-response","189","2.1.0","429678","F=YES, J=NO","hqny8erlla","1","70","70","70","","","","","","","","","seize","age1","unrelated","experimental","f","false","",""
"null","<p style=""font-size: 50px;"">+</p>","null","html-keyboard-response","190","2.1.0","429982","F=YES, J=NO","hqny8erlla","1","70","70","70","","","","","","","","","","","","","","","",""
"null","audio/beep-329314.mp3","null","audio-keyboard-response","191","2.1.0","431653","F=YES, J=NO","hqny8erlla","1","70","70","70","","","","","","","","","","","","","","","",""
"null","audio/neck.wav","null","audio-keyboard-response","192","2.1.0","432403","F=YES, J=NO","hqny8erlla","1","70","70","70","","","","","","","","","","","","","","","",""
"561","
          <p id=""word"" style=""font-size: 40px;"">share</p>
          <p style=""font-size: 16px;"">F = YES &nbsp;&nbsp;&nbsp; J = NO</p>
        ","f","html-keyboard-response","193","2.1.0","432966","F=YES, J=NO","hqny8erlla","1","70","70","70","","","","","","","","","share","neck","unrelated","experimental","f","true","",""
"null","<p style=""font-size: 50px;"">+</p>","null","html-keyboard-response","194","2.1.0","433278","F=YES, J=NO","hqny8erlla","1","70","70","70","","","","","","","","","","","","","","","",""
"null","audio/beep-329314.mp3","null","audio-keyboard-response","195","2.1.0","434953","F=YES, J=NO","hqny8erlla","1","70","70","70","","","","","","","","","","","","","","","",""
"null","audio/pig.wav","null","audio-keyboard-response","196","2.1.0","435403","F=YES, J=NO","hqny8erlla","1","70","70","70","","","","","","","","","","","","","","","",""
"769","
          <p id=""word"" style=""font-size: 40px;"">tirlike</p>
          <p style=""font-size: 16px;"">F = YES &nbsp;&nbsp;&nbsp; J = NO</p>
        ","j","html-keyboard-response","197","2.1.0","436174","F=YES, J=NO","hqny8erlla","1","70","70","70","","","","","","","","","tirlike","pig","pseudoword","pseudoword","j","true","",""
"null","<p style=""font-size: 50px;"">+</p>","null","html-keyboard-response","198","2.1.0","436486","F=YES, J=NO","hqny8erlla","1","70","70","70","","","","","","","","","","","","","","","",""
"null","audio/beep-329314.mp3","null","audio-keyboard-response","199","2.1.0","438153","F=YES, J=NO","hqny8erlla","1","70","70","70","","","","","","","","","","","","","","","",""
"null","audio/winter.wav","null","audio-keyboard-response","200","2.1.0","438803","F=YES, J=NO","hqny8erlla","1","70","70","70","","","","","","","","","","","","","","","",""
"730","
          <p id=""word"" style=""font-size: 40px;"">straven</p>
          <p style=""font-size: 16px;"">F = YES &nbsp;&nbsp;&nbsp; J = NO</p>
        ","j","html-keyboard-response","201","2.1.0","439535","F=YES, J=NO","hqny8erlla","1","70","70","70","","","","","","","","","straven","winter","pseudoword","pseudoword","j","true","",""
"null","<p style=""font-size: 50px;"">+</p>","null","html-keyboard-response","202","2.1.0","439851","F=YES, J=NO","hqny8erlla","1","70","70","70","","","","","","","","","","","","","","","",""
"null","audio/beep-329314.mp3","null","audio-keyboard-response","203","2.1.0","441533","F=YES, J=NO","hqny8erlla","1","70","70","70","","","","","","","","","","","","","","","",""
"null","audio/ankle1.wav","null","audio-keyboard-response","204","2.1.0","442043","F=YES, J=NO","hqny8erlla","1","70","70","70","","","","","","","","","","","","","","","",""
"746","
          <p id=""word"" style=""font-size: 40px;"">switm</p>
          <p style=""font-size: 16px;"">F = YES &nbsp;&nbsp;&nbsp; J = NO</p>
        ","j","html-keyboard-response","205","2.1.0","442791","F=YES, J=NO","hqny8erlla","1","70","70","70","","","","","","","","","switm","ankle1","pseudoword","pseudoword","j","true","",""
"null","<p style=""font-size: 50px;"">+</p>","null","html-keyboard-response","206","2.1.0","443106","F=YES, J=NO","hqny8erlla","1","70","70","70","","","","","","","","","","","","","","","",""
"null","audio/beep-329314.mp3","null","audio-keyboard-response","207","2.1.0","444772","F=YES, J=NO","hqny8erlla","1","70","70","70","","","","","","","","","","","","","","","",""
"null","audio/inch1.wav","null","audio-keyboard-response","208","2.1.0","445543","F=YES, J=NO","hqny8erlla","1","70","70","70","","","","","","","","","","","","","","","",""
"621","
          <p id=""word"" style=""font-size: 40px;"">lose</p>
          <p style=""font-size: 16px;"">F = YES &nbsp;&nbsp;&nbsp; J = NO</p>
        ","f","html-keyboard-response","209","2.1.0","446165","F=YES, J=NO","hqny8erlla","1","70","70","70","","","","","","","","","lose","inch1","metaphor","experimental","f","true","",""
"null","<p style=""font-size: 50px;"">+</p>","null","html-keyboard-response","210","2.1.0","446477","F=YES, J=NO","hqny8erlla","1","70","70","70","","","","","","","","","","","","","","","",""
"null","audio/beep-329314.mp3","null","audio-keyboard-response","211","2.1.0","448153","F=YES, J=NO","hqny8erlla","1","70","70","70","","","","","","","","","","","","","","","",""
"null","audio/foot1.wav","null","audio-keyboard-response","212","2.1.0","448683","F=YES, J=NO","hqny8erlla","1","70","70","70","","","","","","","","","","","","","","","",""
"640","
          <p id=""word"" style=""font-size: 40px;"">close</p>
          <p style=""font-size: 16px;"">F = YES &nbsp;&nbsp;&nbsp; J = NO</p>
        ","f","html-keyboard-response","213","2.1.0","449324","F=YES, J=NO","hqny8erlla","1","70","70","70","","","","","","","","","close","foot1","unrelated","experimental","f","true","",""
"null","<p style=""font-size: 50px;"">+</p>","null","html-keyboard-response","214","2.1.0","449639","F=YES, J=NO","hqny8erlla","1","70","70","70","","","","","","","","","","","","","","","",""
"null","audio/beep-329314.mp3","null","audio-keyboard-response","215","2.1.0","451312","F=YES, J=NO","hqny8erlla","1","70","70","70","","","","","","","","","","","","","","","",""
"null","audio/weapon.wav","null","audio-keyboard-response","216","2.1.0","451943","F=YES, J=NO","hqny8erlla","1","70","70","70","","","","","","","","","","","","","","","",""
"621","
          <p id=""word"" style=""font-size: 40px;"">carry</p>
          <p style=""font-size: 16px;"">F = YES &nbsp;&nbsp;&nbsp; J = NO</p>
        ","f","html-keyboard-response","217","2.1.0","452566","F=YES, J=NO","hqny8erlla","1","70","70","70","","","","","","","","","carry","weapon","literal","experimental","f","true","",""
"null","<p style=""font-size: 50px;"">+</p>","null","html-keyboard-response","218","2.1.0","452868","F=YES, J=NO","hqny8erlla","1","70","70","70","","","","","","","","","","","","","","","",""
"null","audio/beep-329314.mp3","null","audio-keyboard-response","219","2.1.0","454533","F=YES, J=NO","hqny8erlla","1","70","70","70","","","","","","","","","","","","","","","",""
"null","audio/holiday1.wav","null","audio-keyboard-response","220","2.1.0","455243","F=YES, J=NO","hqny8erlla","1","70","70","70","","","","","","","","","","","","","","","",""
"785","
          <p id=""word"" style=""font-size: 40px;"">spend</p>
          <p style=""font-size: 16px;"">F = YES &nbsp;&nbsp;&nbsp; J = NO</p>
        ","f","html-keyboard-response","221","2.1.0","456030","F=YES, J=NO","hqny8erlla","1","70","70","70","","","","","","","","","spend","holiday1","metaphor","experimental","f","true","",""
"null","<p style=""font-size: 50px;"">+</p>","null","html-keyboard-response","222","2.1.0","456344","F=YES, J=NO","hqny8erlla","1","70","70","70","","","","","","","","","","","","","","","",""
"null","audio/beep-329314.mp3","null","audio-keyboard-response","223","2.1.0","458012","F=YES, J=NO","hqny8erlla","1","70","70","70","","","","","","","","","","","","","","","",""
"null","audio/bridge.wav","null","audio-keyboard-response","224","2.1.0","458743","F=YES, J=NO","hqny8erlla","1","70","70","70","","","","","","","","","","","","","","","",""
"798","
          <p id=""word"" style=""font-size: 40px;"">crack</p>
          <p style=""font-size: 16px;"">F = YES &nbsp;&nbsp;&nbsp; J = NO</p>
        ","f","html-keyboard-response","225","2.1.0","459542","F=YES, J=NO","hqny8erlla","1","70","70","70","","","","","","","","","crack","bridge","filler","filler","f","true","",""
"null","<p style=""font-size: 50px;"">+</p>","null","html-keyboard-response","226","2.1.0","459845","F=YES, J=NO","hqny8erlla","1","70","70","70","","","","","","","","","","","","","","","",""
"null","audio/beep-329314.mp3","null","audio-keyboard-response","227","2.1.0","461513","F=YES, J=NO","hqny8erlla","1","70","70","70","","","","","","","","","","","","","","","",""
"null","audio/goal.wav","null","audio-keyboard-response","228","2.1.0","461963","F=YES, J=NO","hqny8erlla","1","70","70","70","","","","","","","","","","","","","","","",""
"778","
          <p id=""word"" style=""font-size: 40px;"">support</p>
          <p style=""font-size: 16px;"">F = YES &nbsp;&nbsp;&nbsp; J = NO</p>
        ","f","html-keyboard-response","229","2.1.0","462743","F=YES, J=NO","hqny8erlla","1","70","70","70","","","","","","","","","support","goal","metaphor","experimental","f","true","",""
"2949","<p>Excellent! You have finished block 1 of 8.</p>
                     <p>Feel free to take a 30 second break.</p>
                     <p>Press any key when you're ready to continue.</p>"," ","html-keyboard-response","230","2.1.0","465694","F=YES, J=NO","hqny8erlla","1","70","70","70","","","","","","","","","","","","","","","",""
"822","<p>Starting main block 2 of 8. Press any key to continue.</p>"," ","html-keyboard-response","231","2.1.0","466517","F=YES, J=NO","hqny8erlla","1","70","70","70","","","","","","","","","","","","","","","",""
"null","<p style=""font-size: 50px;"">+</p>","null","html-keyboard-response","232","2.1.0","466828","F=YES, J=NO","hqny8erlla","1","70","70","70","","","","","","","","","","","","","","","",""
"null","audio/beep-329314.mp3","null","audio-keyboard-response","233","2.1.0","468493","F=YES, J=NO","hqny8erlla","1","70","70","70","","","","","","","","","","","","","","","",""
"null","audio/camera1.wav","null","audio-keyboard-response","234","2.1.0","469182","F=YES, J=NO","hqny8erlla","1","70","70","70","","","","","","","","","","","","","","","",""
"661","
          <p id=""word"" style=""font-size: 40px;"">stir</p>
          <p style=""font-size: 16px;"">F = YES &nbsp;&nbsp;&nbsp; J = NO</p>
        ","j","html-keyboard-response","235","2.1.0","469845","F=YES, J=NO","hqny8erlla","1","70","70","70","","","","","","","","","stir","camera1","filler","filler","f","false","",""
"null","<p style=""font-size: 50px;"">+</p>","null","html-keyboard-response","236","2.1.0","470147","F=YES, J=NO","hqny8erlla","1","70","70","70","","","","","","","","","","","","","","","",""
"null","audio/beep-329314.mp3","null","audio-keyboard-response","237","2.1.0","471813","F=YES, J=NO","hqny8erlla","1","70","70","70","","","","","","","","","","","","","","","",""
"null","audio/truth1.wav","null","audio-keyboard-response","238","2.1.0","472462","F=YES, J=NO","hqny8erlla","1","70","70","70","","","","","","","","","","","","","","","",""
"558","
          <p id=""word"" style=""font-size: 40px;"">expose</p>
          <p style=""font-size: 16px;"">F = YES &nbsp;&nbsp;&nbsp; J = NO</p>
        ","f","html-keyboard-response","239","2.1.0","473022","F=YES, J=NO","hqny8erlla","1","70","70","70","","","","","","","","","expose","truth1","metaphor","experimental","f","true","",""
"null","<p style=""font-size: 50px;"">+</p>","null","html-keyboard-response","240","2.1.0","473336","F=YES, J=NO","hqny8erlla","1","70","70","70","","","","","","","","","","","","","","","",""
"null","audio/beep-329314.mp3","null","audio-keyboard-response","241","2.1.0","475013","F=YES, J=NO","hqny8erlla","1","70","70","70","","","","","","","","","","","","","","","",""
"null","audio/bomb1.wav","null","audio-keyboard-response","242","2.1.0","475402","F=YES, J=NO","hqny8erlla","1","70","70","70","","","","","","","","","","","","","","","",""
"539","
          <p id=""word"" style=""font-size: 40px;"">clean</p>
          <p style=""font-size: 16px;"">F = YES &nbsp;&nbsp;&nbsp; J = NO</p>
        ","f","html-keyboard-response","243","2.1.0","475943","F=YES, J=NO","hqny8erlla","1","70","70","70","","","","","","","","","clean","bomb1","filler","filler","f","true","",""
"null","<p style=""font-size: 50px;"">+</p>","null","html-keyboard-response","244","2.1.0","476246","F=YES, J=NO","hqny8erlla","1","70","70","70","","","","","","","","","","","","","","","",""
"null","audio/beep-329314.mp3","null","audio-keyboard-response","245","2.1.0","477913","F=YES, J=NO","hqny8erlla","1","70","70","70","","","","","","","","","","","","","","","",""
"null","audio/dollar.wav","null","audio-keyboard-response","246","2.1.0","478322","F=YES, J=NO","hqny8erlla","1","70","70","70","","","","","","","","","","","","","","","",""
"619","
          <p id=""word"" style=""font-size: 40px;"">gliptism</p>
          <p style=""font-size: 16px;"">F = YES &nbsp;&nbsp;&nbsp; J = NO</p>
        ","j","html-keyboard-response","247","2.1.0","478943","F=YES, J=NO","hqny8erlla","1","70","70","70","","","","","","","","","gliptism","dollar","pseudoword","pseudoword","j","true","",""
"null","<p style=""font-size: 50px;"">+</p>","null","html-keyboard-response","248","2.1.0","479258","F=YES, J=NO","hqny8erlla","1","70","70","70","","","","","","","","","","","","","","","",""
"null","audio/beep-329314.mp3","null","audio-keyboard-response","249","2.1.0","480934","F=YES, J=NO","hqny8erlla","1","70","70","70","","","","","","","","","","","","","","","",""
"null","audio/prisoner.wav","null","audio-keyboard-response","250","2.1.0","481523","F=YES, J=NO","hqny8erlla","1","70","70","70","","","","","","","","","","","","","","","",""
"770","
          <p id=""word"" style=""font-size: 40px;"">egotian</p>
          <p style=""font-size: 16px;"">F = YES &nbsp;&nbsp;&nbsp; J = NO</p>
        ","j","html-keyboard-response","251","2.1.0","482294","F=YES, J=NO","hqny8erlla","1","70","70","70","","","","","","","","","egotian","prisoner","pseudoword","pseudoword","j","true","",""
"null","<p style=""font-size: 50px;"">+</p>","null","html-keyboard-response","252","2.1.0","482609","F=YES, J=NO","hqny8erlla","1","70","70","70","","","","","","","","","","","","","","","",""
"null","audio/beep-329314.mp3","null","audio-keyboard-response","253","2.1.0","484273","F=YES, J=NO","hqny8erlla","1","70","70","70","","","","","","","","","","","","","","","",""
"null","audio/storm1.wav","null","audio-keyboard-response","254","2.1.0","484923","F=YES, J=NO","hqny8erlla","1","70","70","70","","","","","","","","","","","","","","","",""
"498","
          <p id=""word"" style=""font-size: 40px;"">climb</p>
          <p style=""font-size: 16px;"">F = YES &nbsp;&nbsp;&nbsp; J = NO</p>
        ","f","html-keyboard-response","255","2.1.0","485422","F=YES, J=NO","hqny8erlla","1","70","70","70","","","","","","","","","climb","storm1","unrelated","experimental","f","true","",""
"null","<p style=""font-size: 50px;"">+</p>","null","html-keyboard-response","256","2.1.0","485727","F=YES, J=NO","hqny8erlla","1","70","70","70","","","","","","","","","","","","","","","",""
"null","audio/beep-329314.mp3","null","audio-keyboard-response","257","2.1.0","487393","F=YES, J=NO","hqny8erlla","1","70","70","70","","","","","","","","","","","","","","","",""
"null","audio/haste1.wav","null","audio-keyboard-response","258","2.1.0","488043","F=YES, J=NO","hqny8erlla","1","70","70","70","","","","","","","","","","","","","","","",""
"545","
          <p id=""word"" style=""font-size: 40px;"">hide</p>
          <p style=""font-size: 16px;"">F = YES &nbsp;&nbsp;&nbsp; J = NO</p>
        ","f","html-keyboard-response","259","2.1.0","488591","F=YES, J=NO","hqny8erlla","1","70","70","70","","","","","","","","","hide","haste1","unrelated","experimental","f","true","",""
"null","<p style=""font-size: 50px;"">+</p>","null","html-keyboard-response","260","2.1.0","488902","F=YES, J=NO","hqny8erlla","1","70","70","70","","","","","","","","","","","","","","","",""
"null","audio/beep-329314.mp3","null","audio-keyboard-response","261","2.1.0","490572","F=YES, J=NO","hqny8erlla","1","70","70","70","","","","","","","","","","","","","","","",""
"null","audio/vehicle1.wav","null","audio-keyboard-response","262","2.1.0","491303","F=YES, J=NO","hqny8erlla","1","70","70","70","","","","","","","","","","","","","","","",""
"678","
          <p id=""word"" style=""font-size: 40px;"">dropt</p>
          <p style=""font-size: 16px;"">F = YES &nbsp;&nbsp;&nbsp; J = NO</p>
        ","j","html-keyboard-response","263","2.1.0","491983","F=YES, J=NO","hqny8erlla","1","70","70","70","","","","","","","","","dropt","vehicle1","pseudoword","pseudoword","j","true","",""
"null","<p style=""font-size: 50px;"">+</p>","null","html-keyboard-response","264","2.1.0","492299","F=YES, J=NO","hqny8erlla","1","70","70","70","","","","","","","","","","","","","","","",""
"null","audio/beep-329314.mp3","null","audio-keyboard-response","265","2.1.0","493973","F=YES, J=NO","hqny8erlla","1","70","70","70","","","","","","","","","","","","","","","",""
"null","audio/life1.wav","null","audio-keyboard-response","266","2.1.0","494623","F=YES, J=NO","hqny8erlla","1","70","70","70","","","","","","","","","","","","","","","",""
"621","
          <p id=""word"" style=""font-size: 40px;"">flimch</p>
          <p style=""font-size: 16px;"">F = YES &nbsp;&nbsp;&nbsp; J = NO</p>
        ","j","html-keyboard-response","267","2.1.0","495246","F=YES, J=NO","hqny8erlla","1","70","70","70","","","","","","","","","flimch","life1","pseudoword","pseudoword","j","true","",""
"null","<p style=""font-size: 50px;"">+</p>","null","html-keyboard-response","268","2.1.0","495555","F=YES, J=NO","hqny8erlla","1","70","70","70","","","","","","","","","","","","","","","",""
"null","audio/beep-329314.mp3","null","audio-keyboard-response","269","2.1.0","497233","F=YES, J=NO","hqny8erlla","1","70","70","70","","","","","","","","","","","","","","","",""
"null","audio/weight1.wav","null","audio-keyboard-response","270","2.1.0","497843","F=YES, J=NO","hqny8erlla","1","70","70","70","","","","","","","","","","","","","","","",""
"1131","
          <p id=""word"" style=""font-size: 40px;"">crimsh</p>
          <p style=""font-size: 16px;"">F = YES &nbsp;&nbsp;&nbsp; J = NO</p>
        ","j","html-keyboard-response","271","2.1.0","498975","F=YES, J=NO","hqny8erlla","1","70","70","70","","","","","","","","","crimsh","weight1","pseudoword","pseudoword","j","true","",""
"null","<p style=""font-size: 50px;"">+</p>","null","html-keyboard-response","272","2.1.0","499277","F=YES, J=NO","hqny8erlla","1","70","70","70","","","","","","","","","","","","","","","",""
"null","audio/beep-329314.mp3","null","audio-keyboard-response","273","2.1.0","500953","F=YES, J=NO","hqny8erlla","1","70","70","70","","","","","","","","","","","","","","","",""
"null","audio/theory1.wav","null","audio-keyboard-response","274","2.1.0","501583","F=YES, J=NO","hqny8erlla","1","70","70","70","","","","","","","","","","","","","","","",""
"870","
          <p id=""word"" style=""font-size: 40px;"">construct</p>
          <p style=""font-size: 16px;"">F = YES &nbsp;&nbsp;&nbsp; J = NO</p>
        ","f","html-keyboard-response","275","2.1.0","502454","F=YES, J=NO","hqny8erlla","1","70","70","70","","","","","","","","","construct","theory1","metaphor","experimental","f","true","",""
"null","<p style=""font-size: 50px;"">+</p>","null","html-keyboard-response","276","2.1.0","502766","F=YES, J=NO","hqny8erlla","1","70","70","70","","","","","","","","","","","","","","","",""
"null","audio/beep-329314.mp3","null","audio-keyboard-response","277","2.1.0","504433","F=YES, J=NO","hqny8erlla","1","70","70","70","","","","","","","","","","","","","","","",""
"null","audio/alarm1.wav","null","audio-keyboard-response","278","2.1.0","505003","F=YES, J=NO","hqny8erlla","1","70","70","70","","","","","","","","","","","","","","","",""
"729","
          <p id=""word"" style=""font-size: 40px;"">lock</p>
          <p style=""font-size: 16px;"">F = YES &nbsp;&nbsp;&nbsp; J = NO</p>
        ","f","html-keyboard-response","279","2.1.0","505734","F=YES, J=NO","hqny8erlla","1","70","70","70","","","","","","","","","lock","alarm1","filler","filler","f","true","",""
"null","<p style=""font-size: 50px;"">+</p>","null","html-keyboard-response","280","2.1.0","506041","F=YES, J=NO","hqny8erlla","1","70","70","70","","","","","","","","","","","","","","","",""
"null","audio/beep-329314.mp3","null","audio-keyboard-response","281","2.1.0","507713","F=YES, J=NO","hqny8erlla","1","70","70","70","","","","","","","","","","","","","","","",""
"null","audio/bottle.wav","null","audio-keyboard-response","282","2.1.0","508263","F=YES, J=NO","hqny8erlla","1","70","70","70","","","","","","","","","","","","","","","",""
"710","
          <p id=""word"" style=""font-size: 40px;"">watch</p>
          <p style=""font-size: 16px;"">F = YES &nbsp;&nbsp;&nbsp; J = NO</p>
        ","f","html-keyboard-response","283","2.1.0","508975","F=YES, J=NO","hqny8erlla","1","70","70","70","","","","","","","","","watch","bottle","filler","filler","f","true","",""
"null","<p style=""font-size: 50px;"">+</p>","null","html-keyboard-response","284","2.1.0","509290","F=YES, J=NO","hqny8erlla","1","70","70","70","","","","","","","","","","","","","","","",""
"null","audio/beep-329314.mp3","null","audio-keyboard-response","285","2.1.0","510952","F=YES, J=NO","hqny8erlla","1","70","70","70","","","","","","","","","","","","","","","",""
"null","audio/purpose.wav","null","audio-keyboard-response","286","2.1.0","511703","F=YES, J=NO","hqny8erlla","1","70","70","70","","","","","","","","","","","","","","","",""
"630","
          <p id=""word"" style=""font-size: 40px;"">whigm</p>
          <p style=""font-size: 16px;"">F = YES &nbsp;&nbsp;&nbsp; J = NO</p>
        ","j","html-keyboard-response","287","2.1.0","512334","F=YES, J=NO","hqny8erlla","1","70","70","70","","","","","","","","","whigm","purpose","pseudoword","pseudoword","j","true","",""
"null","<p style=""font-size: 50px;"">+</p>","null","html-keyboard-response","288","2.1.0","512643","F=YES, J=NO","hqny8erlla","1","70","70","70","","","","","","","","","","","","","","","",""
"null","audio/beep-329314.mp3","null","audio-keyboard-response","289","2.1.0","514313","F=YES, J=NO","hqny8erlla","1","70","70","70","","","","","","","","","","","","","","","",""
"null","audio/table1.wav","null","audio-keyboard-response","290","2.1.0","514843","F=YES, J=NO","hqny8erlla","1","70","70","70","","","","","","","","","","","","","","","",""
"802","
          <p id=""word"" style=""font-size: 40px;"">stimb</p>
          <p style=""font-size: 16px;"">F = YES &nbsp;&nbsp;&nbsp; J = NO</p>
        ","j","html-keyboard-response","291","2.1.0","515646","F=YES, J=NO","hqny8erlla","1","70","70","70","","","","","","","","","stimb","table1","pseudoword","pseudoword","j","true","",""
"null","<p style=""font-size: 50px;"">+</p>","null","html-keyboard-response","292","2.1.0","515949","F=YES, J=NO","hqny8erlla","1","70","70","70","","","","","","","","","","","","","","","",""
"null","audio/beep-329314.mp3","null","audio-keyboard-response","293","2.1.0","517613","F=YES, J=NO","hqny8erlla","1","70","70","70","","","","","","","","","","","","","","","",""
"null","audio/topic.wav","null","audio-keyboard-response","294","2.1.0","518263","F=YES, J=NO","hqny8erlla","1","70","70","70","","","","","","","","","","","","","","","",""
"677","
          <p id=""word"" style=""font-size: 40px;"">infortuitist</p>
          <p style=""font-size: 16px;"">F = YES &nbsp;&nbsp;&nbsp; J = NO</p>
        ","j","html-keyboard-response","295","2.1.0","518942","F=YES, J=NO","hqny8erlla","1","70","70","70","","","","","","","","","infortuitist","topic","pseudoword","pseudoword","j","true","",""
"1590","<p>Excellent! You have finished block 2 of 8.</p>
                     <p>Feel free to take a 30 second break.</p>
                     <p>Press any key when you're ready to continue.</p>"," ","html-keyboard-response","296","2.1.0","520534","F=YES, J=NO","hqny8erlla","1","70","70","70","","","","","","","","","","","","","","","",""
"911","<p>Starting main block 3 of 8. Press any key to continue.</p>"," ","html-keyboard-response","297","2.1.0","521446","F=YES, J=NO","hqny8erlla","1","70","70","70","","","","","","","","","","","","","","","",""
"null","<p style=""font-size: 50px;"">+</p>","null","html-keyboard-response","298","2.1.0","521757","F=YES, J=NO","hqny8erlla","1","70","70","70","","","","","","","","","","","","","","","",""
"null","audio/beep-329314.mp3","null","audio-keyboard-response","299","2.1.0","523432","F=YES, J=NO","hqny8erlla","1","70","70","70","","","","","","","","","","","","","","","",""
"null","audio/tax1.wav","null","audio-keyboard-response","300","2.1.0","524083","F=YES, J=NO","hqny8erlla","1","70","70","70","","","","","","","","","","","","","","","",""
"659","
          <p id=""word"" style=""font-size: 40px;"">snate</p>
          <p style=""font-size: 16px;"">F = YES &nbsp;&nbsp;&nbsp; J = NO</p>
        ","j","html-keyboard-response","301","2.1.0","524743","F=YES, J=NO","hqny8erlla","1","70","70","70","","","","","","","","","snate","tax1","pseudoword","pseudoword","j","true","",""
"null","<p style=""font-size: 50px;"">+</p>","null","html-keyboard-response","302","2.1.0","525058","F=YES, J=NO","hqny8erlla","1","70","70","70","","","","","","","","","","","","","","","",""
"null","audio/beep-329314.mp3","null","audio-keyboard-response","303","2.1.0","526733","F=YES, J=NO","hqny8erlla","1","70","70","70","","","","","","","","","","","","","","","",""
"null","audio/hotel1.wav","null","audio-keyboard-response","304","2.1.0","527443","F=YES, J=NO","hqny8erlla","1","70","70","70","","","","","","","","","","","","","","","",""
"625","
          <p id=""word"" style=""font-size: 40px;"">flanter</p>
          <p style=""font-size: 16px;"">F = YES &nbsp;&nbsp;&nbsp; J = NO</p>
        ","j","html-keyboard-response","305","2.1.0","528071","F=YES, J=NO","hqny8erlla","1","70","70","70","","","","","","","","","flanter","hotel1","pseudoword","pseudoword","j","true","",""
"null","<p style=""font-size: 50px;"">+</p>","null","html-keyboard-response","306","2.1.0","528375","F=YES, J=NO","hqny8erlla","1","70","70","70","","","","","","","","","","","","","","","",""
"null","audio/beep-329314.mp3","null","audio-keyboard-response","307","2.1.0","530054","F=YES, J=NO","hqny8erlla","1","70","70","70","","","","","","","","","","","","","","","",""
"null","audio/arm.wav","null","audio-keyboard-response","308","2.1.0","530582","F=YES, J=NO","hqny8erlla","1","70","70","70","","","","","","","","","","","","","","","",""
"590","
          <p id=""word"" style=""font-size: 40px;"">pigne</p>
          <p style=""font-size: 16px;"">F = YES &nbsp;&nbsp;&nbsp; J = NO</p>
        ","j","html-keyboard-response","309","2.1.0","531174","F=YES, J=NO","hqny8erlla","1","70","70","70","","","","","","","","","pigne","arm","pseudoword","pseudoword","j","true","",""
"null","<p style=""font-size: 50px;"">+</p>","null","html-keyboard-response","310","2.1.0","531484","F=YES, J=NO","hqny8erlla","1","70","70","70","","","","","","","","","","","","","","","",""
"null","audio/beep-329314.mp3","null","audio-keyboard-response","311","2.1.0","533153","F=YES, J=NO","hqny8erlla","1","70","70","70","","","","","","","","","","","","","","","",""
"null","audio/gift1.wav","null","audio-keyboard-response","312","2.1.0","533703","F=YES, J=NO","hqny8erlla","1","70","70","70","","","","","","","","","","","","","","","",""
"742","
          <p id=""word"" style=""font-size: 40px;"">protsh</p>
          <p style=""font-size: 16px;"">F = YES &nbsp;&nbsp;&nbsp; J = NO</p>
        ","j","html-keyboard-response","313","2.1.0","534446","F=YES, J=NO","hqny8erlla","1","70","70","70","","","","","","","","","protsh","gift1","pseudoword","pseudoword","j","true","",""
"null","<p style=""font-size: 50px;"">+</p>","null","html-keyboard-response","314","2.1.0","534751","F=YES, J=NO","hqny8erlla","1","70","70","70","","","","","","","","","","","","","","","",""
"null","audio/beep-329314.mp3","null","audio-keyboard-response","315","2.1.0","536433","F=YES, J=NO","hqny8erlla","1","70","70","70","","","","","","","","","","","","","","","",""
"null","audio/holiday1.wav","null","audio-keyboard-response","316","2.1.0","537043","F=YES, J=NO","hqny8erlla","1","70","70","70","","","","","","","","","","","","","","","",""
"602","
          <p id=""word"" style=""font-size: 40px;"">drivets</p>
          <p style=""font-size: 16px;"">F = YES &nbsp;&nbsp;&nbsp; J = NO</p>
        ","j","html-keyboard-response","317","2.1.0","537646","F=YES, J=NO","hqny8erlla","1","70","70","70","","","","","","","","","drivets","holiday1","pseudoword","pseudoword","j","true","",""
"null","<p style=""font-size: 50px;"">+</p>","null","html-keyboard-response","318","2.1.0","537953","F=YES, J=NO","hqny8erlla","1","70","70","70","","","","","","","","","","","","","","","",""
"null","audio/beep-329314.mp3","null","audio-keyboard-response","319","2.1.0","539633","F=YES, J=NO","hqny8erlla","1","70","70","70","","","","","","","","","","","","","","","",""
"null","audio/handle.wav","null","audio-keyboard-response","320","2.1.0","540343","F=YES, J=NO","hqny8erlla","1","70","70","70","","","","","","","","","","","","","","","",""
"629","
          <p id=""word"" style=""font-size: 40px;"">moutes</p>
          <p style=""font-size: 16px;"">F = YES &nbsp;&nbsp;&nbsp; J = NO</p>
        ","j","html-keyboard-response","321","2.1.0","540974","F=YES, J=NO","hqny8erlla","1","70","70","70","","","","","","","","","moutes","handle","pseudoword","pseudoword","j","true","",""
"null","<p style=""font-size: 50px;"">+</p>","null","html-keyboard-response","322","2.1.0","541282","F=YES, J=NO","hqny8erlla","1","70","70","70","","","","","","","","","","","","","","","",""
"null","audio/beep-329314.mp3","null","audio-keyboard-response","323","2.1.0","542953","F=YES, J=NO","hqny8erlla","1","70","70","70","","","","","","","","","","","","","","","",""
"null","audio/ship.wav","null","audio-keyboard-response","324","2.1.0","543602","F=YES, J=NO","hqny8erlla","1","70","70","70","","","","","","","","","","","","","","","",""
"851","
          <p id=""word"" style=""font-size: 40px;"">scrap</p>
          <p style=""font-size: 16px;"">F = YES &nbsp;&nbsp;&nbsp; J = NO</p>
        ","f","html-keyboard-response","325","2.1.0","544454","F=YES, J=NO","hqny8erlla","1","70","70","70","","","","","","","","","scrap","ship","literal","experimental","f","true","",""
"null","<p style=""font-size: 50px;"">+</p>","null","html-keyboard-response","326","2.1.0","544770","F=YES, J=NO","hqny8erlla","1","70","70","70","","","","","","","","","","","","","","","",""
"null","audio/beep-329314.mp3","null","audio-keyboard-response","327","2.1.0","546433","F=YES, J=NO","hqny8erlla","1","70","70","70","","","","","","","","","","","","","","","",""
"null","audio/tunnel.wav","null","audio-keyboard-response","328","2.1.0","546902","F=YES, J=NO","hqny8erlla","1","70","70","70","","","","","","","","","","","","","","","",""
"975","
          <p id=""word"" style=""font-size: 40px;"">gred</p>
          <p style=""font-size: 16px;"">F = YES &nbsp;&nbsp;&nbsp; J = NO</p>
        ","j","html-keyboard-response","329","2.1.0","547878","F=YES, J=NO","hqny8erlla","1","70","70","70","","","","","","","","","gred","tunnel","pseudoword","pseudoword","j","true","",""
"null","<p style=""font-size: 50px;"">+</p>","null","html-keyboard-response","330","2.1.0","548185","F=YES, J=NO","hqny8erlla","1","70","70","70","","","","","","","","","","","","","","","",""
"null","audio/beep-329314.mp3","null","audio-keyboard-response","331","2.1.0","549853","F=YES, J=NO","hqny8erlla","1","70","70","70","","","","","","","","","","","","","","","",""
"null","audio/golf1.wav","null","audio-keyboard-response","332","2.1.0","550502","F=YES, J=NO","hqny8erlla","1","70","70","70","","","","","","","","","","","","","","","",""
"815","
          <p id=""word"" style=""font-size: 40px;"">bury</p>
          <p style=""font-size: 16px;"">F = YES &nbsp;&nbsp;&nbsp; J = NO</p>
        ","f","html-keyboard-response","333","2.1.0","551319","F=YES, J=NO","hqny8erlla","1","70","70","70","","","","","","","","","bury","golf1","unrelated","experimental","f","true","",""
"null","<p style=""font-size: 50px;"">+</p>","null","html-keyboard-response","334","2.1.0","551628","F=YES, J=NO","hqny8erlla","1","70","70","70","","","","","","","","","","","","","","","",""
"null","audio/beep-329314.mp3","null","audio-keyboard-response","335","2.1.0","553292","F=YES, J=NO","hqny8erlla","1","70","70","70","","","","","","","","","","","","","","","",""
"null","audio/meal.wav","null","audio-keyboard-response","336","2.1.0","553803","F=YES, J=NO","hqny8erlla","1","70","70","70","","","","","","","","","","","","","","","",""
"826","
          <p id=""word"" style=""font-size: 40px;"">gallite</p>
          <p style=""font-size: 16px;"">F = YES &nbsp;&nbsp;&nbsp; J = NO</p>
        ","j","html-keyboard-response","337","2.1.0","554631","F=YES, J=NO","hqny8erlla","1","70","70","70","","","","","","","","","gallite","meal","pseudoword","pseudoword","j","true","",""
"null","<p style=""font-size: 50px;"">+</p>","null","html-keyboard-response","338","2.1.0","554938","F=YES, J=NO","hqny8erlla","1","70","70","70","","","","","","","","","","","","","","","",""
"null","audio/beep-329314.mp3","null","audio-keyboard-response","339","2.1.0","556613","F=YES, J=NO","hqny8erlla","1","70","70","70","","","","","","","","","","","","","","","",""
"null","audio/neck.wav","null","audio-keyboard-response","340","2.1.0","557143","F=YES, J=NO","hqny8erlla","1","70","70","70","","","","","","","","","","","","","","","",""
"919","
          <p id=""word"" style=""font-size: 40px;"">werling</p>
          <p style=""font-size: 16px;"">F = YES &nbsp;&nbsp;&nbsp; J = NO</p>
        ","j","html-keyboard-response","341","2.1.0","558063","F=YES, J=NO","hqny8erlla","1","70","70","70","","","","","","","","","werling","neck","pseudoword","pseudoword","j","true","",""
"null","<p style=""font-size: 50px;"">+</p>","null","html-keyboard-response","342","2.1.0","558366","F=YES, J=NO","hqny8erlla","1","70","70","70","","","","","","","","","","","","","","","",""
"null","audio/beep-329314.mp3","null","audio-keyboard-response","343","2.1.0","560033","F=YES, J=NO","hqny8erlla","1","70","70","70","","","","","","","","","","","","","","","",""
"null","audio/kettle1.wav","null","audio-keyboard-response","344","2.1.0","560583","F=YES, J=NO","hqny8erlla","1","70","70","70","","","","","","","","","","","","","","","",""
"797","
          <p id=""word"" style=""font-size: 40px;"">navigate</p>
          <p style=""font-size: 16px;"">F = YES &nbsp;&nbsp;&nbsp; J = NO</p>
        ","f","html-keyboard-response","345","2.1.0","561381","F=YES, J=NO","hqny8erlla","1","70","70","70","","","","","","","","","navigate","kettle1","unrelated","experimental","f","true","",""
"null","<p style=""font-size: 50px;"">+</p>","null","html-keyboard-response","346","2.1.0","561686","F=YES, J=NO","hqny8erlla","1","70","70","70","","","","","","","","","","","","","","","",""
"null","audio/beep-329314.mp3","null","audio-keyboard-response","347","2.1.0","563353","F=YES, J=NO","hqny8erlla","1","70","70","70","","","","","","","","","","","","","","","",""
"null","audio/haste1.wav","null","audio-keyboard-response","348","2.1.0","563903","F=YES, J=NO","hqny8erlla","1","70","70","70","","","","","","","","","","","","","","","",""
"750","
          <p id=""word"" style=""font-size: 40px;"">coraconate</p>
          <p style=""font-size: 16px;"">F = YES &nbsp;&nbsp;&nbsp; J = NO</p>
        ","j","html-keyboard-response","349","2.1.0","564654","F=YES, J=NO","hqny8erlla","1","70","70","70","","","","","","","","","coraconate","haste1","pseudoword","pseudoword","j","true","",""
"null","<p style=""font-size: 50px;"">+</p>","null","html-keyboard-response","350","2.1.0","564957","F=YES, J=NO","hqny8erlla","1","70","70","70","","","","","","","","","","","","","","","",""
"null","audio/beep-329314.mp3","null","audio-keyboard-response","351","2.1.0","566634","F=YES, J=NO","hqny8erlla","1","70","70","70","","","","","","","","","","","","","","","",""
"null","audio/tomato.wav","null","audio-keyboard-response","352","2.1.0","567283","F=YES, J=NO","hqny8erlla","1","70","70","70","","","","","","","","","","","","","","","",""
"602","
          <p id=""word"" style=""font-size: 40px;"">grow</p>
          <p style=""font-size: 16px;"">F = YES &nbsp;&nbsp;&nbsp; J = NO</p>
        ","f","html-keyboard-response","353","2.1.0","567886","F=YES, J=NO","hqny8erlla","1","70","70","70","","","","","","","","","grow","tomato","literal","experimental","f","true","",""
"null","<p style=""font-size: 50px;"">+</p>","null","html-keyboard-response","354","2.1.0","568197","F=YES, J=NO","hqny8erlla","1","70","70","70","","","","","","","","","","","","","","","",""
"null","audio/beep-329314.mp3","null","audio-keyboard-response","355","2.1.0","569873","F=YES, J=NO","hqny8erlla","1","70","70","70","","","","","","","","","","","","","","","",""
"null","audio/menu.wav","null","audio-keyboard-response","356","2.1.0","570523","F=YES, J=NO","hqny8erlla","1","70","70","70","","","","","","","","","","","","","","","",""
"850","
          <p id=""word"" style=""font-size: 40px;"">slice</p>
          <p style=""font-size: 16px;"">F = YES &nbsp;&nbsp;&nbsp; J = NO</p>
        ","f","html-keyboard-response","357","2.1.0","571374","F=YES, J=NO","hqny8erlla","1","70","70","70","","","","","","","","","slice","menu","filler","filler","f","true","",""
"null","<p style=""font-size: 50px;"">+</p>","null","html-keyboard-response","358","2.1.0","571678","F=YES, J=NO","hqny8erlla","1","70","70","70","","","","","","","","","","","","","","","",""
"null","audio/beep-329314.mp3","null","audio-keyboard-response","359","2.1.0","573353","F=YES, J=NO","hqny8erlla","1","70","70","70","","","","","","","","","","","","","","","",""
"null","audio/mouth1.wav","null","audio-keyboard-response","360","2.1.0","574002","F=YES, J=NO","hqny8erlla","1","70","70","70","","","","","","","","","","","","","","","",""
"753","
          <p id=""word"" style=""font-size: 40px;"">spolial</p>
          <p style=""font-size: 16px;"">F = YES &nbsp;&nbsp;&nbsp; J = NO</p>
        ","j","html-keyboard-response","361","2.1.0","574757","F=YES, J=NO","hqny8erlla","1","70","70","70","","","","","","","","","spolial","mouth1","pseudoword","pseudoword","j","true","",""
"1647","<p>Excellent! You have finished block 3 of 8.</p>
                     <p>Feel free to take a 30 second break.</p>
                     <p>Press any key when you're ready to continue.</p>"," ","html-keyboard-response","362","2.1.0","576405","F=YES, J=NO","hqny8erlla","1","70","70","70","","","","","","","","","","","","","","","",""
"22519","<p>Starting main block 4 of 8. Press any key to continue.</p>"," ","html-keyboard-response","363","2.1.0","598925","F=YES, J=NO","hqny8erlla","1","70","70","70","","","","","","","","","","","","","","","",""
"null","<p style=""font-size: 50px;"">+</p>","null","html-keyboard-response","364","2.1.0","599238","F=YES, J=NO","hqny8erlla","1","70","70","70","","","","","","","","","","","","","","","",""
"null","audio/beep-329314.mp3","null","audio-keyboard-response","365","2.1.0","601216","F=YES, J=NO","hqny8erlla","1","70","70","70","","","","","","","","","","","","","","","",""
"null","audio/ground.wav","null","audio-keyboard-response","366","2.1.0","601827","F=YES, J=NO","hqny8erlla","1","70","70","70","","","","","","","","","","","","","","","",""
"1001","
          <p id=""word"" style=""font-size: 40px;"">touch</p>
          <p style=""font-size: 16px;"">F = YES &nbsp;&nbsp;&nbsp; J = NO</p>
        ","f","html-keyboard-response","367","2.1.0","602830","F=YES, J=NO","hqny8erlla","1","70","70","70","","","","","","","","","touch","ground","literal","experimental","f","true","",""
"null","<p style=""font-size: 50px;"">+</p>","null","html-keyboard-response","368","2.1.0","603135","F=YES, J=NO","hqny8erlla","1","70","70","70","","","","","","","","","","","","","","","",""
"null","audio/beep-329314.mp3","null","audio-keyboard-response","369","2.1.0","604816","F=YES, J=NO","hqny8erlla","1","70","70","70","","","","","","","","","","","","","","","",""
"null","audio/trout1.wav","null","audio-keyboard-response","370","2.1.0","605486","F=YES, J=NO","hqny8erlla","1","70","70","70","","","","","","","","","","","","","","","",""
"733","
          <p id=""word"" style=""font-size: 40px;"">catch</p>
          <p style=""font-size: 16px;"">F = YES &nbsp;&nbsp;&nbsp; J = NO</p>
        ","f","html-keyboard-response","371","2.1.0","606221","F=YES, J=NO","hqny8erlla","1","70","70","70","","","","","","","","","catch","trout1","literal","experimental","f","true","",""
"null","<p style=""font-size: 50px;"">+</p>","null","html-keyboard-response","372","2.1.0","606534","F=YES, J=NO","hqny8erlla","1","70","70","70","","","","","","","","","","","","","","","",""
"null","audio/beep-329314.mp3","null","audio-keyboard-response","373","2.1.0","608196","F=YES, J=NO","hqny8erlla","1","70","70","70","","","","","","","","","","","","","","","",""
"null","audio/empire.wav","null","audio-keyboard-response","374","2.1.0","608886","F=YES, J=NO","hqny8erlla","1","70","70","70","","","","","","","","","","","","","","","",""
"591","
          <p id=""word"" style=""font-size: 40px;"">bring</p>
          <p style=""font-size: 16px;"">F = YES &nbsp;&nbsp;&nbsp; J = NO</p>
        ","f","html-keyboard-response","375","2.1.0","609479","F=YES, J=NO","hqny8erlla","1","70","70","70","","","","","","","","","bring","empire","unrelated","experimental","f","true","",""
"null","<p style=""font-size: 50px;"">+</p>","null","html-keyboard-response","376","2.1.0","609793","F=YES, J=NO","hqny8erlla","1","70","70","70","","","","","","","","","","","","","","","",""
"null","audio/beep-329314.mp3","null","audio-keyboard-response","377","2.1.0","611456","F=YES, J=NO","hqny8erlla","1","70","70","70","","","","","","","","","","","","","","","",""
"null","audio/dome.wav","null","audio-keyboard-response","378","2.1.0","611927","F=YES, J=NO","hqny8erlla","1","70","70","70","","","","","","","","","","","","","","","",""
"974","
          <p id=""word"" style=""font-size: 40px;"">scrupliness</p>
          <p style=""font-size: 16px;"">F = YES &nbsp;&nbsp;&nbsp; J = NO</p>
        ","j","html-keyboard-response","379","2.1.0","612903","F=YES, J=NO","hqny8erlla","1","70","70","70","","","","","","","","","scrupliness","dome","pseudoword","pseudoword","j","true","",""
"null","<p style=""font-size: 50px;"">+</p>","null","html-keyboard-response","380","2.1.0","613214","F=YES, J=NO","hqny8erlla","1","70","70","70","","","","","","","","","","","","","","","",""
"null","audio/beep-329314.mp3","null","audio-keyboard-response","381","2.1.0","614877","F=YES, J=NO","hqny8erlla","1","70","70","70","","","","","","","","","","","","","","","",""
"null","audio/brain.wav","null","audio-keyboard-response","382","2.1.0","615347","F=YES, J=NO","hqny8erlla","1","70","70","70","","","","","","","","","","","","","","","",""
"561","
          <p id=""word"" style=""font-size: 40px;"">flood</p>
          <p style=""font-size: 16px;"">F = YES &nbsp;&nbsp;&nbsp; J = NO</p>
        ","f","html-keyboard-response","383","2.1.0","615909","F=YES, J=NO","hqny8erlla","1","70","70","70","","","","","","","","","flood","brain","metaphor","experimental","f","true","",""
"null","<p style=""font-size: 50px;"">+</p>","null","html-keyboard-response","384","2.1.0","616218","F=YES, J=NO","hqny8erlla","1","70","70","70","","","","","","","","","","","","","","","",""
"null","audio/beep-329314.mp3","null","audio-keyboard-response","385","2.1.0","617897","F=YES, J=NO","hqny8erlla","1","70","70","70","","","","","","","","","","","","","","","",""
"null","audio/hotel1.wav","null","audio-keyboard-response","386","2.1.0","618507","F=YES, J=NO","hqny8erlla","1","70","70","70","","","","","","","","","","","","","","","",""
"752","
          <p id=""word"" style=""font-size: 40px;"">spread</p>
          <p style=""font-size: 16px;"">F = YES &nbsp;&nbsp;&nbsp; J = NO</p>
        ","f","html-keyboard-response","387","2.1.0","619261","F=YES, J=NO","hqny8erlla","1","70","70","70","","","","","","","","","spread","hotel1","unrelated","experimental","f","true","",""
"null","<p style=""font-size: 50px;"">+</p>","null","html-keyboard-response","388","2.1.0","619574","F=YES, J=NO","hqny8erlla","1","70","70","70","","","","","","","","","","","","","","","",""
"null","audio/beep-329314.mp3","null","audio-keyboard-response","389","2.1.0","621256","F=YES, J=NO","hqny8erlla","1","70","70","70","","","","","","","","","","","","","","","",""
"null","audio/client1.wav","null","audio-keyboard-response","390","2.1.0","621967","F=YES, J=NO","hqny8erlla","1","70","70","70","","","","","","","","","","","","","","","",""
"685","
          <p id=""word"" style=""font-size: 40px;"">droothe</p>
          <p style=""font-size: 16px;"">F = YES &nbsp;&nbsp;&nbsp; J = NO</p>
        ","j","html-keyboard-response","391","2.1.0","622654","F=YES, J=NO","hqny8erlla","1","70","70","70","","","","","","","","","droothe","client1","pseudoword","pseudoword","j","true","",""
