"rt","stimulus","response","trial_type","trial_index","plugin_version","time_elapsed","response_mapping","subject_id","list_index","lextale_score","lextale_word_score","lextale_nonword_score","success","timeout","failed_images","failed_audio","failed_video","task","isWord","isDummy","target","prime","prime_type","stimulus_type","correct_response","correct","section","question_order"
"9774","
    <div style=""max-width: 800px; margin: auto; text-align: left;"">
      <h2>STANFORD UNIVERSITY</h2>
      <h3>Research Information Sheet</h3>
      <p><strong>Protocol Director:</strong> Robert Hawkins<br>
      <strong>Protocol Title:</strong> Communication and social cognition in natural audiovisual contexts<br>
      <strong>IRB#:</strong> 77226</p>

      <p><strong>DESCRIPTION:</strong> You are invited to participate in a research study about language and communication. The purpose of the research is to understand how you interact and communicate with other people in naturalistic settings as a fluent English speaker. This research will be conducted through the Prolific platform, including participants from the US, UK, and Canada. If you decide to participate in this research, you will play a communication game in a group with one or more partners.</p>

      <p><strong>TIME INVOLVEMENT:</strong> The task will last the amount of time advertised on Prolific. You are free to withdraw from the study at any time.</p>

      <p><strong>RISKS AND BENEFITS:</strong> You may become frustrated if your partner gets distracted, or experience discomfort if other participants in your group send text that is inappropriate for the task. We ask you to please be respectful of other participants you might be interacting with to mitigate these risks. You may also experience discomfort when being asked to discuss or challenge emotionally salient political beliefs. Study data will be stored securely, in compliance with Stanford University standards, minimizing the risk of confidentiality breach. This study advances our scientific understanding of how people communicate and collaborate in naturalistic settings. This study may lead to further insights about what can go wrong in teamwork, suggest potential interventions to overcome these barriers, and help to develop assistive technologies that collaborate with human partners. We cannot and do not guarantee or promise that you will receive any benefits from this study.</p>

      <p><strong>PAYMENTS:</strong> You will receive payment in the amount advertised on Prolific. If you do not complete this study, you will receive prorated payment based on the time that you have spent. Additionally, you may be eligible for bonus payments as described in the instructions.</p>

      <p><strong>PARTICIPANT’S RIGHTS:</strong> If you have read this form and have decided to participate in this project, please understand your participation is voluntary and you have the right to withdraw your consent or discontinue participation at any time without penalty or loss of benefits to which you are otherwise entitled. The alternative is not to participate. You have the right to refuse to answer particular questions. The results of this research study may be presented at scientific or professional meetings or published in scientific journals. Your individual privacy will be maintained in all published and written data resulting from the study. In accordance with scientific norms, the data from this study may be used or shared with other researchers for future research (after removing personally identifying information) without additional consent from you.</p>

      <p><strong>CONTACT INFORMATION:</strong><br>
      Questions: If you have any questions, concerns or complaints about this research, its procedures, risks and benefits, contact the Protocol Director, Robert Hawkins (<a href=""mailto:rdhawkins@stanford.edu"">rdhawkins@stanford.edu</a>, 217-549-6923).<br>
      Independent Contact: If you are not satisfied with how this study is being conducted, or if you have any concerns, complaints, or general questions about the research or your rights as a participant, please contact the Stanford Institutional Review Board (IRB) to speak to someone independent of the research team at 650-723-2480 or toll free at 1-866-680-2906, or email at <a href=""mailto:irbnon-med@stanford.edu"">irbnon-med@stanford.edu</a>. You can also write to the Stanford IRB, Stanford University, 1705 El Camino Real, Palo Alto, CA 94306.</p>

      <p><strong>Please save or print a copy of this page for your records.</strong></p>
      <p>If you agree to participate in this research, click ""Continue"" below.</p>
    </div>
  ","0","html-button-response","0","2.1.0","9780","J=YES, F=NO","jfqrlx5h9q","2","76","73","80","","","","","","","","","","","","","","","",""
"2571","
    <div style=""max-width: 800px; margin: auto; text-align: left;"">
      <h2>Welcome!</h2>
      <p>Thank you for participating in this study. The experiment consists of three parts:</p>
      <ol>
        <li>An English vocabulary test</li>
        <li>A main task in which you will hear and see words, and decide whether the written word is a real English word</li>
        <li>A brief survey about your background</li>
      </ol>
      <p>Each part will be introduced before it begins.</p>
      <p>Please make sure you are in a quiet environment and can hear audio clearly for the final task.</p>
      <p style=""margin-top: 2em;"">Press any key to begin.</p>
    </div>
  ","s","html-keyboard-response","1","2.1.0","12353","J=YES, F=NO","jfqrlx5h9q","2","76","73","80","","","","","","","","","","","","","","","",""
"","","","preload","2","2.1.0","12908","J=YES, F=NO","jfqrlx5h9q","2","76","73","80","true","false","[]","[]","[]","","","","","","","","","","",""
"3622","
    <div style=""max-width: 800px; margin: auto; text-align: left;"">
      <h2>Part 1: Vocabulary Test</h2>
      <p>You will now complete the first part of the study: a short English vocabulary test.</p>
      <p>This test is called <strong>LexTALE</strong> and helps us get a general sense of your English proficiency.</p>
      <p style=""margin-top: 2em;"">Press any key to continue.</p>
    </div>
  ","s","html-keyboard-response","3","2.1.0","16530","J=YES, F=NO","jfqrlx5h9q","2","76","73","80","","","","","","","","","","","","","","","",""
"19595","
    <div style=""max-width: 800px; margin: auto; text-align: left;"">
      <h2>LexTALE Vocabulary Test</h2>
      <p>In this test, you will see a series of letter strings—one at a time.</p>
      <p>Your task is to decide whether each string is a real English word.</p>
      <p><strong>Key responses:</strong></p>
      <ul>
        <li><strong>J</strong> = YES (real English word)</li>
        <li><strong>F</strong> = NO (not a real English word)</li>
      </ul>
      <p>There is no time limit, but please try to be accurate.</p>
      <p style=""margin-top: 2em;"">Press any key to begin.</p>
    </div>
  "," ","html-keyboard-response","4","2.1.0","36126","J=YES, F=NO","jfqrlx5h9q","2","76","73","80","","","","","","","","","","","","","","","",""
"3511","
  <p style=""font-size: 40px;"">platery</p>
  <p style=""font-size: 16px;"">J = YES &nbsp;&nbsp;&nbsp; F = NO</p>
","j","html-keyboard-response","5","2.1.0","39637","J=YES, F=NO","jfqrlx5h9q","2","76","73","80","","","","","","lextale","false","true","","","","","","","",""
"950","
  <p style=""font-size: 40px;"">denial</p>
  <p style=""font-size: 16px;"">J = YES &nbsp;&nbsp;&nbsp; F = NO</p>
","j","html-keyboard-response","6","2.1.0","40588","J=YES, F=NO","jfqrlx5h9q","2","76","73","80","","","","","","lextale","true","true","","","","","","","",""
"2153","
  <p style=""font-size: 40px;"">marrit</p>
  <p style=""font-size: 16px;"">J = YES &nbsp;&nbsp;&nbsp; F = NO</p>
","f","html-keyboard-response","7","2.1.0","42742","J=YES, F=NO","jfqrlx5h9q","2","76","73","80","","","","","","lextale","false","true","","","","","","","",""
"719","
  <p style=""font-size: 40px;"">bottle</p>
  <p style=""font-size: 16px;"">J = YES &nbsp;&nbsp;&nbsp; F = NO</p>
","j","html-keyboard-response","8","2.1.0","43461","J=YES, F=NO","jfqrlx5h9q","2","76","73","80","","","","","","lextale","true","false","","","","","","","",""
"1109","
  <p style=""font-size: 40px;"">birst</p>
  <p style=""font-size: 16px;"">J = YES &nbsp;&nbsp;&nbsp; F = NO</p>
","f","html-keyboard-response","9","2.1.0","44571","J=YES, F=NO","jfqrlx5h9q","2","76","73","80","","","","","","lextale","false","false","","","","","","","",""
"695","
  <p style=""font-size: 40px;"">envy</p>
  <p style=""font-size: 16px;"">J = YES &nbsp;&nbsp;&nbsp; F = NO</p>
","j","html-keyboard-response","10","2.1.0","45267","J=YES, F=NO","jfqrlx5h9q","2","76","73","80","","","","","","lextale","true","false","","","","","","","",""
"982","
  <p style=""font-size: 40px;"">brang</p>
  <p style=""font-size: 16px;"">J = YES &nbsp;&nbsp;&nbsp; F = NO</p>
","f","html-keyboard-response","11","2.1.0","46249","J=YES, F=NO","jfqrlx5h9q","2","76","73","80","","","","","","lextale","false","false","","","","","","","",""
"614","
  <p style=""font-size: 40px;"">huge</p>
  <p style=""font-size: 16px;"">J = YES &nbsp;&nbsp;&nbsp; F = NO</p>
","j","html-keyboard-response","12","2.1.0","46863","J=YES, F=NO","jfqrlx5h9q","2","76","73","80","","","","","","lextale","true","false","","","","","","","",""
"1553","
  <p style=""font-size: 40px;"">plove</p>
  <p style=""font-size: 16px;"">J = YES &nbsp;&nbsp;&nbsp; F = NO</p>
","f","html-keyboard-response","13","2.1.0","48417","J=YES, F=NO","jfqrlx5h9q","2","76","73","80","","","","","","lextale","false","false","","","","","","","",""
"3846","
  <p style=""font-size: 40px;"">border</p>
  <p style=""font-size: 16px;"">J = YES &nbsp;&nbsp;&nbsp; F = NO</p>
","j","html-keyboard-response","14","2.1.0","52263","J=YES, F=NO","jfqrlx5h9q","2","76","73","80","","","","","","lextale","true","false","","","","","","","",""
"2446","
  <p style=""font-size: 40px;"">flimsy</p>
  <p style=""font-size: 16px;"">J = YES &nbsp;&nbsp;&nbsp; F = NO</p>
","j","html-keyboard-response","15","2.1.0","54709","J=YES, F=NO","jfqrlx5h9q","2","76","73","80","","","","","","lextale","true","false","","","","","","","",""
"1921","
  <p style=""font-size: 40px;"">drain</p>
  <p style=""font-size: 16px;"">J = YES &nbsp;&nbsp;&nbsp; F = NO</p>
","j","html-keyboard-response","16","2.1.0","56631","J=YES, F=NO","jfqrlx5h9q","2","76","73","80","","","","","","lextale","true","false","","","","","","","",""
"2483","
  <p style=""font-size: 40px;"">twindle</p>
  <p style=""font-size: 16px;"">J = YES &nbsp;&nbsp;&nbsp; F = NO</p>
","j","html-keyboard-response","17","2.1.0","59114","J=YES, F=NO","jfqrlx5h9q","2","76","73","80","","","","","","lextale","false","false","","","","","","","",""
"790","
  <p style=""font-size: 40px;"">propose</p>
  <p style=""font-size: 16px;"">J = YES &nbsp;&nbsp;&nbsp; F = NO</p>
","j","html-keyboard-response","18","2.1.0","59905","J=YES, F=NO","jfqrlx5h9q","2","76","73","80","","","","","","lextale","true","false","","","","","","","",""
"1113","
  <p style=""font-size: 40px;"">forlay</p>
  <p style=""font-size: 16px;"">J = YES &nbsp;&nbsp;&nbsp; F = NO</p>
","f","html-keyboard-response","19","2.1.0","61018","J=YES, F=NO","jfqrlx5h9q","2","76","73","80","","","","","","lextale","false","false","","","","","","","",""
"1409","
  <p style=""font-size: 40px;"">tenant</p>
  <p style=""font-size: 16px;"">J = YES &nbsp;&nbsp;&nbsp; F = NO</p>
","j","html-keyboard-response","20","2.1.0","62427","J=YES, F=NO","jfqrlx5h9q","2","76","73","80","","","","","","lextale","true","false","","","","","","","",""
"1675","
  <p style=""font-size: 40px;"">strain</p>
  <p style=""font-size: 16px;"">J = YES &nbsp;&nbsp;&nbsp; F = NO</p>
","j","html-keyboard-response","21","2.1.0","64103","J=YES, F=NO","jfqrlx5h9q","2","76","73","80","","","","","","lextale","true","false","","","","","","","",""
"1037","
  <p style=""font-size: 40px;"">holster</p>
  <p style=""font-size: 16px;"">J = YES &nbsp;&nbsp;&nbsp; F = NO</p>
","j","html-keyboard-response","22","2.1.0","65140","J=YES, F=NO","jfqrlx5h9q","2","76","73","80","","","","","","lextale","true","false","","","","","","","",""
"1012","
  <p style=""font-size: 40px;"">hinder</p>
  <p style=""font-size: 16px;"">J = YES &nbsp;&nbsp;&nbsp; F = NO</p>
","j","html-keyboard-response","23","2.1.0","66153","J=YES, F=NO","jfqrlx5h9q","2","76","73","80","","","","","","lextale","true","false","","","","","","","",""
"1037","
  <p style=""font-size: 40px;"">swindle</p>
  <p style=""font-size: 16px;"">J = YES &nbsp;&nbsp;&nbsp; F = NO</p>
","j","html-keyboard-response","24","2.1.0","67190","J=YES, F=NO","jfqrlx5h9q","2","76","73","80","","","","","","lextale","true","false","","","","","","","",""
"1135","
  <p style=""font-size: 40px;"">nuder</p>
  <p style=""font-size: 16px;"">J = YES &nbsp;&nbsp;&nbsp; F = NO</p>
","f","html-keyboard-response","25","2.1.0","68325","J=YES, F=NO","jfqrlx5h9q","2","76","73","80","","","","","","lextale","false","false","","","","","","","",""
"1085","
  <p style=""font-size: 40px;"">pillow</p>
  <p style=""font-size: 16px;"">J = YES &nbsp;&nbsp;&nbsp; F = NO</p>
","j","html-keyboard-response","26","2.1.0","69410","J=YES, F=NO","jfqrlx5h9q","2","76","73","80","","","","","","lextale","true","false","","","","","","","",""
"1365","
  <p style=""font-size: 40px;"">shumble</p>
  <p style=""font-size: 16px;"">J = YES &nbsp;&nbsp;&nbsp; F = NO</p>
","f","html-keyboard-response","27","2.1.0","70775","J=YES, F=NO","jfqrlx5h9q","2","76","73","80","","","","","","lextale","false","false","","","","","","","",""
"1555","
  <p style=""font-size: 40px;"">thirst</p>
  <p style=""font-size: 16px;"">J = YES &nbsp;&nbsp;&nbsp; F = NO</p>
","f","html-keyboard-response","28","2.1.0","72331","J=YES, F=NO","jfqrlx5h9q","2","76","73","80","","","","","","lextale","true","false","","","","","","","",""
"1288","
  <p style=""font-size: 40px;"">unsail</p>
  <p style=""font-size: 16px;"">J = YES &nbsp;&nbsp;&nbsp; F = NO</p>
","j","html-keyboard-response","29","2.1.0","73619","J=YES, F=NO","jfqrlx5h9q","2","76","73","80","","","","","","lextale","false","false","","","","","","","",""
"1633","
  <p style=""font-size: 40px;"">rifle</p>
  <p style=""font-size: 16px;"">J = YES &nbsp;&nbsp;&nbsp; F = NO</p>
","j","html-keyboard-response","30","2.1.0","75252","J=YES, F=NO","jfqrlx5h9q","2","76","73","80","","","","","","lextale","true","false","","","","","","","",""
"847","
  <p style=""font-size: 40px;"">mush</p>
  <p style=""font-size: 16px;"">J = YES &nbsp;&nbsp;&nbsp; F = NO</p>
","j","html-keyboard-response","31","2.1.0","76099","J=YES, F=NO","jfqrlx5h9q","2","76","73","80","","","","","","lextale","false","false","","","","","","","",""
"992","
  <p style=""font-size: 40px;"">drench</p>
  <p style=""font-size: 16px;"">J = YES &nbsp;&nbsp;&nbsp; F = NO</p>
","j","html-keyboard-response","32","2.1.0","77091","J=YES, F=NO","jfqrlx5h9q","2","76","73","80","","","","","","lextale","true","false","","","","","","","",""
"1036","
  <p style=""font-size: 40px;"">snirt</p>
  <p style=""font-size: 16px;"">J = YES &nbsp;&nbsp;&nbsp; F = NO</p>
","f","html-keyboard-response","33","2.1.0","78128","J=YES, F=NO","jfqrlx5h9q","2","76","73","80","","","","","","lextale","false","false","","","","","","","",""
"918","
  <p style=""font-size: 40px;"">bitter</p>
  <p style=""font-size: 16px;"">J = YES &nbsp;&nbsp;&nbsp; F = NO</p>
","j","html-keyboard-response","34","2.1.0","79045","J=YES, F=NO","jfqrlx5h9q","2","76","73","80","","","","","","lextale","true","false","","","","","","","",""
"1114","
  <p style=""font-size: 40px;"">pliff</p>
  <p style=""font-size: 16px;"">J = YES &nbsp;&nbsp;&nbsp; F = NO</p>
","f","html-keyboard-response","35","2.1.0","80159","J=YES, F=NO","jfqrlx5h9q","2","76","73","80","","","","","","lextale","false","false","","","","","","","",""
"646","
  <p style=""font-size: 40px;"">tablet</p>
  <p style=""font-size: 16px;"">J = YES &nbsp;&nbsp;&nbsp; F = NO</p>
","j","html-keyboard-response","36","2.1.0","80806","J=YES, F=NO","jfqrlx5h9q","2","76","73","80","","","","","","lextale","true","false","","","","","","","",""
"895","
  <p style=""font-size: 40px;"">glimmer</p>
  <p style=""font-size: 16px;"">J = YES &nbsp;&nbsp;&nbsp; F = NO</p>
","j","html-keyboard-response","37","2.1.0","81702","J=YES, F=NO","jfqrlx5h9q","2","76","73","80","","","","","","lextale","true","false","","","","","","","",""
"1581","
  <p style=""font-size: 40px;"">slink</p>
  <p style=""font-size: 16px;"">J = YES &nbsp;&nbsp;&nbsp; F = NO</p>
","f","html-keyboard-response","38","2.1.0","83283","J=YES, F=NO","jfqrlx5h9q","2","76","73","80","","","","","","lextale","true","false","","","","","","","",""
"762","
  <p style=""font-size: 40px;"">clever</p>
  <p style=""font-size: 16px;"">J = YES &nbsp;&nbsp;&nbsp; F = NO</p>
","j","html-keyboard-response","39","2.1.0","84046","J=YES, F=NO","jfqrlx5h9q","2","76","73","80","","","","","","lextale","true","false","","","","","","","",""
"973","
  <p style=""font-size: 40px;"">grum</p>
  <p style=""font-size: 16px;"">J = YES &nbsp;&nbsp;&nbsp; F = NO</p>
","f","html-keyboard-response","40","2.1.0","85020","J=YES, F=NO","jfqrlx5h9q","2","76","73","80","","","","","","lextale","false","false","","","","","","","",""
"795","
  <p style=""font-size: 40px;"">string</p>
  <p style=""font-size: 16px;"">J = YES &nbsp;&nbsp;&nbsp; F = NO</p>
","j","html-keyboard-response","41","2.1.0","85815","J=YES, F=NO","jfqrlx5h9q","2","76","73","80","","","","","","lextale","true","false","","","","","","","",""
"983","
  <p style=""font-size: 40px;"">plim</p>
  <p style=""font-size: 16px;"">J = YES &nbsp;&nbsp;&nbsp; F = NO</p>
","f","html-keyboard-response","42","2.1.0","86799","J=YES, F=NO","jfqrlx5h9q","2","76","73","80","","","","","","lextale","false","false","","","","","","","",""
"1163","
  <p style=""font-size: 40px;"">cable</p>
  <p style=""font-size: 16px;"">J = YES &nbsp;&nbsp;&nbsp; F = NO</p>
","j","html-keyboard-response","43","2.1.0","87962","J=YES, F=NO","jfqrlx5h9q","2","76","73","80","","","","","","lextale","true","false","","","","","","","",""
"1200","
  <p style=""font-size: 40px;"">shrivel</p>
  <p style=""font-size: 16px;"">J = YES &nbsp;&nbsp;&nbsp; F = NO</p>
","j","html-keyboard-response","44","2.1.0","89162","J=YES, F=NO","jfqrlx5h9q","2","76","73","80","","","","","","lextale","true","false","","","","","","","",""
"863","
  <p style=""font-size: 40px;"">tarnish</p>
  <p style=""font-size: 16px;"">J = YES &nbsp;&nbsp;&nbsp; F = NO</p>
","j","html-keyboard-response","45","2.1.0","90026","J=YES, F=NO","jfqrlx5h9q","2","76","73","80","","","","","","lextale","true","false","","","","","","","",""
"869","
  <p style=""font-size: 40px;"">blim</p>
  <p style=""font-size: 16px;"">J = YES &nbsp;&nbsp;&nbsp; F = NO</p>
","f","html-keyboard-response","46","2.1.0","90895","J=YES, F=NO","jfqrlx5h9q","2","76","73","80","","","","","","lextale","false","false","","","","","","","",""
"934","
  <p style=""font-size: 40px;"">stifle</p>
  <p style=""font-size: 16px;"">J = YES &nbsp;&nbsp;&nbsp; F = NO</p>
","f","html-keyboard-response","47","2.1.0","91830","J=YES, F=NO","jfqrlx5h9q","2","76","73","80","","","","","","lextale","true","false","","","","","","","",""
"909","
  <p style=""font-size: 40px;"">bint</p>
  <p style=""font-size: 16px;"">J = YES &nbsp;&nbsp;&nbsp; F = NO</p>
","f","html-keyboard-response","48","2.1.0","92739","J=YES, F=NO","jfqrlx5h9q","2","76","73","80","","","","","","lextale","false","false","","","","","","","",""
"1471","
  <p style=""font-size: 40px;"">purple</p>
  <p style=""font-size: 16px;"">J = YES &nbsp;&nbsp;&nbsp; F = NO</p>
","j","html-keyboard-response","49","2.1.0","94210","J=YES, F=NO","jfqrlx5h9q","2","76","73","80","","","","","","lextale","true","false","","","","","","","",""
"803","
  <p style=""font-size: 40px;"">wriggle</p>
  <p style=""font-size: 16px;"">J = YES &nbsp;&nbsp;&nbsp; F = NO</p>
","f","html-keyboard-response","50","2.1.0","95014","J=YES, F=NO","jfqrlx5h9q","2","76","73","80","","","","","","lextale","true","false","","","","","","","",""
"846","
  <p style=""font-size: 40px;"">mangle</p>
  <p style=""font-size: 16px;"">J = YES &nbsp;&nbsp;&nbsp; F = NO</p>
","f","html-keyboard-response","51","2.1.0","95860","J=YES, F=NO","jfqrlx5h9q","2","76","73","80","","","","","","lextale","true","false","","","","","","","",""
"830","
  <p style=""font-size: 40px;"">shramp</p>
  <p style=""font-size: 16px;"">J = YES &nbsp;&nbsp;&nbsp; F = NO</p>
","f","html-keyboard-response","52","2.1.0","96690","J=YES, F=NO","jfqrlx5h9q","2","76","73","80","","","","","","lextale","false","false","","","","","","","",""
"676","
  <p style=""font-size: 40px;"">flirt</p>
  <p style=""font-size: 16px;"">J = YES &nbsp;&nbsp;&nbsp; F = NO</p>
","j","html-keyboard-response","53","2.1.0","97366","J=YES, F=NO","jfqrlx5h9q","2","76","73","80","","","","","","lextale","true","false","","","","","","","",""
"696","
  <p style=""font-size: 40px;"">frip</p>
  <p style=""font-size: 16px;"">J = YES &nbsp;&nbsp;&nbsp; F = NO</p>
","f","html-keyboard-response","54","2.1.0","98063","J=YES, F=NO","jfqrlx5h9q","2","76","73","80","","","","","","lextale","false","false","","","","","","","",""
"922","
  <p style=""font-size: 40px;"">tangle</p>
  <p style=""font-size: 16px;"">J = YES &nbsp;&nbsp;&nbsp; F = NO</p>
","j","html-keyboard-response","55","2.1.0","98985","J=YES, F=NO","jfqrlx5h9q","2","76","73","80","","","","","","lextale","true","false","","","","","","","",""
"665","
  <p style=""font-size: 40px;"">crumble</p>
  <p style=""font-size: 16px;"">J = YES &nbsp;&nbsp;&nbsp; F = NO</p>
","j","html-keyboard-response","56","2.1.0","99651","J=YES, F=NO","jfqrlx5h9q","2","76","73","80","","","","","","lextale","true","false","","","","","","","",""
"737","
  <p style=""font-size: 40px;"">wrinkle</p>
  <p style=""font-size: 16px;"">J = YES &nbsp;&nbsp;&nbsp; F = NO</p>
","j","html-keyboard-response","57","2.1.0","100389","J=YES, F=NO","jfqrlx5h9q","2","76","73","80","","","","","","lextale","true","false","","","","","","","",""
"842","
  <p style=""font-size: 40px;"">slumb</p>
  <p style=""font-size: 16px;"">J = YES &nbsp;&nbsp;&nbsp; F = NO</p>
","f","html-keyboard-response","58","2.1.0","101231","J=YES, F=NO","jfqrlx5h9q","2","76","73","80","","","","","","lextale","false","false","","","","","","","",""
"771","
  <p style=""font-size: 40px;"">jungle</p>
  <p style=""font-size: 16px;"">J = YES &nbsp;&nbsp;&nbsp; F = NO</p>
","j","html-keyboard-response","59","2.1.0","102003","J=YES, F=NO","jfqrlx5h9q","2","76","73","80","","","","","","lextale","true","false","","","","","","","",""
"1180","
  <p style=""font-size: 40px;"">frolick</p>
  <p style=""font-size: 16px;"">J = YES &nbsp;&nbsp;&nbsp; F = NO</p>
","f","html-keyboard-response","60","2.1.0","103183","J=YES, F=NO","jfqrlx5h9q","2","76","73","80","","","","","","lextale","false","false","","","","","","","",""
"3542","
      <h2>LexTALE Test Completed</h2>
      <p>Your LexTALE vocabulary score is: <strong>76%</strong></p>
      <p>Press any key to continue.</p>
    "," ","html-keyboard-response","61","2.1.0","106726","J=YES, F=NO","jfqrlx5h9q","2","76","73","80","","","","","","","","","","","","","","","",""
"5596","
    <div style=""max-width: 800px; margin: auto; text-align: left;"">
      <h2>Break Time</h2>
      <p>You have completed the first part of the study.</p>
      <p>You may take a short <strong>30-second break</strong> before continuing.</p>
      <p>When you’re ready, press any key to continue to the final task.</p>
    </div>
  ","f","html-keyboard-response","62","2.1.0","112323","J=YES, F=NO","jfqrlx5h9q","2","76","73","80","","","","","","","","","","","","","","","",""
"24685","
    <div style=""max-width: 800px; margin: auto; text-align: left;"">
      <h2>Part 2: Lexical Decision Task</h2>
      <p>You will now begin the second part of the study.</p>
      <p>Each trial will follow this sequence:</p>
      <ul>
        <li>A fixation cross (+) appears at the center of the screen.</li>
        <li>You will hear a short beep followed by a spoken word.</li>
        <li>A written word will appear briefly on the screen.</li>
      </ul>
      <p>Your task is to judge whether the <strong>written word</strong> is a real English word.</p>
      <p style=""margin-top: 1em;""><strong>Key responses:</strong></p>
      <ul>
        <li><strong>J</strong> = YES (real English word)</li>
        <li><strong>F</strong> = NO (not a real English word)</li>
      </ul>
      <p>Please respond as quickly and accurately as you can.</p>
      <p style=""margin-top: 2em;"">Press any key to continue.</p>
    </div>
  ","j","html-keyboard-response","63","2.1.0","137009","J=YES, F=NO","jfqrlx5h9q","2","76","73","80","","","","","","","","","","","","","","","",""
"4528","
    <div style=""max-width: 800px; margin: auto; text-align: left;"">
      <h2>Before You Begin</h2>
      <p>Make sure your sound is turned on.</p>
      <p>You will hear audio during each trial, but your decision should be based only on the <strong>written word</strong> you see on the screen.</p>
      <p><strong>Reminder:</strong></p>
      <ul>
        <li><strong>J</strong> = YES (real English word)</li>
        <li><strong>F</strong> = NO (not a real English word)</li>
      </ul>
      <p style=""margin-top: 2em;"">Press any key when you are ready to begin.</p>
    </div>
  ","j","html-keyboard-response","64","2.1.0","141537","J=YES, F=NO","jfqrlx5h9q","2","76","73","80","","","","","","","","","","","","","","","",""
"2828","
    <div style=""max-width: 800px; margin: auto; text-align: left;"">
      <h2>Part 2: Practice Trials</h2>
      <p>You will now complete a few <strong>practice trials</strong> to get familiar with the task.</p>
      <p>These trials are <strong>not scored</strong> and are only to help you get used to the format.</p>
      <p style=""margin-top: 2em;"">Press any key to begin.</p>
    </div>
  ","j","html-keyboard-response","65","2.1.0","144366","J=YES, F=NO","jfqrlx5h9q","2","76","73","80","","","","","","","","","","","","","","","",""
"1255","<p>Starting practice block 1 of 2. Press any key to continue.</p>","j","html-keyboard-response","66","2.1.0","145621","J=YES, F=NO","jfqrlx5h9q","2","76","73","80","","","","","","","","","","","","","","","",""
"null","<p style=""font-size: 50px;"">+</p>","null","html-keyboard-response","67","2.1.0","145930","J=YES, F=NO","jfqrlx5h9q","2","76","73","80","","","","","","","","","","","","","","","",""
"null","audio/beep-329314.mp3","null","audio-keyboard-response","68","2.1.0","147466","J=YES, F=NO","jfqrlx5h9q","2","76","73","80","","","","","","","","","","","","","","","",""
"null","audio/bottle.wav","null","audio-keyboard-response","69","2.1.0","148025","J=YES, F=NO","jfqrlx5h9q","2","76","73","80","","","","","","","","","","","","","","","",""
"null","
          <p id=""word"" style=""font-size: 40px;"">watch</p>
          <p style=""font-size: 16px;"">J = YES &nbsp;&nbsp;&nbsp; F = NO</p>
        ","null","html-keyboard-response","70","2.1.0","149528","J=YES, F=NO","jfqrlx5h9q","2","76","73","80","","","","","","","","","watch","bottle","filler","filler","j","false","",""
"null","<p style=""font-size: 50px;"">+</p>","null","html-keyboard-response","71","2.1.0","149839","J=YES, F=NO","jfqrlx5h9q","2","76","73","80","","","","","","","","","","","","","","","",""
"null","audio/beep-329314.mp3","null","audio-keyboard-response","72","2.1.0","151366","J=YES, F=NO","jfqrlx5h9q","2","76","73","80","","","","","","","","","","","","","","","",""
"null","audio/neck.wav","null","audio-keyboard-response","73","2.1.0","152025","J=YES, F=NO","jfqrlx5h9q","2","76","73","80","","","","","","","","","","","","","","","",""
"1247","
          <p id=""word"" style=""font-size: 40px;"">werling</p>
          <p style=""font-size: 16px;"">J = YES &nbsp;&nbsp;&nbsp; F = NO</p>
        ","j","html-keyboard-response","74","2.1.0","153273","J=YES, F=NO","jfqrlx5h9q","2","76","73","80","","","","","","","","","werling","neck","pseudoword","pseudoword","f","false","",""
"null","<p style=""font-size: 50px;"">+</p>","null","html-keyboard-response","75","2.1.0","153583","J=YES, F=NO","jfqrlx5h9q","2","76","73","80","","","","","","","","","","","","","","","",""
"null","audio/beep-329314.mp3","null","audio-keyboard-response","76","2.1.0","155105","J=YES, F=NO","jfqrlx5h9q","2","76","73","80","","","","","","","","","","","","","","","",""
"null","audio/butter1.wav","null","audio-keyboard-response","77","2.1.0","155665","J=YES, F=NO","jfqrlx5h9q","2","76","73","80","","","","","","","","","","","","","","","",""
"822","
          <p id=""word"" style=""font-size: 40px;"">chew</p>
          <p style=""font-size: 16px;"">J = YES &nbsp;&nbsp;&nbsp; F = NO</p>
        ","j","html-keyboard-response","78","2.1.0","156487","J=YES, F=NO","jfqrlx5h9q","2","76","73","80","","","","","","","","","chew","butter1","filler","filler","j","true","",""
"null","<p style=""font-size: 50px;"">+</p>","null","html-keyboard-response","79","2.1.0","156796","J=YES, F=NO","jfqrlx5h9q","2","76","73","80","","","","","","","","","","","","","","","",""
"null","audio/beep-329314.mp3","null","audio-keyboard-response","80","2.1.0","158325","J=YES, F=NO","jfqrlx5h9q","2","76","73","80","","","","","","","","","","","","","","","",""
"null","audio/camera1.wav","null","audio-keyboard-response","81","2.1.0","158825","J=YES, F=NO","jfqrlx5h9q","2","76","73","80","","","","","","","","","","","","","","","",""
"786","
          <p id=""word"" style=""font-size: 40px;"">stir</p>
          <p style=""font-size: 16px;"">J = YES &nbsp;&nbsp;&nbsp; F = NO</p>
        ","j","html-keyboard-response","82","2.1.0","159611","J=YES, F=NO","jfqrlx5h9q","2","76","73","80","","","","","","","","","stir","camera1","filler","filler","j","true","",""
"null","<p style=""font-size: 50px;"">+</p>","null","html-keyboard-response","83","2.1.0","159917","J=YES, F=NO","jfqrlx5h9q","2","76","73","80","","","","","","","","","","","","","","","",""
"null","audio/beep-329314.mp3","null","audio-keyboard-response","84","2.1.0","161445","J=YES, F=NO","jfqrlx5h9q","2","76","73","80","","","","","","","","","","","","","","","",""
"null","audio/menu.wav","null","audio-keyboard-response","85","2.1.0","162145","J=YES, F=NO","jfqrlx5h9q","2","76","73","80","","","","","","","","","","","","","","","",""
"980","
          <p id=""word"" style=""font-size: 40px;"">slice</p>
          <p style=""font-size: 16px;"">J = YES &nbsp;&nbsp;&nbsp; F = NO</p>
        ","j","html-keyboard-response","86","2.1.0","163126","J=YES, F=NO","jfqrlx5h9q","2","76","73","80","","","","","","","","","slice","menu","filler","filler","j","true","",""
"null","<p style=""font-size: 50px;"">+</p>","null","html-keyboard-response","87","2.1.0","163437","J=YES, F=NO","jfqrlx5h9q","2","76","73","80","","","","","","","","","","","","","","","",""
"null","audio/beep-329314.mp3","null","audio-keyboard-response","88","2.1.0","164965","J=YES, F=NO","jfqrlx5h9q","2","76","73","80","","","","","","","","","","","","","","","",""
"null","audio/account1.wav","null","audio-keyboard-response","89","2.1.0","165645","J=YES, F=NO","jfqrlx5h9q","2","76","73","80","","","","","","","","","","","","","","","",""
"737","
          <p id=""word"" style=""font-size: 40px;"">paint</p>
          <p style=""font-size: 16px;"">J = YES &nbsp;&nbsp;&nbsp; F = NO</p>
        ","j","html-keyboard-response","90","2.1.0","166382","J=YES, F=NO","jfqrlx5h9q","2","76","73","80","","","","","","","","","paint","account1","filler","filler","j","true","",""
"null","<p style=""font-size: 50px;"">+</p>","null","html-keyboard-response","91","2.1.0","166691","J=YES, F=NO","jfqrlx5h9q","2","76","73","80","","","","","","","","","","","","","","","",""
"null","audio/beep-329314.mp3","null","audio-keyboard-response","92","2.1.0","168226","J=YES, F=NO","jfqrlx5h9q","2","76","73","80","","","","","","","","","","","","","","","",""
"null","audio/hotel1.wav","null","audio-keyboard-response","93","2.1.0","168845","J=YES, F=NO","jfqrlx5h9q","2","76","73","80","","","","","","","","","","","","","","","",""
"807","
          <p id=""word"" style=""font-size: 40px;"">flanter</p>
          <p style=""font-size: 16px;"">J = YES &nbsp;&nbsp;&nbsp; F = NO</p>
        ","f","html-keyboard-response","94","2.1.0","169652","J=YES, F=NO","jfqrlx5h9q","2","76","73","80","","","","","","","","","flanter","hotel1","pseudoword","pseudoword","f","true","",""
"null","<p style=""font-size: 50px;"">+</p>","null","html-keyboard-response","95","2.1.0","169961","J=YES, F=NO","jfqrlx5h9q","2","76","73","80","","","","","","","","","","","","","","","",""
"null","audio/beep-329314.mp3","null","audio-keyboard-response","96","2.1.0","171486","J=YES, F=NO","jfqrlx5h9q","2","76","73","80","","","","","","","","","","","","","","","",""
"null","audio/tomato.wav","null","audio-keyboard-response","97","2.1.0","172145","J=YES, F=NO","jfqrlx5h9q","2","76","73","80","","","","","","","","","","","","","","","",""
"909","
          <p id=""word"" style=""font-size: 40px;"">gladies</p>
          <p style=""font-size: 16px;"">J = YES &nbsp;&nbsp;&nbsp; F = NO</p>
        ","f","html-keyboard-response","98","2.1.0","173054","J=YES, F=NO","jfqrlx5h9q","2","76","73","80","","","","","","","","","gladies","tomato","pseudoword","pseudoword","f","true","",""
"null","<p style=""font-size: 50px;"">+</p>","null","html-keyboard-response","99","2.1.0","173363","J=YES, F=NO","jfqrlx5h9q","2","76","73","80","","","","","","","","","","","","","","","",""
"null","audio/beep-329314.mp3","null","audio-keyboard-response","100","2.1.0","174885","J=YES, F=NO","jfqrlx5h9q","2","76","73","80","","","","","","","","","","","","","","","",""
"null","audio/noise1.wav","null","audio-keyboard-response","101","2.1.0","175485","J=YES, F=NO","jfqrlx5h9q","2","76","73","80","","","","","","","","","","","","","","","",""
"845","
          <p id=""word"" style=""font-size: 40px;"">slintered</p>
          <p style=""font-size: 16px;"">J = YES &nbsp;&nbsp;&nbsp; F = NO</p>
        ","f","html-keyboard-response","102","2.1.0","176330","J=YES, F=NO","jfqrlx5h9q","2","76","73","80","","","","","","","","","slintered","noise1","pseudoword","pseudoword","f","true","",""
"null","<p style=""font-size: 50px;"">+</p>","null","html-keyboard-response","103","2.1.0","176643","J=YES, F=NO","jfqrlx5h9q","2","76","73","80","","","","","","","","","","","","","","","",""
"null","audio/beep-329314.mp3","null","audio-keyboard-response","104","2.1.0","178165","J=YES, F=NO","jfqrlx5h9q","2","76","73","80","","","","","","","","","","","","","","","",""
"null","audio/pattern.wav","null","audio-keyboard-response","105","2.1.0","178665","J=YES, F=NO","jfqrlx5h9q","2","76","73","80","","","","","","","","","","","","","","","",""
"692","
          <p id=""word"" style=""font-size: 40px;"">tug</p>
          <p style=""font-size: 16px;"">J = YES &nbsp;&nbsp;&nbsp; F = NO</p>
        ","j","html-keyboard-response","106","2.1.0","179357","J=YES, F=NO","jfqrlx5h9q","2","76","73","80","","","","","","","","","tug","pattern","filler","filler","j","true","",""
"null","<p style=""font-size: 50px;"">+</p>","null","html-keyboard-response","107","2.1.0","179669","J=YES, F=NO","jfqrlx5h9q","2","76","73","80","","","","","","","","","","","","","","","",""
"null","audio/beep-329314.mp3","null","audio-keyboard-response","108","2.1.0","181205","J=YES, F=NO","jfqrlx5h9q","2","76","73","80","","","","","","","","","","","","","","","",""
"null","audio/gossip1.wav","null","audio-keyboard-response","109","2.1.0","181905","J=YES, F=NO","jfqrlx5h9q","2","76","73","80","","","","","","","","","","","","","","","",""
"870","
          <p id=""word"" style=""font-size: 40px;"">camerish</p>
          <p style=""font-size: 16px;"">J = YES &nbsp;&nbsp;&nbsp; F = NO</p>
        ","f","html-keyboard-response","110","2.1.0","182775","J=YES, F=NO","jfqrlx5h9q","2","76","73","80","","","","","","","","","camerish","gossip1","pseudoword","pseudoword","f","true","",""
"null","<p style=""font-size: 50px;"">+</p>","null","html-keyboard-response","111","2.1.0","183083","J=YES, F=NO","jfqrlx5h9q","2","76","73","80","","","","","","","","","","","","","","","",""
"null","audio/beep-329314.mp3","null","audio-keyboard-response","112","2.1.0","184605","J=YES, F=NO","jfqrlx5h9q","2","76","73","80","","","","","","","","","","","","","","","",""
"null","audio/prisoner.wav","null","audio-keyboard-response","113","2.1.0","185106","J=YES, F=NO","jfqrlx5h9q","2","76","73","80","","","","","","","","","","","","","","","",""
"813","
          <p id=""word"" style=""font-size: 40px;"">egotian</p>
          <p style=""font-size: 16px;"">J = YES &nbsp;&nbsp;&nbsp; F = NO</p>
        ","f","html-keyboard-response","114","2.1.0","185919","J=YES, F=NO","jfqrlx5h9q","2","76","73","80","","","","","","","","","egotian","prisoner","pseudoword","pseudoword","f","true","",""
"1724","<p>Starting practice block 2 of 2. Press any key to continue.</p>","f","html-keyboard-response","115","2.1.0","187644","J=YES, F=NO","jfqrlx5h9q","2","76","73","80","","","","","","","","","","","","","","","",""
"null","<p style=""font-size: 50px;"">+</p>","null","html-keyboard-response","116","2.1.0","187954","J=YES, F=NO","jfqrlx5h9q","2","76","73","80","","","","","","","","","","","","","","","",""
"null","audio/beep-329314.mp3","null","audio-keyboard-response","117","2.1.0","189485","J=YES, F=NO","jfqrlx5h9q","2","76","73","80","","","","","","","","","","","","","","","",""
"null","audio/age1.wav","null","audio-keyboard-response","118","2.1.0","190025","J=YES, F=NO","jfqrlx5h9q","2","76","73","80","","","","","","","","","","","","","","","",""
"714","
          <p id=""word"" style=""font-size: 40px;"">bake</p>
          <p style=""font-size: 16px;"">J = YES &nbsp;&nbsp;&nbsp; F = NO</p>
        ","j","html-keyboard-response","119","2.1.0","190739","J=YES, F=NO","jfqrlx5h9q","2","76","73","80","","","","","","","","","bake","age1","filler","filler","j","true","",""
"null","<p style=""font-size: 50px;"">+</p>","null","html-keyboard-response","120","2.1.0","191043","J=YES, F=NO","jfqrlx5h9q","2","76","73","80","","","","","","","","","","","","","","","",""
"null","audio/beep-329314.mp3","null","audio-keyboard-response","121","2.1.0","192565","J=YES, F=NO","jfqrlx5h9q","2","76","73","80","","","","","","","","","","","","","","","",""
"null","audio/emotion.wav","null","audio-keyboard-response","122","2.1.0","193325","J=YES, F=NO","jfqrlx5h9q","2","76","73","80","","","","","","","","","","","","","","","",""
"834","
          <p id=""word"" style=""font-size: 40px;"">devering</p>
          <p style=""font-size: 16px;"">J = YES &nbsp;&nbsp;&nbsp; F = NO</p>
        ","f","html-keyboard-response","123","2.1.0","194160","J=YES, F=NO","jfqrlx5h9q","2","76","73","80","","","","","","","","","devering","emotion","pseudoword","pseudoword","f","true","",""
"null","<p style=""font-size: 50px;"">+</p>","null","html-keyboard-response","124","2.1.0","194473","J=YES, F=NO","jfqrlx5h9q","2","76","73","80","","","","","","","","","","","","","","","",""
"null","audio/beep-329314.mp3","null","audio-keyboard-response","125","2.1.0","196004","J=YES, F=NO","jfqrlx5h9q","2","76","73","80","","","","","","","","","","","","","","","",""
"null","audio/cinema1.wav","null","audio-keyboard-response","126","2.1.0","196726","J=YES, F=NO","jfqrlx5h9q","2","76","73","80","","","","","","","","","","","","","","","",""
"820","
          <p id=""word"" style=""font-size: 40px;"">murple</p>
          <p style=""font-size: 16px;"">J = YES &nbsp;&nbsp;&nbsp; F = NO</p>
        ","f","html-keyboard-response","127","2.1.0","197546","J=YES, F=NO","jfqrlx5h9q","2","76","73","80","","","","","","","","","murple","cinema1","pseudoword","pseudoword","f","true","",""
"null","<p style=""font-size: 50px;"">+</p>","null","html-keyboard-response","128","2.1.0","197858","J=YES, F=NO","jfqrlx5h9q","2","76","73","80","","","","","","","","","","","","","","","",""
"null","audio/beep-329314.mp3","null","audio-keyboard-response","129","2.1.0","199385","J=YES, F=NO","jfqrlx5h9q","2","76","73","80","","","","","","","","","","","","","","","",""
"null","audio/client1.wav","null","audio-keyboard-response","130","2.1.0","200065","J=YES, F=NO","jfqrlx5h9q","2","76","73","80","","","","","","","","","","","","","","","",""
"654","
          <p id=""word"" style=""font-size: 40px;"">droothe</p>
          <p style=""font-size: 16px;"">J = YES &nbsp;&nbsp;&nbsp; F = NO</p>
        ","f","html-keyboard-response","131","2.1.0","200719","J=YES, F=NO","jfqrlx5h9q","2","76","73","80","","","","","","","","","droothe","client1","pseudoword","pseudoword","f","true","",""
"null","<p style=""font-size: 50px;"">+</p>","null","html-keyboard-response","132","2.1.0","201028","J=YES, F=NO","jfqrlx5h9q","2","76","73","80","","","","","","","","","","","","","","","",""
"null","audio/beep-329314.mp3","null","audio-keyboard-response","133","2.1.0","202565","J=YES, F=NO","jfqrlx5h9q","2","76","73","80","","","","","","","","","","","","","","","",""
"null","audio/burden.wav","null","audio-keyboard-response","134","2.1.0","203185","J=YES, F=NO","jfqrlx5h9q","2","76","73","80","","","","","","","","","","","","","","","",""
"662","
          <p id=""word"" style=""font-size: 40px;"">whotth</p>
          <p style=""font-size: 16px;"">J = YES &nbsp;&nbsp;&nbsp; F = NO</p>
        ","f","html-keyboard-response","135","2.1.0","203847","J=YES, F=NO","jfqrlx5h9q","2","76","73","80","","","","","","","","","whotth","burden","pseudoword","pseudoword","f","true","",""
"null","<p style=""font-size: 50px;"">+</p>","null","html-keyboard-response","136","2.1.0","204156","J=YES, F=NO","jfqrlx5h9q","2","76","73","80","","","","","","","","","","","","","","","",""
"null","audio/beep-329314.mp3","null","audio-keyboard-response","137","2.1.0","205686","J=YES, F=NO","jfqrlx5h9q","2","76","73","80","","","","","","","","","","","","","","","",""
"null","audio/breath.wav","null","audio-keyboard-response","138","2.1.0","206245","J=YES, F=NO","jfqrlx5h9q","2","76","73","80","","","","","","","","","","","","","","","",""
"523","
          <p id=""word"" style=""font-size: 40px;"">pack</p>
          <p style=""font-size: 16px;"">J = YES &nbsp;&nbsp;&nbsp; F = NO</p>
        ","j","html-keyboard-response","139","2.1.0","206768","J=YES, F=NO","jfqrlx5h9q","2","76","73","80","","","","","","","","","pack","breath","filler","filler","j","true","",""
"null","<p style=""font-size: 50px;"">+</p>","null","html-keyboard-response","140","2.1.0","207080","J=YES, F=NO","jfqrlx5h9q","2","76","73","80","","","","","","","","","","","","","","","",""
"null","audio/beep-329314.mp3","null","audio-keyboard-response","141","2.1.0","208605","J=YES, F=NO","jfqrlx5h9q","2","76","73","80","","","","","","","","","","","","","","","",""
"null","audio/holiday1.wav","null","audio-keyboard-response","142","2.1.0","209226","J=YES, F=NO","jfqrlx5h9q","2","76","73","80","","","","","","","","","","","","","","","",""
"595","
          <p id=""word"" style=""font-size: 40px;"">drivets</p>
          <p style=""font-size: 16px;"">J = YES &nbsp;&nbsp;&nbsp; F = NO</p>
        ","f","html-keyboard-response","143","2.1.0","209821","J=YES, F=NO","jfqrlx5h9q","2","76","73","80","","","","","","","","","drivets","holiday1","pseudoword","pseudoword","f","true","",""
"null","<p style=""font-size: 50px;"">+</p>","null","html-keyboard-response","144","2.1.0","210129","J=YES, F=NO","jfqrlx5h9q","2","76","73","80","","","","","","","","","","","","","","","",""
"null","audio/beep-329314.mp3","null","audio-keyboard-response","145","2.1.0","211665","J=YES, F=NO","jfqrlx5h9q","2","76","73","80","","","","","","","","","","","","","","","",""
"null","audio/kettle1.wav","null","audio-keyboard-response","146","2.1.0","212246","J=YES, F=NO","jfqrlx5h9q","2","76","73","80","","","","","","","","","","","","","","","",""
"634","
          <p id=""word"" style=""font-size: 40px;"">wrap</p>
          <p style=""font-size: 16px;"">J = YES &nbsp;&nbsp;&nbsp; F = NO</p>
        ","j","html-keyboard-response","147","2.1.0","212880","J=YES, F=NO","jfqrlx5h9q","2","76","73","80","","","","","","","","","wrap","kettle1","filler","filler","j","true","",""
"null","<p style=""font-size: 50px;"">+</p>","null","html-keyboard-response","148","2.1.0","213193","J=YES, F=NO","jfqrlx5h9q","2","76","73","80","","","","","","","","","","","","","","","",""
"null","audio/beep-329314.mp3","null","audio-keyboard-response","149","2.1.0","214725","J=YES, F=NO","jfqrlx5h9q","2","76","73","80","","","","","","","","","","","","","","","",""
"null","audio/arm.wav","null","audio-keyboard-response","150","2.1.0","215265","J=YES, F=NO","jfqrlx5h9q","2","76","73","80","","","","","","","","","","","","","","","",""
"657","
          <p id=""word"" style=""font-size: 40px;"">fold</p>
          <p style=""font-size: 16px;"">J = YES &nbsp;&nbsp;&nbsp; F = NO</p>
        ","j","html-keyboard-response","151","2.1.0","215922","J=YES, F=NO","jfqrlx5h9q","2","76","73","80","","","","","","","","","fold","arm","filler","filler","j","true","",""
"null","<p style=""font-size: 50px;"">+</p>","null","html-keyboard-response","152","2.1.0","216230","J=YES, F=NO","jfqrlx5h9q","2","76","73","80","","","","","","","","","","","","","","","",""
"null","audio/beep-329314.mp3","null","audio-keyboard-response","153","2.1.0","217765","J=YES, F=NO","jfqrlx5h9q","2","76","73","80","","","","","","","","","","","","","","","",""
"null","audio/terrain.wav","null","audio-keyboard-response","154","2.1.0","218346","J=YES, F=NO","jfqrlx5h9q","2","76","73","80","","","","","","","","","","","","","","","",""
"489","
          <p id=""word"" style=""font-size: 40px;"">twist</p>
          <p style=""font-size: 16px;"">J = YES &nbsp;&nbsp;&nbsp; F = NO</p>
        ","j","html-keyboard-response","155","2.1.0","218835","J=YES, F=NO","jfqrlx5h9q","2","76","73","80","","","","","","","","","twist","terrain","filler","filler","j","true","",""
"null","<p style=""font-size: 50px;"">+</p>","null","html-keyboard-response","156","2.1.0","219146","J=YES, F=NO","jfqrlx5h9q","2","76","73","80","","","","","","","","","","","","","","","",""
"null","audio/beep-329314.mp3","null","audio-keyboard-response","157","2.1.0","220685","J=YES, F=NO","jfqrlx5h9q","2","76","73","80","","","","","","","","","","","","","","","",""
"null","audio/brain.wav","null","audio-keyboard-response","158","2.1.0","221285","J=YES, F=NO","jfqrlx5h9q","2","76","73","80","","","","","","","","","","","","","","","",""
"854","
          <p id=""word"" style=""font-size: 40px;"">throw</p>
          <p style=""font-size: 16px;"">J = YES &nbsp;&nbsp;&nbsp; F = NO</p>
        ","j","html-keyboard-response","159","2.1.0","222139","J=YES, F=NO","jfqrlx5h9q","2","76","73","80","","","","","","","","","throw","brain","filler","filler","j","true","",""
"null","<p style=""font-size: 50px;"">+</p>","null","html-keyboard-response","160","2.1.0","222446","J=YES, F=NO","jfqrlx5h9q","2","76","73","80","","","","","","","","","","","","","","","",""
"null","audio/beep-329314.mp3","null","audio-keyboard-response","161","2.1.0","223986","J=YES, F=NO","jfqrlx5h9q","2","76","73","80","","","","","","","","","","","","","","","",""
"null","audio/roof1.wav","null","audio-keyboard-response","162","2.1.0","224545","J=YES, F=NO","jfqrlx5h9q","2","76","73","80","","","","","","","","","","","","","","","",""
"685","
          <p id=""word"" style=""font-size: 40px;"">wronb</p>
          <p style=""font-size: 16px;"">J = YES &nbsp;&nbsp;&nbsp; F = NO</p>
        ","f","html-keyboard-response","163","2.1.0","225230","J=YES, F=NO","jfqrlx5h9q","2","76","73","80","","","","","","","","","wronb","roof1","pseudoword","pseudoword","f","true","",""
"12670","
    <div style=""max-width: 800px; margin: auto; text-align: left;"">
      <h2>Part 2: Main Trials</h2>
      <p>Great job on the practice trials!</p>
      <p>You will now begin the <strong>main set of trials</strong>.</p>
      <p>Remember your key assignments:</p>
      <ul>
        <li><strong>J</strong> = YES (real English word)</li>
        <li><strong>F</strong> = NO (not a real English word)</li>
      </ul>
      <p>Try to respond as <strong>quickly and accurately</strong> as possible.</p>
      <p style=""margin-top: 2em;"">Press any key to begin the main trials.</p>
    </div>
  ","j","html-keyboard-response","164","2.1.0","237900","J=YES, F=NO","jfqrlx5h9q","2","76","73","80","","","","","","","","","","","","","","","",""
"1251","<p>Starting main block 1 of 8. Press any key to continue.</p>","j","html-keyboard-response","165","2.1.0","239152","J=YES, F=NO","jfqrlx5h9q","2","76","73","80","","","","","","","","","","","","","","","",""
"null","<p style=""font-size: 50px;"">+</p>","null","html-keyboard-response","166","2.1.0","239453","J=YES, F=NO","jfqrlx5h9q","2","76","73","80","","","","","","","","","","","","","","","",""
"null","audio/beep-329314.mp3","null","audio-keyboard-response","167","2.1.0","240958","J=YES, F=NO","jfqrlx5h9q","2","76","73","80","","","","","","","","","","","","","","","",""
"null","audio/cave1.wav","null","audio-keyboard-response","168","2.1.0","241587","J=YES, F=NO","jfqrlx5h9q","2","76","73","80","","","","","","","","","","","","","","","",""
"625","
          <p id=""word"" style=""font-size: 40px;"">blacket</p>
          <p style=""font-size: 16px;"">J = YES &nbsp;&nbsp;&nbsp; F = NO</p>
        ","j","html-keyboard-response","169","2.1.0","242213","J=YES, F=NO","jfqrlx5h9q","2","76","73","80","","","","","","","","","blacket","cave1","pseudoword","pseudoword","f","false","",""
"null","<p style=""font-size: 50px;"">+</p>","null","html-keyboard-response","170","2.1.0","242523","J=YES, F=NO","jfqrlx5h9q","2","76","73","80","","","","","","","","","","","","","","","",""
"null","audio/beep-329314.mp3","null","audio-keyboard-response","171","2.1.0","244058","J=YES, F=NO","jfqrlx5h9q","2","76","73","80","","","","","","","","","","","","","","","",""
"null","audio/goal.wav","null","audio-keyboard-response","172","2.1.0","244448","J=YES, F=NO","jfqrlx5h9q","2","76","73","80","","","","","","","","","","","","","","","",""
"573","
          <p id=""word"" style=""font-size: 40px;"">support</p>
          <p style=""font-size: 16px;"">J = YES &nbsp;&nbsp;&nbsp; F = NO</p>
        ","j","html-keyboard-response","173","2.1.0","245022","J=YES, F=NO","jfqrlx5h9q","2","76","73","80","","","","","","","","","support","goal","metaphor","experimental","j","true","",""
"null","<p style=""font-size: 50px;"">+</p>","null","html-keyboard-response","174","2.1.0","245330","J=YES, F=NO","jfqrlx5h9q","2","76","73","80","","","","","","","","","","","","","","","",""
"null","audio/beep-329314.mp3","null","audio-keyboard-response","175","2.1.0","246857","J=YES, F=NO","jfqrlx5h9q","2","76","73","80","","","","","","","","","","","","","","","",""
"null","audio/pride1.wav","null","audio-keyboard-response","176","2.1.0","247388","J=YES, F=NO","jfqrlx5h9q","2","76","73","80","","","","","","","","","","","","","","","",""
"650","
          <p id=""word"" style=""font-size: 40px;"">hurt</p>
          <p style=""font-size: 16px;"">J = YES &nbsp;&nbsp;&nbsp; F = NO</p>
        ","j","html-keyboard-response","177","2.1.0","248038","J=YES, F=NO","jfqrlx5h9q","2","76","73","80","","","","","","","","","hurt","pride1","metaphor","experimental","j","true","",""
"null","<p style=""font-size: 50px;"">+</p>","null","html-keyboard-response","178","2.1.0","248345","J=YES, F=NO","jfqrlx5h9q","2","76","73","80","","","","","","","","","","","","","","","",""
"null","audio/beep-329314.mp3","null","audio-keyboard-response","179","2.1.0","249878","J=YES, F=NO","jfqrlx5h9q","2","76","73","80","","","","","","","","","","","","","","","",""
"null","audio/tunnel.wav","null","audio-keyboard-response","180","2.1.0","250288","J=YES, F=NO","jfqrlx5h9q","2","76","73","80","","","","","","","","","","","","","","","",""
"689","
          <p id=""word"" style=""font-size: 40px;"">gred</p>
          <p style=""font-size: 16px;"">J = YES &nbsp;&nbsp;&nbsp; F = NO</p>
        ","f","html-keyboard-response","181","2.1.0","250978","J=YES, F=NO","jfqrlx5h9q","2","76","73","80","","","","","","","","","gred","tunnel","pseudoword","pseudoword","f","true","",""
"null","<p style=""font-size: 50px;"">+</p>","null","html-keyboard-response","182","2.1.0","251285","J=YES, F=NO","jfqrlx5h9q","2","76","73","80","","","","","","","","","","","","","","","",""
"null","audio/beep-329314.mp3","null","audio-keyboard-response","183","2.1.0","252818","J=YES, F=NO","jfqrlx5h9q","2","76","73","80","","","","","","","","","","","","","","","",""
"null","audio/theory1.wav","null","audio-keyboard-response","184","2.1.0","253447","J=YES, F=NO","jfqrlx5h9q","2","76","73","80","","","","","","","","","","","","","","","",""
"1079","
          <p id=""word"" style=""font-size: 40px;"">scolve</p>
          <p style=""font-size: 16px;"">J = YES &nbsp;&nbsp;&nbsp; F = NO</p>
        ","f","html-keyboard-response","185","2.1.0","254527","J=YES, F=NO","jfqrlx5h9q","2","76","73","80","","","","","","","","","scolve","theory1","pseudoword","pseudoword","f","true","",""
"null","<p style=""font-size: 50px;"">+</p>","null","html-keyboard-response","186","2.1.0","254833","J=YES, F=NO","jfqrlx5h9q","2","76","73","80","","","","","","","","","","","","","","","",""
"null","audio/beep-329314.mp3","null","audio-keyboard-response","187","2.1.0","256358","J=YES, F=NO","jfqrlx5h9q","2","76","73","80","","","","","","","","","","","","","","","",""
"null","audio/pain1.wav","null","audio-keyboard-response","188","2.1.0","256788","J=YES, F=NO","jfqrlx5h9q","2","76","73","80","","","","","","","","","","","","","","","",""
"789","
          <p id=""word"" style=""font-size: 40px;"">tritted</p>
          <p style=""font-size: 16px;"">J = YES &nbsp;&nbsp;&nbsp; F = NO</p>
        ","f","html-keyboard-response","189","2.1.0","257577","J=YES, F=NO","jfqrlx5h9q","2","76","73","80","","","","","","","","","tritted","pain1","pseudoword","pseudoword","f","true","",""
"null","<p style=""font-size: 50px;"">+</p>","null","html-keyboard-response","190","2.1.0","257885","J=YES, F=NO","jfqrlx5h9q","2","76","73","80","","","","","","","","","","","","","","","",""
"null","audio/beep-329314.mp3","null","audio-keyboard-response","191","2.1.0","259418","J=YES, F=NO","jfqrlx5h9q","2","76","73","80","","","","","","","","","","","","","","","",""
"null","audio/inch1.wav","null","audio-keyboard-response","192","2.1.0","259988","J=YES, F=NO","jfqrlx5h9q","2","76","73","80","","","","","","","","","","","","","","","",""
"540","
          <p id=""word"" style=""font-size: 40px;"">lose</p>
          <p style=""font-size: 16px;"">J = YES &nbsp;&nbsp;&nbsp; F = NO</p>
        ","j","html-keyboard-response","193","2.1.0","260528","J=YES, F=NO","jfqrlx5h9q","2","76","73","80","","","","","","","","","lose","inch1","metaphor","experimental","j","true","",""
"null","<p style=""font-size: 50px;"">+</p>","null","html-keyboard-response","194","2.1.0","260838","J=YES, F=NO","jfqrlx5h9q","2","76","73","80","","","","","","","","","","","","","","","",""
"null","audio/beep-329314.mp3","null","audio-keyboard-response","195","2.1.0","262378","J=YES, F=NO","jfqrlx5h9q","2","76","73","80","","","","","","","","","","","","","","","",""
"null","audio/baby.wav","null","audio-keyboard-response","196","2.1.0","262828","J=YES, F=NO","jfqrlx5h9q","2","76","73","80","","","","","","","","","","","","","","","",""
"534","
          <p id=""word"" style=""font-size: 40px;"">hold</p>
          <p style=""font-size: 16px;"">J = YES &nbsp;&nbsp;&nbsp; F = NO</p>
        ","j","html-keyboard-response","197","2.1.0","263362","J=YES, F=NO","jfqrlx5h9q","2","76","73","80","","","","","","","","","hold","baby","literal","experimental","j","true","",""
"null","<p style=""font-size: 50px;"">+</p>","null","html-keyboard-response","198","2.1.0","263670","J=YES, F=NO","jfqrlx5h9q","2","76","73","80","","","","","","","","","","","","","","","",""
"null","audio/beep-329314.mp3","null","audio-keyboard-response","199","2.1.0","265198","J=YES, F=NO","jfqrlx5h9q","2","76","73","80","","","","","","","","","","","","","","","",""
"null","audio/trust.wav","null","audio-keyboard-response","200","2.1.0","265808","J=YES, F=NO","jfqrlx5h9q","2","76","73","80","","","","","","","","","","","","","","","",""
"610","
          <p id=""word"" style=""font-size: 40px;"">swint</p>
          <p style=""font-size: 16px;"">J = YES &nbsp;&nbsp;&nbsp; F = NO</p>
        ","f","html-keyboard-response","201","2.1.0","266418","J=YES, F=NO","jfqrlx5h9q","2","76","73","80","","","","","","","","","swint","trust","pseudoword","pseudoword","f","true","",""
"null","<p style=""font-size: 50px;"">+</p>","null","html-keyboard-response","202","2.1.0","266725","J=YES, F=NO","jfqrlx5h9q","2","76","73","80","","","","","","","","","","","","","","","",""
"null","audio/beep-329314.mp3","null","audio-keyboard-response","203","2.1.0","268258","J=YES, F=NO","jfqrlx5h9q","2","76","73","80","","","","","","","","","","","","","","","",""
"null","audio/planet1.wav","null","audio-keyboard-response","204","2.1.0","268828","J=YES, F=NO","jfqrlx5h9q","2","76","73","80","","","","","","","","","","","","","","","",""
"539","
          <p id=""word"" style=""font-size: 40px;"">save</p>
          <p style=""font-size: 16px;"">J = YES &nbsp;&nbsp;&nbsp; F = NO</p>
        ","j","html-keyboard-response","205","2.1.0","269367","J=YES, F=NO","jfqrlx5h9q","2","76","73","80","","","","","","","","","save","planet1","metaphor","experimental","j","true","",""
"null","<p style=""font-size: 50px;"">+</p>","null","html-keyboard-response","206","2.1.0","269679","J=YES, F=NO","jfqrlx5h9q","2","76","73","80","","","","","","","","","","","","","","","",""
"null","audio/beep-329314.mp3","null","audio-keyboard-response","207","2.1.0","271218","J=YES, F=NO","jfqrlx5h9q","2","76","73","80","","","","","","","","","","","","","","","",""
"null","audio/flaw.wav","null","audio-keyboard-response","208","2.1.0","271828","J=YES, F=NO","jfqrlx5h9q","2","76","73","80","","","","","","","","","","","","","","","",""
"631","
          <p id=""word"" style=""font-size: 40px;"">thwool</p>
          <p style=""font-size: 16px;"">J = YES &nbsp;&nbsp;&nbsp; F = NO</p>
        ","f","html-keyboard-response","209","2.1.0","272459","J=YES, F=NO","jfqrlx5h9q","2","76","73","80","","","","","","","","","thwool","flaw","pseudoword","pseudoword","f","true","",""
"null","<p style=""font-size: 50px;"">+</p>","null","html-keyboard-response","210","2.1.0","272765","J=YES, F=NO","jfqrlx5h9q","2","76","73","80","","","","","","","","","","","","","","","",""
"null","audio/beep-329314.mp3","null","audio-keyboard-response","211","2.1.0","274298","J=YES, F=NO","jfqrlx5h9q","2","76","73","80","","","","","","","","","","","","","","","",""
"null","audio/haste1.wav","null","audio-keyboard-response","212","2.1.0","274848","J=YES, F=NO","jfqrlx5h9q","2","76","73","80","","","","","","","","","","","","","","","",""
"544","
          <p id=""word"" style=""font-size: 40px;"">hide</p>
          <p style=""font-size: 16px;"">J = YES &nbsp;&nbsp;&nbsp; F = NO</p>
        ","j","html-keyboard-response","213","2.1.0","275393","J=YES, F=NO","jfqrlx5h9q","2","76","73","80","","","","","","","","","hide","haste1","unrelated","experimental","j","true","",""
"null","<p style=""font-size: 50px;"">+</p>","null","html-keyboard-response","214","2.1.0","275706","J=YES, F=NO","jfqrlx5h9q","2","76","73","80","","","","","","","","","","","","","","","",""
"null","audio/beep-329314.mp3","null","audio-keyboard-response","215","2.1.0","277238","J=YES, F=NO","jfqrlx5h9q","2","76","73","80","","","","","","","","","","","","","","","",""
"null","audio/effort.wav","null","audio-keyboard-response","216","2.1.0","277808","J=YES, F=NO","jfqrlx5h9q","2","76","73","80","","","","","","","","","","","","","","","",""
"701","
          <p id=""word"" style=""font-size: 40px;"">whonk</p>
          <p style=""font-size: 16px;"">J = YES &nbsp;&nbsp;&nbsp; F = NO</p>
        ","f","html-keyboard-response","217","2.1.0","278509","J=YES, F=NO","jfqrlx5h9q","2","76","73","80","","","","","","","","","whonk","effort","pseudoword","pseudoword","f","true","",""
"null","<p style=""font-size: 50px;"">+</p>","null","html-keyboard-response","218","2.1.0","278820","J=YES, F=NO","jfqrlx5h9q","2","76","73","80","","","","","","","","","","","","","","","",""
"null","audio/beep-329314.mp3","null","audio-keyboard-response","219","2.1.0","280358","J=YES, F=NO","jfqrlx5h9q","2","76","73","80","","","","","","","","","","","","","","","",""
"null","audio/fence.wav","null","audio-keyboard-response","220","2.1.0","280988","J=YES, F=NO","jfqrlx5h9q","2","76","73","80","","","","","","","","","","","","","","","",""
"500","
          <p id=""word"" style=""font-size: 40px;"">climb</p>
          <p style=""font-size: 16px;"">J = YES &nbsp;&nbsp;&nbsp; F = NO</p>
        ","j","html-keyboard-response","221","2.1.0","281488","J=YES, F=NO","jfqrlx5h9q","2","76","73","80","","","","","","","","","climb","fence","literal","experimental","j","true","",""
"null","<p style=""font-size: 50px;"">+</p>","null","html-keyboard-response","222","2.1.0","281795","J=YES, F=NO","jfqrlx5h9q","2","76","73","80","","","","","","","","","","","","","","","",""
"null","audio/beep-329314.mp3","null","audio-keyboard-response","223","2.1.0","283318","J=YES, F=NO","jfqrlx5h9q","2","76","73","80","","","","","","","","","","","","","","","",""
"null","audio/dome.wav","null","audio-keyboard-response","224","2.1.0","283728","J=YES, F=NO","jfqrlx5h9q","2","76","73","80","","","","","","","","","","","","","","","",""
"527","
          <p id=""word"" style=""font-size: 40px;"">feed</p>
          <p style=""font-size: 16px;"">J = YES &nbsp;&nbsp;&nbsp; F = NO</p>
        ","j","html-keyboard-response","225","2.1.0","284256","J=YES, F=NO","jfqrlx5h9q","2","76","73","80","","","","","","","","","feed","dome","unrelated","experimental","j","true","",""
"null","<p style=""font-size: 50px;"">+</p>","null","html-keyboard-response","226","2.1.0","284573","J=YES, F=NO","jfqrlx5h9q","2","76","73","80","","","","","","","","","","","","","","","",""
"null","audio/beep-329314.mp3","null","audio-keyboard-response","227","2.1.0","286098","J=YES, F=NO","jfqrlx5h9q","2","76","73","80","","","","","","","","","","","","","","","",""
"null","audio/winter.wav","null","audio-keyboard-response","228","2.1.0","286648","J=YES, F=NO","jfqrlx5h9q","2","76","73","80","","","","","","","","","","","","","","","",""
"690","
          <p id=""word"" style=""font-size: 40px;"">straven</p>
          <p style=""font-size: 16px;"">J = YES &nbsp;&nbsp;&nbsp; F = NO</p>
        ","f","html-keyboard-response","229","2.1.0","287338","J=YES, F=NO","jfqrlx5h9q","2","76","73","80","","","","","","","","","straven","winter","pseudoword","pseudoword","f","true","",""
"1404","<p>Excellent! You have finished block 1 of 8.</p>
                     <p>Feel free to take a 30 second break.</p>
                     <p>Press any key when you're ready to continue.</p>","j","html-keyboard-response","230","2.1.0","288742","J=YES, F=NO","jfqrlx5h9q","2","76","73","80","","","","","","","","","","","","","","","",""
"476","<p>Starting main block 2 of 8. Press any key to continue.</p>","j","html-keyboard-response","231","2.1.0","289219","J=YES, F=NO","jfqrlx5h9q","2","76","73","80","","","","","","","","","","","","","","","",""
"null","<p style=""font-size: 50px;"">+</p>","null","html-keyboard-response","232","2.1.0","289521","J=YES, F=NO","jfqrlx5h9q","2","76","73","80","","","","","","","","","","","","","","","",""
"null","audio/beep-329314.mp3","null","audio-keyboard-response","233","2.1.0","291058","J=YES, F=NO","jfqrlx5h9q","2","76","73","80","","","","","","","","","","","","","","","",""
"null","audio/tomato.wav","null","audio-keyboard-response","234","2.1.0","291707","J=YES, F=NO","jfqrlx5h9q","2","76","73","80","","","","","","","","","","","","","","","",""
"584","
          <p id=""word"" style=""font-size: 40px;"">grow</p>
          <p style=""font-size: 16px;"">J = YES &nbsp;&nbsp;&nbsp; F = NO</p>
        ","j","html-keyboard-response","235","2.1.0","292292","J=YES, F=NO","jfqrlx5h9q","2","76","73","80","","","","","","","","","grow","tomato","literal","experimental","j","true","",""
"null","<p style=""font-size: 50px;"">+</p>","null","html-keyboard-response","236","2.1.0","292602","J=YES, F=NO","jfqrlx5h9q","2","76","73","80","","","","","","","","","","","","","","","",""
"null","audio/beep-329314.mp3","null","audio-keyboard-response","237","2.1.0","294138","J=YES, F=NO","jfqrlx5h9q","2","76","73","80","","","","","","","","","","","","","","","",""
"null","audio/birth1.wav","null","audio-keyboard-response","238","2.1.0","294668","J=YES, F=NO","jfqrlx5h9q","2","76","73","80","","","","","","","","","","","","","","","",""
"579","
          <p id=""word"" style=""font-size: 40px;"">peel</p>
          <p style=""font-size: 16px;"">J = YES &nbsp;&nbsp;&nbsp; F = NO</p>
        ","j","html-keyboard-response","239","2.1.0","295247","J=YES, F=NO","jfqrlx5h9q","2","76","73","80","","","","","","","","","peel","birth1","filler","filler","j","true","",""
"null","<p style=""font-size: 50px;"">+</p>","null","html-keyboard-response","240","2.1.0","295554","J=YES, F=NO","jfqrlx5h9q","2","76","73","80","","","","","","","","","","","","","","","",""
"null","audio/beep-329314.mp3","null","audio-keyboard-response","241","2.1.0","297078","J=YES, F=NO","jfqrlx5h9q","2","76","73","80","","","","","","","","","","","","","","","",""
"null","audio/smirk1.wav","null","audio-keyboard-response","242","2.1.0","297787","J=YES, F=NO","jfqrlx5h9q","2","76","73","80","","","","","","","","","","","","","","","",""
"617","
          <p id=""word"" style=""font-size: 40px;"">snopt</p>
          <p style=""font-size: 16px;"">J = YES &nbsp;&nbsp;&nbsp; F = NO</p>
        ","f","html-keyboard-response","243","2.1.0","298405","J=YES, F=NO","jfqrlx5h9q","2","76","73","80","","","","","","","","","snopt","smirk1","pseudoword","pseudoword","f","true","",""
"null","<p style=""font-size: 50px;"">+</p>","null","html-keyboard-response","244","2.1.0","298714","J=YES, F=NO","jfqrlx5h9q","2","76","73","80","","","","","","","","","","","","","","","",""
"null","audio/beep-329314.mp3","null","audio-keyboard-response","245","2.1.0","300238","J=YES, F=NO","jfqrlx5h9q","2","76","73","80","","","","","","","","","","","","","","","",""
"null","audio/hawk1.wav","null","audio-keyboard-response","246","2.1.0","300808","J=YES, F=NO","jfqrlx5h9q","2","76","73","80","","","","","","","","","","","","","","","",""
"479","
          <p id=""word"" style=""font-size: 40px;"">wipe</p>
          <p style=""font-size: 16px;"">J = YES &nbsp;&nbsp;&nbsp; F = NO</p>
        ","j","html-keyboard-response","247","2.1.0","301287","J=YES, F=NO","jfqrlx5h9q","2","76","73","80","","","","","","","","","wipe","hawk1","unrelated","experimental","j","true","",""
"null","<p style=""font-size: 50px;"">+</p>","null","html-keyboard-response","248","2.1.0","301595","J=YES, F=NO","jfqrlx5h9q","2","76","73","80","","","","","","","","","","","","","","","",""
"null","audio/beep-329314.mp3","null","audio-keyboard-response","249","2.1.0","303117","J=YES, F=NO","jfqrlx5h9q","2","76","73","80","","","","","","","","","","","","","","","",""
"null","audio/show.wav","null","audio-keyboard-response","250","2.1.0","303648","J=YES, F=NO","jfqrlx5h9q","2","76","73","80","","","","","","","","","","","","","","","",""
"754","
          <p id=""word"" style=""font-size: 40px;"">smark</p>
          <p style=""font-size: 16px;"">J = YES &nbsp;&nbsp;&nbsp; F = NO</p>
        ","f","html-keyboard-response","251","2.1.0","304402","J=YES, F=NO","jfqrlx5h9q","2","76","73","80","","","","","","","","","smark","show","pseudoword","pseudoword","f","true","",""
"null","<p style=""font-size: 50px;"">+</p>","null","html-keyboard-response","252","2.1.0","304712","J=YES, F=NO","jfqrlx5h9q","2","76","73","80","","","","","","","","","","","","","","","",""
"null","audio/beep-329314.mp3","null","audio-keyboard-response","253","2.1.0","306237","J=YES, F=NO","jfqrlx5h9q","2","76","73","80","","","","","","","","","","","","","","","",""
"null","audio/strength.wav","null","audio-keyboard-response","254","2.1.0","306947","J=YES, F=NO","jfqrlx5h9q","2","76","73","80","","","","","","","","","","","","","","","",""
"561","
          <p id=""word"" style=""font-size: 40px;"">plabet</p>
          <p style=""font-size: 16px;"">J = YES &nbsp;&nbsp;&nbsp; F = NO</p>
        ","f","html-keyboard-response","255","2.1.0","307509","J=YES, F=NO","jfqrlx5h9q","2","76","73","80","","","","","","","","","plabet","strength","pseudoword","pseudoword","f","true","",""
"null","<p style=""font-size: 50px;"">+</p>","null","html-keyboard-response","256","2.1.0","307816","J=YES, F=NO","jfqrlx5h9q","2","76","73","80","","","","","","","","","","","","","","","",""
"null","audio/beep-329314.mp3","null","audio-keyboard-response","257","2.1.0","309337","J=YES, F=NO","jfqrlx5h9q","2","76","73","80","","","","","","","","","","","","","","","",""
"null","audio/age1.wav","null","audio-keyboard-response","258","2.1.0","309867","J=YES, F=NO","jfqrlx5h9q","2","76","73","80","","","","","","","","","","","","","","","",""
"792","
          <p id=""word"" style=""font-size: 40px;"">seize</p>
          <p style=""font-size: 16px;"">J = YES &nbsp;&nbsp;&nbsp; F = NO</p>
        ","j","html-keyboard-response","259","2.1.0","310660","J=YES, F=NO","jfqrlx5h9q","2","76","73","80","","","","","","","","","seize","age1","unrelated","experimental","j","true","",""
"null","<p style=""font-size: 50px;"">+</p>","null","html-keyboard-response","260","2.1.0","310970","J=YES, F=NO","jfqrlx5h9q","2","76","73","80","","","","","","","","","","","","","","","",""
"null","audio/beep-329314.mp3","null","audio-keyboard-response","261","2.1.0","312498","J=YES, F=NO","jfqrlx5h9q","2","76","73","80","","","","","","","","","","","","","","","",""
"null","audio/novel.wav","null","audio-keyboard-response","262","2.1.0","312968","J=YES, F=NO","jfqrlx5h9q","2","76","73","80","","","","","","","","","","","","","","","",""
"469","
          <p id=""word"" style=""font-size: 40px;"">type</p>
          <p style=""font-size: 16px;"">J = YES &nbsp;&nbsp;&nbsp; F = NO</p>
        ","j","html-keyboard-response","263","2.1.0","313437","J=YES, F=NO","jfqrlx5h9q","2","76","73","80","","","","","","","","","type","novel","filler","filler","j","true","",""
"null","<p style=""font-size: 50px;"">+</p>","null","html-keyboard-response","264","2.1.0","313748","J=YES, F=NO","jfqrlx5h9q","2","76","73","80","","","","","","","","","","","","","","","",""
"null","audio/beep-329314.mp3","null","audio-keyboard-response","265","2.1.0","315278","J=YES, F=NO","jfqrlx5h9q","2","76","73","80","","","","","","","","","","","","","","","",""
"null","audio/floor.wav","null","audio-keyboard-response","266","2.1.0","315807","J=YES, F=NO","jfqrlx5h9q","2","76","73","80","","","","","","","","","","","","","","","",""
"468","
          <p id=""word"" style=""font-size: 40px;"">cover</p>
          <p style=""font-size: 16px;"">J = YES &nbsp;&nbsp;&nbsp; F = NO</p>
        ","j","html-keyboard-response","267","2.1.0","316276","J=YES, F=NO","jfqrlx5h9q","2","76","73","80","","","","","","","","","cover","floor","literal","experimental","j","true","",""
"null","<p style=""font-size: 50px;"">+</p>","null","html-keyboard-response","268","2.1.0","316585","J=YES, F=NO","jfqrlx5h9q","2","76","73","80","","","","","","","","","","","","","","","",""
"null","audio/beep-329314.mp3","null","audio-keyboard-response","269","2.1.0","318118","J=YES, F=NO","jfqrlx5h9q","2","76","73","80","","","","","","","","","","","","","","","",""
"null","audio/gift1.wav","null","audio-keyboard-response","270","2.1.0","318687","J=YES, F=NO","jfqrlx5h9q","2","76","73","80","","","","","","","","","","","","","","","",""
"599","
          <p id=""word"" style=""font-size: 40px;"">protsh</p>
          <p style=""font-size: 16px;"">J = YES &nbsp;&nbsp;&nbsp; F = NO</p>
        ","f","html-keyboard-response","271","2.1.0","319287","J=YES, F=NO","jfqrlx5h9q","2","76","73","80","","","","","","","","","protsh","gift1","pseudoword","pseudoword","f","true","",""
"null","<p style=""font-size: 50px;"">+</p>","null","html-keyboard-response","272","2.1.0","319594","J=YES, F=NO","jfqrlx5h9q","2","76","73","80","","","","","","","","","","","","","","","",""
"null","audio/beep-329314.mp3","null","audio-keyboard-response","273","2.1.0","321118","J=YES, F=NO","jfqrlx5h9q","2","76","73","80","","","","","","","","","","","","","","","",""
"null","audio/hawk1.wav","null","audio-keyboard-response","274","2.1.0","321688","J=YES, F=NO","jfqrlx5h9q","2","76","73","80","","","","","","","","","","","","","","","",""
"596","
          <p id=""word"" style=""font-size: 40px;"">ostach</p>
          <p style=""font-size: 16px;"">J = YES &nbsp;&nbsp;&nbsp; F = NO</p>
        ","f","html-keyboard-response","275","2.1.0","322284","J=YES, F=NO","jfqrlx5h9q","2","76","73","80","","","","","","","","","ostach","hawk1","pseudoword","pseudoword","f","true","",""
"null","<p style=""font-size: 50px;"">+</p>","null","html-keyboard-response","276","2.1.0","322587","J=YES, F=NO","jfqrlx5h9q","2","76","73","80","","","","","","","","","","","","","","","",""
"null","audio/beep-329314.mp3","null","audio-keyboard-response","277","2.1.0","324118","J=YES, F=NO","jfqrlx5h9q","2","76","73","80","","","","","","","","","","","","","","","",""
"null","audio/radio1.wav","null","audio-keyboard-response","278","2.1.0","324688","J=YES, F=NO","jfqrlx5h9q","2","76","73","80","","","","","","","","","","","","","","","",""
"515","
          <p id=""word"" style=""font-size: 40px;"">blanter</p>
          <p style=""font-size: 16px;"">J = YES &nbsp;&nbsp;&nbsp; F = NO</p>
        ","j","html-keyboard-response","279","2.1.0","325204","J=YES, F=NO","jfqrlx5h9q","2","76","73","80","","","","","","","","","blanter","radio1","pseudoword","pseudoword","f","false","",""
"null","<p style=""font-size: 50px;"">+</p>","null","html-keyboard-response","280","2.1.0","325511","J=YES, F=NO","jfqrlx5h9q","2","76","73","80","","","","","","","","","","","","","","","",""
"null","audio/beep-329314.mp3","null","audio-keyboard-response","281","2.1.0","327038","J=YES, F=NO","jfqrlx5h9q","2","76","73","80","","","","","","","","","","","","","","","",""
"null","audio/belief.wav","null","audio-keyboard-response","282","2.1.0","327648","J=YES, F=NO","jfqrlx5h9q","2","76","73","80","","","","","","","","","","","","","","","",""
"476","
          <p id=""word"" style=""font-size: 40px;"">read</p>
          <p style=""font-size: 16px;"">J = YES &nbsp;&nbsp;&nbsp; F = NO</p>
        ","j","html-keyboard-response","283","2.1.0","328124","J=YES, F=NO","jfqrlx5h9q","2","76","73","80","","","","","","","","","read","belief","filler","filler","j","true","",""
"null","<p style=""font-size: 50px;"">+</p>","null","html-keyboard-response","284","2.1.0","328426","J=YES, F=NO","jfqrlx5h9q","2","76","73","80","","","","","","","","","","","","","","","",""
"null","audio/beep-329314.mp3","null","audio-keyboard-response","285","2.1.0","329958","J=YES, F=NO","jfqrlx5h9q","2","76","73","80","","","","","","","","","","","","","","","",""
"null","audio/heart1.wav","null","audio-keyboard-response","286","2.1.0","330568","J=YES, F=NO","jfqrlx5h9q","2","76","73","80","","","","","","","","","","","","","","","",""
"572","
          <p id=""word"" style=""font-size: 40px;"">dralm</p>
          <p style=""font-size: 16px;"">J = YES &nbsp;&nbsp;&nbsp; F = NO</p>
        ","f","html-keyboard-response","287","2.1.0","331140","J=YES, F=NO","jfqrlx5h9q","2","76","73","80","","","","","","","","","dralm","heart1","pseudoword","pseudoword","f","true","",""
"null","<p style=""font-size: 50px;"">+</p>","null","html-keyboard-response","288","2.1.0","331449","J=YES, F=NO","jfqrlx5h9q","2","76","73","80","","","","","","","","","","","","","","","",""
"null","audio/beep-329314.mp3","null","audio-keyboard-response","289","2.1.0","332978","J=YES, F=NO","jfqrlx5h9q","2","76","73","80","","","","","","","","","","","","","","","",""
"null","audio/alarm1.wav","null","audio-keyboard-response","290","2.1.0","333548","J=YES, F=NO","jfqrlx5h9q","2","76","73","80","","","","","","","","","","","","","","","",""
"519","
          <p id=""word"" style=""font-size: 40px;"">swetp</p>
          <p style=""font-size: 16px;"">J = YES &nbsp;&nbsp;&nbsp; F = NO</p>
        ","f","html-keyboard-response","291","2.1.0","334067","J=YES, F=NO","jfqrlx5h9q","2","76","73","80","","","","","","","","","swetp","alarm1","pseudoword","pseudoword","f","true","",""
"null","<p style=""font-size: 50px;"">+</p>","null","html-keyboard-response","292","2.1.0","334378","J=YES, F=NO","jfqrlx5h9q","2","76","73","80","","","","","","","","","","","","","","","",""
"null","audio/beep-329314.mp3","null","audio-keyboard-response","293","2.1.0","335918","J=YES, F=NO","jfqrlx5h9q","2","76","73","80","","","","","","","","","","","","","","","",""
"null","audio/train.wav","null","audio-keyboard-response","294","2.1.0","336408","J=YES, F=NO","jfqrlx5h9q","2","76","73","80","","","","","","","","","","","","","","","",""
"509","
          <p id=""word"" style=""font-size: 40px;"">catch</p>
          <p style=""font-size: 16px;"">J = YES &nbsp;&nbsp;&nbsp; F = NO</p>
        ","j","html-keyboard-response","295","2.1.0","336917","J=YES, F=NO","jfqrlx5h9q","2","76","73","80","","","","","","","","","catch","train","metaphor","experimental","j","true","",""
"827","<p>Excellent! You have finished block 2 of 8.</p>
                     <p>Feel free to take a 30 second break.</p>
                     <p>Press any key when you're ready to continue.</p>","j","html-keyboard-response","296","2.1.0","337745","J=YES, F=NO","jfqrlx5h9q","2","76","73","80","","","","","","","","","","","","","","","",""
"415","<p>Starting main block 3 of 8. Press any key to continue.</p>","j","html-keyboard-response","297","2.1.0","338160","J=YES, F=NO","jfqrlx5h9q","2","76","73","80","","","","","","","","","","","","","","","",""
"null","<p style=""font-size: 50px;"">+</p>","null","html-keyboard-response","298","2.1.0","338463","J=YES, F=NO","jfqrlx5h9q","2","76","73","80","","","","","","","","","","","","","","","",""
"null","audio/beep-329314.mp3","null","audio-keyboard-response","299","2.1.0","339998","J=YES, F=NO","jfqrlx5h9q","2","76","73","80","","","","","","","","","","","","","","","",""
"null","audio/size1.wav","null","audio-keyboard-response","300","2.1.0","340728","J=YES, F=NO","jfqrlx5h9q","2","76","73","80","","","","","","","","","","","","","","","",""
"482","
          <p id=""word"" style=""font-size: 40px;"">clear</p>
          <p style=""font-size: 16px;"">J = YES &nbsp;&nbsp;&nbsp; F = NO</p>
        ","j","html-keyboard-response","301","2.1.0","341210","J=YES, F=NO","jfqrlx5h9q","2","76","73","80","","","","","","","","","clear","size1","unrelated","experimental","j","true","",""
"null","<p style=""font-size: 50px;"">+</p>","null","html-keyboard-response","302","2.1.0","341512","J=YES, F=NO","jfqrlx5h9q","2","76","73","80","","","","","","","","","","","","","","","",""
"null","audio/beep-329314.mp3","null","audio-keyboard-response","303","2.1.0","343038","J=YES, F=NO","jfqrlx5h9q","2","76","73","80","","","","","","","","","","","","","","","",""
"null","audio/topic.wav","null","audio-keyboard-response","304","2.1.0","343588","J=YES, F=NO","jfqrlx5h9q","2","76","73","80","","","","","","","","","","","","","","","",""
"473","
          <p id=""word"" style=""font-size: 40px;"">infortuitist</p>
          <p style=""font-size: 16px;"">J = YES &nbsp;&nbsp;&nbsp; F = NO</p>
        ","f","html-keyboard-response","305","2.1.0","344062","J=YES, F=NO","jfqrlx5h9q","2","76","73","80","","","","","","","","","infortuitist","topic","pseudoword","pseudoword","f","true","",""
"null","<p style=""font-size: 50px;"">+</p>","null","html-keyboard-response","306","2.1.0","344372","J=YES, F=NO","jfqrlx5h9q","2","76","73","80","","","","","","","","","","","","","","","",""
"null","audio/beep-329314.mp3","null","audio-keyboard-response","307","2.1.0","345898","J=YES, F=NO","jfqrlx5h9q","2","76","73","80","","","","","","","","","","","","","","","",""
"null","audio/bishop1.wav","null","audio-keyboard-response","308","2.1.0","346468","J=YES, F=NO","jfqrlx5h9q","2","76","73","80","","","","","","","","","","","","","","","",""
"462","
          <p id=""word"" style=""font-size: 40px;"">play</p>
          <p style=""font-size: 16px;"">J = YES &nbsp;&nbsp;&nbsp; F = NO</p>
        ","j","html-keyboard-response","309","2.1.0","346930","J=YES, F=NO","jfqrlx5h9q","2","76","73","80","","","","","","","","","play","bishop1","filler","filler","j","true","",""
"null","<p style=""font-size: 50px;"">+</p>","null","html-keyboard-response","310","2.1.0","347240","J=YES, F=NO","jfqrlx5h9q","2","76","73","80","","","","","","","","","","","","","","","",""
"null","audio/beep-329314.mp3","null","audio-keyboard-response","311","2.1.0","348778","J=YES, F=NO","jfqrlx5h9q","2","76","73","80","","","","","","","","","","","","","","","",""
"null","audio/ankle1.wav","null","audio-keyboard-response","312","2.1.0","349407","J=YES, F=NO","jfqrlx5h9q","2","76","73","80","","","","","","","","","","","","","","","",""
"426","
          <p id=""word"" style=""font-size: 40px;"">kick</p>
          <p style=""font-size: 16px;"">J = YES &nbsp;&nbsp;&nbsp; F = NO</p>
        ","j","html-keyboard-response","313","2.1.0","349834","J=YES, F=NO","jfqrlx5h9q","2","76","73","80","","","","","","","","","kick","ankle1","filler","filler","j","true","",""
"null","<p style=""font-size: 50px;"">+</p>","null","html-keyboard-response","314","2.1.0","350150","J=YES, F=NO","jfqrlx5h9q","2","76","73","80","","","","","","","","","","","","","","","",""
"null","audio/beep-329314.mp3","null","audio-keyboard-response","315","2.1.0","351678","J=YES, F=NO","jfqrlx5h9q","2","76","73","80","","","","","","","","","","","","","","","",""
"null","audio/budget1.wav","null","audio-keyboard-response","316","2.1.0","352408","J=YES, F=NO","jfqrlx5h9q","2","76","73","80","","","","","","","","","","","","","","","",""
"524","
          <p id=""word"" style=""font-size: 40px;"">sulist</p>
          <p style=""font-size: 16px;"">J = YES &nbsp;&nbsp;&nbsp; F = NO</p>
        ","f","html-keyboard-response","317","2.1.0","352932","J=YES, F=NO","jfqrlx5h9q","2","76","73","80","","","","","","","","","sulist","budget1","pseudoword","pseudoword","f","true","",""
"null","<p style=""font-size: 50px;"">+</p>","null","html-keyboard-response","318","2.1.0","353235","J=YES, F=NO","jfqrlx5h9q","2","76","73","80","","","","","","","","","","","","","","","",""
"null","audio/beep-329314.mp3","null","audio-keyboard-response","319","2.1.0","354758","J=YES, F=NO","jfqrlx5h9q","2","76","73","80","","","","","","","","","","","","","","","",""
"null","audio/cash1.wav","null","audio-keyboard-response","320","2.1.0","355308","J=YES, F=NO","jfqrlx5h9q","2","76","73","80","","","","","","","","","","","","","","","",""
"675","
          <p id=""word"" style=""font-size: 40px;"">splear</p>
          <p style=""font-size: 16px;"">J = YES &nbsp;&nbsp;&nbsp; F = NO</p>
        ","f","html-keyboard-response","321","2.1.0","355983","J=YES, F=NO","jfqrlx5h9q","2","76","73","80","","","","","","","","","splear","cash1","pseudoword","pseudoword","f","true","",""
"null","<p style=""font-size: 50px;"">+</p>","null","html-keyboard-response","322","2.1.0","356293","J=YES, F=NO","jfqrlx5h9q","2","76","73","80","","","","","","","","","","","","","","","",""
"null","audio/beep-329314.mp3","null","audio-keyboard-response","323","2.1.0","357818","J=YES, F=NO","jfqrlx5h9q","2","76","73","80","","","","","","","","","","","","","","","",""
"null","audio/road.wav","null","audio-keyboard-response","324","2.1.0","358228","J=YES, F=NO","jfqrlx5h9q","2","76","73","80","","","","","","","","","","","","","","","",""
"512","
          <p id=""word"" style=""font-size: 40px;"">flood</p>
          <p style=""font-size: 16px;"">J = YES &nbsp;&nbsp;&nbsp; F = NO</p>
        ","j","html-keyboard-response","325","2.1.0","358740","J=YES, F=NO","jfqrlx5h9q","2","76","73","80","","","","","","","","","flood","road","literal","experimental","j","true","",""
"null","<p style=""font-size: 50px;"">+</p>","null","html-keyboard-response","326","2.1.0","359047","J=YES, F=NO","jfqrlx5h9q","2","76","73","80","","","","","","","","","","","","","","","",""
"null","audio/beep-329314.mp3","null","audio-keyboard-response","327","2.1.0","360578","J=YES, F=NO","jfqrlx5h9q","2","76","73","80","","","","","","","","","","","","","","","",""
"null","audio/meal.wav","null","audio-keyboard-response","328","2.1.0","361007","J=YES, F=NO","jfqrlx5h9q","2","76","73","80","","","","","","","","","","","","","","","",""
"476","
          <p id=""word"" style=""font-size: 40px;"">share</p>
          <p style=""font-size: 16px;"">J = YES &nbsp;&nbsp;&nbsp; F = NO</p>
        ","j","html-keyboard-response","329","2.1.0","361484","J=YES, F=NO","jfqrlx5h9q","2","76","73","80","","","","","","","","","share","meal","literal","experimental","j","true","",""
"null","<p style=""font-size: 50px;"">+</p>","null","html-keyboard-response","330","2.1.0","361797","J=YES, F=NO","jfqrlx5h9q","2","76","73","80","","","","","","","","","","","","","","","",""
"null","audio/beep-329314.mp3","null","audio-keyboard-response","331","2.1.0","363318","J=YES, F=NO","jfqrlx5h9q","2","76","73","80","","","","","","","","","","","","","","","",""
"null","audio/sugar1.wav","null","audio-keyboard-response","332","2.1.0","363788","J=YES, F=NO","jfqrlx5h9q","2","76","73","80","","","","","","","","","","","","","","","",""
"510","
          <p id=""word"" style=""font-size: 40px;"">glung</p>
          <p style=""font-size: 16px;"">J = YES &nbsp;&nbsp;&nbsp; F = NO</p>
        ","f","html-keyboard-response","333","2.1.0","364298","J=YES, F=NO","jfqrlx5h9q","2","76","73","80","","","","","","","","","glung","sugar1","pseudoword","pseudoword","f","true","",""
"null","<p style=""font-size: 50px;"">+</p>","null","html-keyboard-response","334","2.1.0","364607","J=YES, F=NO","jfqrlx5h9q","2","76","73","80","","","","","","","","","","","","","","","",""
"null","audio/beep-329314.mp3","null","audio-keyboard-response","335","2.1.0","366138","J=YES, F=NO","jfqrlx5h9q","2","76","73","80","","","","","","","","","","","","","","","",""
"null","audio/bush1.wav","null","audio-keyboard-response","336","2.1.0","366588","J=YES, F=NO","jfqrlx5h9q","2","76","73","80","","","","","","","","","","","","","","","",""
"827","
          <p id=""word"" style=""font-size: 40px;"">platined</p>
          <p style=""font-size: 16px;"">J = YES &nbsp;&nbsp;&nbsp; F = NO</p>
        ","f","html-keyboard-response","337","2.1.0","367415","J=YES, F=NO","jfqrlx5h9q","2","76","73","80","","","","","","","","","platined","bush1","pseudoword","pseudoword","f","true","",""
"null","<p style=""font-size: 50px;"">+</p>","null","html-keyboard-response","338","2.1.0","367725","J=YES, F=NO","jfqrlx5h9q","2","76","73","80","","","","","","","","","","","","","","","",""
"null","audio/beep-329314.mp3","null","audio-keyboard-response","339","2.1.0","369258","J=YES, F=NO","jfqrlx5h9q","2","76","73","80","","","","","","","","","","","","","","","",""
"null","audio/noise1.wav","null","audio-keyboard-response","340","2.1.0","369848","J=YES, F=NO","jfqrlx5h9q","2","76","73","80","","","","","","","","","","","","","","","",""
"556","
          <p id=""word"" style=""font-size: 40px;"">build</p>
          <p style=""font-size: 16px;"">J = YES &nbsp;&nbsp;&nbsp; F = NO</p>
        ","j","html-keyboard-response","341","2.1.0","370404","J=YES, F=NO","jfqrlx5h9q","2","76","73","80","","","","","","","","","build","noise1","unrelated","experimental","j","true","",""
"null","<p style=""font-size: 50px;"">+</p>","null","html-keyboard-response","342","2.1.0","370714","J=YES, F=NO","jfqrlx5h9q","2","76","73","80","","","","","","","","","","","","","","","",""
"null","audio/beep-329314.mp3","null","audio-keyboard-response","343","2.1.0","372238","J=YES, F=NO","jfqrlx5h9q","2","76","73","80","","","","","","","","","","","","","","","",""
"null","audio/stain.wav","null","audio-keyboard-response","344","2.1.0","372868","J=YES, F=NO","jfqrlx5h9q","2","76","73","80","","","","","","","","","","","","","","","",""
"540","
          <p id=""word"" style=""font-size: 40px;"">rumpsied</p>
          <p style=""font-size: 16px;"">J = YES &nbsp;&nbsp;&nbsp; F = NO</p>
        ","f","html-keyboard-response","345","2.1.0","373408","J=YES, F=NO","jfqrlx5h9q","2","76","73","80","","","","","","","","","rumpsied","stain","pseudoword","pseudoword","f","true","",""
"null","<p style=""font-size: 50px;"">+</p>","null","html-keyboard-response","346","2.1.0","373716","J=YES, F=NO","jfqrlx5h9q","2","76","73","80","","","","","","","","","","","","","","","",""
"null","audio/beep-329314.mp3","null","audio-keyboard-response","347","2.1.0","375237","J=YES, F=NO","jfqrlx5h9q","2","76","73","80","","","","","","","","","","","","","","","",""
"null","audio/ship.wav","null","audio-keyboard-response","348","2.1.0","375768","J=YES, F=NO","jfqrlx5h9q","2","76","73","80","","","","","","","","","","","","","","","",""
"589","
          <p id=""word"" style=""font-size: 40px;"">scrap</p>
          <p style=""font-size: 16px;"">J = YES &nbsp;&nbsp;&nbsp; F = NO</p>
        ","j","html-keyboard-response","349","2.1.0","376357","J=YES, F=NO","jfqrlx5h9q","2","76","73","80","","","","","","","","","scrap","ship","literal","experimental","j","true","",""
"null","<p style=""font-size: 50px;"">+</p>","null","html-keyboard-response","350","2.1.0","376663","J=YES, F=NO","jfqrlx5h9q","2","76","73","80","","","","","","","","","","","","","","","",""
"null","audio/beep-329314.mp3","null","audio-keyboard-response","351","2.1.0","378198","J=YES, F=NO","jfqrlx5h9q","2","76","73","80","","","","","","","","","","","","","","","",""
"null","audio/mouth1.wav","null","audio-keyboard-response","352","2.1.0","378868","J=YES, F=NO","jfqrlx5h9q","2","76","73","80","","","","","","","","","","","","","","","",""
"589","
          <p id=""word"" style=""font-size: 40px;"">spolial</p>
          <p style=""font-size: 16px;"">J = YES &nbsp;&nbsp;&nbsp; F = NO</p>
        ","f","html-keyboard-response","353","2.1.0","379458","J=YES, F=NO","jfqrlx5h9q","2","76","73","80","","","","","","","","","spolial","mouth1","pseudoword","pseudoword","f","true","",""
"null","<p style=""font-size: 50px;"">+</p>","null","html-keyboard-response","354","2.1.0","379768","J=YES, F=NO","jfqrlx5h9q","2","76","73","80","","","","","","","","","","","","","","","",""
"null","audio/beep-329314.mp3","null","audio-keyboard-response","355","2.1.0","381298","J=YES, F=NO","jfqrlx5h9q","2","76","73","80","","","","","","","","","","","","","","","",""
"null","audio/floor.wav","null","audio-keyboard-response","356","2.1.0","381828","J=YES, F=NO","jfqrlx5h9q","2","76","73","80","","","","","","","","","","","","","","","",""
"909","
          <p id=""word"" style=""font-size: 40px;"">mop</p>
          <p style=""font-size: 16px;"">J = YES &nbsp;&nbsp;&nbsp; F = NO</p>
        ","j","html-keyboard-response","357","2.1.0","382738","J=YES, F=NO","jfqrlx5h9q","2","76","73","80","","","","","","","","","mop","floor","filler","filler","j","true","",""
"null","<p style=""font-size: 50px;"">+</p>","null","html-keyboard-response","358","2.1.0","383048","J=YES, F=NO","jfqrlx5h9q","2","76","73","80","","","","","","","","","","","","","","","",""
"null","audio/beep-329314.mp3","null","audio-keyboard-response","359","2.1.0","384577","J=YES, F=NO","jfqrlx5h9q","2","76","73","80","","","","","","","","","","","","","","","",""
"null","audio/battle1.wav","null","audio-keyboard-response","360","2.1.0","385028","J=YES, F=NO","jfqrlx5h9q","2","76","73","80","","","","","","","","","","","","","","","",""
"523","
          <p id=""word"" style=""font-size: 40px;"">boil</p>
          <p style=""font-size: 16px;"">J = YES &nbsp;&nbsp;&nbsp; F = NO</p>
        ","j","html-keyboard-response","361","2.1.0","385551","J=YES, F=NO","jfqrlx5h9q","2","76","73","80","","","","","","","","","boil","battle1","filler","filler","j","true","",""
"764","<p>Excellent! You have finished block 3 of 8.</p>
                     <p>Feel free to take a 30 second break.</p>
                     <p>Press any key when you're ready to continue.</p>","j","html-keyboard-response","362","2.1.0","386315","J=YES, F=NO","jfqrlx5h9q","2","76","73","80","","","","","","","","","","","","","","","",""
"256","<p>Starting main block 4 of 8. Press any key to continue.</p>","j","html-keyboard-response","363","2.1.0","386572","J=YES, F=NO","jfqrlx5h9q","2","76","73","80","","","","","","","","","","","","","","","",""
"null","<p style=""font-size: 50px;"">+</p>","null","html-keyboard-response","364","2.1.0","386881","J=YES, F=NO","jfqrlx5h9q","2","76","73","80","","","","","","","","","","","","","","","",""
"null","audio/beep-329314.mp3","null","audio-keyboard-response","365","2.1.0","388418","J=YES, F=NO","jfqrlx5h9q","2","76","73","80","","","","","","","","","","","","","","","",""
"null","audio/golf1.wav","null","audio-keyboard-response","366","2.1.0","388967","J=YES, F=NO","jfqrlx5h9q","2","76","73","80","","","","","","","","","","","","","","","",""
"592","
          <p id=""word"" style=""font-size: 40px;"">drabble</p>
          <p style=""font-size: 16px;"">J = YES &nbsp;&nbsp;&nbsp; F = NO</p>
        ","f","html-keyboard-response","367","2.1.0","389560","J=YES, F=NO","jfqrlx5h9q","2","76","73","80","","","","","","","","","drabble","golf1","pseudoword","pseudoword","f","true","",""
"null","<p style=""font-size: 50px;"">+</p>","null","html-keyboard-response","368","2.1.0","389862","J=YES, F=NO","jfqrlx5h9q","2","76","73","80","","","","","","","","","","","","","","","",""
"null","audio/beep-329314.mp3","null","audio-keyboard-response","369","2.1.0","391398","J=YES, F=NO","jfqrlx5h9q","2","76","73","80","","","","","","","","","","","","","","","",""
"null","audio/plot1.wav","null","audio-keyboard-response","370","2.1.0","391928","J=YES, F=NO","jfqrlx5h9q","2","76","73","80","","","","","","","","","","","","","","","",""
"619","
          <p id=""word"" style=""font-size: 40px;"">glenter</p>
          <p style=""font-size: 16px;"">J = YES &nbsp;&nbsp;&nbsp; F = NO</p>
        ","f","html-keyboard-response","371","2.1.0","392547","J=YES, F=NO","jfqrlx5h9q","2","76","73","80","","","","","","","","","glenter","plot1","pseudoword","pseudoword","f","true","",""
"null","<p style=""font-size: 50px;"">+</p>","null","html-keyboard-response","372","2.1.0","392854","J=YES, F=NO","jfqrlx5h9q","2","76","73","80","","","","","","","","","","","","","","","",""
"null","audio/beep-329314.mp3","null","audio-keyboard-response","373","2.1.0","394378","J=YES, F=NO","jfqrlx5h9q","2","76","73","80","","","","","","","","","","","","","","","",""
"null","audio/breath.wav","null","audio-keyboard-response","374","2.1.0","394928","J=YES, F=NO","jfqrlx5h9q","2","76","73","80","","","","","","","","","","","","","","","",""
"598","
          <p id=""word"" style=""font-size: 40px;"">twets</p>
          <p style=""font-size: 16px;"">J = YES &nbsp;&nbsp;&nbsp; F = NO</p>
        ","f","html-keyboard-response","375","2.1.0","395527","J=YES, F=NO","jfqrlx5h9q","2","76","73","80","","","","","","","","","twets","breath","pseudoword","pseudoword","f","true","",""
"null","<p style=""font-size: 50px;"">+</p>","null","html-keyboard-response","376","2.1.0","395830","J=YES, F=NO","jfqrlx5h9q","2","76","73","80","","","","","","","","","","","","","","","",""
"null","audio/beep-329314.mp3","null","audio-keyboard-response","377","2.1.0","397358","J=YES, F=NO","jfqrlx5h9q","2","76","73","80","","","","","","","","","","","","","","","",""
"null","audio/terrain.wav","null","audio-keyboard-response","378","2.1.0","397927","J=YES, F=NO","jfqrlx5h9q","2","76","73","80","","","","","","","","","","","","","","","",""
"579","
          <p id=""word"" style=""font-size: 40px;"">navigate</p>
          <p style=""font-size: 16px;"">J = YES &nbsp;&nbsp;&nbsp; F = NO</p>
        ","j","html-keyboard-response","379","2.1.0","398507","J=YES, F=NO","jfqrlx5h9q","2","76","73","80","","","","","","","","","navigate","terrain","literal","experimental","j","true","",""
"null","<p style=""font-size: 50px;"">+</p>","null","html-keyboard-response","380","2.1.0","398815","J=YES, F=NO","jfqrlx5h9q","2","76","73","80","","","","","","","","","","","","","","","",""
"null","audio/beep-329314.mp3","null","audio-keyboard-response","381","2.1.0","400338","J=YES, F=NO","jfqrlx5h9q","2","76","73","80","","","","","","","","","","","","","","","",""
"null","audio/dome.wav","null","audio-keyboard-response","382","2.1.0","400748","J=YES, F=NO","jfqrlx5h9q","2","76","73","80","","","","","","","","","","","","","","","",""
"558","
          <p id=""word"" style=""font-size: 40px;"">scrupliness</p>
          <p style=""font-size: 16px;"">J = YES &nbsp;&nbsp;&nbsp; F = NO</p>
        ","f","html-keyboard-response","383","2.1.0","401306","J=YES, F=NO","jfqrlx5h9q","2","76","73","80","","","","","","","","","scrupliness","dome","pseudoword","pseudoword","f","true","",""
"null","<p style=""font-size: 50px;"">+</p>","null","html-keyboard-response","384","2.1.0","401609","J=YES, F=NO","jfqrlx5h9q","2","76","73","80","","","","","","","","","","","","","","","",""
"null","audio/beep-329314.mp3","null","audio-keyboard-response","385","2.1.0","403138","J=YES, F=NO","jfqrlx5h9q","2","76","73","80","","","","","","","","","","","","","","","",""
"null","audio/desire.wav","null","audio-keyboard-response","386","2.1.0","403728","J=YES, F=NO","jfqrlx5h9q","2","76","73","80","","","","","","","","","","","","","","","",""
"527","
          <p id=""word"" style=""font-size: 40px;"">nophed</p>
          <p style=""font-size: 16px;"">J = YES &nbsp;&nbsp;&nbsp; F = NO</p>
        ","f","html-keyboard-response","387","2.1.0","404255","J=YES, F=NO","jfqrlx5h9q","2","76","73","80","","","","","","","","","nophed","desire","pseudoword","pseudoword","f","true","",""
"null","<p style=""font-size: 50px;"">+</p>","null","html-keyboard-response","388","2.1.0","404564","J=YES, F=NO","jfqrlx5h9q","2","76","73","80","","","","","","","","","","","","","","","",""
"null","audio/beep-329314.mp3","null","audio-keyboard-response","389","2.1.0","406098","J=YES, F=NO","jfqrlx5h9q","2","76","73","80","","","","","","","","","","","","","","","",""
"null","audio/voice.wav","null","audio-keyboard-response","390","2.1.0","406668","J=YES, F=NO","jfqrlx5h9q","2","76","73","80","","","","","","","","","","","","","","","",""
"580","
          <p id=""word"" style=""font-size: 40px;"">grintle</p>
          <p style=""font-size: 16px;"">J = YES &nbsp;&nbsp;&nbsp; F = NO</p>
        ","f","html-keyboard-response","391","2.1.0","407248","J=YES, F=NO","jfqrlx5h9q","2","76","73","80","","","","","","","","","grintle","voice","pseudoword","pseudoword","f","true","",""
