"rt","stimulus","response","trial_type","trial_index","plugin_version","time_elapsed","response_mapping","subject_id","list_index","lextale_score","lextale_word_score","lextale_nonword_score","success","timeout","failed_images","failed_audio","failed_video","task","isWord","isDummy","target","prime","prime_type","stimulus_type","correct_response","correct","section","question_order"
"58619","
    <div style=""max-width: 800px; margin: auto; text-align: left;"">
      <h2>STANFORD UNIVERSITY</h2>
      <h3>Research Information Sheet</h3>
      <p><strong>Protocol Director:</strong> Robert Hawkins<br>
      <strong>Protocol Title:</strong> Communication and social cognition in natural audiovisual contexts<br>
      <strong>IRB#:</strong> 77226</p>

      <p><strong>DESCRIPTION:</strong> You are invited to participate in a research study about language and communication. The purpose of the research is to understand how you interact and communicate with other people in naturalistic settings as a fluent English speaker. This research will be conducted through the Prolific platform, including participants from the US, UK, and Canada. If you decide to participate in this research, you will play a communication game in a group with one or more partners.</p>

      <p><strong>TIME INVOLVEMENT:</strong> The task will last the amount of time advertised on Prolific. You are free to withdraw from the study at any time.</p>

      <p><strong>RISKS AND BENEFITS:</strong> You may become frustrated if your partner gets distracted, or experience discomfort if other participants in your group send text that is inappropriate for the task. We ask you to please be respectful of other participants you might be interacting with to mitigate these risks. You may also experience discomfort when being asked to discuss or challenge emotionally salient political beliefs. Study data will be stored securely, in compliance with Stanford University standards, minimizing the risk of confidentiality breach. This study advances our scientific understanding of how people communicate and collaborate in naturalistic settings. This study may lead to further insights about what can go wrong in teamwork, suggest potential interventions to overcome these barriers, and help to develop assistive technologies that collaborate with human partners. We cannot and do not guarantee or promise that you will receive any benefits from this study.</p>

      <p><strong>PAYMENTS:</strong> You will receive payment in the amount advertised on Prolific. If you do not complete this study, you will receive prorated payment based on the time that you have spent. Additionally, you may be eligible for bonus payments as described in the instructions.</p>

      <p><strong>PARTICIPANT’S RIGHTS:</strong> If you have read this form and have decided to participate in this project, please understand your participation is voluntary and you have the right to withdraw your consent or discontinue participation at any time without penalty or loss of benefits to which you are otherwise entitled. The alternative is not to participate. You have the right to refuse to answer particular questions. The results of this research study may be presented at scientific or professional meetings or published in scientific journals. Your individual privacy will be maintained in all published and written data resulting from the study. In accordance with scientific norms, the data from this study may be used or shared with other researchers for future research (after removing personally identifying information) without additional consent from you.</p>

      <p><strong>CONTACT INFORMATION:</strong><br>
      Questions: If you have any questions, concerns or complaints about this research, its procedures, risks and benefits, contact the Protocol Director, Robert Hawkins (<a href=""mailto:rdhawkins@stanford.edu"">rdhawkins@stanford.edu</a>, 217-549-6923).<br>
      Independent Contact: If you are not satisfied with how this study is being conducted, or if you have any concerns, complaints, or general questions about the research or your rights as a participant, please contact the Stanford Institutional Review Board (IRB) to speak to someone independent of the research team at 650-723-2480 or toll free at 1-866-680-2906, or email at <a href=""mailto:irbnon-med@stanford.edu"">irbnon-med@stanford.edu</a>. You can also write to the Stanford IRB, Stanford University, 1705 El Camino Real, Palo Alto, CA 94306.</p>

      <p><strong>Please save or print a copy of this page for your records.</strong></p>
      <p>If you agree to participate in this research, click ""Continue"" below.</p>
    </div>
  ","0","html-button-response","0","2.1.0","58622","F=YES, J=NO","jvylo3a6z2","1","66","78","55","","","","","","","","","","","","","","","",""
"11676","
    <div style=""max-width: 800px; margin: auto; text-align: left;"">
      <h2>Welcome!</h2>
      <p>Thank you for participating in this study. The experiment consists of three parts:</p>
      <ol>
        <li>An English vocabulary test</li>
        <li>A main task in which you will hear and see words, and decide whether the written word is a real English word</li>
        <li>A brief survey about your background</li>
      </ol>
      <p>Each part will be introduced before it begins.</p>
      <p>Please make sure you are in a quiet environment and can hear audio clearly for the final task.</p>
      <p style=""margin-top: 2em;"">Press any key to begin.</p>
    </div>
  "," ","html-keyboard-response","1","2.1.0","70299","F=YES, J=NO","jvylo3a6z2","1","66","78","55","","","","","","","","","","","","","","","",""
"","","","preload","2","2.1.0","74304","F=YES, J=NO","jvylo3a6z2","1","66","78","55","true","false","[]","[]","[]","","","","","","","","","","",""
"7817","
    <div style=""max-width: 800px; margin: auto; text-align: left;"">
      <h2>Part 1: Vocabulary Test</h2>
      <p>You will now complete the first part of the study: a short English vocabulary test.</p>
      <p>This test is called <strong>LexTALE</strong> and helps us get a general sense of your English proficiency.</p>
      <p style=""margin-top: 2em;"">Press any key to continue.</p>
    </div>
  ","ArrowDown","html-keyboard-response","3","2.1.0","82122","F=YES, J=NO","jvylo3a6z2","1","66","78","55","","","","","","","","","","","","","","","",""
"17816","
    <div style=""max-width: 800px; margin: auto; text-align: left;"">
      <h2>LexTALE Vocabulary Test</h2>
      <p>In this test, you will see a series of letter strings—one at a time.</p>
      <p>Your task is to decide whether each string is a real English word.</p>
      <p><strong>Key responses:</strong></p>
      <ul>
        <li><strong>F</strong> = YES (real English word)</li>
        <li><strong>J</strong> = NO (not a real English word)</li>
      </ul>
      <p>There is no time limit, but please try to be accurate.</p>
      <p style=""margin-top: 2em;"">Press any key to begin.</p>
    </div>
  "," ","html-keyboard-response","4","2.1.0","99938","F=YES, J=NO","jvylo3a6z2","1","66","78","55","","","","","","","","","","","","","","","",""
"1032","
  <p style=""font-size: 40px;"">platery</p>
  <p style=""font-size: 16px;"">F = YES &nbsp;&nbsp;&nbsp; J = NO</p>
","f","html-keyboard-response","5","2.1.0","100971","F=YES, J=NO","jvylo3a6z2","1","66","78","55","","","","","","lextale","false","true","","","","","","","",""
"792","
  <p style=""font-size: 40px;"">denial</p>
  <p style=""font-size: 16px;"">F = YES &nbsp;&nbsp;&nbsp; J = NO</p>
","f","html-keyboard-response","6","2.1.0","101764","F=YES, J=NO","jvylo3a6z2","1","66","78","55","","","","","","lextale","true","true","","","","","","","",""
"2171","
  <p style=""font-size: 40px;"">marrit</p>
  <p style=""font-size: 16px;"">F = YES &nbsp;&nbsp;&nbsp; J = NO</p>
","j","html-keyboard-response","7","2.1.0","103935","F=YES, J=NO","jvylo3a6z2","1","66","78","55","","","","","","lextale","false","true","","","","","","","",""
"1352","
  <p style=""font-size: 40px;"">bottle</p>
  <p style=""font-size: 16px;"">F = YES &nbsp;&nbsp;&nbsp; J = NO</p>
","j","html-keyboard-response","8","2.1.0","105288","F=YES, J=NO","jvylo3a6z2","1","66","78","55","","","","","","lextale","true","false","","","","","","","",""
"1950","
  <p style=""font-size: 40px;"">birst</p>
  <p style=""font-size: 16px;"">F = YES &nbsp;&nbsp;&nbsp; J = NO</p>
","j","html-keyboard-response","9","2.1.0","107239","F=YES, J=NO","jvylo3a6z2","1","66","78","55","","","","","","lextale","false","false","","","","","","","",""
"688","
  <p style=""font-size: 40px;"">envy</p>
  <p style=""font-size: 16px;"">F = YES &nbsp;&nbsp;&nbsp; J = NO</p>
","f","html-keyboard-response","10","2.1.0","107928","F=YES, J=NO","jvylo3a6z2","1","66","78","55","","","","","","lextale","true","false","","","","","","","",""
"750","
  <p style=""font-size: 40px;"">brang</p>
  <p style=""font-size: 16px;"">F = YES &nbsp;&nbsp;&nbsp; J = NO</p>
","f","html-keyboard-response","11","2.1.0","108678","F=YES, J=NO","jvylo3a6z2","1","66","78","55","","","","","","lextale","false","false","","","","","","","",""
"549","
  <p style=""font-size: 40px;"">huge</p>
  <p style=""font-size: 16px;"">F = YES &nbsp;&nbsp;&nbsp; J = NO</p>
","f","html-keyboard-response","12","2.1.0","109228","F=YES, J=NO","jvylo3a6z2","1","66","78","55","","","","","","lextale","true","false","","","","","","","",""
"884","
  <p style=""font-size: 40px;"">plove</p>
  <p style=""font-size: 16px;"">F = YES &nbsp;&nbsp;&nbsp; J = NO</p>
","f","html-keyboard-response","13","2.1.0","110112","F=YES, J=NO","jvylo3a6z2","1","66","78","55","","","","","","lextale","false","false","","","","","","","",""
"665","
  <p style=""font-size: 40px;"">border</p>
  <p style=""font-size: 16px;"">F = YES &nbsp;&nbsp;&nbsp; J = NO</p>
","f","html-keyboard-response","14","2.1.0","110778","F=YES, J=NO","jvylo3a6z2","1","66","78","55","","","","","","lextale","true","false","","","","","","","",""
"767","
  <p style=""font-size: 40px;"">flimsy</p>
  <p style=""font-size: 16px;"">F = YES &nbsp;&nbsp;&nbsp; J = NO</p>
","f","html-keyboard-response","15","2.1.0","111545","F=YES, J=NO","jvylo3a6z2","1","66","78","55","","","","","","lextale","true","false","","","","","","","",""
"596","
  <p style=""font-size: 40px;"">drain</p>
  <p style=""font-size: 16px;"">F = YES &nbsp;&nbsp;&nbsp; J = NO</p>
","f","html-keyboard-response","16","2.1.0","112142","F=YES, J=NO","jvylo3a6z2","1","66","78","55","","","","","","lextale","true","false","","","","","","","",""
"1833","
  <p style=""font-size: 40px;"">twindle</p>
  <p style=""font-size: 16px;"">F = YES &nbsp;&nbsp;&nbsp; J = NO</p>
","j","html-keyboard-response","17","2.1.0","113975","F=YES, J=NO","jvylo3a6z2","1","66","78","55","","","","","","lextale","false","false","","","","","","","",""
"725","
  <p style=""font-size: 40px;"">propose</p>
  <p style=""font-size: 16px;"">F = YES &nbsp;&nbsp;&nbsp; J = NO</p>
","f","html-keyboard-response","18","2.1.0","114700","F=YES, J=NO","jvylo3a6z2","1","66","78","55","","","","","","lextale","true","false","","","","","","","",""
"1866","
  <p style=""font-size: 40px;"">forlay</p>
  <p style=""font-size: 16px;"">F = YES &nbsp;&nbsp;&nbsp; J = NO</p>
","j","html-keyboard-response","19","2.1.0","116567","F=YES, J=NO","jvylo3a6z2","1","66","78","55","","","","","","lextale","false","false","","","","","","","",""
"827","
  <p style=""font-size: 40px;"">tenant</p>
  <p style=""font-size: 16px;"">F = YES &nbsp;&nbsp;&nbsp; J = NO</p>
","f","html-keyboard-response","20","2.1.0","117395","F=YES, J=NO","jvylo3a6z2","1","66","78","55","","","","","","lextale","true","false","","","","","","","",""
"753","
  <p style=""font-size: 40px;"">strain</p>
  <p style=""font-size: 16px;"">F = YES &nbsp;&nbsp;&nbsp; J = NO</p>
","f","html-keyboard-response","21","2.1.0","118148","F=YES, J=NO","jvylo3a6z2","1","66","78","55","","","","","","lextale","true","false","","","","","","","",""
"897","
  <p style=""font-size: 40px;"">holster</p>
  <p style=""font-size: 16px;"">F = YES &nbsp;&nbsp;&nbsp; J = NO</p>
","f","html-keyboard-response","22","2.1.0","119045","F=YES, J=NO","jvylo3a6z2","1","66","78","55","","","","","","lextale","true","false","","","","","","","",""
"735","
  <p style=""font-size: 40px;"">hinder</p>
  <p style=""font-size: 16px;"">F = YES &nbsp;&nbsp;&nbsp; J = NO</p>
","f","html-keyboard-response","23","2.1.0","119781","F=YES, J=NO","jvylo3a6z2","1","66","78","55","","","","","","lextale","true","false","","","","","","","",""
"587","
  <p style=""font-size: 40px;"">swindle</p>
  <p style=""font-size: 16px;"">F = YES &nbsp;&nbsp;&nbsp; J = NO</p>
","f","html-keyboard-response","24","2.1.0","120368","F=YES, J=NO","jvylo3a6z2","1","66","78","55","","","","","","lextale","true","false","","","","","","","",""
"1593","
  <p style=""font-size: 40px;"">nuder</p>
  <p style=""font-size: 16px;"">F = YES &nbsp;&nbsp;&nbsp; J = NO</p>
","j","html-keyboard-response","25","2.1.0","121961","F=YES, J=NO","jvylo3a6z2","1","66","78","55","","","","","","lextale","false","false","","","","","","","",""
"583","
  <p style=""font-size: 40px;"">pillow</p>
  <p style=""font-size: 16px;"">F = YES &nbsp;&nbsp;&nbsp; J = NO</p>
","f","html-keyboard-response","26","2.1.0","122544","F=YES, J=NO","jvylo3a6z2","1","66","78","55","","","","","","lextale","true","false","","","","","","","",""
"728","
  <p style=""font-size: 40px;"">shumble</p>
  <p style=""font-size: 16px;"">F = YES &nbsp;&nbsp;&nbsp; J = NO</p>
","f","html-keyboard-response","27","2.1.0","123272","F=YES, J=NO","jvylo3a6z2","1","66","78","55","","","","","","lextale","false","false","","","","","","","",""
"601","
  <p style=""font-size: 40px;"">thirst</p>
  <p style=""font-size: 16px;"">F = YES &nbsp;&nbsp;&nbsp; J = NO</p>
","f","html-keyboard-response","28","2.1.0","123874","F=YES, J=NO","jvylo3a6z2","1","66","78","55","","","","","","lextale","true","false","","","","","","","",""
"1177","
  <p style=""font-size: 40px;"">unsail</p>
  <p style=""font-size: 16px;"">F = YES &nbsp;&nbsp;&nbsp; J = NO</p>
","f","html-keyboard-response","29","2.1.0","125051","F=YES, J=NO","jvylo3a6z2","1","66","78","55","","","","","","lextale","false","false","","","","","","","",""
"1054","
  <p style=""font-size: 40px;"">rifle</p>
  <p style=""font-size: 16px;"">F = YES &nbsp;&nbsp;&nbsp; J = NO</p>
","f","html-keyboard-response","30","2.1.0","126105","F=YES, J=NO","jvylo3a6z2","1","66","78","55","","","","","","lextale","true","false","","","","","","","",""
"624","
  <p style=""font-size: 40px;"">mush</p>
  <p style=""font-size: 16px;"">F = YES &nbsp;&nbsp;&nbsp; J = NO</p>
","f","html-keyboard-response","31","2.1.0","126729","F=YES, J=NO","jvylo3a6z2","1","66","78","55","","","","","","lextale","false","false","","","","","","","",""
"790","
  <p style=""font-size: 40px;"">drench</p>
  <p style=""font-size: 16px;"">F = YES &nbsp;&nbsp;&nbsp; J = NO</p>
","f","html-keyboard-response","32","2.1.0","127519","F=YES, J=NO","jvylo3a6z2","1","66","78","55","","","","","","lextale","true","false","","","","","","","",""
"1013","
  <p style=""font-size: 40px;"">snirt</p>
  <p style=""font-size: 16px;"">F = YES &nbsp;&nbsp;&nbsp; J = NO</p>
","j","html-keyboard-response","33","2.1.0","128533","F=YES, J=NO","jvylo3a6z2","1","66","78","55","","","","","","lextale","false","false","","","","","","","",""
"689","
  <p style=""font-size: 40px;"">bitter</p>
  <p style=""font-size: 16px;"">F = YES &nbsp;&nbsp;&nbsp; J = NO</p>
","f","html-keyboard-response","34","2.1.0","129222","F=YES, J=NO","jvylo3a6z2","1","66","78","55","","","","","","lextale","true","false","","","","","","","",""
"850","
  <p style=""font-size: 40px;"">pliff</p>
  <p style=""font-size: 16px;"">F = YES &nbsp;&nbsp;&nbsp; J = NO</p>
","j","html-keyboard-response","35","2.1.0","130072","F=YES, J=NO","jvylo3a6z2","1","66","78","55","","","","","","lextale","false","false","","","","","","","",""
"549","
  <p style=""font-size: 40px;"">tablet</p>
  <p style=""font-size: 16px;"">F = YES &nbsp;&nbsp;&nbsp; J = NO</p>
","f","html-keyboard-response","36","2.1.0","130621","F=YES, J=NO","jvylo3a6z2","1","66","78","55","","","","","","lextale","true","false","","","","","","","",""
"779","
  <p style=""font-size: 40px;"">glimmer</p>
  <p style=""font-size: 16px;"">F = YES &nbsp;&nbsp;&nbsp; J = NO</p>
","f","html-keyboard-response","37","2.1.0","131401","F=YES, J=NO","jvylo3a6z2","1","66","78","55","","","","","","lextale","true","false","","","","","","","",""
"864","
  <p style=""font-size: 40px;"">slink</p>
  <p style=""font-size: 16px;"">F = YES &nbsp;&nbsp;&nbsp; J = NO</p>
","f","html-keyboard-response","38","2.1.0","132265","F=YES, J=NO","jvylo3a6z2","1","66","78","55","","","","","","lextale","true","false","","","","","","","",""
"593","
  <p style=""font-size: 40px;"">clever</p>
  <p style=""font-size: 16px;"">F = YES &nbsp;&nbsp;&nbsp; J = NO</p>
","f","html-keyboard-response","39","2.1.0","132858","F=YES, J=NO","jvylo3a6z2","1","66","78","55","","","","","","lextale","true","false","","","","","","","",""
"1911","
  <p style=""font-size: 40px;"">grum</p>
  <p style=""font-size: 16px;"">F = YES &nbsp;&nbsp;&nbsp; J = NO</p>
","j","html-keyboard-response","40","2.1.0","134769","F=YES, J=NO","jvylo3a6z2","1","66","78","55","","","","","","lextale","false","false","","","","","","","",""
"577","
  <p style=""font-size: 40px;"">string</p>
  <p style=""font-size: 16px;"">F = YES &nbsp;&nbsp;&nbsp; J = NO</p>
","f","html-keyboard-response","41","2.1.0","135346","F=YES, J=NO","jvylo3a6z2","1","66","78","55","","","","","","lextale","true","false","","","","","","","",""
"1842","
  <p style=""font-size: 40px;"">plim</p>
  <p style=""font-size: 16px;"">F = YES &nbsp;&nbsp;&nbsp; J = NO</p>
","j","html-keyboard-response","42","2.1.0","137189","F=YES, J=NO","jvylo3a6z2","1","66","78","55","","","","","","lextale","false","false","","","","","","","",""
"500","
  <p style=""font-size: 40px;"">cable</p>
  <p style=""font-size: 16px;"">F = YES &nbsp;&nbsp;&nbsp; J = NO</p>
","f","html-keyboard-response","43","2.1.0","137689","F=YES, J=NO","jvylo3a6z2","1","66","78","55","","","","","","lextale","true","false","","","","","","","",""
"829","
  <p style=""font-size: 40px;"">shrivel</p>
  <p style=""font-size: 16px;"">F = YES &nbsp;&nbsp;&nbsp; J = NO</p>
","f","html-keyboard-response","44","2.1.0","138518","F=YES, J=NO","jvylo3a6z2","1","66","78","55","","","","","","lextale","true","false","","","","","","","",""
"658","
  <p style=""font-size: 40px;"">tarnish</p>
  <p style=""font-size: 16px;"">F = YES &nbsp;&nbsp;&nbsp; J = NO</p>
","f","html-keyboard-response","45","2.1.0","139176","F=YES, J=NO","jvylo3a6z2","1","66","78","55","","","","","","lextale","true","false","","","","","","","",""
"1358","
  <p style=""font-size: 40px;"">blim</p>
  <p style=""font-size: 16px;"">F = YES &nbsp;&nbsp;&nbsp; J = NO</p>
","f","html-keyboard-response","46","2.1.0","140534","F=YES, J=NO","jvylo3a6z2","1","66","78","55","","","","","","lextale","false","false","","","","","","","",""
"1048","
  <p style=""font-size: 40px;"">stifle</p>
  <p style=""font-size: 16px;"">F = YES &nbsp;&nbsp;&nbsp; J = NO</p>
","j","html-keyboard-response","47","2.1.0","141582","F=YES, J=NO","jvylo3a6z2","1","66","78","55","","","","","","lextale","true","false","","","","","","","",""
"1496","
  <p style=""font-size: 40px;"">bint</p>
  <p style=""font-size: 16px;"">F = YES &nbsp;&nbsp;&nbsp; J = NO</p>
","j","html-keyboard-response","48","2.1.0","143079","F=YES, J=NO","jvylo3a6z2","1","66","78","55","","","","","","lextale","false","false","","","","","","","",""
"540","
  <p style=""font-size: 40px;"">purple</p>
  <p style=""font-size: 16px;"">F = YES &nbsp;&nbsp;&nbsp; J = NO</p>
","f","html-keyboard-response","49","2.1.0","143619","F=YES, J=NO","jvylo3a6z2","1","66","78","55","","","","","","lextale","true","false","","","","","","","",""
"1193","
  <p style=""font-size: 40px;"">wriggle</p>
  <p style=""font-size: 16px;"">F = YES &nbsp;&nbsp;&nbsp; J = NO</p>
","j","html-keyboard-response","50","2.1.0","144812","F=YES, J=NO","jvylo3a6z2","1","66","78","55","","","","","","lextale","true","false","","","","","","","",""
"645","
  <p style=""font-size: 40px;"">mangle</p>
  <p style=""font-size: 16px;"">F = YES &nbsp;&nbsp;&nbsp; J = NO</p>
","f","html-keyboard-response","51","2.1.0","145457","F=YES, J=NO","jvylo3a6z2","1","66","78","55","","","","","","lextale","true","false","","","","","","","",""
"922","
  <p style=""font-size: 40px;"">shramp</p>
  <p style=""font-size: 16px;"">F = YES &nbsp;&nbsp;&nbsp; J = NO</p>
","f","html-keyboard-response","52","2.1.0","146379","F=YES, J=NO","jvylo3a6z2","1","66","78","55","","","","","","lextale","false","false","","","","","","","",""
"703","
  <p style=""font-size: 40px;"">flirt</p>
  <p style=""font-size: 16px;"">F = YES &nbsp;&nbsp;&nbsp; J = NO</p>
","f","html-keyboard-response","53","2.1.0","147082","F=YES, J=NO","jvylo3a6z2","1","66","78","55","","","","","","lextale","true","false","","","","","","","",""
"898","
  <p style=""font-size: 40px;"">frip</p>
  <p style=""font-size: 16px;"">F = YES &nbsp;&nbsp;&nbsp; J = NO</p>
","j","html-keyboard-response","54","2.1.0","147980","F=YES, J=NO","jvylo3a6z2","1","66","78","55","","","","","","lextale","false","false","","","","","","","",""
"610","
  <p style=""font-size: 40px;"">tangle</p>
  <p style=""font-size: 16px;"">F = YES &nbsp;&nbsp;&nbsp; J = NO</p>
","f","html-keyboard-response","55","2.1.0","148590","F=YES, J=NO","jvylo3a6z2","1","66","78","55","","","","","","lextale","true","false","","","","","","","",""
"757","
  <p style=""font-size: 40px;"">crumble</p>
  <p style=""font-size: 16px;"">F = YES &nbsp;&nbsp;&nbsp; J = NO</p>
","f","html-keyboard-response","56","2.1.0","149347","F=YES, J=NO","jvylo3a6z2","1","66","78","55","","","","","","lextale","true","false","","","","","","","",""
"743","
  <p style=""font-size: 40px;"">wrinkle</p>
  <p style=""font-size: 16px;"">F = YES &nbsp;&nbsp;&nbsp; J = NO</p>
","f","html-keyboard-response","57","2.1.0","150090","F=YES, J=NO","jvylo3a6z2","1","66","78","55","","","","","","lextale","true","false","","","","","","","",""
"797","
  <p style=""font-size: 40px;"">slumb</p>
  <p style=""font-size: 16px;"">F = YES &nbsp;&nbsp;&nbsp; J = NO</p>
","f","html-keyboard-response","58","2.1.0","150888","F=YES, J=NO","jvylo3a6z2","1","66","78","55","","","","","","lextale","false","false","","","","","","","",""
"595","
  <p style=""font-size: 40px;"">jungle</p>
  <p style=""font-size: 16px;"">F = YES &nbsp;&nbsp;&nbsp; J = NO</p>
","f","html-keyboard-response","59","2.1.0","151482","F=YES, J=NO","jvylo3a6z2","1","66","78","55","","","","","","lextale","true","false","","","","","","","",""
"884","
  <p style=""font-size: 40px;"">frolick</p>
  <p style=""font-size: 16px;"">F = YES &nbsp;&nbsp;&nbsp; J = NO</p>
","j","html-keyboard-response","60","2.1.0","152367","F=YES, J=NO","jvylo3a6z2","1","66","78","55","","","","","","lextale","false","false","","","","","","","",""
"2567","
      <h2>LexTALE Test Completed</h2>
      <p>Your LexTALE vocabulary score is: <strong>66%</strong></p>
      <p>Press any key to continue.</p>
    "," ","html-keyboard-response","61","2.1.0","154935","F=YES, J=NO","jvylo3a6z2","1","66","78","55","","","","","","","","","","","","","","","",""
"23404","
    <div style=""max-width: 800px; margin: auto; text-align: left;"">
      <h2>Break Time</h2>
      <p>You have completed the first part of the study.</p>
      <p>You may take a short <strong>30-second break</strong> before continuing.</p>
      <p>When you’re ready, press any key to continue to the final task.</p>
    </div>
  ","f","html-keyboard-response","62","2.1.0","178339","F=YES, J=NO","jvylo3a6z2","1","66","78","55","","","","","","","","","","","","","","","",""
"21576","
    <div style=""max-width: 800px; margin: auto; text-align: left;"">
      <h2>Part 2: Lexical Decision Task</h2>
      <p>You will now begin the second part of the study.</p>
      <p>Each trial will follow this sequence:</p>
      <ul>
        <li>A fixation cross (+) appears at the center of the screen.</li>
        <li>You will hear a short beep followed by a spoken word.</li>
        <li>A written word will appear briefly on the screen.</li>
      </ul>
      <p>Your task is to judge whether the <strong>written word</strong> is a real English word.</p>
      <p style=""margin-top: 1em;""><strong>Key responses:</strong></p>
      <ul>
        <li><strong>F</strong> = YES (real English word)</li>
        <li><strong>J</strong> = NO (not a real English word)</li>
      </ul>
      <p>Please respond as quickly and accurately as you can.</p>
      <p style=""margin-top: 2em;"">Press any key to continue.</p>
    </div>
  ","AudioVolumeUp","html-keyboard-response","63","2.1.0","199915","F=YES, J=NO","jvylo3a6z2","1","66","78","55","","","","","","","","","","","","","","","",""
"27","
    <div style=""max-width: 800px; margin: auto; text-align: left;"">
      <h2>Before You Begin</h2>
      <p>Make sure your sound is turned on.</p>
      <p>You will hear audio during each trial, but your decision should be based only on the <strong>written word</strong> you see on the screen.</p>
      <p><strong>Reminder:</strong></p>
      <ul>
        <li><strong>F</strong> = YES (real English word)</li>
        <li><strong>J</strong> = NO (not a real English word)</li>
      </ul>
      <p style=""margin-top: 2em;"">Press any key when you are ready to begin.</p>
    </div>
  ","AudioVolumeUp","html-keyboard-response","64","2.1.0","199943","F=YES, J=NO","jvylo3a6z2","1","66","78","55","","","","","","","","","","","","","","","",""
"25","
    <div style=""max-width: 800px; margin: auto; text-align: left;"">
      <h2>Part 2: Practice Trials</h2>
      <p>You will now complete a few <strong>practice trials</strong> to get familiar with the task.</p>
      <p>These trials are <strong>not scored</strong> and are only to help you get used to the format.</p>
      <p style=""margin-top: 2em;"">Press any key to begin.</p>
    </div>
  ","AudioVolumeUp","html-keyboard-response","65","2.1.0","199969","F=YES, J=NO","jvylo3a6z2","1","66","78","55","","","","","","","","","","","","","","","",""
"19","<p>Starting practice block 1 of 2. Press any key to continue.</p>","AudioVolumeUp","html-keyboard-response","66","2.1.0","199988","F=YES, J=NO","jvylo3a6z2","1","66","78","55","","","","","","","","","","","","","","","",""
"null","<p style=""font-size: 50px;"">+</p>","null","html-keyboard-response","67","2.1.0","200304","F=YES, J=NO","jvylo3a6z2","1","66","78","55","","","","","","","","","","","","","","","",""
"null","audio/beep-329314.mp3","null","audio-keyboard-response","68","2.1.0","201838","F=YES, J=NO","jvylo3a6z2","1","66","78","55","","","","","","","","","","","","","","","",""
"null","audio/bishop1.wav","null","audio-keyboard-response","69","2.1.0","202408","F=YES, J=NO","jvylo3a6z2","1","66","78","55","","","","","","","","","","","","","","","",""
"779","
          <p id=""word"" style=""font-size: 40px;"">play</p>
          <p style=""font-size: 16px;"">F = YES &nbsp;&nbsp;&nbsp; J = NO</p>
        ","j","html-keyboard-response","70","2.1.0","203187","F=YES, J=NO","jvylo3a6z2","1","66","78","55","","","","","","","","","play","bishop1","filler","filler","f","false","",""
"null","<p style=""font-size: 50px;"">+</p>","null","html-keyboard-response","71","2.1.0","203488","F=YES, J=NO","jvylo3a6z2","1","66","78","55","","","","","","","","","","","","","","","",""
"null","audio/beep-329314.mp3","null","audio-keyboard-response","72","2.1.0","205019","F=YES, J=NO","jvylo3a6z2","1","66","78","55","","","","","","","","","","","","","","","",""
"null","audio/battle1.wav","null","audio-keyboard-response","73","2.1.0","205548","F=YES, J=NO","jvylo3a6z2","1","66","78","55","","","","","","","","","","","","","","","",""
"969","
          <p id=""word"" style=""font-size: 40px;"">boil</p>
          <p style=""font-size: 16px;"">F = YES &nbsp;&nbsp;&nbsp; J = NO</p>
        ","j","html-keyboard-response","74","2.1.0","206518","F=YES, J=NO","jvylo3a6z2","1","66","78","55","","","","","","","","","boil","battle1","filler","filler","f","false","",""
"null","<p style=""font-size: 50px;"">+</p>","null","html-keyboard-response","75","2.1.0","206830","F=YES, J=NO","jvylo3a6z2","1","66","78","55","","","","","","","","","","","","","","","",""
"null","audio/beep-329314.mp3","null","audio-keyboard-response","76","2.1.0","208358","F=YES, J=NO","jvylo3a6z2","1","66","78","55","","","","","","","","","","","","","","","",""
"null","audio/ankle1.wav","null","audio-keyboard-response","77","2.1.0","208888","F=YES, J=NO","jvylo3a6z2","1","66","78","55","","","","","","","","","","","","","","","",""
"1005","
          <p id=""word"" style=""font-size: 40px;"">kick</p>
          <p style=""font-size: 16px;"">F = YES &nbsp;&nbsp;&nbsp; J = NO</p>
        ","f","html-keyboard-response","78","2.1.0","209894","F=YES, J=NO","jvylo3a6z2","1","66","78","55","","","","","","","","","kick","ankle1","filler","filler","f","true","",""
"null","<p style=""font-size: 50px;"">+</p>","null","html-keyboard-response","79","2.1.0","210204","F=YES, J=NO","jvylo3a6z2","1","66","78","55","","","","","","","","","","","","","","","",""
"null","audio/beep-329314.mp3","null","audio-keyboard-response","80","2.1.0","211739","F=YES, J=NO","jvylo3a6z2","1","66","78","55","","","","","","","","","","","","","","","",""
"null","audio/breath.wav","null","audio-keyboard-response","81","2.1.0","212308","F=YES, J=NO","jvylo3a6z2","1","66","78","55","","","","","","","","","","","","","","","",""
"1305","
          <p id=""word"" style=""font-size: 40px;"">pack</p>
          <p style=""font-size: 16px;"">F = YES &nbsp;&nbsp;&nbsp; J = NO</p>
        ","f","html-keyboard-response","82","2.1.0","213613","F=YES, J=NO","jvylo3a6z2","1","66","78","55","","","","","","","","","pack","breath","filler","filler","f","true","",""
"null","<p style=""font-size: 50px;"">+</p>","null","html-keyboard-response","83","2.1.0","213923","F=YES, J=NO","jvylo3a6z2","1","66","78","55","","","","","","","","","","","","","","","",""
"null","audio/beep-329314.mp3","null","audio-keyboard-response","84","2.1.0","215459","F=YES, J=NO","jvylo3a6z2","1","66","78","55","","","","","","","","","","","","","","","",""
"null","audio/neck.wav","null","audio-keyboard-response","85","2.1.0","216208","F=YES, J=NO","jvylo3a6z2","1","66","78","55","","","","","","","","","","","","","","","",""
"1192","
          <p id=""word"" style=""font-size: 40px;"">werling</p>
          <p style=""font-size: 16px;"">F = YES &nbsp;&nbsp;&nbsp; J = NO</p>
        ","f","html-keyboard-response","86","2.1.0","217401","F=YES, J=NO","jvylo3a6z2","1","66","78","55","","","","","","","","","werling","neck","pseudoword","pseudoword","j","false","",""
"null","<p style=""font-size: 50px;"">+</p>","null","html-keyboard-response","87","2.1.0","217714","F=YES, J=NO","jvylo3a6z2","1","66","78","55","","","","","","","","","","","","","","","",""
"null","audio/beep-329314.mp3","null","audio-keyboard-response","88","2.1.0","219238","F=YES, J=NO","jvylo3a6z2","1","66","78","55","","","","","","","","","","","","","","","",""
"null","audio/dome.wav","null","audio-keyboard-response","89","2.1.0","219868","F=YES, J=NO","jvylo3a6z2","1","66","78","55","","","","","","","","","","","","","","","",""
"1203","
          <p id=""word"" style=""font-size: 40px;"">scrupliness</p>
          <p style=""font-size: 16px;"">F = YES &nbsp;&nbsp;&nbsp; J = NO</p>
        ","f","html-keyboard-response","90","2.1.0","221072","F=YES, J=NO","jvylo3a6z2","1","66","78","55","","","","","","","","","scrupliness","dome","pseudoword","pseudoword","j","false","",""
"null","<p style=""font-size: 50px;"">+</p>","null","html-keyboard-response","91","2.1.0","221383","F=YES, J=NO","jvylo3a6z2","1","66","78","55","","","","","","","","","","","","","","","",""
"null","audio/beep-329314.mp3","null","audio-keyboard-response","92","2.1.0","222919","F=YES, J=NO","jvylo3a6z2","1","66","78","55","","","","","","","","","","","","","","","",""
"null","audio/pattern.wav","null","audio-keyboard-response","93","2.1.0","223428","F=YES, J=NO","jvylo3a6z2","1","66","78","55","","","","","","","","","","","","","","","",""
"707","
          <p id=""word"" style=""font-size: 40px;"">tug</p>
          <p style=""font-size: 16px;"">F = YES &nbsp;&nbsp;&nbsp; J = NO</p>
        ","f","html-keyboard-response","94","2.1.0","224136","F=YES, J=NO","jvylo3a6z2","1","66","78","55","","","","","","","","","tug","pattern","filler","filler","f","true","",""
"null","<p style=""font-size: 50px;"">+</p>","null","html-keyboard-response","95","2.1.0","224443","F=YES, J=NO","jvylo3a6z2","1","66","78","55","","","","","","","","","","","","","","","",""
"null","audio/beep-329314.mp3","null","audio-keyboard-response","96","2.1.0","225979","F=YES, J=NO","jvylo3a6z2","1","66","78","55","","","","","","","","","","","","","","","",""
"null","audio/novel.wav","null","audio-keyboard-response","97","2.1.0","226669","F=YES, J=NO","jvylo3a6z2","1","66","78","55","","","","","","","","","","","","","","","",""
"1155","
          <p id=""word"" style=""font-size: 40px;"">type</p>
          <p style=""font-size: 16px;"">F = YES &nbsp;&nbsp;&nbsp; J = NO</p>
        ","f","html-keyboard-response","98","2.1.0","227824","F=YES, J=NO","jvylo3a6z2","1","66","78","55","","","","","","","","","type","novel","filler","filler","f","true","",""
"null","<p style=""font-size: 50px;"">+</p>","null","html-keyboard-response","99","2.1.0","228126","F=YES, J=NO","jvylo3a6z2","1","66","78","55","","","","","","","","","","","","","","","",""
"null","audio/beep-329314.mp3","null","audio-keyboard-response","100","2.1.0","229659","F=YES, J=NO","jvylo3a6z2","1","66","78","55","","","","","","","","","","","","","","","",""
"null","audio/bridge.wav","null","audio-keyboard-response","101","2.1.0","230389","F=YES, J=NO","jvylo3a6z2","1","66","78","55","","","","","","","","","","","","","","","",""
"582","
          <p id=""word"" style=""font-size: 40px;"">crack</p>
          <p style=""font-size: 16px;"">F = YES &nbsp;&nbsp;&nbsp; J = NO</p>
        ","f","html-keyboard-response","102","2.1.0","230971","F=YES, J=NO","jvylo3a6z2","1","66","78","55","","","","","","","","","crack","bridge","filler","filler","f","true","",""
"null","<p style=""font-size: 50px;"">+</p>","null","html-keyboard-response","103","2.1.0","231284","F=YES, J=NO","jvylo3a6z2","1","66","78","55","","","","","","","","","","","","","","","",""
"null","audio/beep-329314.mp3","null","audio-keyboard-response","104","2.1.0","232819","F=YES, J=NO","jvylo3a6z2","1","66","78","55","","","","","","","","","","","","","","","",""
"null","audio/van1.wav","null","audio-keyboard-response","105","2.1.0","233309","F=YES, J=NO","jvylo3a6z2","1","66","78","55","","","","","","","","","","","","","","","",""
"698","
          <p id=""word"" style=""font-size: 40px;"">push</p>
          <p style=""font-size: 16px;"">F = YES &nbsp;&nbsp;&nbsp; J = NO</p>
        ","f","html-keyboard-response","106","2.1.0","234007","F=YES, J=NO","jvylo3a6z2","1","66","78","55","","","","","","","","","push","van1","filler","filler","f","true","",""
"null","<p style=""font-size: 50px;"">+</p>","null","html-keyboard-response","107","2.1.0","234310","F=YES, J=NO","jvylo3a6z2","1","66","78","55","","","","","","","","","","","","","","","",""
"null","audio/beep-329314.mp3","null","audio-keyboard-response","108","2.1.0","235839","F=YES, J=NO","jvylo3a6z2","1","66","78","55","","","","","","","","","","","","","","","",""
"null","audio/relief.wav","null","audio-keyboard-response","109","2.1.0","236549","F=YES, J=NO","jvylo3a6z2","1","66","78","55","","","","","","","","","","","","","","","",""
"968","
          <p id=""word"" style=""font-size: 40px;"">grigg</p>
          <p style=""font-size: 16px;"">F = YES &nbsp;&nbsp;&nbsp; J = NO</p>
        ","j","html-keyboard-response","110","2.1.0","237517","F=YES, J=NO","jvylo3a6z2","1","66","78","55","","","","","","","","","grigg","relief","pseudoword","pseudoword","j","true","",""
"null","<p style=""font-size: 50px;"">+</p>","null","html-keyboard-response","111","2.1.0","237828","F=YES, J=NO","jvylo3a6z2","1","66","78","55","","","","","","","","","","","","","","","",""
"null","audio/beep-329314.mp3","null","audio-keyboard-response","112","2.1.0","239359","F=YES, J=NO","jvylo3a6z2","1","66","78","55","","","","","","","","","","","","","","","",""
"null","audio/bomb1.wav","null","audio-keyboard-response","113","2.1.0","239749","F=YES, J=NO","jvylo3a6z2","1","66","78","55","","","","","","","","","","","","","","","",""
"595","
          <p id=""word"" style=""font-size: 40px;"">clean</p>
          <p style=""font-size: 16px;"">F = YES &nbsp;&nbsp;&nbsp; J = NO</p>
        ","f","html-keyboard-response","114","2.1.0","240344","F=YES, J=NO","jvylo3a6z2","1","66","78","55","","","","","","","","","clean","bomb1","filler","filler","f","true","",""
"2441","<p>Starting practice block 2 of 2. Press any key to continue.</p>"," ","html-keyboard-response","115","2.1.0","242785","F=YES, J=NO","jvylo3a6z2","1","66","78","55","","","","","","","","","","","","","","","",""
"null","<p style=""font-size: 50px;"">+</p>","null","html-keyboard-response","116","2.1.0","243086","F=YES, J=NO","jvylo3a6z2","1","66","78","55","","","","","","","","","","","","","","","",""
"null","audio/beep-329314.mp3","null","audio-keyboard-response","117","2.1.0","244620","F=YES, J=NO","jvylo3a6z2","1","66","78","55","","","","","","","","","","","","","","","",""
"null","audio/prisoner.wav","null","audio-keyboard-response","118","2.1.0","245189","F=YES, J=NO","jvylo3a6z2","1","66","78","55","","","","","","","","","","","","","","","",""
"545","
          <p id=""word"" style=""font-size: 40px;"">egotian</p>
          <p style=""font-size: 16px;"">F = YES &nbsp;&nbsp;&nbsp; J = NO</p>
        ","f","html-keyboard-response","119","2.1.0","245734","F=YES, J=NO","jvylo3a6z2","1","66","78","55","","","","","","","","","egotian","prisoner","pseudoword","pseudoword","j","false","",""
"null","<p style=""font-size: 50px;"">+</p>","null","html-keyboard-response","120","2.1.0","246041","F=YES, J=NO","jvylo3a6z2","1","66","78","55","","","","","","","","","","","","","","","",""
"null","audio/beep-329314.mp3","null","audio-keyboard-response","121","2.1.0","247579","F=YES, J=NO","jvylo3a6z2","1","66","78","55","","","","","","","","","","","","","","","",""
"null","audio/gift1.wav","null","audio-keyboard-response","122","2.1.0","248049","F=YES, J=NO","jvylo3a6z2","1","66","78","55","","","","","","","","","","","","","","","",""
"1030","
          <p id=""word"" style=""font-size: 40px;"">protsh</p>
          <p style=""font-size: 16px;"">F = YES &nbsp;&nbsp;&nbsp; J = NO</p>
        ","f","html-keyboard-response","123","2.1.0","249080","F=YES, J=NO","jvylo3a6z2","1","66","78","55","","","","","","","","","protsh","gift1","pseudoword","pseudoword","j","false","",""
"null","<p style=""font-size: 50px;"">+</p>","null","html-keyboard-response","124","2.1.0","249387","F=YES, J=NO","jvylo3a6z2","1","66","78","55","","","","","","","","","","","","","","","",""
"null","audio/beep-329314.mp3","null","audio-keyboard-response","125","2.1.0","250919","F=YES, J=NO","jvylo3a6z2","1","66","78","55","","","","","","","","","","","","","","","",""
"null","audio/flaw.wav","null","audio-keyboard-response","126","2.1.0","251609","F=YES, J=NO","jvylo3a6z2","1","66","78","55","","","","","","","","","","","","","","","",""
"1086","
          <p id=""word"" style=""font-size: 40px;"">thwool</p>
          <p style=""font-size: 16px;"">F = YES &nbsp;&nbsp;&nbsp; J = NO</p>
        ","j","html-keyboard-response","127","2.1.0","252695","F=YES, J=NO","jvylo3a6z2","1","66","78","55","","","","","","","","","thwool","flaw","pseudoword","pseudoword","j","true","",""
"null","<p style=""font-size: 50px;"">+</p>","null","html-keyboard-response","128","2.1.0","253003","F=YES, J=NO","jvylo3a6z2","1","66","78","55","","","","","","","","","","","","","","","",""
"null","audio/beep-329314.mp3","null","audio-keyboard-response","129","2.1.0","254539","F=YES, J=NO","jvylo3a6z2","1","66","78","55","","","","","","","","","","","","","","","",""
"null","audio/terrain.wav","null","audio-keyboard-response","130","2.1.0","255189","F=YES, J=NO","jvylo3a6z2","1","66","78","55","","","","","","","","","","","","","","","",""
"654","
          <p id=""word"" style=""font-size: 40px;"">twist</p>
          <p style=""font-size: 16px;"">F = YES &nbsp;&nbsp;&nbsp; J = NO</p>
        ","f","html-keyboard-response","131","2.1.0","255844","F=YES, J=NO","jvylo3a6z2","1","66","78","55","","","","","","","","","twist","terrain","filler","filler","f","true","",""
"null","<p style=""font-size: 50px;"">+</p>","null","html-keyboard-response","132","2.1.0","256149","F=YES, J=NO","jvylo3a6z2","1","66","78","55","","","","","","","","","","","","","","","",""
"null","audio/beep-329314.mp3","null","audio-keyboard-response","133","2.1.0","257680","F=YES, J=NO","jvylo3a6z2","1","66","78","55","","","","","","","","","","","","","","","",""
"null","audio/client1.wav","null","audio-keyboard-response","134","2.1.0","258369","F=YES, J=NO","jvylo3a6z2","1","66","78","55","","","","","","","","","","","","","","","",""
"684","
          <p id=""word"" style=""font-size: 40px;"">droothe</p>
          <p style=""font-size: 16px;"">F = YES &nbsp;&nbsp;&nbsp; J = NO</p>
        ","j","html-keyboard-response","135","2.1.0","259054","F=YES, J=NO","jvylo3a6z2","1","66","78","55","","","","","","","","","droothe","client1","pseudoword","pseudoword","j","true","",""
"null","<p style=""font-size: 50px;"">+</p>","null","html-keyboard-response","136","2.1.0","259357","F=YES, J=NO","jvylo3a6z2","1","66","78","55","","","","","","","","","","","","","","","",""
"null","audio/beep-329314.mp3","null","audio-keyboard-response","137","2.1.0","260879","F=YES, J=NO","jvylo3a6z2","1","66","78","55","","","","","","","","","","","","","","","",""
"null","audio/camera1.wav","null","audio-keyboard-response","138","2.1.0","261369","F=YES, J=NO","jvylo3a6z2","1","66","78","55","","","","","","","","","","","","","","","",""
"1248","
          <p id=""word"" style=""font-size: 40px;"">stir</p>
          <p style=""font-size: 16px;"">F = YES &nbsp;&nbsp;&nbsp; J = NO</p>
        ","j","html-keyboard-response","139","2.1.0","262618","F=YES, J=NO","jvylo3a6z2","1","66","78","55","","","","","","","","","stir","camera1","filler","filler","f","false","",""
"null","<p style=""font-size: 50px;"">+</p>","null","html-keyboard-response","140","2.1.0","262920","F=YES, J=NO","jvylo3a6z2","1","66","78","55","","","","","","","","","","","","","","","",""
"null","audio/beep-329314.mp3","null","audio-keyboard-response","141","2.1.0","264460","F=YES, J=NO","jvylo3a6z2","1","66","78","55","","","","","","","","","","","","","","","",""
"null","audio/arm.wav","null","audio-keyboard-response","142","2.1.0","265010","F=YES, J=NO","jvylo3a6z2","1","66","78","55","","","","","","","","","","","","","","","",""
"623","
          <p id=""word"" style=""font-size: 40px;"">pigne</p>
          <p style=""font-size: 16px;"">F = YES &nbsp;&nbsp;&nbsp; J = NO</p>
        ","j","html-keyboard-response","143","2.1.0","265633","F=YES, J=NO","jvylo3a6z2","1","66","78","55","","","","","","","","","pigne","arm","pseudoword","pseudoword","j","true","",""
"null","<p style=""font-size: 50px;"">+</p>","null","html-keyboard-response","144","2.1.0","265933","F=YES, J=NO","jvylo3a6z2","1","66","78","55","","","","","","","","","","","","","","","",""
"null","audio/beep-329314.mp3","null","audio-keyboard-response","145","2.1.0","267460","F=YES, J=NO","jvylo3a6z2","1","66","78","55","","","","","","","","","","","","","","","",""
"null","audio/sugar1.wav","null","audio-keyboard-response","146","2.1.0","268130","F=YES, J=NO","jvylo3a6z2","1","66","78","55","","","","","","","","","","","","","","","",""
"612","
          <p id=""word"" style=""font-size: 40px;"">glung</p>
          <p style=""font-size: 16px;"">F = YES &nbsp;&nbsp;&nbsp; J = NO</p>
        ","j","html-keyboard-response","147","2.1.0","268742","F=YES, J=NO","jvylo3a6z2","1","66","78","55","","","","","","","","","glung","sugar1","pseudoword","pseudoword","j","true","",""
"null","<p style=""font-size: 50px;"">+</p>","null","html-keyboard-response","148","2.1.0","269051","F=YES, J=NO","jvylo3a6z2","1","66","78","55","","","","","","","","","","","","","","","",""
"null","audio/beep-329314.mp3","null","audio-keyboard-response","149","2.1.0","270580","F=YES, J=NO","jvylo3a6z2","1","66","78","55","","","","","","","","","","","","","","","",""
"null","audio/topic.wav","null","audio-keyboard-response","150","2.1.0","271350","F=YES, J=NO","jvylo3a6z2","1","66","78","55","","","","","","","","","","","","","","","",""
"483","
          <p id=""word"" style=""font-size: 40px;"">infortuitist</p>
          <p style=""font-size: 16px;"">F = YES &nbsp;&nbsp;&nbsp; J = NO</p>
        ","f","html-keyboard-response","151","2.1.0","271834","F=YES, J=NO","jvylo3a6z2","1","66","78","55","","","","","","","","","infortuitist","topic","pseudoword","pseudoword","j","false","",""
"null","<p style=""font-size: 50px;"">+</p>","null","html-keyboard-response","152","2.1.0","272139","F=YES, J=NO","jvylo3a6z2","1","66","78","55","","","","","","","","","","","","","","","",""
"null","audio/beep-329314.mp3","null","audio-keyboard-response","153","2.1.0","273660","F=YES, J=NO","jvylo3a6z2","1","66","78","55","","","","","","","","","","","","","","","",""
"null","audio/cash1.wav","null","audio-keyboard-response","154","2.1.0","274430","F=YES, J=NO","jvylo3a6z2","1","66","78","55","","","","","","","","","","","","","","","",""
"725","
          <p id=""word"" style=""font-size: 40px;"">splear</p>
          <p style=""font-size: 16px;"">F = YES &nbsp;&nbsp;&nbsp; J = NO</p>
        ","j","html-keyboard-response","155","2.1.0","275155","F=YES, J=NO","jvylo3a6z2","1","66","78","55","","","","","","","","","splear","cash1","pseudoword","pseudoword","j","true","",""
"null","<p style=""font-size: 50px;"">+</p>","null","html-keyboard-response","156","2.1.0","275469","F=YES, J=NO","jvylo3a6z2","1","66","78","55","","","","","","","","","","","","","","","",""
"null","audio/beep-329314.mp3","null","audio-keyboard-response","157","2.1.0","277000","F=YES, J=NO","jvylo3a6z2","1","66","78","55","","","","","","","","","","","","","","","",""
"null","audio/cancer1.wav","null","audio-keyboard-response","158","2.1.0","277610","F=YES, J=NO","jvylo3a6z2","1","66","78","55","","","","","","","","","","","","","","","",""
"533","
          <p id=""word"" style=""font-size: 40px;"">draw</p>
          <p style=""font-size: 16px;"">F = YES &nbsp;&nbsp;&nbsp; J = NO</p>
        ","f","html-keyboard-response","159","2.1.0","278144","F=YES, J=NO","jvylo3a6z2","1","66","78","55","","","","","","","","","draw","cancer1","filler","filler","f","true","",""
"null","<p style=""font-size: 50px;"">+</p>","null","html-keyboard-response","160","2.1.0","278449","F=YES, J=NO","jvylo3a6z2","1","66","78","55","","","","","","","","","","","","","","","",""
"null","audio/beep-329314.mp3","null","audio-keyboard-response","161","2.1.0","279980","F=YES, J=NO","jvylo3a6z2","1","66","78","55","","","","","","","","","","","","","","","",""
"null","audio/weight1.wav","null","audio-keyboard-response","162","2.1.0","280690","F=YES, J=NO","jvylo3a6z2","1","66","78","55","","","","","","","","","","","","","","","",""
"878","
          <p id=""word"" style=""font-size: 40px;"">crimsh</p>
          <p style=""font-size: 16px;"">F = YES &nbsp;&nbsp;&nbsp; J = NO</p>
        ","j","html-keyboard-response","163","2.1.0","281569","F=YES, J=NO","jvylo3a6z2","1","66","78","55","","","","","","","","","crimsh","weight1","pseudoword","pseudoword","j","true","",""
"20420","
    <div style=""max-width: 800px; margin: auto; text-align: left;"">
      <h2>Part 2: Main Trials</h2>
      <p>Great job on the practice trials!</p>
      <p>You will now begin the <strong>main set of trials</strong>.</p>
      <p>Remember your key assignments:</p>
      <ul>
        <li><strong>F</strong> = YES (real English word)</li>
        <li><strong>J</strong> = NO (not a real English word)</li>
      </ul>
      <p>Try to respond as <strong>quickly and accurately</strong> as possible.</p>
      <p style=""margin-top: 2em;"">Press any key to begin the main trials.</p>
    </div>
  "," ","html-keyboard-response","164","2.1.0","301989","F=YES, J=NO","jvylo3a6z2","1","66","78","55","","","","","","","","","","","","","","","",""
"1402","<p>Starting main block 1 of 8. Press any key to continue.</p>"," ","html-keyboard-response","165","2.1.0","303392","F=YES, J=NO","jvylo3a6z2","1","66","78","55","","","","","","","","","","","","","","","",""
"null","<p style=""font-size: 50px;"">+</p>","null","html-keyboard-response","166","2.1.0","303699","F=YES, J=NO","jvylo3a6z2","1","66","78","55","","","","","","","","","","","","","","","",""
"null","audio/beep-329314.mp3","null","audio-keyboard-response","167","2.1.0","305211","F=YES, J=NO","jvylo3a6z2","1","66","78","55","","","","","","","","","","","","","","","",""
"null","audio/sugar1.wav","null","audio-keyboard-response","168","2.1.0","305660","F=YES, J=NO","jvylo3a6z2","1","66","78","55","","","","","","","","","","","","","","","",""
"519","
          <p id=""word"" style=""font-size: 40px;"">approach</p>
          <p style=""font-size: 16px;"">F = YES &nbsp;&nbsp;&nbsp; J = NO</p>
        ","f","html-keyboard-response","169","2.1.0","306180","F=YES, J=NO","jvylo3a6z2","1","66","78","55","","","","","","","","","approach","sugar1","unrelated","experimental","f","true","",""
"null","<p style=""font-size: 50px;"">+</p>","null","html-keyboard-response","170","2.1.0","306491","F=YES, J=NO","jvylo3a6z2","1","66","78","55","","","","","","","","","","","","","","","",""
"null","audio/beep-329314.mp3","null","audio-keyboard-response","171","2.1.0","308031","F=YES, J=NO","jvylo3a6z2","1","66","78","55","","","","","","","","","","","","","","","",""
"null","audio/theory1.wav","null","audio-keyboard-response","172","2.1.0","308861","F=YES, J=NO","jvylo3a6z2","1","66","78","55","","","","","","","","","","","","","","","",""
"527","
          <p id=""word"" style=""font-size: 40px;"">construct</p>
          <p style=""font-size: 16px;"">F = YES &nbsp;&nbsp;&nbsp; J = NO</p>
        ","f","html-keyboard-response","173","2.1.0","309388","F=YES, J=NO","jvylo3a6z2","1","66","78","55","","","","","","","","","construct","theory1","metaphor","experimental","f","true","",""
"null","<p style=""font-size: 50px;"">+</p>","null","html-keyboard-response","174","2.1.0","309701","F=YES, J=NO","jvylo3a6z2","1","66","78","55","","","","","","","","","","","","","","","",""
"null","audio/beep-329314.mp3","null","audio-keyboard-response","175","2.1.0","311231","F=YES, J=NO","jvylo3a6z2","1","66","78","55","","","","","","","","","","","","","","","",""
"null","audio/winter.wav","null","audio-keyboard-response","176","2.1.0","311801","F=YES, J=NO","jvylo3a6z2","1","66","78","55","","","","","","","","","","","","","","","",""
"796","
          <p id=""word"" style=""font-size: 40px;"">straven</p>
          <p style=""font-size: 16px;"">F = YES &nbsp;&nbsp;&nbsp; J = NO</p>
        ","j","html-keyboard-response","177","2.1.0","312597","F=YES, J=NO","jvylo3a6z2","1","66","78","55","","","","","","","","","straven","winter","pseudoword","pseudoword","j","true","",""
"null","<p style=""font-size: 50px;"">+</p>","null","html-keyboard-response","178","2.1.0","312909","F=YES, J=NO","jvylo3a6z2","1","66","78","55","","","","","","","","","","","","","","","",""
"null","audio/beep-329314.mp3","null","audio-keyboard-response","179","2.1.0","314431","F=YES, J=NO","jvylo3a6z2","1","66","78","55","","","","","","","","","","","","","","","",""
"null","audio/meal.wav","null","audio-keyboard-response","180","2.1.0","315061","F=YES, J=NO","jvylo3a6z2","1","66","78","55","","","","","","","","","","","","","","","",""
"575","
          <p id=""word"" style=""font-size: 40px;"">share</p>
          <p style=""font-size: 16px;"">F = YES &nbsp;&nbsp;&nbsp; J = NO</p>
        ","f","html-keyboard-response","181","2.1.0","315637","F=YES, J=NO","jvylo3a6z2","1","66","78","55","","","","","","","","","share","meal","literal","experimental","f","true","",""
"null","<p style=""font-size: 50px;"">+</p>","null","html-keyboard-response","182","2.1.0","315944","F=YES, J=NO","jvylo3a6z2","1","66","78","55","","","","","","","","","","","","","","","",""
"null","audio/beep-329314.mp3","null","audio-keyboard-response","183","2.1.0","317471","F=YES, J=NO","jvylo3a6z2","1","66","78","55","","","","","","","","","","","","","","","",""
"null","audio/news.wav","null","audio-keyboard-response","184","2.1.0","318321","F=YES, J=NO","jvylo3a6z2","1","66","78","55","","","","","","","","","","","","","","","",""
"645","
          <p id=""word"" style=""font-size: 40px;"">digest</p>
          <p style=""font-size: 16px;"">F = YES &nbsp;&nbsp;&nbsp; J = NO</p>
        ","f","html-keyboard-response","185","2.1.0","318966","F=YES, J=NO","jvylo3a6z2","1","66","78","55","","","","","","","","","digest","news","metaphor","experimental","f","true","",""
"null","<p style=""font-size: 50px;"">+</p>","null","html-keyboard-response","186","2.1.0","319281","F=YES, J=NO","jvylo3a6z2","1","66","78","55","","","","","","","","","","","","","","","",""
"null","audio/beep-329314.mp3","null","audio-keyboard-response","187","2.1.0","320811","F=YES, J=NO","jvylo3a6z2","1","66","78","55","","","","","","","","","","","","","","","",""
"null","audio/essence1.wav","null","audio-keyboard-response","188","2.1.0","321681","F=YES, J=NO","jvylo3a6z2","1","66","78","55","","","","","","","","","","","","","","","",""
"546","
          <p id=""word"" style=""font-size: 40px;"">grasp</p>
          <p style=""font-size: 16px;"">F = YES &nbsp;&nbsp;&nbsp; J = NO</p>
        ","f","html-keyboard-response","189","2.1.0","322227","F=YES, J=NO","jvylo3a6z2","1","66","78","55","","","","","","","","","grasp","essence1","metaphor","experimental","f","true","",""
"null","<p style=""font-size: 50px;"">+</p>","null","html-keyboard-response","190","2.1.0","322539","F=YES, J=NO","jvylo3a6z2","1","66","78","55","","","","","","","","","","","","","","","",""
"null","audio/beep-329314.mp3","null","audio-keyboard-response","191","2.1.0","324071","F=YES, J=NO","jvylo3a6z2","1","66","78","55","","","","","","","","","","","","","","","",""
"null","audio/tax1.wav","null","audio-keyboard-response","192","2.1.0","324681","F=YES, J=NO","jvylo3a6z2","1","66","78","55","","","","","","","","","","","","","","","",""
"645","
          <p id=""word"" style=""font-size: 40px;"">snate</p>
          <p style=""font-size: 16px;"">F = YES &nbsp;&nbsp;&nbsp; J = NO</p>
        ","j","html-keyboard-response","193","2.1.0","325326","F=YES, J=NO","jvylo3a6z2","1","66","78","55","","","","","","","","","snate","tax1","pseudoword","pseudoword","j","true","",""
"null","<p style=""font-size: 50px;"">+</p>","null","html-keyboard-response","194","2.1.0","325631","F=YES, J=NO","jvylo3a6z2","1","66","78","55","","","","","","","","","","","","","","","",""
"null","audio/beep-329314.mp3","null","audio-keyboard-response","195","2.1.0","327171","F=YES, J=NO","jvylo3a6z2","1","66","78","55","","","","","","","","","","","","","","","",""
"null","audio/test1.wav","null","audio-keyboard-response","196","2.1.0","327741","F=YES, J=NO","jvylo3a6z2","1","66","78","55","","","","","","","","","","","","","","","",""
"643","
          <p id=""word"" style=""font-size: 40px;"">twopch</p>
          <p style=""font-size: 16px;"">F = YES &nbsp;&nbsp;&nbsp; J = NO</p>
        ","j","html-keyboard-response","197","2.1.0","328384","F=YES, J=NO","jvylo3a6z2","1","66","78","55","","","","","","","","","twopch","test1","pseudoword","pseudoword","j","true","",""
"null","<p style=""font-size: 50px;"">+</p>","null","html-keyboard-response","198","2.1.0","328690","F=YES, J=NO","jvylo3a6z2","1","66","78","55","","","","","","","","","","","","","","","",""
"null","audio/beep-329314.mp3","null","audio-keyboard-response","199","2.1.0","330211","F=YES, J=NO","jvylo3a6z2","1","66","78","55","","","","","","","","","","","","","","","",""
"null","audio/window1.wav","null","audio-keyboard-response","200","2.1.0","330821","F=YES, J=NO","jvylo3a6z2","1","66","78","55","","","","","","","","","","","","","","","",""
"500","
          <p id=""word"" style=""font-size: 40px;"">break</p>
          <p style=""font-size: 16px;"">F = YES &nbsp;&nbsp;&nbsp; J = NO</p>
        ","f","html-keyboard-response","201","2.1.0","331321","F=YES, J=NO","jvylo3a6z2","1","66","78","55","","","","","","","","","break","window1","literal","experimental","f","true","",""
"null","<p style=""font-size: 50px;"">+</p>","null","html-keyboard-response","202","2.1.0","331622","F=YES, J=NO","jvylo3a6z2","1","66","78","55","","","","","","","","","","","","","","","",""
"null","audio/beep-329314.mp3","null","audio-keyboard-response","203","2.1.0","333151","F=YES, J=NO","jvylo3a6z2","1","66","78","55","","","","","","","","","","","","","","","",""
"null","audio/breath.wav","null","audio-keyboard-response","204","2.1.0","333701","F=YES, J=NO","jvylo3a6z2","1","66","78","55","","","","","","","","","","","","","","","",""
"642","
          <p id=""word"" style=""font-size: 40px;"">twets</p>
          <p style=""font-size: 16px;"">F = YES &nbsp;&nbsp;&nbsp; J = NO</p>
        ","j","html-keyboard-response","205","2.1.0","334343","F=YES, J=NO","jvylo3a6z2","1","66","78","55","","","","","","","","","twets","breath","pseudoword","pseudoword","j","true","",""
"null","<p style=""font-size: 50px;"">+</p>","null","html-keyboard-response","206","2.1.0","334649","F=YES, J=NO","jvylo3a6z2","1","66","78","55","","","","","","","","","","","","","","","",""
"null","audio/beep-329314.mp3","null","audio-keyboard-response","207","2.1.0","336171","F=YES, J=NO","jvylo3a6z2","1","66","78","55","","","","","","","","","","","","","","","",""
"null","audio/butter1.wav","null","audio-keyboard-response","208","2.1.0","336621","F=YES, J=NO","jvylo3a6z2","1","66","78","55","","","","","","","","","","","","","","","",""
"521","
          <p id=""word"" style=""font-size: 40px;"">chew</p>
          <p style=""font-size: 16px;"">F = YES &nbsp;&nbsp;&nbsp; J = NO</p>
        ","f","html-keyboard-response","209","2.1.0","337142","F=YES, J=NO","jvylo3a6z2","1","66","78","55","","","","","","","","","chew","butter1","filler","filler","f","true","",""
"null","<p style=""font-size: 50px;"">+</p>","null","html-keyboard-response","210","2.1.0","337451","F=YES, J=NO","jvylo3a6z2","1","66","78","55","","","","","","","","","","","","","","","",""
"null","audio/beep-329314.mp3","null","audio-keyboard-response","211","2.1.0","338991","F=YES, J=NO","jvylo3a6z2","1","66","78","55","","","","","","","","","","","","","","","",""
"null","audio/belief.wav","null","audio-keyboard-response","212","2.1.0","339801","F=YES, J=NO","jvylo3a6z2","1","66","78","55","","","","","","","","","","","","","","","",""
"409","
          <p id=""word"" style=""font-size: 40px;"">read</p>
          <p style=""font-size: 16px;"">F = YES &nbsp;&nbsp;&nbsp; J = NO</p>
        ","f","html-keyboard-response","213","2.1.0","340211","F=YES, J=NO","jvylo3a6z2","1","66","78","55","","","","","","","","","read","belief","filler","filler","f","true","",""
"null","<p style=""font-size: 50px;"">+</p>","null","html-keyboard-response","214","2.1.0","340525","F=YES, J=NO","jvylo3a6z2","1","66","78","55","","","","","","","","","","","","","","","",""
"null","audio/beep-329314.mp3","null","audio-keyboard-response","215","2.1.0","342051","F=YES, J=NO","jvylo3a6z2","1","66","78","55","","","","","","","","","","","","","","","",""
"null","audio/client1.wav","null","audio-keyboard-response","216","2.1.0","342721","F=YES, J=NO","jvylo3a6z2","1","66","78","55","","","","","","","","","","","","","","","",""
"557","
          <p id=""word"" style=""font-size: 40px;"">land</p>
          <p style=""font-size: 16px;"">F = YES &nbsp;&nbsp;&nbsp; J = NO</p>
        ","f","html-keyboard-response","217","2.1.0","343279","F=YES, J=NO","jvylo3a6z2","1","66","78","55","","","","","","","","","land","client1","metaphor","experimental","f","true","",""
"null","<p style=""font-size: 50px;"">+</p>","null","html-keyboard-response","218","2.1.0","343593","F=YES, J=NO","jvylo3a6z2","1","66","78","55","","","","","","","","","","","","","","","",""
"null","audio/beep-329314.mp3","null","audio-keyboard-response","219","2.1.0","345132","F=YES, J=NO","jvylo3a6z2","1","66","78","55","","","","","","","","","","","","","","","",""
"null","audio/pig.wav","null","audio-keyboard-response","220","2.1.0","345502","F=YES, J=NO","jvylo3a6z2","1","66","78","55","","","","","","","","","","","","","","","",""
"527","
          <p id=""word"" style=""font-size: 40px;"">feed</p>
          <p style=""font-size: 16px;"">F = YES &nbsp;&nbsp;&nbsp; J = NO</p>
        ","f","html-keyboard-response","221","2.1.0","346029","F=YES, J=NO","jvylo3a6z2","1","66","78","55","","","","","","","","","feed","pig","literal","experimental","f","true","",""
"null","<p style=""font-size: 50px;"">+</p>","null","html-keyboard-response","222","2.1.0","346335","F=YES, J=NO","jvylo3a6z2","1","66","78","55","","","","","","","","","","","","","","","",""
"null","audio/beep-329314.mp3","null","audio-keyboard-response","223","2.1.0","347872","F=YES, J=NO","jvylo3a6z2","1","66","78","55","","","","","","","","","","","","","","","",""
"null","audio/key1.wav","null","audio-keyboard-response","224","2.1.0","348222","F=YES, J=NO","jvylo3a6z2","1","66","78","55","","","","","","","","","","","","","","","",""
"699","
          <p id=""word"" style=""font-size: 40px;"">sminsh</p>
          <p style=""font-size: 16px;"">F = YES &nbsp;&nbsp;&nbsp; J = NO</p>
        ","j","html-keyboard-response","225","2.1.0","348921","F=YES, J=NO","jvylo3a6z2","1","66","78","55","","","","","","","","","sminsh","key1","pseudoword","pseudoword","j","true","",""
"null","<p style=""font-size: 50px;"">+</p>","null","html-keyboard-response","226","2.1.0","349237","F=YES, J=NO","jvylo3a6z2","1","66","78","55","","","","","","","","","","","","","","","",""
"null","audio/beep-329314.mp3","null","audio-keyboard-response","227","2.1.0","350772","F=YES, J=NO","jvylo3a6z2","1","66","78","55","","","","","","","","","","","","","","","",""
"null","audio/noise1.wav","null","audio-keyboard-response","228","2.1.0","351382","F=YES, J=NO","jvylo3a6z2","1","66","78","55","","","","","","","","","","","","","","","",""
"383","
          <p id=""word"" style=""font-size: 40px;"">build</p>
          <p style=""font-size: 16px;"">F = YES &nbsp;&nbsp;&nbsp; J = NO</p>
        ","f","html-keyboard-response","229","2.1.0","351765","F=YES, J=NO","jvylo3a6z2","1","66","78","55","","","","","","","","","build","noise1","unrelated","experimental","f","true","",""
"24700","<p>Excellent! You have finished block 1 of 8.</p>
                     <p>Feel free to take a 30 second break.</p>
                     <p>Press any key when you're ready to continue.</p>"," ","html-keyboard-response","230","2.1.0","376466","F=YES, J=NO","jvylo3a6z2","1","66","78","55","","","","","","","","","","","","","","","",""
"1203","<p>Starting main block 2 of 8. Press any key to continue.</p>"," ","html-keyboard-response","231","2.1.0","377670","F=YES, J=NO","jvylo3a6z2","1","66","78","55","","","","","","","","","","","","","","","",""
"null","<p style=""font-size: 50px;"">+</p>","null","html-keyboard-response","232","2.1.0","377973","F=YES, J=NO","jvylo3a6z2","1","66","78","55","","","","","","","","","","","","","","","",""
"null","audio/beep-329314.mp3","null","audio-keyboard-response","233","2.1.0","379482","F=YES, J=NO","jvylo3a6z2","1","66","78","55","","","","","","","","","","","","","","","",""
"null","audio/beach1.wav","null","audio-keyboard-response","234","2.1.0","380042","F=YES, J=NO","jvylo3a6z2","1","66","78","55","","","","","","","","","","","","","","","",""
"412","
          <p id=""word"" style=""font-size: 40px;"">drive</p>
          <p style=""font-size: 16px;"">F = YES &nbsp;&nbsp;&nbsp; J = NO</p>
        ","f","html-keyboard-response","235","2.1.0","380455","F=YES, J=NO","jvylo3a6z2","1","66","78","55","","","","","","","","","drive","beach1","filler","filler","f","true","",""
"null","<p style=""font-size: 50px;"">+</p>","null","html-keyboard-response","236","2.1.0","380762","F=YES, J=NO","jvylo3a6z2","1","66","78","55","","","","","","","","","","","","","","","",""
"null","audio/beep-329314.mp3","null","audio-keyboard-response","237","2.1.0","382302","F=YES, J=NO","jvylo3a6z2","1","66","78","55","","","","","","","","","","","","","","","",""
"null","audio/holiday1.wav","null","audio-keyboard-response","238","2.1.0","382922","F=YES, J=NO","jvylo3a6z2","1","66","78","55","","","","","","","","","","","","","","","",""
"737","
          <p id=""word"" style=""font-size: 40px;"">drivets</p>
          <p style=""font-size: 16px;"">F = YES &nbsp;&nbsp;&nbsp; J = NO</p>
        ","j","html-keyboard-response","239","2.1.0","383660","F=YES, J=NO","jvylo3a6z2","1","66","78","55","","","","","","","","","drivets","holiday1","pseudoword","pseudoword","j","true","",""
"null","<p style=""font-size: 50px;"">+</p>","null","html-keyboard-response","240","2.1.0","383963","F=YES, J=NO","jvylo3a6z2","1","66","78","55","","","","","","","","","","","","","","","",""
"null","audio/beep-329314.mp3","null","audio-keyboard-response","241","2.1.0","385503","F=YES, J=NO","jvylo3a6z2","1","66","78","55","","","","","","","","","","","","","","","",""
"null","audio/foe1.wav","null","audio-keyboard-response","242","2.1.0","386003","F=YES, J=NO","jvylo3a6z2","1","66","78","55","","","","","","","","","","","","","","","",""
"632","
          <p id=""word"" style=""font-size: 40px;"">creth</p>
          <p style=""font-size: 16px;"">F = YES &nbsp;&nbsp;&nbsp; J = NO</p>
        ","j","html-keyboard-response","243","2.1.0","386635","F=YES, J=NO","jvylo3a6z2","1","66","78","55","","","","","","","","","creth","foe1","pseudoword","pseudoword","j","true","",""
"null","<p style=""font-size: 50px;"">+</p>","null","html-keyboard-response","244","2.1.0","386939","F=YES, J=NO","jvylo3a6z2","1","66","78","55","","","","","","","","","","","","","","","",""
"null","audio/beep-329314.mp3","null","audio-keyboard-response","245","2.1.0","388463","F=YES, J=NO","jvylo3a6z2","1","66","78","55","","","","","","","","","","","","","","","",""
"null","audio/fence.wav","null","audio-keyboard-response","246","2.1.0","389103","F=YES, J=NO","jvylo3a6z2","1","66","78","55","","","","","","","","","","","","","","","",""
"522","
          <p id=""word"" style=""font-size: 40px;"">trim</p>
          <p style=""font-size: 16px;"">F = YES &nbsp;&nbsp;&nbsp; J = NO</p>
        ","f","html-keyboard-response","247","2.1.0","389626","F=YES, J=NO","jvylo3a6z2","1","66","78","55","","","","","","","","","trim","fence","filler","filler","f","true","",""
"null","<p style=""font-size: 50px;"">+</p>","null","html-keyboard-response","248","2.1.0","389930","F=YES, J=NO","jvylo3a6z2","1","66","78","55","","","","","","","","","","","","","","","",""
"null","audio/beep-329314.mp3","null","audio-keyboard-response","249","2.1.0","391463","F=YES, J=NO","jvylo3a6z2","1","66","78","55","","","","","","","","","","","","","","","",""
"null","audio/planet1.wav","null","audio-keyboard-response","250","2.1.0","392043","F=YES, J=NO","jvylo3a6z2","1","66","78","55","","","","","","","","","","","","","","","",""
"497","
          <p id=""word"" style=""font-size: 40px;"">cratched</p>
          <p style=""font-size: 16px;"">F = YES &nbsp;&nbsp;&nbsp; J = NO</p>
        ","f","html-keyboard-response","251","2.1.0","392540","F=YES, J=NO","jvylo3a6z2","1","66","78","55","","","","","","","","","cratched","planet1","pseudoword","pseudoword","j","false","",""
"null","<p style=""font-size: 50px;"">+</p>","null","html-keyboard-response","252","2.1.0","392846","F=YES, J=NO","jvylo3a6z2","1","66","78","55","","","","","","","","","","","","","","","",""
"null","audio/beep-329314.mp3","null","audio-keyboard-response","253","2.1.0","394384","F=YES, J=NO","jvylo3a6z2","1","66","78","55","","","","","","","","","","","","","","","",""
"null","audio/age1.wav","null","audio-keyboard-response","254","2.1.0","394923","F=YES, J=NO","jvylo3a6z2","1","66","78","55","","","","","","","","","","","","","","","",""
"767","
          <p id=""word"" style=""font-size: 40px;"">lachry</p>
          <p style=""font-size: 16px;"">F = YES &nbsp;&nbsp;&nbsp; J = NO</p>
        ","j","html-keyboard-response","255","2.1.0","395690","F=YES, J=NO","jvylo3a6z2","1","66","78","55","","","","","","","","","lachry","age1","pseudoword","pseudoword","j","true","",""
"null","<p style=""font-size: 50px;"">+</p>","null","html-keyboard-response","256","2.1.0","396003","F=YES, J=NO","jvylo3a6z2","1","66","78","55","","","","","","","","","","","","","","","",""
"null","audio/beep-329314.mp3","null","audio-keyboard-response","257","2.1.0","397543","F=YES, J=NO","jvylo3a6z2","1","66","78","55","","","","","","","","","","","","","","","",""
"null","audio/truth1.wav","null","audio-keyboard-response","258","2.1.0","398263","F=YES, J=NO","jvylo3a6z2","1","66","78","55","","","","","","","","","","","","","","","",""
"443","
          <p id=""word"" style=""font-size: 40px;"">expose</p>
          <p style=""font-size: 16px;"">F = YES &nbsp;&nbsp;&nbsp; J = NO</p>
        ","f","html-keyboard-response","259","2.1.0","398706","F=YES, J=NO","jvylo3a6z2","1","66","78","55","","","","","","","","","expose","truth1","metaphor","experimental","f","true","",""
"null","<p style=""font-size: 50px;"">+</p>","null","html-keyboard-response","260","2.1.0","399016","F=YES, J=NO","jvylo3a6z2","1","66","78","55","","","","","","","","","","","","","","","",""
"null","audio/beep-329314.mp3","null","audio-keyboard-response","261","2.1.0","400543","F=YES, J=NO","jvylo3a6z2","1","66","78","55","","","","","","","","","","","","","","","",""
"null","audio/trout1.wav","null","audio-keyboard-response","262","2.1.0","401123","F=YES, J=NO","jvylo3a6z2","1","66","78","55","","","","","","","","","","","","","","","",""
"475","
          <p id=""word"" style=""font-size: 40px;"">catch</p>
          <p style=""font-size: 16px;"">F = YES &nbsp;&nbsp;&nbsp; J = NO</p>
        ","f","html-keyboard-response","263","2.1.0","401598","F=YES, J=NO","jvylo3a6z2","1","66","78","55","","","","","","","","","catch","trout1","literal","experimental","f","true","",""
"null","<p style=""font-size: 50px;"">+</p>","null","html-keyboard-response","264","2.1.0","401908","F=YES, J=NO","jvylo3a6z2","1","66","78","55","","","","","","","","","","","","","","","",""
"null","audio/beep-329314.mp3","null","audio-keyboard-response","265","2.1.0","403443","F=YES, J=NO","jvylo3a6z2","1","66","78","55","","","","","","","","","","","","","","","",""
"null","audio/truth1.wav","null","audio-keyboard-response","266","2.1.0","403984","F=YES, J=NO","jvylo3a6z2","1","66","78","55","","","","","","","","","","","","","","","",""
"587","
          <p id=""word"" style=""font-size: 40px;"">calitom</p>
          <p style=""font-size: 16px;"">F = YES &nbsp;&nbsp;&nbsp; J = NO</p>
        ","j","html-keyboard-response","267","2.1.0","404571","F=YES, J=NO","jvylo3a6z2","1","66","78","55","","","","","","","","","calitom","truth1","pseudoword","pseudoword","j","true","",""
"null","<p style=""font-size: 50px;"">+</p>","null","html-keyboard-response","268","2.1.0","404875","F=YES, J=NO","jvylo3a6z2","1","66","78","55","","","","","","","","","","","","","","","",""
"null","audio/beep-329314.mp3","null","audio-keyboard-response","269","2.1.0","406403","F=YES, J=NO","jvylo3a6z2","1","66","78","55","","","","","","","","","","","","","","","",""
"null","audio/cloud1.wav","null","audio-keyboard-response","270","2.1.0","407143","F=YES, J=NO","jvylo3a6z2","1","66","78","55","","","","","","","","","","","","","","","",""
"679","
          <p id=""word"" style=""font-size: 40px;"">brotant</p>
          <p style=""font-size: 16px;"">F = YES &nbsp;&nbsp;&nbsp; J = NO</p>
        ","j","html-keyboard-response","271","2.1.0","407823","F=YES, J=NO","jvylo3a6z2","1","66","78","55","","","","","","","","","brotant","cloud1","pseudoword","pseudoword","j","true","",""
"null","<p style=""font-size: 50px;"">+</p>","null","html-keyboard-response","272","2.1.0","408132","F=YES, J=NO","jvylo3a6z2","1","66","78","55","","","","","","","","","","","","","","","",""
"null","audio/beep-329314.mp3","null","audio-keyboard-response","273","2.1.0","409663","F=YES, J=NO","jvylo3a6z2","1","66","78","55","","","","","","","","","","","","","","","",""
"null","audio/mirror1.wav","null","audio-keyboard-response","274","2.1.0","410083","F=YES, J=NO","jvylo3a6z2","1","66","78","55","","","","","","","","","","","","","","","",""
"439","
          <p id=""word"" style=""font-size: 40px;"">fight</p>
          <p style=""font-size: 16px;"">F = YES &nbsp;&nbsp;&nbsp; J = NO</p>
        ","f","html-keyboard-response","275","2.1.0","410522","F=YES, J=NO","jvylo3a6z2","1","66","78","55","","","","","","","","","fight","mirror1","unrelated","experimental","f","true","",""
"null","<p style=""font-size: 50px;"">+</p>","null","html-keyboard-response","276","2.1.0","410825","F=YES, J=NO","jvylo3a6z2","1","66","78","55","","","","","","","","","","","","","","","",""
"null","audio/beep-329314.mp3","null","audio-keyboard-response","277","2.1.0","412363","F=YES, J=NO","jvylo3a6z2","1","66","78","55","","","","","","","","","","","","","","","",""
"null","audio/road.wav","null","audio-keyboard-response","278","2.1.0","412783","F=YES, J=NO","jvylo3a6z2","1","66","78","55","","","","","","","","","","","","","","","",""
"706","
          <p id=""word"" style=""font-size: 40px;"">wappings</p>
          <p style=""font-size: 16px;"">F = YES &nbsp;&nbsp;&nbsp; J = NO</p>
        ","f","html-keyboard-response","279","2.1.0","413490","F=YES, J=NO","jvylo3a6z2","1","66","78","55","","","","","","","","","wappings","road","pseudoword","pseudoword","j","false","",""
"null","<p style=""font-size: 50px;"">+</p>","null","html-keyboard-response","280","2.1.0","413801","F=YES, J=NO","jvylo3a6z2","1","66","78","55","","","","","","","","","","","","","","","",""
"null","audio/beep-329314.mp3","null","audio-keyboard-response","281","2.1.0","415323","F=YES, J=NO","jvylo3a6z2","1","66","78","55","","","","","","","","","","","","","","","",""
"null","audio/life1.wav","null","audio-keyboard-response","282","2.1.0","415883","F=YES, J=NO","jvylo3a6z2","1","66","78","55","","","","","","","","","","","","","","","",""
"746","
          <p id=""word"" style=""font-size: 40px;"">flimch</p>
          <p style=""font-size: 16px;"">F = YES &nbsp;&nbsp;&nbsp; J = NO</p>
        ","f","html-keyboard-response","283","2.1.0","416630","F=YES, J=NO","jvylo3a6z2","1","66","78","55","","","","","","","","","flimch","life1","pseudoword","pseudoword","j","false","",""
"null","<p style=""font-size: 50px;"">+</p>","null","html-keyboard-response","284","2.1.0","416934","F=YES, J=NO","jvylo3a6z2","1","66","78","55","","","","","","","","","","","","","","","",""
"null","audio/beep-329314.mp3","null","audio-keyboard-response","285","2.1.0","418463","F=YES, J=NO","jvylo3a6z2","1","66","78","55","","","","","","","","","","","","","","","",""
"null","audio/floor.wav","null","audio-keyboard-response","286","2.1.0","419003","F=YES, J=NO","jvylo3a6z2","1","66","78","55","","","","","","","","","","","","","","","",""
"565","
          <p id=""word"" style=""font-size: 40px;"">mop</p>
          <p style=""font-size: 16px;"">F = YES &nbsp;&nbsp;&nbsp; J = NO</p>
        ","f","html-keyboard-response","287","2.1.0","419569","F=YES, J=NO","jvylo3a6z2","1","66","78","55","","","","","","","","","mop","floor","filler","filler","f","true","",""
"null","<p style=""font-size: 50px;"">+</p>","null","html-keyboard-response","288","2.1.0","419881","F=YES, J=NO","jvylo3a6z2","1","66","78","55","","","","","","","","","","","","","","","",""
"null","audio/beep-329314.mp3","null","audio-keyboard-response","289","2.1.0","421403","F=YES, J=NO","jvylo3a6z2","1","66","78","55","","","","","","","","","","","","","","","",""
"null","audio/kettle1.wav","null","audio-keyboard-response","290","2.1.0","421864","F=YES, J=NO","jvylo3a6z2","1","66","78","55","","","","","","","","","","","","","","","",""
"498","
          <p id=""word"" style=""font-size: 40px;"">navigate</p>
          <p style=""font-size: 16px;"">F = YES &nbsp;&nbsp;&nbsp; J = NO</p>
        ","f","html-keyboard-response","291","2.1.0","422362","F=YES, J=NO","jvylo3a6z2","1","66","78","55","","","","","","","","","navigate","kettle1","unrelated","experimental","f","true","",""
"null","<p style=""font-size: 50px;"">+</p>","null","html-keyboard-response","292","2.1.0","422664","F=YES, J=NO","jvylo3a6z2","1","66","78","55","","","","","","","","","","","","","","","",""
"null","audio/beep-329314.mp3","null","audio-keyboard-response","293","2.1.0","424204","F=YES, J=NO","jvylo3a6z2","1","66","78","55","","","","","","","","","","","","","","","",""
"null","audio/roof1.wav","null","audio-keyboard-response","294","2.1.0","424923","F=YES, J=NO","jvylo3a6z2","1","66","78","55","","","","","","","","","","","","","","","",""
"532","
          <p id=""word"" style=""font-size: 40px;"">wronb</p>
          <p style=""font-size: 16px;"">F = YES &nbsp;&nbsp;&nbsp; J = NO</p>
        ","j","html-keyboard-response","295","2.1.0","425456","F=YES, J=NO","jvylo3a6z2","1","66","78","55","","","","","","","","","wronb","roof1","pseudoword","pseudoword","j","true","",""
"10067","<p>Excellent! You have finished block 2 of 8.</p>
                     <p>Feel free to take a 30 second break.</p>
                     <p>Press any key when you're ready to continue.</p>"," ","html-keyboard-response","296","2.1.0","435523","F=YES, J=NO","jvylo3a6z2","1","66","78","55","","","","","","","","","","","","","","","",""
"329","<p>Starting main block 3 of 8. Press any key to continue.</p>"," ","html-keyboard-response","297","2.1.0","435853","F=YES, J=NO","jvylo3a6z2","1","66","78","55","","","","","","","","","","","","","","","",""
"null","<p style=""font-size: 50px;"">+</p>","null","html-keyboard-response","298","2.1.0","436166","F=YES, J=NO","jvylo3a6z2","1","66","78","55","","","","","","","","","","","","","","","",""
"null","audio/beep-329314.mp3","null","audio-keyboard-response","299","2.1.0","437674","F=YES, J=NO","jvylo3a6z2","1","66","78","55","","","","","","","","","","","","","","","",""
"null","audio/golf1.wav","null","audio-keyboard-response","300","2.1.0","438214","F=YES, J=NO","jvylo3a6z2","1","66","78","55","","","","","","","","","","","","","","","",""
"450","
          <p id=""word"" style=""font-size: 40px;"">drabble</p>
          <p style=""font-size: 16px;"">F = YES &nbsp;&nbsp;&nbsp; J = NO</p>
        ","f","html-keyboard-response","301","2.1.0","438664","F=YES, J=NO","jvylo3a6z2","1","66","78","55","","","","","","","","","drabble","golf1","pseudoword","pseudoword","j","false","",""
"null","<p style=""font-size: 50px;"">+</p>","null","html-keyboard-response","302","2.1.0","438974","F=YES, J=NO","jvylo3a6z2","1","66","78","55","","","","","","","","","","","","","","","",""
"null","audio/beep-329314.mp3","null","audio-keyboard-response","303","2.1.0","440514","F=YES, J=NO","jvylo3a6z2","1","66","78","55","","","","","","","","","","","","","","","",""
"null","audio/brain.wav","null","audio-keyboard-response","304","2.1.0","440994","F=YES, J=NO","jvylo3a6z2","1","66","78","55","","","","","","","","","","","","","","","",""
"458","
          <p id=""word"" style=""font-size: 40px;"">throw</p>
          <p style=""font-size: 16px;"">F = YES &nbsp;&nbsp;&nbsp; J = NO</p>
        ","f","html-keyboard-response","305","2.1.0","441452","F=YES, J=NO","jvylo3a6z2","1","66","78","55","","","","","","","","","throw","brain","filler","filler","f","true","",""
"null","<p style=""font-size: 50px;"">+</p>","null","html-keyboard-response","306","2.1.0","441758","F=YES, J=NO","jvylo3a6z2","1","66","78","55","","","","","","","","","","","","","","","",""
"null","audio/beep-329314.mp3","null","audio-keyboard-response","307","2.1.0","443294","F=YES, J=NO","jvylo3a6z2","1","66","78","55","","","","","","","","","","","","","","","",""
"null","audio/cloud1.wav","null","audio-keyboard-response","308","2.1.0","443834","F=YES, J=NO","jvylo3a6z2","1","66","78","55","","","","","","","","","","","","","","","",""
"506","
          <p id=""word"" style=""font-size: 40px;"">scrap</p>
          <p style=""font-size: 16px;"">F = YES &nbsp;&nbsp;&nbsp; J = NO</p>
        ","f","html-keyboard-response","309","2.1.0","444340","F=YES, J=NO","jvylo3a6z2","1","66","78","55","","","","","","","","","scrap","cloud1","unrelated","experimental","f","true","",""
"null","<p style=""font-size: 50px;"">+</p>","null","html-keyboard-response","310","2.1.0","444642","F=YES, J=NO","jvylo3a6z2","1","66","78","55","","","","","","","","","","","","","","","",""
"null","audio/beep-329314.mp3","null","audio-keyboard-response","311","2.1.0","446174","F=YES, J=NO","jvylo3a6z2","1","66","78","55","","","","","","","","","","","","","","","",""
"null","audio/purpose.wav","null","audio-keyboard-response","312","2.1.0","446834","F=YES, J=NO","jvylo3a6z2","1","66","78","55","","","","","","","","","","","","","","","",""
"568","
          <p id=""word"" style=""font-size: 40px;"">whigm</p>
          <p style=""font-size: 16px;"">F = YES &nbsp;&nbsp;&nbsp; J = NO</p>
        ","j","html-keyboard-response","313","2.1.0","447403","F=YES, J=NO","jvylo3a6z2","1","66","78","55","","","","","","","","","whigm","purpose","pseudoword","pseudoword","j","true","",""
"null","<p style=""font-size: 50px;"">+</p>","null","html-keyboard-response","314","2.1.0","447713","F=YES, J=NO","jvylo3a6z2","1","66","78","55","","","","","","","","","","","","","","","",""
"null","audio/beep-329314.mp3","null","audio-keyboard-response","315","2.1.0","449234","F=YES, J=NO","jvylo3a6z2","1","66","78","55","","","","","","","","","","","","","","","",""
"null","audio/meal.wav","null","audio-keyboard-response","316","2.1.0","449674","F=YES, J=NO","jvylo3a6z2","1","66","78","55","","","","","","","","","","","","","","","",""
"751","
          <p id=""word"" style=""font-size: 40px;"">gallite</p>
          <p style=""font-size: 16px;"">F = YES &nbsp;&nbsp;&nbsp; J = NO</p>
        ","j","html-keyboard-response","317","2.1.0","450426","F=YES, J=NO","jvylo3a6z2","1","66","78","55","","","","","","","","","gallite","meal","pseudoword","pseudoword","j","true","",""
"null","<p style=""font-size: 50px;"">+</p>","null","html-keyboard-response","318","2.1.0","450741","F=YES, J=NO","jvylo3a6z2","1","66","78","55","","","","","","","","","","","","","","","",""
"null","audio/beep-329314.mp3","null","audio-keyboard-response","319","2.1.0","452274","F=YES, J=NO","jvylo3a6z2","1","66","78","55","","","","","","","","","","","","","","","",""
"null","audio/table1.wav","null","audio-keyboard-response","320","2.1.0","452934","F=YES, J=NO","jvylo3a6z2","1","66","78","55","","","","","","","","","","","","","","","",""
"441","
          <p id=""word"" style=""font-size: 40px;"">clear</p>
          <p style=""font-size: 16px;"">F = YES &nbsp;&nbsp;&nbsp; J = NO</p>
        ","f","html-keyboard-response","321","2.1.0","453375","F=YES, J=NO","jvylo3a6z2","1","66","78","55","","","","","","","","","clear","table1","literal","experimental","f","true","",""
"null","<p style=""font-size: 50px;"">+</p>","null","html-keyboard-response","322","2.1.0","453686","F=YES, J=NO","jvylo3a6z2","1","66","78","55","","","","","","","","","","","","","","","",""
"null","audio/beep-329314.mp3","null","audio-keyboard-response","323","2.1.0","455214","F=YES, J=NO","jvylo3a6z2","1","66","78","55","","","","","","","","","","","","","","","",""
"null","audio/uncle1.wav","null","audio-keyboard-response","324","2.1.0","455874","F=YES, J=NO","jvylo3a6z2","1","66","78","55","","","","","","","","","","","","","","","",""
"849","
          <p id=""word"" style=""font-size: 40px;"">dramble</p>
          <p style=""font-size: 16px;"">F = YES &nbsp;&nbsp;&nbsp; J = NO</p>
        ","j","html-keyboard-response","325","2.1.0","456724","F=YES, J=NO","jvylo3a6z2","1","66","78","55","","","","","","","","","dramble","uncle1","pseudoword","pseudoword","j","true","",""
"null","<p style=""font-size: 50px;"">+</p>","null","html-keyboard-response","326","2.1.0","457031","F=YES, J=NO","jvylo3a6z2","1","66","78","55","","","","","","","","","","","","","","","",""
"null","audio/beep-329314.mp3","null","audio-keyboard-response","327","2.1.0","458554","F=YES, J=NO","jvylo3a6z2","1","66","78","55","","","","","","","","","","","","","","","",""
"null","audio/radio1.wav","null","audio-keyboard-response","328","2.1.0","459314","F=YES, J=NO","jvylo3a6z2","1","66","78","55","","","","","","","","","","","","","","","",""
"612","
          <p id=""word"" style=""font-size: 40px;"">spend</p>
          <p style=""font-size: 16px;"">F = YES &nbsp;&nbsp;&nbsp; J = NO</p>
        ","f","html-keyboard-response","329","2.1.0","459927","F=YES, J=NO","jvylo3a6z2","1","66","78","55","","","","","","","","","spend","radio1","unrelated","experimental","f","true","",""
"null","<p style=""font-size: 50px;"">+</p>","null","html-keyboard-response","330","2.1.0","460238","F=YES, J=NO","jvylo3a6z2","1","66","78","55","","","","","","","","","","","","","","","",""
"null","audio/beep-329314.mp3","null","audio-keyboard-response","331","2.1.0","461774","F=YES, J=NO","jvylo3a6z2","1","66","78","55","","","","","","","","","","","","","","","",""
"null","audio/survey1.wav","null","audio-keyboard-response","332","2.1.0","462494","F=YES, J=NO","jvylo3a6z2","1","66","78","55","","","","","","","","","","","","","","","",""
"495","
          <p id=""word"" style=""font-size: 40px;"">release</p>
          <p style=""font-size: 16px;"">F = YES &nbsp;&nbsp;&nbsp; J = NO</p>
        ","f","html-keyboard-response","333","2.1.0","462990","F=YES, J=NO","jvylo3a6z2","1","66","78","55","","","","","","","","","release","survey1","metaphor","experimental","f","true","",""
"null","<p style=""font-size: 50px;"">+</p>","null","html-keyboard-response","334","2.1.0","463290","F=YES, J=NO","jvylo3a6z2","1","66","78","55","","","","","","","","","","","","","","","",""
"null","audio/beep-329314.mp3","null","audio-keyboard-response","335","2.1.0","464815","F=YES, J=NO","jvylo3a6z2","1","66","78","55","","","","","","","","","","","","","","","",""
"null","audio/tunnel.wav","null","audio-keyboard-response","336","2.1.0","465234","F=YES, J=NO","jvylo3a6z2","1","66","78","55","","","","","","","","","","","","","","","",""
"817","
          <p id=""word"" style=""font-size: 40px;"">gred</p>
          <p style=""font-size: 16px;"">F = YES &nbsp;&nbsp;&nbsp; J = NO</p>
        ","j","html-keyboard-response","337","2.1.0","466052","F=YES, J=NO","jvylo3a6z2","1","66","78","55","","","","","","","","","gred","tunnel","pseudoword","pseudoword","j","true","",""
"null","<p style=""font-size: 50px;"">+</p>","null","html-keyboard-response","338","2.1.0","466365","F=YES, J=NO","jvylo3a6z2","1","66","78","55","","","","","","","","","","","","","","","",""
"null","audio/beep-329314.mp3","null","audio-keyboard-response","339","2.1.0","467895","F=YES, J=NO","jvylo3a6z2","1","66","78","55","","","","","","","","","","","","","","","",""
"null","audio/ankle1.wav","null","audio-keyboard-response","340","2.1.0","468415","F=YES, J=NO","jvylo3a6z2","1","66","78","55","","","","","","","","","","","","","","","",""
"689","
          <p id=""word"" style=""font-size: 40px;"">switm</p>
          <p style=""font-size: 16px;"">F = YES &nbsp;&nbsp;&nbsp; J = NO</p>
        ","j","html-keyboard-response","341","2.1.0","469104","F=YES, J=NO","jvylo3a6z2","1","66","78","55","","","","","","","","","switm","ankle1","pseudoword","pseudoword","j","true","",""
"null","<p style=""font-size: 50px;"">+</p>","null","html-keyboard-response","342","2.1.0","469410","F=YES, J=NO","jvylo3a6z2","1","66","78","55","","","","","","","","","","","","","","","",""
"null","audio/beep-329314.mp3","null","audio-keyboard-response","343","2.1.0","470935","F=YES, J=NO","jvylo3a6z2","1","66","78","55","","","","","","","","","","","","","","","",""
"null","audio/alarm1.wav","null","audio-keyboard-response","344","2.1.0","471515","F=YES, J=NO","jvylo3a6z2","1","66","78","55","","","","","","","","","","","","","","","",""
"632","
          <p id=""word"" style=""font-size: 40px;"">swetp</p>
          <p style=""font-size: 16px;"">F = YES &nbsp;&nbsp;&nbsp; J = NO</p>
        ","j","html-keyboard-response","345","2.1.0","472147","F=YES, J=NO","jvylo3a6z2","1","66","78","55","","","","","","","","","swetp","alarm1","pseudoword","pseudoword","j","true","",""
"null","<p style=""font-size: 50px;"">+</p>","null","html-keyboard-response","346","2.1.0","472453","F=YES, J=NO","jvylo3a6z2","1","66","78","55","","","","","","","","","","","","","","","",""
"null","audio/beep-329314.mp3","null","audio-keyboard-response","347","2.1.0","473975","F=YES, J=NO","jvylo3a6z2","1","66","78","55","","","","","","","","","","","","","","","",""
"null","audio/van1.wav","null","audio-keyboard-response","348","2.1.0","474455","F=YES, J=NO","jvylo3a6z2","1","66","78","55","","","","","","","","","","","","","","","",""
"472","
          <p id=""word"" style=""font-size: 40px;"">support</p>
          <p style=""font-size: 16px;"">F = YES &nbsp;&nbsp;&nbsp; J = NO</p>
        ","f","html-keyboard-response","349","2.1.0","474928","F=YES, J=NO","jvylo3a6z2","1","66","78","55","","","","","","","","","support","van1","unrelated","experimental","f","true","",""
"null","<p style=""font-size: 50px;"">+</p>","null","html-keyboard-response","350","2.1.0","475242","F=YES, J=NO","jvylo3a6z2","1","66","78","55","","","","","","","","","","","","","","","",""
"null","audio/beep-329314.mp3","null","audio-keyboard-response","351","2.1.0","476775","F=YES, J=NO","jvylo3a6z2","1","66","78","55","","","","","","","","","","","","","","","",""
"null","audio/street.wav","null","audio-keyboard-response","352","2.1.0","477635","F=YES, J=NO","jvylo3a6z2","1","66","78","55","","","","","","","","","","","","","","","",""
"485","
          <p id=""word"" style=""font-size: 40px;"">hold</p>
          <p style=""font-size: 16px;"">F = YES &nbsp;&nbsp;&nbsp; J = NO</p>
        ","f","html-keyboard-response","353","2.1.0","478121","F=YES, J=NO","jvylo3a6z2","1","66","78","55","","","","","","","","","hold","street","unrelated","experimental","f","true","",""
"null","<p style=""font-size: 50px;"">+</p>","null","html-keyboard-response","354","2.1.0","478436","F=YES, J=NO","jvylo3a6z2","1","66","78","55","","","","","","","","","","","","","","","",""
"null","audio/beep-329314.mp3","null","audio-keyboard-response","355","2.1.0","479975","F=YES, J=NO","jvylo3a6z2","1","66","78","55","","","","","","","","","","","","","","","",""
"null","audio/hotel1.wav","null","audio-keyboard-response","356","2.1.0","480595","F=YES, J=NO","jvylo3a6z2","1","66","78","55","","","","","","","","","","","","","","","",""
"584","
          <p id=""word"" style=""font-size: 40px;"">flanter</p>
          <p style=""font-size: 16px;"">F = YES &nbsp;&nbsp;&nbsp; J = NO</p>
        ","j","html-keyboard-response","357","2.1.0","481179","F=YES, J=NO","jvylo3a6z2","1","66","78","55","","","","","","","","","flanter","hotel1","pseudoword","pseudoword","j","true","",""
"null","<p style=""font-size: 50px;"">+</p>","null","html-keyboard-response","358","2.1.0","481492","F=YES, J=NO","jvylo3a6z2","1","66","78","55","","","","","","","","","","","","","","","",""
"null","audio/beep-329314.mp3","null","audio-keyboard-response","359","2.1.0","483015","F=YES, J=NO","jvylo3a6z2","1","66","78","55","","","","","","","","","","","","","","","",""
"null","audio/stain.wav","null","audio-keyboard-response","360","2.1.0","483655","F=YES, J=NO","jvylo3a6z2","1","66","78","55","","","","","","","","","","","","","","","",""
"1365","
          <p id=""word"" style=""font-size: 40px;"">rumpsied</p>
          <p style=""font-size: 16px;"">F = YES &nbsp;&nbsp;&nbsp; J = NO</p>
        ","f","html-keyboard-response","361","2.1.0","485021","F=YES, J=NO","jvylo3a6z2","1","66","78","55","","","","","","","","","rumpsied","stain","pseudoword","pseudoword","j","false","",""
"1076","<p>Excellent! You have finished block 3 of 8.</p>
                     <p>Feel free to take a 30 second break.</p>
                     <p>Press any key when you're ready to continue.</p>"," ","html-keyboard-response","362","2.1.0","486098","F=YES, J=NO","jvylo3a6z2","1","66","78","55","","","","","","","","","","","","","","","",""
"348","<p>Starting main block 4 of 8. Press any key to continue.</p>"," ","html-keyboard-response","363","2.1.0","486446","F=YES, J=NO","jvylo3a6z2","1","66","78","55","","","","","","","","","","","","","","","",""
"null","<p style=""font-size: 50px;"">+</p>","null","html-keyboard-response","364","2.1.0","486752","F=YES, J=NO","jvylo3a6z2","1","66","78","55","","","","","","","","","","","","","","","",""
"null","audio/beep-329314.mp3","null","audio-keyboard-response","365","2.1.0","488275","F=YES, J=NO","jvylo3a6z2","1","66","78","55","","","","","","","","","","","","","","","",""
"null","audio/scar.wav","null","audio-keyboard-response","366","2.1.0","488855","F=YES, J=NO","jvylo3a6z2","1","66","78","55","","","","","","","","","","","","","","","",""
"744","
          <p id=""word"" style=""font-size: 40px;"">adelineate</p>
          <p style=""font-size: 16px;"">F = YES &nbsp;&nbsp;&nbsp; J = NO</p>
        ","j","html-keyboard-response","367","2.1.0","489600","F=YES, J=NO","jvylo3a6z2","1","66","78","55","","","","","","","","","adelineate","scar","pseudoword","pseudoword","j","true","",""
"null","<p style=""font-size: 50px;"">+</p>","null","html-keyboard-response","368","2.1.0","489907","F=YES, J=NO","jvylo3a6z2","1","66","78","55","","","","","","","","","","","","","","","",""
"null","audio/beep-329314.mp3","null","audio-keyboard-response","369","2.1.0","491435","F=YES, J=NO","jvylo3a6z2","1","66","78","55","","","","","","","","","","","","","","","",""
"null","audio/story.wav","null","audio-keyboard-response","370","2.1.0","492095","F=YES, J=NO","jvylo3a6z2","1","66","78","55","","","","","","","","","","","","","","","",""
"441","
          <p id=""word"" style=""font-size: 40px;"">cover</p>
          <p style=""font-size: 16px;"">F = YES &nbsp;&nbsp;&nbsp; J = NO</p>
        ","f","html-keyboard-response","371","2.1.0","492537","F=YES, J=NO","jvylo3a6z2","1","66","78","55","","","","","","","","","cover","story","metaphor","experimental","f","true","",""
"null","<p style=""font-size: 50px;"">+</p>","null","html-keyboard-response","372","2.1.0","492842","F=YES, J=NO","jvylo3a6z2","1","66","78","55","","","","","","","","","","","","","","","",""
"null","audio/beep-329314.mp3","null","audio-keyboard-response","373","2.1.0","494375","F=YES, J=NO","jvylo3a6z2","1","66","78","55","","","","","","","","","","","","","","","",""
"null","audio/mile1.wav","null","audio-keyboard-response","374","2.1.0","494855","F=YES, J=NO","jvylo3a6z2","1","66","78","55","","","","","","","","","","","","","","","",""
"997","
          <p id=""word"" style=""font-size: 40px;"">writch</p>
          <p style=""font-size: 16px;"">F = YES &nbsp;&nbsp;&nbsp; J = NO</p>
        ","f","html-keyboard-response","375","2.1.0","495853","F=YES, J=NO","jvylo3a6z2","1","66","78","55","","","","","","","","","writch","mile1","pseudoword","pseudoword","j","false","",""
"null","<p style=""font-size: 50px;"">+</p>","null","html-keyboard-response","376","2.1.0","496154","F=YES, J=NO","jvylo3a6z2","1","66","78","55","","","","","","","","","","","","","","","",""
"null","audio/beep-329314.mp3","null","audio-keyboard-response","377","2.1.0","497675","F=YES, J=NO","jvylo3a6z2","1","66","78","55","","","","","","","","","","","","","","","",""
"null","audio/foot1.wav","null","audio-keyboard-response","378","2.1.0","498235","F=YES, J=NO","jvylo3a6z2","1","66","78","55","","","","","","","","","","","","","","","",""
"523","
          <p id=""word"" style=""font-size: 40px;"">close</p>
          <p style=""font-size: 16px;"">F = YES &nbsp;&nbsp;&nbsp; J = NO</p>
        ","f","html-keyboard-response","379","2.1.0","498759","F=YES, J=NO","jvylo3a6z2","1","66","78","55","","","","","","","","","close","foot1","unrelated","experimental","f","true","",""
"null","<p style=""font-size: 50px;"">+</p>","null","html-keyboard-response","380","2.1.0","499063","F=YES, J=NO","jvylo3a6z2","1","66","78","55","","","","","","","","","","","","","","","",""
"null","audio/beep-329314.mp3","null","audio-keyboard-response","381","2.1.0","500595","F=YES, J=NO","jvylo3a6z2","1","66","78","55","","","","","","","","","","","","","","","",""
"null","audio/camp.wav","null","audio-keyboard-response","382","2.1.0","501135","F=YES, J=NO","jvylo3a6z2","1","66","78","55","","","","","","","","","","","","","","","",""
"457","
          <p id=""word"" style=""font-size: 40px;"">touch</p>
          <p style=""font-size: 16px;"">F = YES &nbsp;&nbsp;&nbsp; J = NO</p>
        ","f","html-keyboard-response","383","2.1.0","501593","F=YES, J=NO","jvylo3a6z2","1","66","78","55","","","","","","","","","touch","camp","unrelated","experimental","f","true","",""
"null","<p style=""font-size: 50px;"">+</p>","null","html-keyboard-response","384","2.1.0","501900","F=YES, J=NO","jvylo3a6z2","1","66","78","55","","","","","","","","","","","","","","","",""
"null","audio/beep-329314.mp3","null","audio-keyboard-response","385","2.1.0","503436","F=YES, J=NO","jvylo3a6z2","1","66","78","55","","","","","","","","","","","","","","","",""
"null","audio/bush1.wav","null","audio-keyboard-response","386","2.1.0","504095","F=YES, J=NO","jvylo3a6z2","1","66","78","55","","","","","","","","","","","","","","","",""
"848","
          <p id=""word"" style=""font-size: 40px;"">platined</p>
          <p style=""font-size: 16px;"">F = YES &nbsp;&nbsp;&nbsp; J = NO</p>
        ","j","html-keyboard-response","387","2.1.0","504944","F=YES, J=NO","jvylo3a6z2","1","66","78","55","","","","","","","","","platined","bush1","pseudoword","pseudoword","j","true","",""
"null","<p style=""font-size: 50px;"">+</p>","null","html-keyboard-response","388","2.1.0","505255","F=YES, J=NO","jvylo3a6z2","1","66","78","55","","","","","","","","","","","","","","","",""
"null","audio/beep-329314.mp3","null","audio-keyboard-response","389","2.1.0","506776","F=YES, J=NO","jvylo3a6z2","1","66","78","55","","","","","","","","","","","","","","","",""
"null","audio/pride1.wav","null","audio-keyboard-response","390","2.1.0","507316","F=YES, J=NO","jvylo3a6z2","1","66","78","55","","","","","","","","","","","","","","","",""
"563","
          <p id=""word"" style=""font-size: 40px;"">hurt</p>
          <p style=""font-size: 16px;"">F = YES &nbsp;&nbsp;&nbsp; J = NO</p>
