"rt","stimulus","response","trial_type","trial_index","plugin_version","time_elapsed","response_mapping","subject_id","list_index","lextale_score","lextale_word_score","lextale_nonword_score","success","timeout","failed_images","failed_audio","failed_video","task","isWord","isDummy","target","prime","prime_type","stimulus_type","correct_response","correct","section","question_order"
"22206","
    <div style=""max-width: 800px; margin: auto; text-align: left;"">
      <h2>STANFORD UNIVERSITY</h2>
      <h3>Research Information Sheet</h3>
      <p><strong>Protocol Director:</strong> Robert Hawkins<br>
      <strong>Protocol Title:</strong> Communication and social cognition in natural audiovisual contexts<br>
      <strong>IRB#:</strong> 77226</p>

      <p><strong>DESCRIPTION:</strong> You are invited to participate in a research study about language and communication. The purpose of the research is to understand how you interact and communicate with other people in naturalistic settings as a fluent English speaker. This research will be conducted through the Prolific platform, including participants from the US, UK, and Canada. If you decide to participate in this research, you will play a communication game in a group with one or more partners.</p>

      <p><strong>TIME INVOLVEMENT:</strong> The task will last the amount of time advertised on Prolific. You are free to withdraw from the study at any time.</p>

      <p><strong>RISKS AND BENEFITS:</strong> You may become frustrated if your partner gets distracted, or experience discomfort if other participants in your group send text that is inappropriate for the task. We ask you to please be respectful of other participants you might be interacting with to mitigate these risks. You may also experience discomfort when being asked to discuss or challenge emotionally salient political beliefs. Study data will be stored securely, in compliance with Stanford University standards, minimizing the risk of confidentiality breach. This study advances our scientific understanding of how people communicate and collaborate in naturalistic settings. This study may lead to further insights about what can go wrong in teamwork, suggest potential interventions to overcome these barriers, and help to develop assistive technologies that collaborate with human partners. We cannot and do not guarantee or promise that you will receive any benefits from this study.</p>

      <p><strong>PAYMENTS:</strong> You will receive payment in the amount advertised on Prolific. If you do not complete this study, you will receive prorated payment based on the time that you have spent. Additionally, you may be eligible for bonus payments as described in the instructions.</p>

      <p><strong>PARTICIPANT’S RIGHTS:</strong> If you have read this form and have decided to participate in this project, please understand your participation is voluntary and you have the right to withdraw your consent or discontinue participation at any time without penalty or loss of benefits to which you are otherwise entitled. The alternative is not to participate. You have the right to refuse to answer particular questions. The results of this research study may be presented at scientific or professional meetings or published in scientific journals. Your individual privacy will be maintained in all published and written data resulting from the study. In accordance with scientific norms, the data from this study may be used or shared with other researchers for future research (after removing personally identifying information) without additional consent from you.</p>

      <p><strong>CONTACT INFORMATION:</strong><br>
      Questions: If you have any questions, concerns or complaints about this research, its procedures, risks and benefits, contact the Protocol Director, Robert Hawkins (<a href=""mailto:rdhawkins@stanford.edu"">rdhawkins@stanford.edu</a>, 217-549-6923).<br>
      Independent Contact: If you are not satisfied with how this study is being conducted, or if you have any concerns, complaints, or general questions about the research or your rights as a participant, please contact the Stanford Institutional Review Board (IRB) to speak to someone independent of the research team at 650-723-2480 or toll free at 1-866-680-2906, or email at <a href=""mailto:irbnon-med@stanford.edu"">irbnon-med@stanford.edu</a>. You can also write to the Stanford IRB, Stanford University, 1705 El Camino Real, Palo Alto, CA 94306.</p>

      <p><strong>Please save or print a copy of this page for your records.</strong></p>
      <p>If you agree to participate in this research, click ""Continue"" below.</p>
    </div>
  ","0","html-button-response","0","2.1.0","22213","J=YES, F=NO","jw40s9dhgp","0","70","65","75","","","","","","","","","","","","","","","",""
"27145","
    <div style=""max-width: 800px; margin: auto; text-align: left;"">
      <h2>Welcome!</h2>
      <p>Thank you for participating in this study. The experiment consists of three parts:</p>
      <ol>
        <li>An English vocabulary test</li>
        <li>A main task in which you will hear and see words, and decide whether the written word is a real English word</li>
        <li>A brief survey about your background</li>
      </ol>
      <p>Each part will be introduced before it begins.</p>
      <p>Please make sure you are in a quiet environment and can hear audio clearly for the final task.</p>
      <p style=""margin-top: 2em;"">Press any key to begin.</p>
    </div>
  "," ","html-keyboard-response","1","2.1.0","49361","J=YES, F=NO","jw40s9dhgp","0","70","65","75","","","","","","","","","","","","","","","",""
"","","","preload","2","2.1.0","50221","J=YES, F=NO","jw40s9dhgp","0","70","65","75","true","false","[]","[]","[]","","","","","","","","","","",""
"6479","
    <div style=""max-width: 800px; margin: auto; text-align: left;"">
      <h2>Part 1: Vocabulary Test</h2>
      <p>You will now complete the first part of the study: a short English vocabulary test.</p>
      <p>This test is called <strong>LexTALE</strong> and helps us get a general sense of your English proficiency.</p>
      <p style=""margin-top: 2em;"">Press any key to continue.</p>
    </div>
  "," ","html-keyboard-response","3","2.1.0","56702","J=YES, F=NO","jw40s9dhgp","0","70","65","75","","","","","","","","","","","","","","","",""
"15150","
    <div style=""max-width: 800px; margin: auto; text-align: left;"">
      <h2>LexTALE Vocabulary Test</h2>
      <p>In this test, you will see a series of letter strings—one at a time.</p>
      <p>Your task is to decide whether each string is a real English word.</p>
      <p><strong>Key responses:</strong></p>
      <ul>
        <li><strong>J</strong> = YES (real English word)</li>
        <li><strong>F</strong> = NO (not a real English word)</li>
      </ul>
      <p>There is no time limit, but please try to be accurate.</p>
      <p style=""margin-top: 2em;"">Press any key to begin.</p>
    </div>
  "," ","html-keyboard-response","4","2.1.0","71853","J=YES, F=NO","jw40s9dhgp","0","70","65","75","","","","","","","","","","","","","","","",""
"2350","
  <p style=""font-size: 40px;"">platery</p>
  <p style=""font-size: 16px;"">J = YES &nbsp;&nbsp;&nbsp; F = NO</p>
","j","html-keyboard-response","5","2.1.0","74203","J=YES, F=NO","jw40s9dhgp","0","70","65","75","","","","","","lextale","false","true","","","","","","","",""
"8464","
  <p style=""font-size: 40px;"">denial</p>
  <p style=""font-size: 16px;"">J = YES &nbsp;&nbsp;&nbsp; F = NO</p>
","j","html-keyboard-response","6","2.1.0","82669","J=YES, F=NO","jw40s9dhgp","0","70","65","75","","","","","","lextale","true","true","","","","","","","",""
"2221","
  <p style=""font-size: 40px;"">marrit</p>
  <p style=""font-size: 16px;"">J = YES &nbsp;&nbsp;&nbsp; F = NO</p>
","f","html-keyboard-response","7","2.1.0","84891","J=YES, F=NO","jw40s9dhgp","0","70","65","75","","","","","","lextale","false","true","","","","","","","",""
"2219","
  <p style=""font-size: 40px;"">bottle</p>
  <p style=""font-size: 16px;"">J = YES &nbsp;&nbsp;&nbsp; F = NO</p>
","j","html-keyboard-response","8","2.1.0","87111","J=YES, F=NO","jw40s9dhgp","0","70","65","75","","","","","","lextale","true","false","","","","","","","",""
"1665","
  <p style=""font-size: 40px;"">birst</p>
  <p style=""font-size: 16px;"">J = YES &nbsp;&nbsp;&nbsp; F = NO</p>
","f","html-keyboard-response","9","2.1.0","88777","J=YES, F=NO","jw40s9dhgp","0","70","65","75","","","","","","lextale","false","false","","","","","","","",""
"912","
  <p style=""font-size: 40px;"">envy</p>
  <p style=""font-size: 16px;"">J = YES &nbsp;&nbsp;&nbsp; F = NO</p>
","j","html-keyboard-response","10","2.1.0","89690","J=YES, F=NO","jw40s9dhgp","0","70","65","75","","","","","","lextale","true","false","","","","","","","",""
"1143","
  <p style=""font-size: 40px;"">brang</p>
  <p style=""font-size: 16px;"">J = YES &nbsp;&nbsp;&nbsp; F = NO</p>
","f","html-keyboard-response","11","2.1.0","90834","J=YES, F=NO","jw40s9dhgp","0","70","65","75","","","","","","lextale","false","false","","","","","","","",""
"793","
  <p style=""font-size: 40px;"">huge</p>
  <p style=""font-size: 16px;"">J = YES &nbsp;&nbsp;&nbsp; F = NO</p>
","j","html-keyboard-response","12","2.1.0","91627","J=YES, F=NO","jw40s9dhgp","0","70","65","75","","","","","","lextale","true","false","","","","","","","",""
"1341","
  <p style=""font-size: 40px;"">plove</p>
  <p style=""font-size: 16px;"">J = YES &nbsp;&nbsp;&nbsp; F = NO</p>
","f","html-keyboard-response","13","2.1.0","92969","J=YES, F=NO","jw40s9dhgp","0","70","65","75","","","","","","lextale","false","false","","","","","","","",""
"1145","
  <p style=""font-size: 40px;"">border</p>
  <p style=""font-size: 16px;"">J = YES &nbsp;&nbsp;&nbsp; F = NO</p>
","j","html-keyboard-response","14","2.1.0","94115","J=YES, F=NO","jw40s9dhgp","0","70","65","75","","","","","","lextale","true","false","","","","","","","",""
"2044","
  <p style=""font-size: 40px;"">flimsy</p>
  <p style=""font-size: 16px;"">J = YES &nbsp;&nbsp;&nbsp; F = NO</p>
","j","html-keyboard-response","15","2.1.0","96161","J=YES, F=NO","jw40s9dhgp","0","70","65","75","","","","","","lextale","true","false","","","","","","","",""
"829","
  <p style=""font-size: 40px;"">drain</p>
  <p style=""font-size: 16px;"">J = YES &nbsp;&nbsp;&nbsp; F = NO</p>
","j","html-keyboard-response","16","2.1.0","96998","J=YES, F=NO","jw40s9dhgp","0","70","65","75","","","","","","lextale","true","false","","","","","","","",""
"1628","
  <p style=""font-size: 40px;"">twindle</p>
  <p style=""font-size: 16px;"">J = YES &nbsp;&nbsp;&nbsp; F = NO</p>
","f","html-keyboard-response","17","2.1.0","98627","J=YES, F=NO","jw40s9dhgp","0","70","65","75","","","","","","lextale","false","false","","","","","","","",""
"933","
  <p style=""font-size: 40px;"">propose</p>
  <p style=""font-size: 16px;"">J = YES &nbsp;&nbsp;&nbsp; F = NO</p>
","j","html-keyboard-response","18","2.1.0","99561","J=YES, F=NO","jw40s9dhgp","0","70","65","75","","","","","","lextale","true","false","","","","","","","",""
"1142","
  <p style=""font-size: 40px;"">forlay</p>
  <p style=""font-size: 16px;"">J = YES &nbsp;&nbsp;&nbsp; F = NO</p>
","f","html-keyboard-response","19","2.1.0","100704","J=YES, F=NO","jw40s9dhgp","0","70","65","75","","","","","","lextale","false","false","","","","","","","",""
"993","
  <p style=""font-size: 40px;"">tenant</p>
  <p style=""font-size: 16px;"">J = YES &nbsp;&nbsp;&nbsp; F = NO</p>
","j","html-keyboard-response","20","2.1.0","101698","J=YES, F=NO","jw40s9dhgp","0","70","65","75","","","","","","lextale","true","false","","","","","","","",""
"849","
  <p style=""font-size: 40px;"">strain</p>
  <p style=""font-size: 16px;"">J = YES &nbsp;&nbsp;&nbsp; F = NO</p>
","j","html-keyboard-response","21","2.1.0","102548","J=YES, F=NO","jw40s9dhgp","0","70","65","75","","","","","","lextale","true","false","","","","","","","",""
"1045","
  <p style=""font-size: 40px;"">holster</p>
  <p style=""font-size: 16px;"">J = YES &nbsp;&nbsp;&nbsp; F = NO</p>
","f","html-keyboard-response","22","2.1.0","103594","J=YES, F=NO","jw40s9dhgp","0","70","65","75","","","","","","lextale","true","false","","","","","","","",""
"1620","
  <p style=""font-size: 40px;"">hinder</p>
  <p style=""font-size: 16px;"">J = YES &nbsp;&nbsp;&nbsp; F = NO</p>
","j","html-keyboard-response","23","2.1.0","105215","J=YES, F=NO","jw40s9dhgp","0","70","65","75","","","","","","lextale","true","false","","","","","","","",""
"1479","
  <p style=""font-size: 40px;"">swindle</p>
  <p style=""font-size: 16px;"">J = YES &nbsp;&nbsp;&nbsp; F = NO</p>
","f","html-keyboard-response","24","2.1.0","106696","J=YES, F=NO","jw40s9dhgp","0","70","65","75","","","","","","lextale","true","false","","","","","","","",""
"1076","
  <p style=""font-size: 40px;"">nuder</p>
  <p style=""font-size: 16px;"">J = YES &nbsp;&nbsp;&nbsp; F = NO</p>
","f","html-keyboard-response","25","2.1.0","107773","J=YES, F=NO","jw40s9dhgp","0","70","65","75","","","","","","lextale","false","false","","","","","","","",""
"970","
  <p style=""font-size: 40px;"">pillow</p>
  <p style=""font-size: 16px;"">J = YES &nbsp;&nbsp;&nbsp; F = NO</p>
","j","html-keyboard-response","26","2.1.0","108744","J=YES, F=NO","jw40s9dhgp","0","70","65","75","","","","","","lextale","true","false","","","","","","","",""
"1616","
  <p style=""font-size: 40px;"">shumble</p>
  <p style=""font-size: 16px;"">J = YES &nbsp;&nbsp;&nbsp; F = NO</p>
","f","html-keyboard-response","27","2.1.0","110360","J=YES, F=NO","jw40s9dhgp","0","70","65","75","","","","","","lextale","false","false","","","","","","","",""
"873","
  <p style=""font-size: 40px;"">thirst</p>
  <p style=""font-size: 16px;"">J = YES &nbsp;&nbsp;&nbsp; F = NO</p>
","j","html-keyboard-response","28","2.1.0","111234","J=YES, F=NO","jw40s9dhgp","0","70","65","75","","","","","","lextale","true","false","","","","","","","",""
"1774","
  <p style=""font-size: 40px;"">unsail</p>
  <p style=""font-size: 16px;"">J = YES &nbsp;&nbsp;&nbsp; F = NO</p>
","f","html-keyboard-response","29","2.1.0","113009","J=YES, F=NO","jw40s9dhgp","0","70","65","75","","","","","","lextale","false","false","","","","","","","",""
"3092","
  <p style=""font-size: 40px;"">rifle</p>
  <p style=""font-size: 16px;"">J = YES &nbsp;&nbsp;&nbsp; F = NO</p>
","f","html-keyboard-response","30","2.1.0","116101","J=YES, F=NO","jw40s9dhgp","0","70","65","75","","","","","","lextale","true","false","","","","","","","",""
"1764","
  <p style=""font-size: 40px;"">mush</p>
  <p style=""font-size: 16px;"">J = YES &nbsp;&nbsp;&nbsp; F = NO</p>
","j","html-keyboard-response","31","2.1.0","117867","J=YES, F=NO","jw40s9dhgp","0","70","65","75","","","","","","lextale","false","false","","","","","","","",""
"2113","
  <p style=""font-size: 40px;"">drench</p>
  <p style=""font-size: 16px;"">J = YES &nbsp;&nbsp;&nbsp; F = NO</p>
","j","html-keyboard-response","32","2.1.0","119981","J=YES, F=NO","jw40s9dhgp","0","70","65","75","","","","","","lextale","true","false","","","","","","","",""
"3104","
  <p style=""font-size: 40px;"">snirt</p>
  <p style=""font-size: 16px;"">J = YES &nbsp;&nbsp;&nbsp; F = NO</p>
","j","html-keyboard-response","33","2.1.0","123086","J=YES, F=NO","jw40s9dhgp","0","70","65","75","","","","","","lextale","false","false","","","","","","","",""
"801","
  <p style=""font-size: 40px;"">bitter</p>
  <p style=""font-size: 16px;"">J = YES &nbsp;&nbsp;&nbsp; F = NO</p>
","j","html-keyboard-response","34","2.1.0","123888","J=YES, F=NO","jw40s9dhgp","0","70","65","75","","","","","","lextale","true","false","","","","","","","",""
"2255","
  <p style=""font-size: 40px;"">pliff</p>
  <p style=""font-size: 16px;"">J = YES &nbsp;&nbsp;&nbsp; F = NO</p>
","f","html-keyboard-response","35","2.1.0","126144","J=YES, F=NO","jw40s9dhgp","0","70","65","75","","","","","","lextale","false","false","","","","","","","",""
"3855","
  <p style=""font-size: 40px;"">tablet</p>
  <p style=""font-size: 16px;"">J = YES &nbsp;&nbsp;&nbsp; F = NO</p>
","j","html-keyboard-response","36","2.1.0","130000","J=YES, F=NO","jw40s9dhgp","0","70","65","75","","","","","","lextale","true","false","","","","","","","",""
"1716","
  <p style=""font-size: 40px;"">glimmer</p>
  <p style=""font-size: 16px;"">J = YES &nbsp;&nbsp;&nbsp; F = NO</p>
","j","html-keyboard-response","37","2.1.0","131717","J=YES, F=NO","jw40s9dhgp","0","70","65","75","","","","","","lextale","true","false","","","","","","","",""
"4009","
  <p style=""font-size: 40px;"">slink</p>
  <p style=""font-size: 16px;"">J = YES &nbsp;&nbsp;&nbsp; F = NO</p>
","f","html-keyboard-response","38","2.1.0","135727","J=YES, F=NO","jw40s9dhgp","0","70","65","75","","","","","","lextale","true","false","","","","","","","",""
"1012","
  <p style=""font-size: 40px;"">clever</p>
  <p style=""font-size: 16px;"">J = YES &nbsp;&nbsp;&nbsp; F = NO</p>
","j","html-keyboard-response","39","2.1.0","136740","J=YES, F=NO","jw40s9dhgp","0","70","65","75","","","","","","lextale","true","false","","","","","","","",""
"1180","
  <p style=""font-size: 40px;"">grum</p>
  <p style=""font-size: 16px;"">J = YES &nbsp;&nbsp;&nbsp; F = NO</p>
","f","html-keyboard-response","40","2.1.0","137920","J=YES, F=NO","jw40s9dhgp","0","70","65","75","","","","","","lextale","false","false","","","","","","","",""
"1204","
  <p style=""font-size: 40px;"">string</p>
  <p style=""font-size: 16px;"">J = YES &nbsp;&nbsp;&nbsp; F = NO</p>
","j","html-keyboard-response","41","2.1.0","139126","J=YES, F=NO","jw40s9dhgp","0","70","65","75","","","","","","lextale","true","false","","","","","","","",""
"1110","
  <p style=""font-size: 40px;"">plim</p>
  <p style=""font-size: 16px;"">J = YES &nbsp;&nbsp;&nbsp; F = NO</p>
","f","html-keyboard-response","42","2.1.0","140237","J=YES, F=NO","jw40s9dhgp","0","70","65","75","","","","","","lextale","false","false","","","","","","","",""
"809","
  <p style=""font-size: 40px;"">cable</p>
  <p style=""font-size: 16px;"">J = YES &nbsp;&nbsp;&nbsp; F = NO</p>
","j","html-keyboard-response","43","2.1.0","141047","J=YES, F=NO","jw40s9dhgp","0","70","65","75","","","","","","lextale","true","false","","","","","","","",""
"1855","
  <p style=""font-size: 40px;"">shrivel</p>
  <p style=""font-size: 16px;"">J = YES &nbsp;&nbsp;&nbsp; F = NO</p>
","f","html-keyboard-response","44","2.1.0","142903","J=YES, F=NO","jw40s9dhgp","0","70","65","75","","","","","","lextale","true","false","","","","","","","",""
"877","
  <p style=""font-size: 40px;"">tarnish</p>
  <p style=""font-size: 16px;"">J = YES &nbsp;&nbsp;&nbsp; F = NO</p>
","f","html-keyboard-response","45","2.1.0","143781","J=YES, F=NO","jw40s9dhgp","0","70","65","75","","","","","","lextale","true","false","","","","","","","",""
"886","
  <p style=""font-size: 40px;"">blim</p>
  <p style=""font-size: 16px;"">J = YES &nbsp;&nbsp;&nbsp; F = NO</p>
","f","html-keyboard-response","46","2.1.0","144668","J=YES, F=NO","jw40s9dhgp","0","70","65","75","","","","","","lextale","false","false","","","","","","","",""
"1878","
  <p style=""font-size: 40px;"">stifle</p>
  <p style=""font-size: 16px;"">J = YES &nbsp;&nbsp;&nbsp; F = NO</p>
","f","html-keyboard-response","47","2.1.0","146547","J=YES, F=NO","jw40s9dhgp","0","70","65","75","","","","","","lextale","true","false","","","","","","","",""
"1036","
  <p style=""font-size: 40px;"">bint</p>
  <p style=""font-size: 16px;"">J = YES &nbsp;&nbsp;&nbsp; F = NO</p>
","f","html-keyboard-response","48","2.1.0","147583","J=YES, F=NO","jw40s9dhgp","0","70","65","75","","","","","","lextale","false","false","","","","","","","",""
"906","
  <p style=""font-size: 40px;"">purple</p>
  <p style=""font-size: 16px;"">J = YES &nbsp;&nbsp;&nbsp; F = NO</p>
","j","html-keyboard-response","49","2.1.0","148489","J=YES, F=NO","jw40s9dhgp","0","70","65","75","","","","","","lextale","true","false","","","","","","","",""
"1698","
  <p style=""font-size: 40px;"">wriggle</p>
  <p style=""font-size: 16px;"">J = YES &nbsp;&nbsp;&nbsp; F = NO</p>
","f","html-keyboard-response","50","2.1.0","150188","J=YES, F=NO","jw40s9dhgp","0","70","65","75","","","","","","lextale","true","false","","","","","","","",""
"1217","
  <p style=""font-size: 40px;"">mangle</p>
  <p style=""font-size: 16px;"">J = YES &nbsp;&nbsp;&nbsp; F = NO</p>
","j","html-keyboard-response","51","2.1.0","151405","J=YES, F=NO","jw40s9dhgp","0","70","65","75","","","","","","lextale","true","false","","","","","","","",""
"511","
  <p style=""font-size: 40px;"">shramp</p>
  <p style=""font-size: 16px;"">J = YES &nbsp;&nbsp;&nbsp; F = NO</p>
","j","html-keyboard-response","52","2.1.0","151917","J=YES, F=NO","jw40s9dhgp","0","70","65","75","","","","","","lextale","false","false","","","","","","","",""
"657","
  <p style=""font-size: 40px;"">flirt</p>
  <p style=""font-size: 16px;"">J = YES &nbsp;&nbsp;&nbsp; F = NO</p>
","j","html-keyboard-response","53","2.1.0","152574","J=YES, F=NO","jw40s9dhgp","0","70","65","75","","","","","","lextale","true","false","","","","","","","",""
"975","
  <p style=""font-size: 40px;"">frip</p>
  <p style=""font-size: 16px;"">J = YES &nbsp;&nbsp;&nbsp; F = NO</p>
","f","html-keyboard-response","54","2.1.0","153550","J=YES, F=NO","jw40s9dhgp","0","70","65","75","","","","","","lextale","false","false","","","","","","","",""
"892","
  <p style=""font-size: 40px;"">tangle</p>
  <p style=""font-size: 16px;"">J = YES &nbsp;&nbsp;&nbsp; F = NO</p>
","j","html-keyboard-response","55","2.1.0","154442","J=YES, F=NO","jw40s9dhgp","0","70","65","75","","","","","","lextale","true","false","","","","","","","",""
"882","
  <p style=""font-size: 40px;"">crumble</p>
  <p style=""font-size: 16px;"">J = YES &nbsp;&nbsp;&nbsp; F = NO</p>
","j","html-keyboard-response","56","2.1.0","155324","J=YES, F=NO","jw40s9dhgp","0","70","65","75","","","","","","lextale","true","false","","","","","","","",""
"597","
  <p style=""font-size: 40px;"">wrinkle</p>
  <p style=""font-size: 16px;"">J = YES &nbsp;&nbsp;&nbsp; F = NO</p>
","j","html-keyboard-response","57","2.1.0","155922","J=YES, F=NO","jw40s9dhgp","0","70","65","75","","","","","","lextale","true","false","","","","","","","",""
"1754","
  <p style=""font-size: 40px;"">slumb</p>
  <p style=""font-size: 16px;"">J = YES &nbsp;&nbsp;&nbsp; F = NO</p>
","j","html-keyboard-response","58","2.1.0","157677","J=YES, F=NO","jw40s9dhgp","0","70","65","75","","","","","","lextale","false","false","","","","","","","",""
"605","
  <p style=""font-size: 40px;"">jungle</p>
  <p style=""font-size: 16px;"">J = YES &nbsp;&nbsp;&nbsp; F = NO</p>
","j","html-keyboard-response","59","2.1.0","158283","J=YES, F=NO","jw40s9dhgp","0","70","65","75","","","","","","lextale","true","false","","","","","","","",""
"1347","
  <p style=""font-size: 40px;"">frolick</p>
  <p style=""font-size: 16px;"">J = YES &nbsp;&nbsp;&nbsp; F = NO</p>
","f","html-keyboard-response","60","2.1.0","159631","J=YES, F=NO","jw40s9dhgp","0","70","65","75","","","","","","lextale","false","false","","","","","","","",""
"12638","
      <h2>LexTALE Test Completed</h2>
      <p>Your LexTALE vocabulary score is: <strong>70%</strong></p>
      <p>Press any key to continue.</p>
    "," ","html-keyboard-response","61","2.1.0","172271","J=YES, F=NO","jw40s9dhgp","0","70","65","75","","","","","","","","","","","","","","","",""
"26029","
    <div style=""max-width: 800px; margin: auto; text-align: left;"">
      <h2>Break Time</h2>
      <p>You have completed the first part of the study.</p>
      <p>You may take a short <strong>30-second break</strong> before continuing.</p>
      <p>When you’re ready, press any key to continue to the final task.</p>
    </div>
  "," ","html-keyboard-response","62","2.1.0","198300","J=YES, F=NO","jw40s9dhgp","0","70","65","75","","","","","","","","","","","","","","","",""
"25510","
    <div style=""max-width: 800px; margin: auto; text-align: left;"">
      <h2>Part 2: Lexical Decision Task</h2>
      <p>You will now begin the second part of the study.</p>
      <p>Each trial will follow this sequence:</p>
      <ul>
        <li>A fixation cross (+) appears at the center of the screen.</li>
        <li>You will hear a short beep followed by a spoken word.</li>
        <li>A written word will appear briefly on the screen.</li>
      </ul>
      <p>Your task is to judge whether the <strong>written word</strong> is a real English word.</p>
      <p style=""margin-top: 1em;""><strong>Key responses:</strong></p>
      <ul>
        <li><strong>J</strong> = YES (real English word)</li>
        <li><strong>F</strong> = NO (not a real English word)</li>
      </ul>
      <p>Please respond as quickly and accurately as you can.</p>
      <p style=""margin-top: 2em;"">Press any key to continue.</p>
    </div>
  "," ","html-keyboard-response","63","2.1.0","223810","J=YES, F=NO","jw40s9dhgp","0","70","65","75","","","","","","","","","","","","","","","",""
"4412","
    <div style=""max-width: 800px; margin: auto; text-align: left;"">
      <h2>Before You Begin</h2>
      <p>Make sure your sound is turned on.</p>
      <p>You will hear audio during each trial, but your decision should be based only on the <strong>written word</strong> you see on the screen.</p>
      <p><strong>Reminder:</strong></p>
      <ul>
        <li><strong>J</strong> = YES (real English word)</li>
        <li><strong>F</strong> = NO (not a real English word)</li>
      </ul>
      <p style=""margin-top: 2em;"">Press any key when you are ready to begin.</p>
    </div>
  ","AudioVolumeUp","html-keyboard-response","64","2.1.0","228224","J=YES, F=NO","jw40s9dhgp","0","70","65","75","","","","","","","","","","","","","","","",""
"207","
    <div style=""max-width: 800px; margin: auto; text-align: left;"">
      <h2>Part 2: Practice Trials</h2>
      <p>You will now complete a few <strong>practice trials</strong> to get familiar with the task.</p>
      <p>These trials are <strong>not scored</strong> and are only to help you get used to the format.</p>
      <p style=""margin-top: 2em;"">Press any key to begin.</p>
    </div>
  ","AudioVolumeUp","html-keyboard-response","65","2.1.0","228431","J=YES, F=NO","jw40s9dhgp","0","70","65","75","","","","","","","","","","","","","","","",""
"710","<p>Starting practice block 1 of 2. Press any key to continue.</p>","AudioVolumeUp","html-keyboard-response","66","2.1.0","229142","J=YES, F=NO","jw40s9dhgp","0","70","65","75","","","","","","","","","","","","","","","",""
"null","<p style=""font-size: 50px;"">+</p>","null","html-keyboard-response","67","2.1.0","229460","J=YES, F=NO","jw40s9dhgp","0","70","65","75","","","","","","","","","","","","","","","",""
"null","audio/beep-329314.mp3","null","audio-keyboard-response","68","2.1.0","231132","J=YES, F=NO","jw40s9dhgp","0","70","65","75","","","","","","","","","","","","","","","",""
"null","audio/account1.wav","null","audio-keyboard-response","69","2.1.0","231891","J=YES, F=NO","jw40s9dhgp","0","70","65","75","","","","","","","","","","","","","","","",""
"1473","
          <p id=""word"" style=""font-size: 40px;"">paint</p>
          <p style=""font-size: 16px;"">J = YES &nbsp;&nbsp;&nbsp; F = NO</p>
        ","j","html-keyboard-response","70","2.1.0","233365","J=YES, F=NO","jw40s9dhgp","0","70","65","75","","","","","","","","","paint","account1","filler","filler","j","true","",""
"null","<p style=""font-size: 50px;"">+</p>","null","html-keyboard-response","71","2.1.0","233680","J=YES, F=NO","jw40s9dhgp","0","70","65","75","","","","","","","","","","","","","","","",""
"null","audio/beep-329314.mp3","null","audio-keyboard-response","72","2.1.0","235210","J=YES, F=NO","jw40s9dhgp","0","70","65","75","","","","","","","","","","","","","","","",""
"null","audio/road.wav","null","audio-keyboard-response","73","2.1.0","235632","J=YES, F=NO","jw40s9dhgp","0","70","65","75","","","","","","","","","","","","","","","",""
"877","
          <p id=""word"" style=""font-size: 40px;"">wappings</p>
          <p style=""font-size: 16px;"">J = YES &nbsp;&nbsp;&nbsp; F = NO</p>
        ","f","html-keyboard-response","74","2.1.0","236510","J=YES, F=NO","jw40s9dhgp","0","70","65","75","","","","","","","","","wappings","road","pseudoword","pseudoword","f","true","",""
"null","<p style=""font-size: 50px;"">+</p>","null","html-keyboard-response","75","2.1.0","236826","J=YES, F=NO","jw40s9dhgp","0","70","65","75","","","","","","","","","","","","","","","",""
"null","audio/beep-329314.mp3","null","audio-keyboard-response","76","2.1.0","238351","J=YES, F=NO","jw40s9dhgp","0","70","65","75","","","","","","","","","","","","","","","",""
"null","audio/sugar1.wav","null","audio-keyboard-response","77","2.1.0","238892","J=YES, F=NO","jw40s9dhgp","0","70","65","75","","","","","","","","","","","","","","","",""
"593","
          <p id=""word"" style=""font-size: 40px;"">glung</p>
          <p style=""font-size: 16px;"">J = YES &nbsp;&nbsp;&nbsp; F = NO</p>
        ","f","html-keyboard-response","78","2.1.0","239486","J=YES, F=NO","jw40s9dhgp","0","70","65","75","","","","","","","","","glung","sugar1","pseudoword","pseudoword","f","true","",""
"null","<p style=""font-size: 50px;"">+</p>","null","html-keyboard-response","79","2.1.0","239803","J=YES, F=NO","jw40s9dhgp","0","70","65","75","","","","","","","","","","","","","","","",""
"null","audio/beep-329314.mp3","null","audio-keyboard-response","80","2.1.0","241332","J=YES, F=NO","jw40s9dhgp","0","70","65","75","","","","","","","","","","","","","","","",""
"null","audio/baby.wav","null","audio-keyboard-response","81","2.1.0","241811","J=YES, F=NO","jw40s9dhgp","0","70","65","75","","","","","","","","","","","","","","","",""
"622","
          <p id=""word"" style=""font-size: 40px;"">lift</p>
          <p style=""font-size: 16px;"">J = YES &nbsp;&nbsp;&nbsp; F = NO</p>
        ","j","html-keyboard-response","82","2.1.0","242434","J=YES, F=NO","jw40s9dhgp","0","70","65","75","","","","","","","","","lift","baby","filler","filler","j","true","",""
"null","<p style=""font-size: 50px;"">+</p>","null","html-keyboard-response","83","2.1.0","242745","J=YES, F=NO","jw40s9dhgp","0","70","65","75","","","","","","","","","","","","","","","",""
"null","audio/beep-329314.mp3","null","audio-keyboard-response","84","2.1.0","244272","J=YES, F=NO","jw40s9dhgp","0","70","65","75","","","","","","","","","","","","","","","",""
"null","audio/kettle1.wav","null","audio-keyboard-response","85","2.1.0","244752","J=YES, F=NO","jw40s9dhgp","0","70","65","75","","","","","","","","","","","","","","","",""
"552","
          <p id=""word"" style=""font-size: 40px;"">wrap</p>
          <p style=""font-size: 16px;"">J = YES &nbsp;&nbsp;&nbsp; F = NO</p>
        ","j","html-keyboard-response","86","2.1.0","245305","J=YES, F=NO","jw40s9dhgp","0","70","65","75","","","","","","","","","wrap","kettle1","filler","filler","j","true","",""
"null","<p style=""font-size: 50px;"">+</p>","null","html-keyboard-response","87","2.1.0","245613","J=YES, F=NO","jw40s9dhgp","0","70","65","75","","","","","","","","","","","","","","","",""
"null","audio/beep-329314.mp3","null","audio-keyboard-response","88","2.1.0","247152","J=YES, F=NO","jw40s9dhgp","0","70","65","75","","","","","","","","","","","","","","","",""
"null","audio/brain.wav","null","audio-keyboard-response","89","2.1.0","247691","J=YES, F=NO","jw40s9dhgp","0","70","65","75","","","","","","","","","","","","","","","",""
"540","
          <p id=""word"" style=""font-size: 40px;"">throw</p>
          <p style=""font-size: 16px;"">J = YES &nbsp;&nbsp;&nbsp; F = NO</p>
        ","j","html-keyboard-response","90","2.1.0","248232","J=YES, F=NO","jw40s9dhgp","0","70","65","75","","","","","","","","","throw","brain","filler","filler","j","true","",""
"null","<p style=""font-size: 50px;"">+</p>","null","html-keyboard-response","91","2.1.0","248546","J=YES, F=NO","jw40s9dhgp","0","70","65","75","","","","","","","","","","","","","","","",""
"null","audio/beep-329314.mp3","null","audio-keyboard-response","92","2.1.0","250072","J=YES, F=NO","jw40s9dhgp","0","70","65","75","","","","","","","","","","","","","","","",""
"null","audio/handle.wav","null","audio-keyboard-response","93","2.1.0","250851","J=YES, F=NO","jw40s9dhgp","0","70","65","75","","","","","","","","","","","","","","","",""
"635","
          <p id=""word"" style=""font-size: 40px;"">moutes</p>
          <p style=""font-size: 16px;"">J = YES &nbsp;&nbsp;&nbsp; F = NO</p>
        ","f","html-keyboard-response","94","2.1.0","251488","J=YES, F=NO","jw40s9dhgp","0","70","65","75","","","","","","","","","moutes","handle","pseudoword","pseudoword","f","true","",""
"null","<p style=""font-size: 50px;"">+</p>","null","html-keyboard-response","95","2.1.0","251805","J=YES, F=NO","jw40s9dhgp","0","70","65","75","","","","","","","","","","","","","","","",""
"null","audio/beep-329314.mp3","null","audio-keyboard-response","96","2.1.0","253332","J=YES, F=NO","jw40s9dhgp","0","70","65","75","","","","","","","","","","","","","","","",""
"null","audio/roof1.wav","null","audio-keyboard-response","97","2.1.0","253912","J=YES, F=NO","jw40s9dhgp","0","70","65","75","","","","","","","","","","","","","","","",""
"582","
          <p id=""word"" style=""font-size: 40px;"">wronb</p>
          <p style=""font-size: 16px;"">J = YES &nbsp;&nbsp;&nbsp; F = NO</p>
        ","f","html-keyboard-response","98","2.1.0","254495","J=YES, F=NO","jw40s9dhgp","0","70","65","75","","","","","","","","","wronb","roof1","pseudoword","pseudoword","f","true","",""
"null","<p style=""font-size: 50px;"">+</p>","null","html-keyboard-response","99","2.1.0","254799","J=YES, F=NO","jw40s9dhgp","0","70","65","75","","","","","","","","","","","","","","","",""
"null","audio/beep-329314.mp3","null","audio-keyboard-response","100","2.1.0","256331","J=YES, F=NO","jw40s9dhgp","0","70","65","75","","","","","","","","","","","","","","","",""
"null","audio/plot1.wav","null","audio-keyboard-response","101","2.1.0","256891","J=YES, F=NO","jw40s9dhgp","0","70","65","75","","","","","","","","","","","","","","","",""
"651","
          <p id=""word"" style=""font-size: 40px;"">glenter</p>
          <p style=""font-size: 16px;"">J = YES &nbsp;&nbsp;&nbsp; F = NO</p>
        ","f","html-keyboard-response","102","2.1.0","257544","J=YES, F=NO","jw40s9dhgp","0","70","65","75","","","","","","","","","glenter","plot1","pseudoword","pseudoword","f","true","",""
"null","<p style=""font-size: 50px;"">+</p>","null","html-keyboard-response","103","2.1.0","257852","J=YES, F=NO","jw40s9dhgp","0","70","65","75","","","","","","","","","","","","","","","",""
"null","audio/beep-329314.mp3","null","audio-keyboard-response","104","2.1.0","259391","J=YES, F=NO","jw40s9dhgp","0","70","65","75","","","","","","","","","","","","","","","",""
"null","audio/ankle1.wav","null","audio-keyboard-response","105","2.1.0","259953","J=YES, F=NO","jw40s9dhgp","0","70","65","75","","","","","","","","","","","","","","","",""
"512","
          <p id=""word"" style=""font-size: 40px;"">kick</p>
          <p style=""font-size: 16px;"">J = YES &nbsp;&nbsp;&nbsp; F = NO</p>
        ","j","html-keyboard-response","106","2.1.0","260466","J=YES, F=NO","jw40s9dhgp","0","70","65","75","","","","","","","","","kick","ankle1","filler","filler","j","true","",""
"null","<p style=""font-size: 50px;"">+</p>","null","html-keyboard-response","107","2.1.0","260782","J=YES, F=NO","jw40s9dhgp","0","70","65","75","","","","","","","","","","","","","","","",""
"null","audio/beep-329314.mp3","null","audio-keyboard-response","108","2.1.0","262310","J=YES, F=NO","jw40s9dhgp","0","70","65","75","","","","","","","","","","","","","","","",""
"null","audio/tomato.wav","null","audio-keyboard-response","109","2.1.0","263251","J=YES, F=NO","jw40s9dhgp","0","70","65","75","","","","","","","","","","","","","","","",""
"652","
          <p id=""word"" style=""font-size: 40px;"">gladies</p>
          <p style=""font-size: 16px;"">J = YES &nbsp;&nbsp;&nbsp; F = NO</p>
        ","f","html-keyboard-response","110","2.1.0","263904","J=YES, F=NO","jw40s9dhgp","0","70","65","75","","","","","","","","","gladies","tomato","pseudoword","pseudoword","f","true","",""
"null","<p style=""font-size: 50px;"">+</p>","null","html-keyboard-response","111","2.1.0","264207","J=YES, F=NO","jw40s9dhgp","0","70","65","75","","","","","","","","","","","","","","","",""
"null","audio/beep-329314.mp3","null","audio-keyboard-response","112","2.1.0","265730","J=YES, F=NO","jw40s9dhgp","0","70","65","75","","","","","","","","","","","","","","","",""
"null","audio/terrain.wav","null","audio-keyboard-response","113","2.1.0","266371","J=YES, F=NO","jw40s9dhgp","0","70","65","75","","","","","","","","","","","","","","","",""
"676","
          <p id=""word"" style=""font-size: 40px;"">twist</p>
          <p style=""font-size: 16px;"">J = YES &nbsp;&nbsp;&nbsp; F = NO</p>
        ","j","html-keyboard-response","114","2.1.0","267048","J=YES, F=NO","jw40s9dhgp","0","70","65","75","","","","","","","","","twist","terrain","filler","filler","j","true","",""
"12942","<p>Starting practice block 2 of 2. Press any key to continue.</p>"," ","html-keyboard-response","115","2.1.0","279991","J=YES, F=NO","jw40s9dhgp","0","70","65","75","","","","","","","","","","","","","","","",""
"null","<p style=""font-size: 50px;"">+</p>","null","html-keyboard-response","116","2.1.0","280306","J=YES, F=NO","jw40s9dhgp","0","70","65","75","","","","","","","","","","","","","","","",""
"null","audio/beep-329314.mp3","null","audio-keyboard-response","117","2.1.0","281819","J=YES, F=NO","jw40s9dhgp","0","70","65","75","","","","","","","","","","","","","","","",""
"null","audio/radio1.wav","null","audio-keyboard-response","118","2.1.0","282478","J=YES, F=NO","jw40s9dhgp","0","70","65","75","","","","","","","","","","","","","","","",""
"605","
          <p id=""word"" style=""font-size: 40px;"">blanter</p>
          <p style=""font-size: 16px;"">J = YES &nbsp;&nbsp;&nbsp; F = NO</p>
        ","j","html-keyboard-response","119","2.1.0","283084","J=YES, F=NO","jw40s9dhgp","0","70","65","75","","","","","","","","","blanter","radio1","pseudoword","pseudoword","f","false","",""
"null","<p style=""font-size: 50px;"">+</p>","null","html-keyboard-response","120","2.1.0","283393","J=YES, F=NO","jw40s9dhgp","0","70","65","75","","","","","","","","","","","","","","","",""
"null","audio/beep-329314.mp3","null","audio-keyboard-response","121","2.1.0","284919","J=YES, F=NO","jw40s9dhgp","0","70","65","75","","","","","","","","","","","","","","","",""
"null","audio/cash1.wav","null","audio-keyboard-response","122","2.1.0","285539","J=YES, F=NO","jw40s9dhgp","0","70","65","75","","","","","","","","","","","","","","","",""
"731","
          <p id=""word"" style=""font-size: 40px;"">splear</p>
          <p style=""font-size: 16px;"">J = YES &nbsp;&nbsp;&nbsp; F = NO</p>
        ","f","html-keyboard-response","123","2.1.0","286271","J=YES, F=NO","jw40s9dhgp","0","70","65","75","","","","","","","","","splear","cash1","pseudoword","pseudoword","f","true","",""
"null","<p style=""font-size: 50px;"">+</p>","null","html-keyboard-response","124","2.1.0","286576","J=YES, F=NO","jw40s9dhgp","0","70","65","75","","","","","","","","","","","","","","","",""
"null","audio/beep-329314.mp3","null","audio-keyboard-response","125","2.1.0","288119","J=YES, F=NO","jw40s9dhgp","0","70","65","75","","","","","","","","","","","","","","","",""
"null","audio/camera1.wav","null","audio-keyboard-response","126","2.1.0","288677","J=YES, F=NO","jw40s9dhgp","0","70","65","75","","","","","","","","","","","","","","","",""
"586","
          <p id=""word"" style=""font-size: 40px;"">stir</p>
          <p style=""font-size: 16px;"">J = YES &nbsp;&nbsp;&nbsp; F = NO</p>
        ","j","html-keyboard-response","127","2.1.0","289264","J=YES, F=NO","jw40s9dhgp","0","70","65","75","","","","","","","","","stir","camera1","filler","filler","j","true","",""
"null","<p style=""font-size: 50px;"">+</p>","null","html-keyboard-response","128","2.1.0","289582","J=YES, F=NO","jw40s9dhgp","0","70","65","75","","","","","","","","","","","","","","","",""
"null","audio/beep-329314.mp3","null","audio-keyboard-response","129","2.1.0","291119","J=YES, F=NO","jw40s9dhgp","0","70","65","75","","","","","","","","","","","","","","","",""
"null","audio/gossip1.wav","null","audio-keyboard-response","130","2.1.0","291779","J=YES, F=NO","jw40s9dhgp","0","70","65","75","","","","","","","","","","","","","","","",""
"584","
          <p id=""word"" style=""font-size: 40px;"">camerish</p>
          <p style=""font-size: 16px;"">J = YES &nbsp;&nbsp;&nbsp; F = NO</p>
        ","f","html-keyboard-response","131","2.1.0","292365","J=YES, F=NO","jw40s9dhgp","0","70","65","75","","","","","","","","","camerish","gossip1","pseudoword","pseudoword","f","true","",""
"null","<p style=""font-size: 50px;"">+</p>","null","html-keyboard-response","132","2.1.0","292669","J=YES, F=NO","jw40s9dhgp","0","70","65","75","","","","","","","","","","","","","","","",""
"null","audio/beep-329314.mp3","null","audio-keyboard-response","133","2.1.0","294200","J=YES, F=NO","jw40s9dhgp","0","70","65","75","","","","","","","","","","","","","","","",""
"null","audio/pig.wav","null","audio-keyboard-response","134","2.1.0","294580","J=YES, F=NO","jw40s9dhgp","0","70","65","75","","","","","","","","","","","","","","","",""
"638","
          <p id=""word"" style=""font-size: 40px;"">tirlike</p>
          <p style=""font-size: 16px;"">J = YES &nbsp;&nbsp;&nbsp; F = NO</p>
        ","f","html-keyboard-response","135","2.1.0","295218","J=YES, F=NO","jw40s9dhgp","0","70","65","75","","","","","","","","","tirlike","pig","pseudoword","pseudoword","f","true","",""
"null","<p style=""font-size: 50px;"">+</p>","null","html-keyboard-response","136","2.1.0","295520","J=YES, F=NO","jw40s9dhgp","0","70","65","75","","","","","","","","","","","","","","","",""
"null","audio/beep-329314.mp3","null","audio-keyboard-response","137","2.1.0","297060","J=YES, F=NO","jw40s9dhgp","0","70","65","75","","","","","","","","","","","","","","","",""
"null","audio/golf1.wav","null","audio-keyboard-response","138","2.1.0","297679","J=YES, F=NO","jw40s9dhgp","0","70","65","75","","","","","","","","","","","","","","","",""
"849","
          <p id=""word"" style=""font-size: 40px;"">drabble</p>
          <p style=""font-size: 16px;"">J = YES &nbsp;&nbsp;&nbsp; F = NO</p>
        ","f","html-keyboard-response","139","2.1.0","298529","J=YES, F=NO","jw40s9dhgp","0","70","65","75","","","","","","","","","drabble","golf1","pseudoword","pseudoword","f","true","",""
"null","<p style=""font-size: 50px;"">+</p>","null","html-keyboard-response","140","2.1.0","298840","J=YES, F=NO","jw40s9dhgp","0","70","65","75","","","","","","","","","","","","","","","",""
"null","audio/beep-329314.mp3","null","audio-keyboard-response","141","2.1.0","300377","J=YES, F=NO","jw40s9dhgp","0","70","65","75","","","","","","","","","","","","","","","",""
"null","audio/butter1.wav","null","audio-keyboard-response","142","2.1.0","300857","J=YES, F=NO","jw40s9dhgp","0","70","65","75","","","","","","","","","","","","","","","",""
"754","
          <p id=""word"" style=""font-size: 40px;"">chew</p>
          <p style=""font-size: 16px;"">J = YES &nbsp;&nbsp;&nbsp; F = NO</p>
        ","j","html-keyboard-response","143","2.1.0","301612","J=YES, F=NO","jw40s9dhgp","0","70","65","75","","","","","","","","","chew","butter1","filler","filler","j","true","",""
"null","<p style=""font-size: 50px;"">+</p>","null","html-keyboard-response","144","2.1.0","301928","J=YES, F=NO","jw40s9dhgp","0","70","65","75","","","","","","","","","","","","","","","",""
"null","audio/beep-329314.mp3","null","audio-keyboard-response","145","2.1.0","303459","J=YES, F=NO","jw40s9dhgp","0","70","65","75","","","","","","","","","","","","","","","",""
"null","audio/bishop1.wav","null","audio-keyboard-response","146","2.1.0","304099","J=YES, F=NO","jw40s9dhgp","0","70","65","75","","","","","","","","","","","","","","","",""
"510","
          <p id=""word"" style=""font-size: 40px;"">play</p>
          <p style=""font-size: 16px;"">J = YES &nbsp;&nbsp;&nbsp; F = NO</p>
        ","j","html-keyboard-response","147","2.1.0","304610","J=YES, F=NO","jw40s9dhgp","0","70","65","75","","","","","","","","","play","bishop1","filler","filler","j","true","",""
"null","<p style=""font-size: 50px;"">+</p>","null","html-keyboard-response","148","2.1.0","304929","J=YES, F=NO","jw40s9dhgp","0","70","65","75","","","","","","","","","","","","","","","",""
"null","audio/beep-329314.mp3","null","audio-keyboard-response","149","2.1.0","306458","J=YES, F=NO","jw40s9dhgp","0","70","65","75","","","","","","","","","","","","","","","",""
"null","audio/cancer1.wav","null","audio-keyboard-response","150","2.1.0","307197","J=YES, F=NO","jw40s9dhgp","0","70","65","75","","","","","","","","","","","","","","","",""
"454","
          <p id=""word"" style=""font-size: 40px;"">draw</p>
          <p style=""font-size: 16px;"">J = YES &nbsp;&nbsp;&nbsp; F = NO</p>
        ","j","html-keyboard-response","151","2.1.0","307652","J=YES, F=NO","jw40s9dhgp","0","70","65","75","","","","","","","","","draw","cancer1","filler","filler","j","true","",""
"null","<p style=""font-size: 50px;"">+</p>","null","html-keyboard-response","152","2.1.0","307962","J=YES, F=NO","jw40s9dhgp","0","70","65","75","","","","","","","","","","","","","","","",""
"null","audio/beep-329314.mp3","null","audio-keyboard-response","153","2.1.0","309499","J=YES, F=NO","jw40s9dhgp","0","70","65","75","","","","","","","","","","","","","","","",""
"null","audio/novel.wav","null","audio-keyboard-response","154","2.1.0","309998","J=YES, F=NO","jw40s9dhgp","0","70","65","75","","","","","","","","","","","","","","","",""
"528","
          <p id=""word"" style=""font-size: 40px;"">type</p>
          <p style=""font-size: 16px;"">J = YES &nbsp;&nbsp;&nbsp; F = NO</p>
        ","j","html-keyboard-response","155","2.1.0","310527","J=YES, F=NO","jw40s9dhgp","0","70","65","75","","","","","","","","","type","novel","filler","filler","j","true","",""
"null","<p style=""font-size: 50px;"">+</p>","null","html-keyboard-response","156","2.1.0","310830","J=YES, F=NO","jw40s9dhgp","0","70","65","75","","","","","","","","","","","","","","","",""
"null","audio/beep-329314.mp3","null","audio-keyboard-response","157","2.1.0","312357","J=YES, F=NO","jw40s9dhgp","0","70","65","75","","","","","","","","","","","","","","","",""
"null","audio/birth1.wav","null","audio-keyboard-response","158","2.1.0","312937","J=YES, F=NO","jw40s9dhgp","0","70","65","75","","","","","","","","","","","","","","","",""
"680","
          <p id=""word"" style=""font-size: 40px;"">peel</p>
          <p style=""font-size: 16px;"">J = YES &nbsp;&nbsp;&nbsp; F = NO</p>
        ","j","html-keyboard-response","159","2.1.0","313618","J=YES, F=NO","jw40s9dhgp","0","70","65","75","","","","","","","","","peel","birth1","filler","filler","j","true","",""
"null","<p style=""font-size: 50px;"">+</p>","null","html-keyboard-response","160","2.1.0","313931","J=YES, F=NO","jw40s9dhgp","0","70","65","75","","","","","","","","","","","","","","","",""
"null","audio/beep-329314.mp3","null","audio-keyboard-response","161","2.1.0","315458","J=YES, F=NO","jw40s9dhgp","0","70","65","75","","","","","","","","","","","","","","","",""
"null","audio/cave1.wav","null","audio-keyboard-response","162","2.1.0","316239","J=YES, F=NO","jw40s9dhgp","0","70","65","75","","","","","","","","","","","","","","","",""
"499","
          <p id=""word"" style=""font-size: 40px;"">blacket</p>
          <p style=""font-size: 16px;"">J = YES &nbsp;&nbsp;&nbsp; F = NO</p>
        ","j","html-keyboard-response","163","2.1.0","316739","J=YES, F=NO","jw40s9dhgp","0","70","65","75","","","","","","","","","blacket","cave1","pseudoword","pseudoword","f","false","",""
"21830","
    <div style=""max-width: 800px; margin: auto; text-align: left;"">
      <h2>Part 2: Main Trials</h2>
      <p>Great job on the practice trials!</p>
      <p>You will now begin the <strong>main set of trials</strong>.</p>
      <p>Remember your key assignments:</p>
      <ul>
        <li><strong>J</strong> = YES (real English word)</li>
        <li><strong>F</strong> = NO (not a real English word)</li>
      </ul>
      <p>Try to respond as <strong>quickly and accurately</strong> as possible.</p>
      <p style=""margin-top: 2em;"">Press any key to begin the main trials.</p>
    </div>
  "," ","html-keyboard-response","164","2.1.0","338570","J=YES, F=NO","jw40s9dhgp","0","70","65","75","","","","","","","","","","","","","","","",""
"2612","<p>Starting main block 1 of 8. Press any key to continue.</p>"," ","html-keyboard-response","165","2.1.0","341183","J=YES, F=NO","jw40s9dhgp","0","70","65","75","","","","","","","","","","","","","","","",""
"null","<p style=""font-size: 50px;"">+</p>","null","html-keyboard-response","166","2.1.0","341492","J=YES, F=NO","jw40s9dhgp","0","70","65","75","","","","","","","","","","","","","","","",""
"null","audio/beep-329314.mp3","null","audio-keyboard-response","167","2.1.0","343743","J=YES, F=NO","jw40s9dhgp","0","70","65","75","","","","","","","","","","","","","","","",""
"null","audio/beach1.wav","null","audio-keyboard-response","168","2.1.0","344492","J=YES, F=NO","jw40s9dhgp","0","70","65","75","","","","","","","","","","","","","","","",""
"542","
          <p id=""word"" style=""font-size: 40px;"">drive</p>
          <p style=""font-size: 16px;"">J = YES &nbsp;&nbsp;&nbsp; F = NO</p>
        ","j","html-keyboard-response","169","2.1.0","345036","J=YES, F=NO","jw40s9dhgp","0","70","65","75","","","","","","","","","drive","beach1","filler","filler","j","true","",""
"null","<p style=""font-size: 50px;"">+</p>","null","html-keyboard-response","170","2.1.0","345343","J=YES, F=NO","jw40s9dhgp","0","70","65","75","","","","","","","","","","","","","","","",""
"null","audio/beep-329314.mp3","null","audio-keyboard-response","171","2.1.0","346882","J=YES, F=NO","jw40s9dhgp","0","70","65","75","","","","","","","","","","","","","","","",""
"null","audio/sand.wav","null","audio-keyboard-response","172","2.1.0","347552","J=YES, F=NO","jw40s9dhgp","0","70","65","75","","","","","","","","","","","","","","","",""
"796","
          <p id=""word"" style=""font-size: 40px;"">possess</p>
          <p style=""font-size: 16px;"">J = YES &nbsp;&nbsp;&nbsp; F = NO</p>
        ","j","html-keyboard-response","173","2.1.0","348349","J=YES, F=NO","jw40s9dhgp","0","70","65","75","","","","","","","","","possess","sand","unrelated","experimental","j","true","",""
"null","<p style=""font-size: 50px;"">+</p>","null","html-keyboard-response","174","2.1.0","348653","J=YES, F=NO","jw40s9dhgp","0","70","65","75","","","","","","","","","","","","","","","",""
"null","audio/beep-329314.mp3","null","audio-keyboard-response","175","2.1.0","350184","J=YES, F=NO","jw40s9dhgp","0","70","65","75","","","","","","","","","","","","","","","",""
"null","audio/flaw.wav","null","audio-keyboard-response","176","2.1.0","350832","J=YES, F=NO","jw40s9dhgp","0","70","65","75","","","","","","","","","","","","","","","",""
"656","
          <p id=""word"" style=""font-size: 40px;"">thwool</p>
          <p style=""font-size: 16px;"">J = YES &nbsp;&nbsp;&nbsp; F = NO</p>
        ","f","html-keyboard-response","177","2.1.0","351489","J=YES, F=NO","jw40s9dhgp","0","70","65","75","","","","","","","","","thwool","flaw","pseudoword","pseudoword","f","true","",""
"null","<p style=""font-size: 50px;"">+</p>","null","html-keyboard-response","178","2.1.0","351802","J=YES, F=NO","jw40s9dhgp","0","70","65","75","","","","","","","","","","","","","","","",""
"null","audio/beep-329314.mp3","null","audio-keyboard-response","179","2.1.0","353343","J=YES, F=NO","jw40s9dhgp","0","70","65","75","","","","","","","","","","","","","","","",""
"null","audio/alarm1.wav","null","audio-keyboard-response","180","2.1.0","353991","J=YES, F=NO","jw40s9dhgp","0","70","65","75","","","","","","","","","","","","","","","",""
"643","
          <p id=""word"" style=""font-size: 40px;"">swetp</p>
          <p style=""font-size: 16px;"">J = YES &nbsp;&nbsp;&nbsp; F = NO</p>
        ","f","html-keyboard-response","181","2.1.0","354636","J=YES, F=NO","jw40s9dhgp","0","70","65","75","","","","","","","","","swetp","alarm1","pseudoword","pseudoword","f","true","",""
"null","<p style=""font-size: 50px;"">+</p>","null","html-keyboard-response","182","2.1.0","354942","J=YES, F=NO","jw40s9dhgp","0","70","65","75","","","","","","","","","","","","","","","",""
"null","audio/beep-329314.mp3","null","audio-keyboard-response","183","2.1.0","356482","J=YES, F=NO","jw40s9dhgp","0","70","65","75","","","","","","","","","","","","","","","",""
"null","audio/winter.wav","null","audio-keyboard-response","184","2.1.0","357073","J=YES, F=NO","jw40s9dhgp","0","70","65","75","","","","","","","","","","","","","","","",""
"705","
          <p id=""word"" style=""font-size: 40px;"">straven</p>
          <p style=""font-size: 16px;"">J = YES &nbsp;&nbsp;&nbsp; F = NO</p>
        ","f","html-keyboard-response","185","2.1.0","357781","J=YES, F=NO","jw40s9dhgp","0","70","65","75","","","","","","","","","straven","winter","pseudoword","pseudoword","f","true","",""
"null","<p style=""font-size: 50px;"">+</p>","null","html-keyboard-response","186","2.1.0","358090","J=YES, F=NO","jw40s9dhgp","0","70","65","75","","","","","","","","","","","","","","","",""
"null","audio/beep-329314.mp3","null","audio-keyboard-response","187","2.1.0","359622","J=YES, F=NO","jw40s9dhgp","0","70","65","75","","","","","","","","","","","","","","","",""
"null","audio/hotel1.wav","null","audio-keyboard-response","188","2.1.0","360311","J=YES, F=NO","jw40s9dhgp","0","70","65","75","","","","","","","","","","","","","","","",""
"675","
          <p id=""word"" style=""font-size: 40px;"">flanter</p>
          <p style=""font-size: 16px;"">J = YES &nbsp;&nbsp;&nbsp; F = NO</p>
        ","f","html-keyboard-response","189","2.1.0","360987","J=YES, F=NO","jw40s9dhgp","0","70","65","75","","","","","","","","","flanter","hotel1","pseudoword","pseudoword","f","true","",""
"null","<p style=""font-size: 50px;"">+</p>","null","html-keyboard-response","190","2.1.0","361302","J=YES, F=NO","jw40s9dhgp","0","70","65","75","","","","","","","","","","","","","","","",""
"null","audio/beep-329314.mp3","null","audio-keyboard-response","191","2.1.0","362841","J=YES, F=NO","jw40s9dhgp","0","70","65","75","","","","","","","","","","","","","","","",""
"null","audio/weight1.wav","null","audio-keyboard-response","192","2.1.0","363413","J=YES, F=NO","jw40s9dhgp","0","70","65","75","","","","","","","","","","","","","","","",""
"743","
          <p id=""word"" style=""font-size: 40px;"">crimsh</p>
          <p style=""font-size: 16px;"">J = YES &nbsp;&nbsp;&nbsp; F = NO</p>
        ","f","html-keyboard-response","193","2.1.0","364157","J=YES, F=NO","jw40s9dhgp","0","70","65","75","","","","","","","","","crimsh","weight1","pseudoword","pseudoword","f","true","",""
"null","<p style=""font-size: 50px;"">+</p>","null","html-keyboard-response","194","2.1.0","364465","J=YES, F=NO","jw40s9dhgp","0","70","65","75","","","","","","","","","","","","","","","",""
"null","audio/beep-329314.mp3","null","audio-keyboard-response","195","2.1.0","366002","J=YES, F=NO","jw40s9dhgp","0","70","65","75","","","","","","","","","","","","","","","",""
"null","audio/bottle.wav","null","audio-keyboard-response","196","2.1.0","366531","J=YES, F=NO","jw40s9dhgp","0","70","65","75","","","","","","","","","","","","","","","",""
"583","
          <p id=""word"" style=""font-size: 40px;"">open</p>
          <p style=""font-size: 16px;"">J = YES &nbsp;&nbsp;&nbsp; F = NO</p>
        ","j","html-keyboard-response","197","2.1.0","367115","J=YES, F=NO","jw40s9dhgp","0","70","65","75","","","","","","","","","open","bottle","literal","experimental","j","true","",""
"null","<p style=""font-size: 50px;"">+</p>","null","html-keyboard-response","198","2.1.0","367426","J=YES, F=NO","jw40s9dhgp","0","70","65","75","","","","","","","","","","","","","","","",""
"null","audio/beep-329314.mp3","null","audio-keyboard-response","199","2.1.0","368962","J=YES, F=NO","jw40s9dhgp","0","70","65","75","","","","","","","","","","","","","","","",""
"null","audio/topic.wav","null","audio-keyboard-response","200","2.1.0","369553","J=YES, F=NO","jw40s9dhgp","0","70","65","75","","","","","","","","","","","","","","","",""
"739","
          <p id=""word"" style=""font-size: 40px;"">infortuitist</p>
          <p style=""font-size: 16px;"">J = YES &nbsp;&nbsp;&nbsp; F = NO</p>
        ","f","html-keyboard-response","201","2.1.0","370293","J=YES, F=NO","jw40s9dhgp","0","70","65","75","","","","","","","","","infortuitist","topic","pseudoword","pseudoword","f","true","",""
"null","<p style=""font-size: 50px;"">+</p>","null","html-keyboard-response","202","2.1.0","370604","J=YES, F=NO","jw40s9dhgp","0","70","65","75","","","","","","","","","","","","","","","",""
"null","audio/beep-329314.mp3","null","audio-keyboard-response","203","2.1.0","372142","J=YES, F=NO","jw40s9dhgp","0","70","65","75","","","","","","","","","","","","","","","",""
"null","audio/window1.wav","null","audio-keyboard-response","204","2.1.0","372773","J=YES, F=NO","jw40s9dhgp","0","70","65","75","","","","","","","","","","","","","","","",""
"718","
          <p id=""word"" style=""font-size: 40px;"">toss</p>
          <p style=""font-size: 16px;"">J = YES &nbsp;&nbsp;&nbsp; F = NO</p>
        ","j","html-keyboard-response","205","2.1.0","373492","J=YES, F=NO","jw40s9dhgp","0","70","65","75","","","","","","","","","toss","window1","filler","filler","j","true","",""
"null","<p style=""font-size: 50px;"">+</p>","null","html-keyboard-response","206","2.1.0","373800","J=YES, F=NO","jw40s9dhgp","0","70","65","75","","","","","","","","","","","","","","","",""
"null","audio/beep-329314.mp3","null","audio-keyboard-response","207","2.1.0","375341","J=YES, F=NO","jw40s9dhgp","0","70","65","75","","","","","","","","","","","","","","","",""
"null","audio/dome.wav","null","audio-keyboard-response","208","2.1.0","375792","J=YES, F=NO","jw40s9dhgp","0","70","65","75","","","","","","","","","","","","","","","",""
"593","
          <p id=""word"" style=""font-size: 40px;"">scrupliness</p>
          <p style=""font-size: 16px;"">J = YES &nbsp;&nbsp;&nbsp; F = NO</p>
        ","f","html-keyboard-response","209","2.1.0","376386","J=YES, F=NO","jw40s9dhgp","0","70","65","75","","","","","","","","","scrupliness","dome","pseudoword","pseudoword","f","true","",""
"null","<p style=""font-size: 50px;"">+</p>","null","html-keyboard-response","210","2.1.0","376703","J=YES, F=NO","jw40s9dhgp","0","70","65","75","","","","","","","","","","","","","","","",""
"null","audio/beep-329314.mp3","null","audio-keyboard-response","211","2.1.0","378242","J=YES, F=NO","jw40s9dhgp","0","70","65","75","","","","","","","","","","","","","","","",""
"null","audio/emotion.wav","null","audio-keyboard-response","212","2.1.0","378952","J=YES, F=NO","jw40s9dhgp","0","70","65","75","","","","","","","","","","","","","","","",""
"544","
          <p id=""word"" style=""font-size: 40px;"">bury</p>
          <p style=""font-size: 16px;"">J = YES &nbsp;&nbsp;&nbsp; F = NO</p>
        ","j","html-keyboard-response","213","2.1.0","379496","J=YES, F=NO","jw40s9dhgp","0","70","65","75","","","","","","","","","bury","emotion","metaphor","experimental","j","true","",""
"null","<p style=""font-size: 50px;"">+</p>","null","html-keyboard-response","214","2.1.0","379812","J=YES, F=NO","jw40s9dhgp","0","70","65","75","","","","","","","","","","","","","","","",""
"null","audio/beep-329314.mp3","null","audio-keyboard-response","215","2.1.0","381342","J=YES, F=NO","jw40s9dhgp","0","70","65","75","","","","","","","","","","","","","","","",""
"null","audio/haste1.wav","null","audio-keyboard-response","216","2.1.0","381932","J=YES, F=NO","jw40s9dhgp","0","70","65","75","","","","","","","","","","","","","","","",""
"591","
          <p id=""word"" style=""font-size: 40px;"">coraconate</p>
          <p style=""font-size: 16px;"">J = YES &nbsp;&nbsp;&nbsp; F = NO</p>
        ","f","html-keyboard-response","217","2.1.0","382524","J=YES, F=NO","jw40s9dhgp","0","70","65","75","","","","","","","","","coraconate","haste1","pseudoword","pseudoword","f","true","",""
"null","<p style=""font-size: 50px;"">+</p>","null","html-keyboard-response","218","2.1.0","382837","J=YES, F=NO","jw40s9dhgp","0","70","65","75","","","","","","","","","","","","","","","",""
"null","audio/beep-329314.mp3","null","audio-keyboard-response","219","2.1.0","384384","J=YES, F=NO","jw40s9dhgp","0","70","65","75","","","","","","","","","","","","","","","",""
"null","audio/prisoner.wav","null","audio-keyboard-response","220","2.1.0","384912","J=YES, F=NO","jw40s9dhgp","0","70","65","75","","","","","","","","","","","","","","","",""
"506","
          <p id=""word"" style=""font-size: 40px;"">release</p>
          <p style=""font-size: 16px;"">J = YES &nbsp;&nbsp;&nbsp; F = NO</p>
        ","j","html-keyboard-response","221","2.1.0","385418","J=YES, F=NO","jw40s9dhgp","0","70","65","75","","","","","","","","","release","prisoner","literal","experimental","j","true","",""
"null","<p style=""font-size: 50px;"">+</p>","null","html-keyboard-response","222","2.1.0","385722","J=YES, F=NO","jw40s9dhgp","0","70","65","75","","","","","","","","","","","","","","","",""
"null","audio/beep-329314.mp3","null","audio-keyboard-response","223","2.1.0","387262","J=YES, F=NO","jw40s9dhgp","0","70","65","75","","","","","","","","","","","","","","","",""
"null","audio/soul.wav","null","audio-keyboard-response","224","2.1.0","387872","J=YES, F=NO","jw40s9dhgp","0","70","65","75","","","","","","","","","","","","","","","",""
"575","
          <p id=""word"" style=""font-size: 40px;"">sell</p>
          <p style=""font-size: 16px;"">J = YES &nbsp;&nbsp;&nbsp; F = NO</p>
        ","j","html-keyboard-response","225","2.1.0","388448","J=YES, F=NO","jw40s9dhgp","0","70","65","75","","","","","","","","","sell","soul","metaphor","experimental","j","true","",""
"null","<p style=""font-size: 50px;"">+</p>","null","html-keyboard-response","226","2.1.0","388759","J=YES, F=NO","jw40s9dhgp","0","70","65","75","","","","","","","","","","","","","","","",""
"null","audio/beep-329314.mp3","null","audio-keyboard-response","227","2.1.0","390302","J=YES, F=NO","jw40s9dhgp","0","70","65","75","","","","","","","","","","","","","","","",""
"null","audio/noise1.wav","null","audio-keyboard-response","228","2.1.0","390932","J=YES, F=NO","jw40s9dhgp","0","70","65","75","","","","","","","","","","","","","","","",""
"615","
          <p id=""word"" style=""font-size: 40px;"">slintered</p>
          <p style=""font-size: 16px;"">J = YES &nbsp;&nbsp;&nbsp; F = NO</p>
        ","f","html-keyboard-response","229","2.1.0","391548","J=YES, F=NO","jw40s9dhgp","0","70","65","75","","","","","","","","","slintered","noise1","pseudoword","pseudoword","f","true","",""
"28064","<p>Excellent! You have finished block 1 of 8.</p>
                     <p>Feel free to take a 30 second break.</p>
                     <p>Press any key when you're ready to continue.</p>"," ","html-keyboard-response","230","2.1.0","419613","J=YES, F=NO","jw40s9dhgp","0","70","65","75","","","","","","","","","","","","","","","",""
"974","<p>Starting main block 2 of 8. Press any key to continue.</p>"," ","html-keyboard-response","231","2.1.0","420587","J=YES, F=NO","jw40s9dhgp","0","70","65","75","","","","","","","","","","","","","","","",""
"null","<p style=""font-size: 50px;"">+</p>","null","html-keyboard-response","232","2.1.0","420906","J=YES, F=NO","jw40s9dhgp","0","70","65","75","","","","","","","","","","","","","","","",""
"null","audio/beep-329314.mp3","null","audio-keyboard-response","233","2.1.0","423198","J=YES, F=NO","jw40s9dhgp","0","70","65","75","","","","","","","","","","","","","","","",""
"null","audio/birth1.wav","null","audio-keyboard-response","234","2.1.0","423758","J=YES, F=NO","jw40s9dhgp","0","70","65","75","","","","","","","","","","","","","","","",""
"560","
          <p id=""word"" style=""font-size: 40px;"">drop</p>
          <p style=""font-size: 16px;"">J = YES &nbsp;&nbsp;&nbsp; F = NO</p>
        ","j","html-keyboard-response","235","2.1.0","424319","J=YES, F=NO","jw40s9dhgp","0","70","65","75","","","","","","","","","drop","birth1","unrelated","experimental","j","true","",""
"null","<p style=""font-size: 50px;"">+</p>","null","html-keyboard-response","236","2.1.0","424625","J=YES, F=NO","jw40s9dhgp","0","70","65","75","","","","","","","","","","","","","","","",""
"null","audio/beep-329314.mp3","null","audio-keyboard-response","237","2.1.0","426159","J=YES, F=NO","jw40s9dhgp","0","70","65","75","","","","","","","","","","","","","","","",""
"null","audio/strength.wav","null","audio-keyboard-response","238","2.1.0","426937","J=YES, F=NO","jw40s9dhgp","0","70","65","75","","","","","","","","","","","","","","","",""
"653","
          <p id=""word"" style=""font-size: 40px;"">plabet</p>
          <p style=""font-size: 16px;"">J = YES &nbsp;&nbsp;&nbsp; F = NO</p>
        ","f","html-keyboard-response","239","2.1.0","427591","J=YES, F=NO","jw40s9dhgp","0","70","65","75","","","","","","","","","plabet","strength","pseudoword","pseudoword","f","true","",""
"null","<p style=""font-size: 50px;"">+</p>","null","html-keyboard-response","240","2.1.0","427897","J=YES, F=NO","jw40s9dhgp","0","70","65","75","","","","","","","","","","","","","","","",""
"null","audio/beep-329314.mp3","null","audio-keyboard-response","241","2.1.0","429438","J=YES, F=NO","jw40s9dhgp","0","70","65","75","","","","","","","","","","","","","","","",""
"null","audio/heart1.wav","null","audio-keyboard-response","242","2.1.0","430118","J=YES, F=NO","jw40s9dhgp","0","70","65","75","","","","","","","","","","","","","","","",""
"559","
          <p id=""word"" style=""font-size: 40px;"">dralm</p>
          <p style=""font-size: 16px;"">J = YES &nbsp;&nbsp;&nbsp; F = NO</p>
        ","f","html-keyboard-response","243","2.1.0","430678","J=YES, F=NO","jw40s9dhgp","0","70","65","75","","","","","","","","","dralm","heart1","pseudoword","pseudoword","f","true","",""
"null","<p style=""font-size: 50px;"">+</p>","null","html-keyboard-response","244","2.1.0","430985","J=YES, F=NO","jw40s9dhgp","0","70","65","75","","","","","","","","","","","","","","","",""
"null","audio/beep-329314.mp3","null","audio-keyboard-response","245","2.1.0","432518","J=YES, F=NO","jw40s9dhgp","0","70","65","75","","","","","","","","","","","","","","","",""
"null","audio/holiday1.wav","null","audio-keyboard-response","246","2.1.0","433199","J=YES, F=NO","jw40s9dhgp","0","70","65","75","","","","","","","","","","","","","","","",""
"464","
          <p id=""word"" style=""font-size: 40px;"">spend</p>
          <p style=""font-size: 16px;"">J = YES &nbsp;&nbsp;&nbsp; F = NO</p>
        ","j","html-keyboard-response","247","2.1.0","433664","J=YES, F=NO","jw40s9dhgp","0","70","65","75","","","","","","","","","spend","holiday1","metaphor","experimental","j","true","",""
"null","<p style=""font-size: 50px;"">+</p>","null","html-keyboard-response","248","2.1.0","433973","J=YES, F=NO","jw40s9dhgp","0","70","65","75","","","","","","","","","","","","","","","",""
"null","audio/beep-329314.mp3","null","audio-keyboard-response","249","2.1.0","435498","J=YES, F=NO","jw40s9dhgp","0","70","65","75","","","","","","","","","","","","","","","",""
"null","audio/ankle1.wav","null","audio-keyboard-response","250","2.1.0","436018","J=YES, F=NO","jw40s9dhgp","0","70","65","75","","","","","","","","","","","","","","","",""
"563","
          <p id=""word"" style=""font-size: 40px;"">switm</p>
          <p style=""font-size: 16px;"">J = YES &nbsp;&nbsp;&nbsp; F = NO</p>
        ","f","html-keyboard-response","251","2.1.0","436582","J=YES, F=NO","jw40s9dhgp","0","70","65","75","","","","","","","","","switm","ankle1","pseudoword","pseudoword","f","true","",""
"null","<p style=""font-size: 50px;"">+</p>","null","html-keyboard-response","252","2.1.0","436893","J=YES, F=NO","jw40s9dhgp","0","70","65","75","","","","","","","","","","","","","","","",""
"null","audio/beep-329314.mp3","null","audio-keyboard-response","253","2.1.0","438428","J=YES, F=NO","jw40s9dhgp","0","70","65","75","","","","","","","","","","","","","","","",""
"null","audio/key1.wav","null","audio-keyboard-response","254","2.1.0","438818","J=YES, F=NO","jw40s9dhgp","0","70","65","75","","","","","","","","","","","","","","","",""
"540","
          <p id=""word"" style=""font-size: 40px;"">lose</p>
          <p style=""font-size: 16px;"">J = YES &nbsp;&nbsp;&nbsp; F = NO</p>
        ","j","html-keyboard-response","255","2.1.0","439360","J=YES, F=NO","jw40s9dhgp","0","70","65","75","","","","","","","","","lose","key1","literal","experimental","j","true","",""
"null","<p style=""font-size: 50px;"">+</p>","null","html-keyboard-response","256","2.1.0","439664","J=YES, F=NO","jw40s9dhgp","0","70","65","75","","","","","","","","","","","","","","","",""
"null","audio/beep-329314.mp3","null","audio-keyboard-response","257","2.1.0","441199","J=YES, F=NO","jw40s9dhgp","0","70","65","75","","","","","","","","","","","","","","","",""
"null","audio/vehicle1.wav","null","audio-keyboard-response","258","2.1.0","441898","J=YES, F=NO","jw40s9dhgp","0","70","65","75","","","","","","","","","","","","","","","",""
"676","
          <p id=""word"" style=""font-size: 40px;"">approach</p>
          <p style=""font-size: 16px;"">J = YES &nbsp;&nbsp;&nbsp; F = NO</p>
        ","j","html-keyboard-response","259","2.1.0","442575","J=YES, F=NO","jw40s9dhgp","0","70","65","75","","","","","","","","","approach","vehicle1","literal","experimental","j","true","",""
"null","<p style=""font-size: 50px;"">+</p>","null","html-keyboard-response","260","2.1.0","442887","J=YES, F=NO","jw40s9dhgp","0","70","65","75","","","","","","","","","","","","","","","",""
"null","audio/beep-329314.mp3","null","audio-keyboard-response","261","2.1.0","444419","J=YES, F=NO","jw40s9dhgp","0","70","65","75","","","","","","","","","","","","","","","",""
"null","audio/road.wav","null","audio-keyboard-response","262","2.1.0","444837","J=YES, F=NO","jw40s9dhgp","0","70","65","75","","","","","","","","","","","","","","","",""
"491","
          <p id=""word"" style=""font-size: 40px;"">flood</p>
          <p style=""font-size: 16px;"">J = YES &nbsp;&nbsp;&nbsp; F = NO</p>
        ","j","html-keyboard-response","263","2.1.0","445329","J=YES, F=NO","jw40s9dhgp","0","70","65","75","","","","","","","","","flood","road","literal","experimental","j","true","",""
"null","<p style=""font-size: 50px;"">+</p>","null","html-keyboard-response","264","2.1.0","445633","J=YES, F=NO","jw40s9dhgp","0","70","65","75","","","","","","","","","","","","","","","",""
"null","audio/beep-329314.mp3","null","audio-keyboard-response","265","2.1.0","447159","J=YES, F=NO","jw40s9dhgp","0","70","65","75","","","","","","","","","","","","","","","",""
"null","audio/desire.wav","null","audio-keyboard-response","266","2.1.0","447819","J=YES, F=NO","jw40s9dhgp","0","70","65","75","","","","","","","","","","","","","","","",""
"551","
          <p id=""word"" style=""font-size: 40px;"">nophed</p>
          <p style=""font-size: 16px;"">J = YES &nbsp;&nbsp;&nbsp; F = NO</p>
        ","f","html-keyboard-response","267","2.1.0","448371","J=YES, F=NO","jw40s9dhgp","0","70","65","75","","","","","","","","","nophed","desire","pseudoword","pseudoword","f","true","",""
"null","<p style=""font-size: 50px;"">+</p>","null","html-keyboard-response","268","2.1.0","448674","J=YES, F=NO","jw40s9dhgp","0","70","65","75","","","","","","","","","","","","","","","",""
"null","audio/beep-329314.mp3","null","audio-keyboard-response","269","2.1.0","450199","J=YES, F=NO","jw40s9dhgp","0","70","65","75","","","","","","","","","","","","","","","",""
"null","audio/mind.wav","null","audio-keyboard-response","270","2.1.0","450819","J=YES, F=NO","jw40s9dhgp","0","70","65","75","","","","","","","","","","","","","","","",""
"590","
          <p id=""word"" style=""font-size: 40px;"">crainate</p>
          <p style=""font-size: 16px;"">J = YES &nbsp;&nbsp;&nbsp; F = NO</p>
        ","f","html-keyboard-response","271","2.1.0","451410","J=YES, F=NO","jw40s9dhgp","0","70","65","75","","","","","","","","","crainate","mind","pseudoword","pseudoword","f","true","",""
"null","<p style=""font-size: 50px;"">+</p>","null","html-keyboard-response","272","2.1.0","451728","J=YES, F=NO","jw40s9dhgp","0","70","65","75","","","","","","","","","","","","","","","",""
"null","audio/beep-329314.mp3","null","audio-keyboard-response","273","2.1.0","453259","J=YES, F=NO","jw40s9dhgp","0","70","65","75","","","","","","","","","","","","","","","",""
"null","audio/skin1.wav","null","audio-keyboard-response","274","2.1.0","453857","J=YES, F=NO","jw40s9dhgp","0","70","65","75","","","","","","","","","","","","","","","",""
"694","
          <p id=""word"" style=""font-size: 40px;"">expose</p>
          <p style=""font-size: 16px;"">J = YES &nbsp;&nbsp;&nbsp; F = NO</p>
        ","j","html-keyboard-response","275","2.1.0","454552","J=YES, F=NO","jw40s9dhgp","0","70","65","75","","","","","","","","","expose","skin1","literal","experimental","j","true","",""
"null","<p style=""font-size: 50px;"">+</p>","null","html-keyboard-response","276","2.1.0","454861","J=YES, F=NO","jw40s9dhgp","0","70","65","75","","","","","","","","","","","","","","","",""
"null","audio/beep-329314.mp3","null","audio-keyboard-response","277","2.1.0","456398","J=YES, F=NO","jw40s9dhgp","0","70","65","75","","","","","","","","","","","","","","","",""
"null","audio/prisoner.wav","null","audio-keyboard-response","278","2.1.0","456899","J=YES, F=NO","jw40s9dhgp","0","70","65","75","","","","","","","","","","","","","","","",""
"757","
          <p id=""word"" style=""font-size: 40px;"">egotian</p>
          <p style=""font-size: 16px;"">J = YES &nbsp;&nbsp;&nbsp; F = NO</p>
        ","f","html-keyboard-response","279","2.1.0","457658","J=YES, F=NO","jw40s9dhgp","0","70","65","75","","","","","","","","","egotian","prisoner","pseudoword","pseudoword","f","true","",""
"null","<p style=""font-size: 50px;"">+</p>","null","html-keyboard-response","280","2.1.0","457969","J=YES, F=NO","jw40s9dhgp","0","70","65","75","","","","","","","","","","","","","","","",""
"null","audio/beep-329314.mp3","null","audio-keyboard-response","281","2.1.0","459498","J=YES, F=NO","jw40s9dhgp","0","70","65","75","","","","","","","","","","","","","","","",""
"null","audio/pain1.wav","null","audio-keyboard-response","282","2.1.0","459959","J=YES, F=NO","jw40s9dhgp","0","70","65","75","","","","","","","","","","","","","","","",""
"701","
          <p id=""word"" style=""font-size: 40px;"">tritted</p>
          <p style=""font-size: 16px;"">J = YES &nbsp;&nbsp;&nbsp; F = NO</p>
        ","f","html-keyboard-response","283","2.1.0","460661","J=YES, F=NO","jw40s9dhgp","0","70","65","75","","","","","","","","","tritted","pain1","pseudoword","pseudoword","f","true","",""
"null","<p style=""font-size: 50px;"">+</p>","null","html-keyboard-response","284","2.1.0","460975","J=YES, F=NO","jw40s9dhgp","0","70","65","75","","","","","","","","","","","","","","","",""
"null","audio/beep-329314.mp3","null","audio-keyboard-response","285","2.1.0","462519","J=YES, F=NO","jw40s9dhgp","0","70","65","75","","","","","","","","","","","","","","","",""
"null","audio/empire.wav","null","audio-keyboard-response","286","2.1.0","463197","J=YES, F=NO","jw40s9dhgp","0","70","65","75","","","","","","","","","","","","","","","",""
"607","
          <p id=""word"" style=""font-size: 40px;"">slorby</p>
          <p style=""font-size: 16px;"">J = YES &nbsp;&nbsp;&nbsp; F = NO</p>
        ","f","html-keyboard-response","287","2.1.0","463806","J=YES, F=NO","jw40s9dhgp","0","70","65","75","","","","","","","","","slorby","empire","pseudoword","pseudoword","f","true","",""
"null","<p style=""font-size: 50px;"">+</p>","null","html-keyboard-response","288","2.1.0","464111","J=YES, F=NO","jw40s9dhgp","0","70","65","75","","","","","","","","","","","","","","","",""
"null","audio/beep-329314.mp3","null","audio-keyboard-response","289","2.1.0","465637","J=YES, F=NO","jw40s9dhgp","0","70","65","75","","","","","","","","","","","","","","","",""
"null","audio/alarm1.wav","null","audio-keyboard-response","290","2.1.0","466218","J=YES, F=NO","jw40s9dhgp","0","70","65","75","","","","","","","","","","","","","","","",""
"503","
          <p id=""word"" style=""font-size: 40px;"">save</p>
          <p style=""font-size: 16px;"">J = YES &nbsp;&nbsp;&nbsp; F = NO</p>
        ","j","html-keyboard-response","291","2.1.0","466722","J=YES, F=NO","jw40s9dhgp","0","70","65","75","","","","","","","","","save","alarm1","unrelated","experimental","j","true","",""
"null","<p style=""font-size: 50px;"">+</p>","null","html-keyboard-response","292","2.1.0","467027","J=YES, F=NO","jw40s9dhgp","0","70","65","75","","","","","","","","","","","","","","","",""
"null","audio/beep-329314.mp3","null","audio-keyboard-response","293","2.1.0","468558","J=YES, F=NO","jw40s9dhgp","0","70","65","75","","","","","","","","","","","","","","","",""
"null","audio/smirk1.wav","null","audio-keyboard-response","294","2.1.0","469338","J=YES, F=NO","jw40s9dhgp","0","70","65","75","","","","","","","","","","","","","","","",""
"567","
          <p id=""word"" style=""font-size: 40px;"">snopt</p>
          <p style=""font-size: 16px;"">J = YES &nbsp;&nbsp;&nbsp; F = NO</p>
        ","f","html-keyboard-response","295","2.1.0","469907","J=YES, F=NO","jw40s9dhgp","0","70","65","75","","","","","","","","","snopt","smirk1","pseudoword","pseudoword","f","true","",""
"14214","<p>Excellent! You have finished block 2 of 8.</p>
                     <p>Feel free to take a 30 second break.</p>
                     <p>Press any key when you're ready to continue.</p>"," ","html-keyboard-response","296","2.1.0","484121","J=YES, F=NO","jw40s9dhgp","0","70","65","75","","","","","","","","","","","","","","","",""
"815","<p>Starting main block 3 of 8. Press any key to continue.</p>","j","html-keyboard-response","297","2.1.0","484937","J=YES, F=NO","jw40s9dhgp","0","70","65","75","","","","","","","","","","","","","","","",""
"null","<p style=""font-size: 50px;"">+</p>","null","html-keyboard-response","298","2.1.0","485251","J=YES, F=NO","jw40s9dhgp","0","70","65","75","","","","","","","","","","","","","","","",""
"null","audio/beep-329314.mp3","null","audio-keyboard-response","299","2.1.0","486945","J=YES, F=NO","jw40s9dhgp","0","70","65","75","","","","","","","","","","","","","","","",""
"null","audio/burden.wav","null","audio-keyboard-response","300","2.1.0","487514","J=YES, F=NO","jw40s9dhgp","0","70","65","75","","","","","","","","","","","","","","","",""
"594","
          <p id=""word"" style=""font-size: 40px;"">whotth</p>
          <p style=""font-size: 16px;"">J = YES &nbsp;&nbsp;&nbsp; F = NO</p>
        ","f","html-keyboard-response","301","2.1.0","488109","J=YES, F=NO","jw40s9dhgp","0","70","65","75","","","","","","","","","whotth","burden","pseudoword","pseudoword","f","true","",""
"null","<p style=""font-size: 50px;"">+</p>","null","html-keyboard-response","302","2.1.0","488412","J=YES, F=NO","jw40s9dhgp","0","70","65","75","","","","","","","","","","","","","","","",""
"null","audio/beep-329314.mp3","null","audio-keyboard-response","303","2.1.0","489944","J=YES, F=NO","jw40s9dhgp","0","70","65","75","","","","","","","","","","","","","","","",""
"null","audio/ego.wav","null","audio-keyboard-response","304","2.1.0","490554","J=YES, F=NO","jw40s9dhgp","0","70","65","75","","","","","","","","","","","","","","","",""
"639","
          <p id=""word"" style=""font-size: 40px;"">bruite</p>
          <p style=""font-size: 16px;"">J = YES &nbsp;&nbsp;&nbsp; F = NO</p>
        ","f","html-keyboard-response","305","2.1.0","491193","J=YES, F=NO","jw40s9dhgp","0","70","65","75","","","","","","","","","bruite","ego","pseudoword","pseudoword","f","true","",""
"null","<p style=""font-size: 50px;"">+</p>","null","html-keyboard-response","306","2.1.0","491503","J=YES, F=NO","jw40s9dhgp","0","70","65","75","","","","","","","","","","","","","","","",""
"null","audio/beep-329314.mp3","null","audio-keyboard-response","307","2.1.0","493050","J=YES, F=NO","jw40s9dhgp","0","70","65","75","","","","","","","","","","","","","","","",""
"null","audio/ankle1.wav","null","audio-keyboard-response","308","2.1.0","493574","J=YES, F=NO","jw40s9dhgp","0","70","65","75","","","","","","","","","","","","","","","",""
"532","
          <p id=""word"" style=""font-size: 40px;"">hurt</p>
          <p style=""font-size: 16px;"">J = YES &nbsp;&nbsp;&nbsp; F = NO</p>
        ","j","html-keyboard-response","309","2.1.0","494107","J=YES, F=NO","jw40s9dhgp","0","70","65","75","","","","","","","","","hurt","ankle1","literal","experimental","j","true","",""
"null","<p style=""font-size: 50px;"">+</p>","null","html-keyboard-response","310","2.1.0","494418","J=YES, F=NO","jw40s9dhgp","0","70","65","75","","","","","","","","","","","","","","","",""
"null","audio/beep-329314.mp3","null","audio-keyboard-response","311","2.1.0","495945","J=YES, F=NO","jw40s9dhgp","0","70","65","75","","","","","","","","","","","","","","","",""
"null","audio/life1.wav","null","audio-keyboard-response","312","2.1.0","496573","J=YES, F=NO","jw40s9dhgp","0","70","65","75","","","","","","","","","","","","","","","",""
"515","
          <p id=""word"" style=""font-size: 40px;"">flimch</p>
          <p style=""font-size: 16px;"">J = YES &nbsp;&nbsp;&nbsp; F = NO</p>
        ","f","html-keyboard-response","313","2.1.0","497089","J=YES, F=NO","jw40s9dhgp","0","70","65","75","","","","","","","","","flimch","life1","pseudoword","pseudoword","f","true","",""
"null","<p style=""font-size: 50px;"">+</p>","null","html-keyboard-response","314","2.1.0","497399","J=YES, F=NO","jw40s9dhgp","0","70","65","75","","","","","","","","","","","","","","","",""
"null","audio/beep-329314.mp3","null","audio-keyboard-response","315","2.1.0","498925","J=YES, F=NO","jw40s9dhgp","0","70","65","75","","","","","","","","","","","","","","","",""
"null","audio/ship.wav","null","audio-keyboard-response","316","2.1.0","499534","J=YES, F=NO","jw40s9dhgp","0","70","65","75","","","","","","","","","","","","","","","",""
"512","
          <p id=""word"" style=""font-size: 40px;"">scrap</p>
          <p style=""font-size: 16px;"">J = YES &nbsp;&nbsp;&nbsp; F = NO</p>
        ","j","html-keyboard-response","317","2.1.0","500048","J=YES, F=NO","jw40s9dhgp","0","70","65","75","","","","","","","","","scrap","ship","literal","experimental","j","true","",""
"null","<p style=""font-size: 50px;"">+</p>","null","html-keyboard-response","318","2.1.0","500363","J=YES, F=NO","jw40s9dhgp","0","70","65","75","","","","","","","","","","","","","","","",""
"null","audio/beep-329314.mp3","null","audio-keyboard-response","319","2.1.0","501904","J=YES, F=NO","jw40s9dhgp","0","70","65","75","","","","","","","","","","","","","","","",""
"null","audio/bomb1.wav","null","audio-keyboard-response","320","2.1.0","502294","J=YES, F=NO","jw40s9dhgp","0","70","65","75","","","","","","","","","","","","","","","",""
"449","
          <p id=""word"" style=""font-size: 40px;"">clean</p>
          <p style=""font-size: 16px;"">J = YES &nbsp;&nbsp;&nbsp; F = NO</p>
        ","j","html-keyboard-response","321","2.1.0","502744","J=YES, F=NO","jw40s9dhgp","0","70","65","75","","","","","","","","","clean","bomb1","filler","filler","j","true","",""
"null","<p style=""font-size: 50px;"">+</p>","null","html-keyboard-response","322","2.1.0","503051","J=YES, F=NO","jw40s9dhgp","0","70","65","75","","","","","","","","","","","","","","","",""
"null","audio/beep-329314.mp3","null","audio-keyboard-response","323","2.1.0","504606","J=YES, F=NO","jw40s9dhgp","0","70","65","75","","","","","","","","","","","","","","","",""
"null","audio/flaw.wav","null","audio-keyboard-response","324","2.1.0","505234","J=YES, F=NO","jw40s9dhgp","0","70","65","75","","","","","","","","","","","","","","","",""
"517","
          <p id=""word"" style=""font-size: 40px;"">hide</p>
          <p style=""font-size: 16px;"">J = YES &nbsp;&nbsp;&nbsp; F = NO</p>
        ","j","html-keyboard-response","325","2.1.0","505752","J=YES, F=NO","jw40s9dhgp","0","70","65","75","","","","","","","","","hide","flaw","metaphor","experimental","j","true","",""
"null","<p style=""font-size: 50px;"">+</p>","null","html-keyboard-response","326","2.1.0","506062","J=YES, F=NO","jw40s9dhgp","0","70","65","75","","","","","","","","","","","","","","","",""
"null","audio/beep-329314.mp3","null","audio-keyboard-response","327","2.1.0","507604","J=YES, F=NO","jw40s9dhgp","0","70","65","75","","","","","","","","","","","","","","","",""
"null","audio/bush1.wav","null","audio-keyboard-response","328","2.1.0","508133","J=YES, F=NO","jw40s9dhgp","0","70","65","75","","","","","","","","","","","","","","","",""
"522","
          <p id=""word"" style=""font-size: 40px;"">platined</p>
          <p style=""font-size: 16px;"">J = YES &nbsp;&nbsp;&nbsp; F = NO</p>
        ","f","html-keyboard-response","329","2.1.0","508657","J=YES, F=NO","jw40s9dhgp","0","70","65","75","","","","","","","","","platined","bush1","pseudoword","pseudoword","f","true","",""
"null","<p style=""font-size: 50px;"">+</p>","null","html-keyboard-response","330","2.1.0","508971","J=YES, F=NO","jw40s9dhgp","0","70","65","75","","","","","","","","","","","","","","","",""
"null","audio/beep-329314.mp3","null","audio-keyboard-response","331","2.1.0","510503","J=YES, F=NO","jw40s9dhgp","0","70","65","75","","","","","","","","","","","","","","","",""
"null","audio/kettle1.wav","null","audio-keyboard-response","332","2.1.0","510953","J=YES, F=NO","jw40s9dhgp","0","70","65","75","","","","","","","","","","","","","","","",""
"688","
          <p id=""word"" style=""font-size: 40px;"">navigate</p>
          <p style=""font-size: 16px;"">J = YES &nbsp;&nbsp;&nbsp; F = NO</p>
        ","j","html-keyboard-response","333","2.1.0","511643","J=YES, F=NO","jw40s9dhgp","0","70","65","75","","","","","","","","","navigate","kettle1","unrelated","experimental","j","true","",""
"null","<p style=""font-size: 50px;"">+</p>","null","html-keyboard-response","334","2.1.0","511954","J=YES, F=NO","jw40s9dhgp","0","70","65","75","","","","","","","","","","","","","","","",""
"null","audio/beep-329314.mp3","null","audio-keyboard-response","335","2.1.0","513485","J=YES, F=NO","jw40s9dhgp","0","70","65","75","","","","","","","","","","","","","","","",""
"null","audio/storm1.wav","null","audio-keyboard-response","336","2.1.0","514116","J=YES, F=NO","jw40s9dhgp","0","70","65","75","","","","","","","","","","","","","","","",""
"564","
          <p id=""word"" style=""font-size: 40px;"">climb</p>
          <p style=""font-size: 16px;"">J = YES &nbsp;&nbsp;&nbsp; F = NO</p>
        ","j","html-keyboard-response","337","2.1.0","514681","J=YES, F=NO","jw40s9dhgp","0","70","65","75","","","","","","","","","climb","storm1","unrelated","experimental","j","true","",""
"null","<p style=""font-size: 50px;"">+</p>","null","html-keyboard-response","338","2.1.0","514995","J=YES, F=NO","jw40s9dhgp","0","70","65","75","","","","","","","","","","","","","","","",""
"null","audio/beep-329314.mp3","null","audio-keyboard-response","339","2.1.0","516524","J=YES, F=NO","jw40s9dhgp","0","70","65","75","","","","","","","","","","","","","","","",""
"null","audio/sand.wav","null","audio-keyboard-response","340","2.1.0","517153","J=YES, F=NO","jw40s9dhgp","0","70","65","75","","","","","","","","","","","","","","","",""
"542","
          <p id=""word"" style=""font-size: 40px;"">proted</p>
          <p style=""font-size: 16px;"">J = YES &nbsp;&nbsp;&nbsp; F = NO</p>
        ","j","html-keyboard-response","341","2.1.0","517696","J=YES, F=NO","jw40s9dhgp","0","70","65","75","","","","","","","","","proted","sand","pseudoword","pseudoword","f","false","",""
"null","<p style=""font-size: 50px;"">+</p>","null","html-keyboard-response","342","2.1.0","518014","J=YES, F=NO","jw40s9dhgp","0","70","65","75","","","","","","","","","","","","","","","",""
"null","audio/beep-329314.mp3","null","audio-keyboard-response","343","2.1.0","519545","J=YES, F=NO","jw40s9dhgp","0","70","65","75","","","","","","","","","","","","","","","",""
"null","audio/hawk1.wav","null","audio-keyboard-response","344","2.1.0","520154","J=YES, F=NO","jw40s9dhgp","0","70","65","75","","","","","","","","","","","","","","","",""
"461","
          <p id=""word"" style=""font-size: 40px;"">wipe</p>
          <p style=""font-size: 16px;"">J = YES &nbsp;&nbsp;&nbsp; F = NO</p>
        ","j","html-keyboard-response","345","2.1.0","520616","J=YES, F=NO","jw40s9dhgp","0","70","65","75","","","","","","","","","wipe","hawk1","unrelated","experimental","j","true","",""
"null","<p style=""font-size: 50px;"">+</p>","null","html-keyboard-response","346","2.1.0","520925","J=YES, F=NO","jw40s9dhgp","0","70","65","75","","","","","","","","","","","","","","","",""
"null","audio/beep-329314.mp3","null","audio-keyboard-response","347","2.1.0","522465","J=YES, F=NO","jw40s9dhgp","0","70","65","75","","","","","","","","","","","","","","","",""
"null","audio/truth1.wav","null","audio-keyboard-response","348","2.1.0","523073","J=YES, F=NO","jw40s9dhgp","0","70","65","75","","","","","","","","","","","","","","","",""
"615","
          <p id=""word"" style=""font-size: 40px;"">calitom</p>
          <p style=""font-size: 16px;"">J = YES &nbsp;&nbsp;&nbsp; F = NO</p>
        ","f","html-keyboard-response","349","2.1.0","523690","J=YES, F=NO","jw40s9dhgp","0","70","65","75","","","","","","","","","calitom","truth1","pseudoword","pseudoword","f","true","",""
"null","<p style=""font-size: 50px;"">+</p>","null","html-keyboard-response","350","2.1.0","523998","J=YES, F=NO","jw40s9dhgp","0","70","65","75","","","","","","","","","","","","","","","",""
"null","audio/beep-329314.mp3","null","audio-keyboard-response","351","2.1.0","525523","J=YES, F=NO","jw40s9dhgp","0","70","65","75","","","","","","","","","","","","","","","",""
"null","audio/corpse1.wav","null","audio-keyboard-response","352","2.1.0","526196","J=YES, F=NO","jw40s9dhgp","0","70","65","75","","","","","","","","","","","","","","","",""
"651","
          <p id=""word"" style=""font-size: 40px;"">glonet</p>
          <p style=""font-size: 16px;"">J = YES &nbsp;&nbsp;&nbsp; F = NO</p>
        ","f","html-keyboard-response","353","2.1.0","526849","J=YES, F=NO","jw40s9dhgp","0","70","65","75","","","","","","","","","glonet","corpse1","pseudoword","pseudoword","f","true","",""
"null","<p style=""font-size: 50px;"">+</p>","null","html-keyboard-response","354","2.1.0","527164","J=YES, F=NO","jw40s9dhgp","0","70","65","75","","","","","","","","","","","","","","","",""
"null","audio/beep-329314.mp3","null","audio-keyboard-response","355","2.1.0","528704","J=YES, F=NO","jw40s9dhgp","0","70","65","75","","","","","","","","","","","","","","","",""
"null","audio/van1.wav","null","audio-keyboard-response","356","2.1.0","529214","J=YES, F=NO","jw40s9dhgp","0","70","65","75","","","","","","","","","","","","","","","",""
"538","
          <p id=""word"" style=""font-size: 40px;"">push</p>
          <p style=""font-size: 16px;"">J = YES &nbsp;&nbsp;&nbsp; F = NO</p>
        ","j","html-keyboard-response","357","2.1.0","529752","J=YES, F=NO","jw40s9dhgp","0","70","65","75","","","","","","","","","push","van1","filler","filler","j","true","",""
"null","<p style=""font-size: 50px;"">+</p>","null","html-keyboard-response","358","2.1.0","530065","J=YES, F=NO","jw40s9dhgp","0","70","65","75","","","","","","","","","","","","","","","",""
"null","audio/beep-329314.mp3","null","audio-keyboard-response","359","2.1.0","531603","J=YES, F=NO","jw40s9dhgp","0","70","65","75","","","","","","","","","","","","","","","",""
"null","audio/trout1.wav","null","audio-keyboard-response","360","2.1.0","532234","J=YES, F=NO","jw40s9dhgp","0","70","65","75","","","","","","","","","","","","","","","",""
"546","
          <p id=""word"" style=""font-size: 40px;"">spimt</p>
          <p style=""font-size: 16px;"">J = YES &nbsp;&nbsp;&nbsp; F = NO</p>
        ","f","html-keyboard-response","361","2.1.0","532780","J=YES, F=NO","jw40s9dhgp","0","70","65","75","","","","","","","","","spimt","trout1","pseudoword","pseudoword","f","true","",""
"12113","<p>Excellent! You have finished block 3 of 8.</p>
                     <p>Feel free to take a 30 second break.</p>
                     <p>Press any key when you're ready to continue.</p>","f","html-keyboard-response","362","2.1.0","544894","J=YES, F=NO","jw40s9dhgp","0","70","65","75","","","","","","","","","","","","","","","",""
"594","<p>Starting main block 4 of 8. Press any key to continue.</p>","j","html-keyboard-response","363","2.1.0","545489","J=YES, F=NO","jw40s9dhgp","0","70","65","75","","","","","","","","","","","","","","","",""
"null","<p style=""font-size: 50px;"">+</p>","null","html-keyboard-response","364","2.1.0","545802","J=YES, F=NO","jw40s9dhgp","0","70","65","75","","","","","","","","","","","","","","","",""
"null","audio/beep-329314.mp3","null","audio-keyboard-response","365","2.1.0","547312","J=YES, F=NO","jw40s9dhgp","0","70","65","75","","","","","","","","","","","","","","","",""
"null","audio/survey1.wav","null","audio-keyboard-response","366","2.1.0","548102","J=YES, F=NO","jw40s9dhgp","0","70","65","75","","","","","","","","","","","","","","","",""
"620","
          <p id=""word"" style=""font-size: 40px;"">imploth</p>
          <p style=""font-size: 16px;"">J = YES &nbsp;&nbsp;&nbsp; F = NO</p>
        ","f","html-keyboard-response","367","2.1.0","548722","J=YES, F=NO","jw40s9dhgp","0","70","65","75","","","","","","","","","imploth","survey1","pseudoword","pseudoword","f","true","",""
"null","<p style=""font-size: 50px;"">+</p>","null","html-keyboard-response","368","2.1.0","549038","J=YES, F=NO","jw40s9dhgp","0","70","65","75","","","","","","","","","","","","","","","",""
"null","audio/beep-329314.mp3","null","audio-keyboard-response","369","2.1.0","550570","J=YES, F=NO","jw40s9dhgp","0","70","65","75","","","","","","","","","","","","","","","",""
"null","audio/trust.wav","null","audio-keyboard-response","370","2.1.0","551244","J=YES, F=NO","jw40s9dhgp","0","70","65","75","","","","","","","","","","","","","","","",""
"417","
          <p id=""word"" style=""font-size: 40px;"">swint</p>
          <p style=""font-size: 16px;"">J = YES &nbsp;&nbsp;&nbsp; F = NO</p>
        ","j","html-keyboard-response","371","2.1.0","551662","J=YES, F=NO","jw40s9dhgp","0","70","65","75","","","","","","","","","swint","trust","pseudoword","pseudoword","f","false","",""
"null","<p style=""font-size: 50px;"">+</p>","null","html-keyboard-response","372","2.1.0","551977","J=YES, F=NO","jw40s9dhgp","0","70","65","75","","","","","","","","","","","","","","","",""
"null","audio/beep-329314.mp3","null","audio-keyboard-response","373","2.1.0","553512","J=YES, F=NO","jw40s9dhgp","0","70","65","75","","","","","","","","","","","","","","","",""
"null","audio/breath.wav","null","audio-keyboard-response","374","2.1.0","554122","J=YES, F=NO","jw40s9dhgp","0","70","65","75","","","","","","","","","","","","","","","",""
"465","
          <p id=""word"" style=""font-size: 40px;"">pack</p>
          <p style=""font-size: 16px;"">J = YES &nbsp;&nbsp;&nbsp; F = NO</p>
        ","j","html-keyboard-response","375","2.1.0","554588","J=YES, F=NO","jw40s9dhgp","0","70","65","75","","","","","","","","","pack","breath","filler","filler","j","true","",""
"null","<p style=""font-size: 50px;"">+</p>","null","html-keyboard-response","376","2.1.0","554906","J=YES, F=NO","jw40s9dhgp","0","70","65","75","","","","","","","","","","","","","","","",""
"null","audio/beep-329314.mp3","null","audio-keyboard-response","377","2.1.0","556432","J=YES, F=NO","jw40s9dhgp","0","70","65","75","","","","","","","","","","","","","","","",""
"null","audio/tax1.wav","null","audio-keyboard-response","378","2.1.0","557102","J=YES, F=NO","jw40s9dhgp","0","70","65","75","","","","","","","","","","","","","","","",""
"572","
          <p id=""word"" style=""font-size: 40px;"">snate</p>
          <p style=""font-size: 16px;"">J = YES &nbsp;&nbsp;&nbsp; F = NO</p>
        ","f","html-keyboard-response","379","2.1.0","557675","J=YES, F=NO","jw40s9dhgp","0","70","65","75","","","","","","","","","snate","tax1","pseudoword","pseudoword","f","true","",""
"null","<p style=""font-size: 50px;"">+</p>","null","html-keyboard-response","380","2.1.0","557986","J=YES, F=NO","jw40s9dhgp","0","70","65","75","","","","","","","","","","","","","","","",""
"null","audio/beep-329314.mp3","null","audio-keyboard-response","381","2.1.0","559512","J=YES, F=NO","jw40s9dhgp","0","70","65","75","","","","","","","","","","","","","","","",""
"null","audio/client1.wav","null","audio-keyboard-response","382","2.1.0","560262","J=YES, F=NO","jw40s9dhgp","0","70","65","75","","","","","","","","","","","","","","","",""
"523","
          <p id=""word"" style=""font-size: 40px;"">droothe</p>
          <p style=""font-size: 16px;"">J = YES &nbsp;&nbsp;&nbsp; F = NO</p>
        ","f","html-keyboard-response","383","2.1.0","560787","J=YES, F=NO","jw40s9dhgp","0","70","65","75","","","","","","","","","droothe","client1","pseudoword","pseudoword","f","true","",""
"null","<p style=""font-size: 50px;"">+</p>","null","html-keyboard-response","384","2.1.0","561090","J=YES, F=NO","jw40s9dhgp","0","70","65","75","","","","","","","","","","","","","","","",""
"null","audio/beep-329314.mp3","null","audio-keyboard-response","385","2.1.0","562631","J=YES, F=NO","jw40s9dhgp","0","70","65","75","","","","","","","","","","","","","","","",""
"null","audio/voice.wav","null","audio-keyboard-response","386","2.1.0","563280","J=YES, F=NO","jw40s9dhgp","0","70","65","75","","","","","","","","","","","","","","","",""
"523","
          <p id=""word"" style=""font-size: 40px;"">grintle</p>
          <p style=""font-size: 16px;"">J = YES &nbsp;&nbsp;&nbsp; F = NO</p>
        ","f","html-keyboard-response","387","2.1.0","563803","J=YES, F=NO","jw40s9dhgp","0","70","65","75","","","","","","","","","grintle","voice","pseudoword","pseudoword","f","true","",""
"null","<p style=""font-size: 50px;"">+</p>","null","html-keyboard-response","388","2.1.0","564114","J=YES, F=NO","jw40s9dhgp","0","70","65","75","","","","","","","","","","","","","","","",""
"null","audio/beep-329314.mp3","null","audio-keyboard-response","389","2.1.0","565651","J=YES, F=NO","jw40s9dhgp","0","70","65","75","","","","","","","","","","","","","","","",""
"null","audio/empire.wav","null","audio-keyboard-response","390","2.1.0","566261","J=YES, F=NO","jw40s9dhgp","0","70","65","75","","","","","","","","","","","","","","","",""
"584","
          <p id=""word"" style=""font-size: 40px;"">bring</p>
          <p style=""font-size: 16px;"">J = YES &nbsp;&nbsp;&nbsp; F = NO</p>
