"rt","stimulus","response","trial_type","trial_index","plugin_version","time_elapsed","response_mapping","subject_id","list_index","lextale_score","lextale_word_score","lextale_nonword_score","success","timeout","failed_images","failed_audio","failed_video","task","isWord","isDummy","target","prime","prime_type","stimulus_type","correct_response","correct","section","question_order"
"35800","
    <div style=""max-width: 800px; margin: auto; text-align: left;"">
      <h2>STANFORD UNIVERSITY</h2>
      <h3>Research Information Sheet</h3>
      <p><strong>Protocol Director:</strong> Robert Hawkins<br>
      <strong>Protocol Title:</strong> Communication and social cognition in natural audiovisual contexts<br>
      <strong>IRB#:</strong> 77226</p>

      <p><strong>DESCRIPTION:</strong> You are invited to participate in a research study about language and communication. The purpose of the research is to understand how you interact and communicate with other people in naturalistic settings as a fluent English speaker. This research will be conducted through the Prolific platform, including participants from the US, UK, and Canada. If you decide to participate in this research, you will play a communication game in a group with one or more partners.</p>

      <p><strong>TIME INVOLVEMENT:</strong> The task will last the amount of time advertised on Prolific. You are free to withdraw from the study at any time.</p>

      <p><strong>RISKS AND BENEFITS:</strong> You may become frustrated if your partner gets distracted, or experience discomfort if other participants in your group send text that is inappropriate for the task. We ask you to please be respectful of other participants you might be interacting with to mitigate these risks. You may also experience discomfort when being asked to discuss or challenge emotionally salient political beliefs. Study data will be stored securely, in compliance with Stanford University standards, minimizing the risk of confidentiality breach. This study advances our scientific understanding of how people communicate and collaborate in naturalistic settings. This study may lead to further insights about what can go wrong in teamwork, suggest potential interventions to overcome these barriers, and help to develop assistive technologies that collaborate with human partners. We cannot and do not guarantee or promise that you will receive any benefits from this study.</p>

      <p><strong>PAYMENTS:</strong> You will receive payment in the amount advertised on Prolific. If you do not complete this study, you will receive prorated payment based on the time that you have spent. Additionally, you may be eligible for bonus payments as described in the instructions.</p>

      <p><strong>PARTICIPANT’S RIGHTS:</strong> If you have read this form and have decided to participate in this project, please understand your participation is voluntary and you have the right to withdraw your consent or discontinue participation at any time without penalty or loss of benefits to which you are otherwise entitled. The alternative is not to participate. You have the right to refuse to answer particular questions. The results of this research study may be presented at scientific or professional meetings or published in scientific journals. Your individual privacy will be maintained in all published and written data resulting from the study. In accordance with scientific norms, the data from this study may be used or shared with other researchers for future research (after removing personally identifying information) without additional consent from you.</p>

      <p><strong>CONTACT INFORMATION:</strong><br>
      Questions: If you have any questions, concerns or complaints about this research, its procedures, risks and benefits, contact the Protocol Director, Robert Hawkins (<a href=""mailto:rdhawkins@stanford.edu"">rdhawkins@stanford.edu</a>, 217-549-6923).<br>
      Independent Contact: If you are not satisfied with how this study is being conducted, or if you have any concerns, complaints, or general questions about the research or your rights as a participant, please contact the Stanford Institutional Review Board (IRB) to speak to someone independent of the research team at 650-723-2480 or toll free at 1-866-680-2906, or email at <a href=""mailto:irbnon-med@stanford.edu"">irbnon-med@stanford.edu</a>. You can also write to the Stanford IRB, Stanford University, 1705 El Camino Real, Palo Alto, CA 94306.</p>

      <p><strong>Please save or print a copy of this page for your records.</strong></p>
      <p>If you agree to participate in this research, click ""Continue"" below.</p>
    </div>
  ","0","html-button-response","0","2.1.0","35809","F=YES, J=NO","jwwyx54111","1","68","75","60","","","","","","","","","","","","","","","",""
"11579","
    <div style=""max-width: 800px; margin: auto; text-align: left;"">
      <h2>Welcome!</h2>
      <p>Thank you for participating in this study. The experiment consists of three parts:</p>
      <ol>
        <li>An English vocabulary test</li>
        <li>A main task in which you will hear and see words, and decide whether the written word is a real English word</li>
        <li>A brief survey about your background</li>
      </ol>
      <p>Each part will be introduced before it begins.</p>
      <p>Please make sure you are in a quiet environment and can hear audio clearly for the final task.</p>
      <p style=""margin-top: 2em;"">Press any key to begin.</p>
    </div>
  "," ","html-keyboard-response","1","2.1.0","47389","F=YES, J=NO","jwwyx54111","1","68","75","60","","","","","","","","","","","","","","","",""
"","","","preload","2","2.1.0","49521","F=YES, J=NO","jwwyx54111","1","68","75","60","true","false","[]","[]","[]","","","","","","","","","","",""
"415","
    <div style=""max-width: 800px; margin: auto; text-align: left;"">
      <h2>Part 1: Vocabulary Test</h2>
      <p>You will now complete the first part of the study: a short English vocabulary test.</p>
      <p>This test is called <strong>LexTALE</strong> and helps us get a general sense of your English proficiency.</p>
      <p style=""margin-top: 2em;"">Press any key to continue.</p>
    </div>
  ","AudioVolumeUp","html-keyboard-response","3","2.1.0","49936","F=YES, J=NO","jwwyx54111","1","68","75","60","","","","","","","","","","","","","","","",""
"8682","
    <div style=""max-width: 800px; margin: auto; text-align: left;"">
      <h2>LexTALE Vocabulary Test</h2>
      <p>In this test, you will see a series of letter strings—one at a time.</p>
      <p>Your task is to decide whether each string is a real English word.</p>
      <p><strong>Key responses:</strong></p>
      <ul>
        <li><strong>F</strong> = YES (real English word)</li>
        <li><strong>J</strong> = NO (not a real English word)</li>
      </ul>
      <p>There is no time limit, but please try to be accurate.</p>
      <p style=""margin-top: 2em;"">Press any key to begin.</p>
    </div>
  "," ","html-keyboard-response","4","2.1.0","58619","F=YES, J=NO","jwwyx54111","1","68","75","60","","","","","","","","","","","","","","","",""
"1855","
  <p style=""font-size: 40px;"">platery</p>
  <p style=""font-size: 16px;"">F = YES &nbsp;&nbsp;&nbsp; J = NO</p>
","f","html-keyboard-response","5","2.1.0","60475","F=YES, J=NO","jwwyx54111","1","68","75","60","","","","","","lextale","false","true","","","","","","","",""
"1938","
  <p style=""font-size: 40px;"">denial</p>
  <p style=""font-size: 16px;"">F = YES &nbsp;&nbsp;&nbsp; J = NO</p>
","f","html-keyboard-response","6","2.1.0","62414","F=YES, J=NO","jwwyx54111","1","68","75","60","","","","","","lextale","true","true","","","","","","","",""
"1003","
  <p style=""font-size: 40px;"">marrit</p>
  <p style=""font-size: 16px;"">F = YES &nbsp;&nbsp;&nbsp; J = NO</p>
","j","html-keyboard-response","7","2.1.0","63418","F=YES, J=NO","jwwyx54111","1","68","75","60","","","","","","lextale","false","true","","","","","","","",""
"2220","
  <p style=""font-size: 40px;"">bottle</p>
  <p style=""font-size: 16px;"">F = YES &nbsp;&nbsp;&nbsp; J = NO</p>
","f","html-keyboard-response","8","2.1.0","65640","F=YES, J=NO","jwwyx54111","1","68","75","60","","","","","","lextale","true","false","","","","","","","",""
"1111","
  <p style=""font-size: 40px;"">birst</p>
  <p style=""font-size: 16px;"">F = YES &nbsp;&nbsp;&nbsp; J = NO</p>
","j","html-keyboard-response","9","2.1.0","66751","F=YES, J=NO","jwwyx54111","1","68","75","60","","","","","","lextale","false","false","","","","","","","",""
"748","
  <p style=""font-size: 40px;"">envy</p>
  <p style=""font-size: 16px;"">F = YES &nbsp;&nbsp;&nbsp; J = NO</p>
","f","html-keyboard-response","10","2.1.0","67500","F=YES, J=NO","jwwyx54111","1","68","75","60","","","","","","lextale","true","false","","","","","","","",""
"870","
  <p style=""font-size: 40px;"">brang</p>
  <p style=""font-size: 16px;"">F = YES &nbsp;&nbsp;&nbsp; J = NO</p>
","f","html-keyboard-response","11","2.1.0","68371","F=YES, J=NO","jwwyx54111","1","68","75","60","","","","","","lextale","false","false","","","","","","","",""
"1066","
  <p style=""font-size: 40px;"">huge</p>
  <p style=""font-size: 16px;"">F = YES &nbsp;&nbsp;&nbsp; J = NO</p>
","f","html-keyboard-response","12","2.1.0","69438","F=YES, J=NO","jwwyx54111","1","68","75","60","","","","","","lextale","true","false","","","","","","","",""
"997","
  <p style=""font-size: 40px;"">plove</p>
  <p style=""font-size: 16px;"">F = YES &nbsp;&nbsp;&nbsp; J = NO</p>
","j","html-keyboard-response","13","2.1.0","70435","F=YES, J=NO","jwwyx54111","1","68","75","60","","","","","","lextale","false","false","","","","","","","",""
"852","
  <p style=""font-size: 40px;"">border</p>
  <p style=""font-size: 16px;"">F = YES &nbsp;&nbsp;&nbsp; J = NO</p>
","f","html-keyboard-response","14","2.1.0","71287","F=YES, J=NO","jwwyx54111","1","68","75","60","","","","","","lextale","true","false","","","","","","","",""
"1334","
  <p style=""font-size: 40px;"">flimsy</p>
  <p style=""font-size: 16px;"">F = YES &nbsp;&nbsp;&nbsp; J = NO</p>
","f","html-keyboard-response","15","2.1.0","72622","F=YES, J=NO","jwwyx54111","1","68","75","60","","","","","","lextale","true","false","","","","","","","",""
"774","
  <p style=""font-size: 40px;"">drain</p>
  <p style=""font-size: 16px;"">F = YES &nbsp;&nbsp;&nbsp; J = NO</p>
","f","html-keyboard-response","16","2.1.0","73396","F=YES, J=NO","jwwyx54111","1","68","75","60","","","","","","lextale","true","false","","","","","","","",""
"2906","
  <p style=""font-size: 40px;"">twindle</p>
  <p style=""font-size: 16px;"">F = YES &nbsp;&nbsp;&nbsp; J = NO</p>
","f","html-keyboard-response","17","2.1.0","76302","F=YES, J=NO","jwwyx54111","1","68","75","60","","","","","","lextale","false","false","","","","","","","",""
"1714","
  <p style=""font-size: 40px;"">propose</p>
  <p style=""font-size: 16px;"">F = YES &nbsp;&nbsp;&nbsp; J = NO</p>
","f","html-keyboard-response","18","2.1.0","78017","F=YES, J=NO","jwwyx54111","1","68","75","60","","","","","","lextale","true","false","","","","","","","",""
"1525","
  <p style=""font-size: 40px;"">forlay</p>
  <p style=""font-size: 16px;"">F = YES &nbsp;&nbsp;&nbsp; J = NO</p>
","j","html-keyboard-response","19","2.1.0","79542","F=YES, J=NO","jwwyx54111","1","68","75","60","","","","","","lextale","false","false","","","","","","","",""
"1225","
  <p style=""font-size: 40px;"">tenant</p>
  <p style=""font-size: 16px;"">F = YES &nbsp;&nbsp;&nbsp; J = NO</p>
","f","html-keyboard-response","20","2.1.0","80768","F=YES, J=NO","jwwyx54111","1","68","75","60","","","","","","lextale","true","false","","","","","","","",""
"868","
  <p style=""font-size: 40px;"">strain</p>
  <p style=""font-size: 16px;"">F = YES &nbsp;&nbsp;&nbsp; J = NO</p>
","f","html-keyboard-response","21","2.1.0","81637","F=YES, J=NO","jwwyx54111","1","68","75","60","","","","","","lextale","true","false","","","","","","","",""
"925","
  <p style=""font-size: 40px;"">holster</p>
  <p style=""font-size: 16px;"">F = YES &nbsp;&nbsp;&nbsp; J = NO</p>
","j","html-keyboard-response","22","2.1.0","82563","F=YES, J=NO","jwwyx54111","1","68","75","60","","","","","","lextale","true","false","","","","","","","",""
"3143","
  <p style=""font-size: 40px;"">hinder</p>
  <p style=""font-size: 16px;"">F = YES &nbsp;&nbsp;&nbsp; J = NO</p>
","j","html-keyboard-response","23","2.1.0","85706","F=YES, J=NO","jwwyx54111","1","68","75","60","","","","","","lextale","true","false","","","","","","","",""
"1088","
  <p style=""font-size: 40px;"">swindle</p>
  <p style=""font-size: 16px;"">F = YES &nbsp;&nbsp;&nbsp; J = NO</p>
","f","html-keyboard-response","24","2.1.0","86795","F=YES, J=NO","jwwyx54111","1","68","75","60","","","","","","lextale","true","false","","","","","","","",""
"1287","
  <p style=""font-size: 40px;"">nuder</p>
  <p style=""font-size: 16px;"">F = YES &nbsp;&nbsp;&nbsp; J = NO</p>
","j","html-keyboard-response","25","2.1.0","88083","F=YES, J=NO","jwwyx54111","1","68","75","60","","","","","","lextale","false","false","","","","","","","",""
"622","
  <p style=""font-size: 40px;"">pillow</p>
  <p style=""font-size: 16px;"">F = YES &nbsp;&nbsp;&nbsp; J = NO</p>
","f","html-keyboard-response","26","2.1.0","88706","F=YES, J=NO","jwwyx54111","1","68","75","60","","","","","","lextale","true","false","","","","","","","",""
"1982","
  <p style=""font-size: 40px;"">shumble</p>
  <p style=""font-size: 16px;"">F = YES &nbsp;&nbsp;&nbsp; J = NO</p>
","j","html-keyboard-response","27","2.1.0","90690","F=YES, J=NO","jwwyx54111","1","68","75","60","","","","","","lextale","false","false","","","","","","","",""
"938","
  <p style=""font-size: 40px;"">thirst</p>
  <p style=""font-size: 16px;"">F = YES &nbsp;&nbsp;&nbsp; J = NO</p>
","f","html-keyboard-response","28","2.1.0","91628","F=YES, J=NO","jwwyx54111","1","68","75","60","","","","","","lextale","true","false","","","","","","","",""
"3361","
  <p style=""font-size: 40px;"">unsail</p>
  <p style=""font-size: 16px;"">F = YES &nbsp;&nbsp;&nbsp; J = NO</p>
","f","html-keyboard-response","29","2.1.0","94989","F=YES, J=NO","jwwyx54111","1","68","75","60","","","","","","lextale","false","false","","","","","","","",""
"1122","
  <p style=""font-size: 40px;"">rifle</p>
  <p style=""font-size: 16px;"">F = YES &nbsp;&nbsp;&nbsp; J = NO</p>
","f","html-keyboard-response","30","2.1.0","96113","F=YES, J=NO","jwwyx54111","1","68","75","60","","","","","","lextale","true","false","","","","","","","",""
"959","
  <p style=""font-size: 40px;"">mush</p>
  <p style=""font-size: 16px;"">F = YES &nbsp;&nbsp;&nbsp; J = NO</p>
","f","html-keyboard-response","31","2.1.0","97073","F=YES, J=NO","jwwyx54111","1","68","75","60","","","","","","lextale","false","false","","","","","","","",""
"984","
  <p style=""font-size: 40px;"">drench</p>
  <p style=""font-size: 16px;"">F = YES &nbsp;&nbsp;&nbsp; J = NO</p>
","f","html-keyboard-response","32","2.1.0","98058","F=YES, J=NO","jwwyx54111","1","68","75","60","","","","","","lextale","true","false","","","","","","","",""
"988","
  <p style=""font-size: 40px;"">snirt</p>
  <p style=""font-size: 16px;"">F = YES &nbsp;&nbsp;&nbsp; J = NO</p>
","j","html-keyboard-response","33","2.1.0","99046","F=YES, J=NO","jwwyx54111","1","68","75","60","","","","","","lextale","false","false","","","","","","","",""
"927","
  <p style=""font-size: 40px;"">bitter</p>
  <p style=""font-size: 16px;"">F = YES &nbsp;&nbsp;&nbsp; J = NO</p>
","f","html-keyboard-response","34","2.1.0","99974","F=YES, J=NO","jwwyx54111","1","68","75","60","","","","","","lextale","true","false","","","","","","","",""
"1034","
  <p style=""font-size: 40px;"">pliff</p>
  <p style=""font-size: 16px;"">F = YES &nbsp;&nbsp;&nbsp; J = NO</p>
","j","html-keyboard-response","35","2.1.0","101009","F=YES, J=NO","jwwyx54111","1","68","75","60","","","","","","lextale","false","false","","","","","","","",""
"682","
  <p style=""font-size: 40px;"">tablet</p>
  <p style=""font-size: 16px;"">F = YES &nbsp;&nbsp;&nbsp; J = NO</p>
","f","html-keyboard-response","36","2.1.0","101692","F=YES, J=NO","jwwyx54111","1","68","75","60","","","","","","lextale","true","false","","","","","","","",""
"785","
  <p style=""font-size: 40px;"">glimmer</p>
  <p style=""font-size: 16px;"">F = YES &nbsp;&nbsp;&nbsp; J = NO</p>
","f","html-keyboard-response","37","2.1.0","102477","F=YES, J=NO","jwwyx54111","1","68","75","60","","","","","","lextale","true","false","","","","","","","",""
"2300","
  <p style=""font-size: 40px;"">slink</p>
  <p style=""font-size: 16px;"">F = YES &nbsp;&nbsp;&nbsp; J = NO</p>
","f","html-keyboard-response","38","2.1.0","104778","F=YES, J=NO","jwwyx54111","1","68","75","60","","","","","","lextale","true","false","","","","","","","",""
"682","
  <p style=""font-size: 40px;"">clever</p>
  <p style=""font-size: 16px;"">F = YES &nbsp;&nbsp;&nbsp; J = NO</p>
","f","html-keyboard-response","39","2.1.0","105461","F=YES, J=NO","jwwyx54111","1","68","75","60","","","","","","lextale","true","false","","","","","","","",""
"1249","
  <p style=""font-size: 40px;"">grum</p>
  <p style=""font-size: 16px;"">F = YES &nbsp;&nbsp;&nbsp; J = NO</p>
","j","html-keyboard-response","40","2.1.0","106712","F=YES, J=NO","jwwyx54111","1","68","75","60","","","","","","lextale","false","false","","","","","","","",""
"611","
  <p style=""font-size: 40px;"">string</p>
  <p style=""font-size: 16px;"">F = YES &nbsp;&nbsp;&nbsp; J = NO</p>
","f","html-keyboard-response","41","2.1.0","107324","F=YES, J=NO","jwwyx54111","1","68","75","60","","","","","","lextale","true","false","","","","","","","",""
"1402","
  <p style=""font-size: 40px;"">plim</p>
  <p style=""font-size: 16px;"">F = YES &nbsp;&nbsp;&nbsp; J = NO</p>
","j","html-keyboard-response","42","2.1.0","108727","F=YES, J=NO","jwwyx54111","1","68","75","60","","","","","","lextale","false","false","","","","","","","",""
"719","
  <p style=""font-size: 40px;"">cable</p>
  <p style=""font-size: 16px;"">F = YES &nbsp;&nbsp;&nbsp; J = NO</p>
","f","html-keyboard-response","43","2.1.0","109446","F=YES, J=NO","jwwyx54111","1","68","75","60","","","","","","lextale","true","false","","","","","","","",""
"1566","
  <p style=""font-size: 40px;"">shrivel</p>
  <p style=""font-size: 16px;"">F = YES &nbsp;&nbsp;&nbsp; J = NO</p>
","j","html-keyboard-response","44","2.1.0","111013","F=YES, J=NO","jwwyx54111","1","68","75","60","","","","","","lextale","true","false","","","","","","","",""
"1385","
  <p style=""font-size: 40px;"">tarnish</p>
  <p style=""font-size: 16px;"">F = YES &nbsp;&nbsp;&nbsp; J = NO</p>
","f","html-keyboard-response","45","2.1.0","112398","F=YES, J=NO","jwwyx54111","1","68","75","60","","","","","","lextale","true","false","","","","","","","",""
"909","
  <p style=""font-size: 40px;"">blim</p>
  <p style=""font-size: 16px;"">F = YES &nbsp;&nbsp;&nbsp; J = NO</p>
","j","html-keyboard-response","46","2.1.0","113308","F=YES, J=NO","jwwyx54111","1","68","75","60","","","","","","lextale","false","false","","","","","","","",""
"3000","
  <p style=""font-size: 40px;"">stifle</p>
  <p style=""font-size: 16px;"">F = YES &nbsp;&nbsp;&nbsp; J = NO</p>
","j","html-keyboard-response","47","2.1.0","116309","F=YES, J=NO","jwwyx54111","1","68","75","60","","","","","","lextale","true","false","","","","","","","",""
"1218","
  <p style=""font-size: 40px;"">bint</p>
  <p style=""font-size: 16px;"">F = YES &nbsp;&nbsp;&nbsp; J = NO</p>
","j","html-keyboard-response","48","2.1.0","117527","F=YES, J=NO","jwwyx54111","1","68","75","60","","","","","","lextale","false","false","","","","","","","",""
"797","
  <p style=""font-size: 40px;"">purple</p>
  <p style=""font-size: 16px;"">F = YES &nbsp;&nbsp;&nbsp; J = NO</p>
","f","html-keyboard-response","49","2.1.0","118325","F=YES, J=NO","jwwyx54111","1","68","75","60","","","","","","lextale","true","false","","","","","","","",""
"2890","
  <p style=""font-size: 40px;"">wriggle</p>
  <p style=""font-size: 16px;"">F = YES &nbsp;&nbsp;&nbsp; J = NO</p>
","f","html-keyboard-response","50","2.1.0","121217","F=YES, J=NO","jwwyx54111","1","68","75","60","","","","","","lextale","true","false","","","","","","","",""
"937","
  <p style=""font-size: 40px;"">mangle</p>
  <p style=""font-size: 16px;"">F = YES &nbsp;&nbsp;&nbsp; J = NO</p>
","f","html-keyboard-response","51","2.1.0","122155","F=YES, J=NO","jwwyx54111","1","68","75","60","","","","","","lextale","true","false","","","","","","","",""
"1141","
  <p style=""font-size: 40px;"">shramp</p>
  <p style=""font-size: 16px;"">F = YES &nbsp;&nbsp;&nbsp; J = NO</p>
","f","html-keyboard-response","52","2.1.0","123297","F=YES, J=NO","jwwyx54111","1","68","75","60","","","","","","lextale","false","false","","","","","","","",""
"616","
  <p style=""font-size: 40px;"">flirt</p>
  <p style=""font-size: 16px;"">F = YES &nbsp;&nbsp;&nbsp; J = NO</p>
","f","html-keyboard-response","53","2.1.0","123913","F=YES, J=NO","jwwyx54111","1","68","75","60","","","","","","lextale","true","false","","","","","","","",""
"1759","
  <p style=""font-size: 40px;"">frip</p>
  <p style=""font-size: 16px;"">F = YES &nbsp;&nbsp;&nbsp; J = NO</p>
","j","html-keyboard-response","54","2.1.0","125674","F=YES, J=NO","jwwyx54111","1","68","75","60","","","","","","lextale","false","false","","","","","","","",""
"638","
  <p style=""font-size: 40px;"">tangle</p>
  <p style=""font-size: 16px;"">F = YES &nbsp;&nbsp;&nbsp; J = NO</p>
","f","html-keyboard-response","55","2.1.0","126313","F=YES, J=NO","jwwyx54111","1","68","75","60","","","","","","lextale","true","false","","","","","","","",""
"672","
  <p style=""font-size: 40px;"">crumble</p>
  <p style=""font-size: 16px;"">F = YES &nbsp;&nbsp;&nbsp; J = NO</p>
","f","html-keyboard-response","56","2.1.0","126985","F=YES, J=NO","jwwyx54111","1","68","75","60","","","","","","lextale","true","false","","","","","","","",""
"1130","
  <p style=""font-size: 40px;"">wrinkle</p>
  <p style=""font-size: 16px;"">F = YES &nbsp;&nbsp;&nbsp; J = NO</p>
","f","html-keyboard-response","57","2.1.0","128116","F=YES, J=NO","jwwyx54111","1","68","75","60","","","","","","lextale","true","false","","","","","","","",""
"1773","
  <p style=""font-size: 40px;"">slumb</p>
  <p style=""font-size: 16px;"">F = YES &nbsp;&nbsp;&nbsp; J = NO</p>
","f","html-keyboard-response","58","2.1.0","129889","F=YES, J=NO","jwwyx54111","1","68","75","60","","","","","","lextale","false","false","","","","","","","",""
"606","
  <p style=""font-size: 40px;"">jungle</p>
  <p style=""font-size: 16px;"">F = YES &nbsp;&nbsp;&nbsp; J = NO</p>
","f","html-keyboard-response","59","2.1.0","130496","F=YES, J=NO","jwwyx54111","1","68","75","60","","","","","","lextale","true","false","","","","","","","",""
"2147","
  <p style=""font-size: 40px;"">frolick</p>
  <p style=""font-size: 16px;"">F = YES &nbsp;&nbsp;&nbsp; J = NO</p>
","f","html-keyboard-response","60","2.1.0","132644","F=YES, J=NO","jwwyx54111","1","68","75","60","","","","","","lextale","false","false","","","","","","","",""
"4050","
      <h2>LexTALE Test Completed</h2>
      <p>Your LexTALE vocabulary score is: <strong>68%</strong></p>
      <p>Press any key to continue.</p>
    "," ","html-keyboard-response","61","2.1.0","136697","F=YES, J=NO","jwwyx54111","1","68","75","60","","","","","","","","","","","","","","","",""
"4860","
    <div style=""max-width: 800px; margin: auto; text-align: left;"">
      <h2>Break Time</h2>
      <p>You have completed the first part of the study.</p>
      <p>You may take a short <strong>30-second break</strong> before continuing.</p>
      <p>When you’re ready, press any key to continue to the final task.</p>
    </div>
  "," ","html-keyboard-response","62","2.1.0","141557","F=YES, J=NO","jwwyx54111","1","68","75","60","","","","","","","","","","","","","","","",""
"20997","
    <div style=""max-width: 800px; margin: auto; text-align: left;"">
      <h2>Part 2: Lexical Decision Task</h2>
      <p>You will now begin the second part of the study.</p>
      <p>Each trial will follow this sequence:</p>
      <ul>
        <li>A fixation cross (+) appears at the center of the screen.</li>
        <li>You will hear a short beep followed by a spoken word.</li>
        <li>A written word will appear briefly on the screen.</li>
      </ul>
      <p>Your task is to judge whether the <strong>written word</strong> is a real English word.</p>
      <p style=""margin-top: 1em;""><strong>Key responses:</strong></p>
      <ul>
        <li><strong>F</strong> = YES (real English word)</li>
        <li><strong>J</strong> = NO (not a real English word)</li>
      </ul>
      <p>Please respond as quickly and accurately as you can.</p>
      <p style=""margin-top: 2em;"">Press any key to continue.</p>
    </div>
  "," ","html-keyboard-response","63","2.1.0","162555","F=YES, J=NO","jwwyx54111","1","68","75","60","","","","","","","","","","","","","","","",""
"3758","
    <div style=""max-width: 800px; margin: auto; text-align: left;"">
      <h2>Before You Begin</h2>
      <p>Make sure your sound is turned on.</p>
      <p>You will hear audio during each trial, but your decision should be based only on the <strong>written word</strong> you see on the screen.</p>
      <p><strong>Reminder:</strong></p>
      <ul>
        <li><strong>F</strong> = YES (real English word)</li>
        <li><strong>J</strong> = NO (not a real English word)</li>
      </ul>
      <p style=""margin-top: 2em;"">Press any key when you are ready to begin.</p>
    </div>
  "," ","html-keyboard-response","64","2.1.0","166314","F=YES, J=NO","jwwyx54111","1","68","75","60","","","","","","","","","","","","","","","",""
"5505","
    <div style=""max-width: 800px; margin: auto; text-align: left;"">
      <h2>Part 2: Practice Trials</h2>
      <p>You will now complete a few <strong>practice trials</strong> to get familiar with the task.</p>
      <p>These trials are <strong>not scored</strong> and are only to help you get used to the format.</p>
      <p style=""margin-top: 2em;"">Press any key to begin.</p>
    </div>
  "," ","html-keyboard-response","65","2.1.0","171820","F=YES, J=NO","jwwyx54111","1","68","75","60","","","","","","","","","","","","","","","",""
"4426","<p>Starting practice block 1 of 2. Press any key to continue.</p>","f","html-keyboard-response","66","2.1.0","176247","F=YES, J=NO","jwwyx54111","1","68","75","60","","","","","","","","","","","","","","","",""
"null","<p style=""font-size: 50px;"">+</p>","null","html-keyboard-response","67","2.1.0","176560","F=YES, J=NO","jwwyx54111","1","68","75","60","","","","","","","","","","","","","","","",""
"null","audio/beep-329314.mp3","null","audio-keyboard-response","68","2.1.0","178679","F=YES, J=NO","jwwyx54111","1","68","75","60","","","","","","","","","","","","","","","",""
"null","audio/birth1.wav","null","audio-keyboard-response","69","2.1.0","179310","F=YES, J=NO","jwwyx54111","1","68","75","60","","","","","","","","","","","","","","","",""
"898","
          <p id=""word"" style=""font-size: 40px;"">peel</p>
          <p style=""font-size: 16px;"">F = YES &nbsp;&nbsp;&nbsp; J = NO</p>
        ","j","html-keyboard-response","70","2.1.0","180209","F=YES, J=NO","jwwyx54111","1","68","75","60","","","","","","","","","peel","birth1","filler","filler","f","false","",""
"null","<p style=""font-size: 50px;"">+</p>","null","html-keyboard-response","71","2.1.0","180518","F=YES, J=NO","jwwyx54111","1","68","75","60","","","","","","","","","","","","","","","",""
"null","audio/beep-329314.mp3","null","audio-keyboard-response","72","2.1.0","182041","F=YES, J=NO","jwwyx54111","1","68","75","60","","","","","","","","","","","","","","","",""
"null","audio/account1.wav","null","audio-keyboard-response","73","2.1.0","182731","F=YES, J=NO","jwwyx54111","1","68","75","60","","","","","","","","","","","","","","","",""
"573","
          <p id=""word"" style=""font-size: 40px;"">paint</p>
          <p style=""font-size: 16px;"">F = YES &nbsp;&nbsp;&nbsp; J = NO</p>
        ","f","html-keyboard-response","74","2.1.0","183306","F=YES, J=NO","jwwyx54111","1","68","75","60","","","","","","","","","paint","account1","filler","filler","f","true","",""
"null","<p style=""font-size: 50px;"">+</p>","null","html-keyboard-response","75","2.1.0","183612","F=YES, J=NO","jwwyx54111","1","68","75","60","","","","","","","","","","","","","","","",""
"null","audio/beep-329314.mp3","null","audio-keyboard-response","76","2.1.0","185140","F=YES, J=NO","jwwyx54111","1","68","75","60","","","","","","","","","","","","","","","",""
"null","audio/neck.wav","null","audio-keyboard-response","77","2.1.0","185691","F=YES, J=NO","jwwyx54111","1","68","75","60","","","","","","","","","","","","","","","",""
"790","
          <p id=""word"" style=""font-size: 40px;"">werling</p>
          <p style=""font-size: 16px;"">F = YES &nbsp;&nbsp;&nbsp; J = NO</p>
        ","f","html-keyboard-response","78","2.1.0","186482","F=YES, J=NO","jwwyx54111","1","68","75","60","","","","","","","","","werling","neck","pseudoword","pseudoword","j","false","",""
"null","<p style=""font-size: 50px;"">+</p>","null","html-keyboard-response","79","2.1.0","186789","F=YES, J=NO","jwwyx54111","1","68","75","60","","","","","","","","","","","","","","","",""
"null","audio/beep-329314.mp3","null","audio-keyboard-response","80","2.1.0","188320","F=YES, J=NO","jwwyx54111","1","68","75","60","","","","","","","","","","","","","","","",""
"null","audio/kettle1.wav","null","audio-keyboard-response","81","2.1.0","188789","F=YES, J=NO","jwwyx54111","1","68","75","60","","","","","","","","","","","","","","","",""
"613","
          <p id=""word"" style=""font-size: 40px;"">wrap</p>
          <p style=""font-size: 16px;"">F = YES &nbsp;&nbsp;&nbsp; J = NO</p>
        ","f","html-keyboard-response","82","2.1.0","189402","F=YES, J=NO","jwwyx54111","1","68","75","60","","","","","","","","","wrap","kettle1","filler","filler","f","true","",""
"null","<p style=""font-size: 50px;"">+</p>","null","html-keyboard-response","83","2.1.0","189708","F=YES, J=NO","jwwyx54111","1","68","75","60","","","","","","","","","","","","","","","",""
"null","audio/beep-329314.mp3","null","audio-keyboard-response","84","2.1.0","191239","F=YES, J=NO","jwwyx54111","1","68","75","60","","","","","","","","","","","","","","","",""
"null","audio/bishop1.wav","null","audio-keyboard-response","85","2.1.0","191929","F=YES, J=NO","jwwyx54111","1","68","75","60","","","","","","","","","","","","","","","",""
"527","
          <p id=""word"" style=""font-size: 40px;"">play</p>
          <p style=""font-size: 16px;"">F = YES &nbsp;&nbsp;&nbsp; J = NO</p>
        ","f","html-keyboard-response","86","2.1.0","192457","F=YES, J=NO","jwwyx54111","1","68","75","60","","","","","","","","","play","bishop1","filler","filler","f","true","",""
"null","<p style=""font-size: 50px;"">+</p>","null","html-keyboard-response","87","2.1.0","192770","F=YES, J=NO","jwwyx54111","1","68","75","60","","","","","","","","","","","","","","","",""
"null","audio/beep-329314.mp3","null","audio-keyboard-response","88","2.1.0","194301","F=YES, J=NO","jwwyx54111","1","68","75","60","","","","","","","","","","","","","","","",""
"null","audio/cinema1.wav","null","audio-keyboard-response","89","2.1.0","194910","F=YES, J=NO","jwwyx54111","1","68","75","60","","","","","","","","","","","","","","","",""
"789","
          <p id=""word"" style=""font-size: 40px;"">murple</p>
          <p style=""font-size: 16px;"">F = YES &nbsp;&nbsp;&nbsp; J = NO</p>
        ","j","html-keyboard-response","90","2.1.0","195699","F=YES, J=NO","jwwyx54111","1","68","75","60","","","","","","","","","murple","cinema1","pseudoword","pseudoword","j","true","",""
"null","<p style=""font-size: 50px;"">+</p>","null","html-keyboard-response","91","2.1.0","196007","F=YES, J=NO","jwwyx54111","1","68","75","60","","","","","","","","","","","","","","","",""
"null","audio/beep-329314.mp3","null","audio-keyboard-response","92","2.1.0","197540","F=YES, J=NO","jwwyx54111","1","68","75","60","","","","","","","","","","","","","","","",""
"null","audio/test1.wav","null","audio-keyboard-response","93","2.1.0","198171","F=YES, J=NO","jwwyx54111","1","68","75","60","","","","","","","","","","","","","","","",""
"670","
          <p id=""word"" style=""font-size: 40px;"">twopch</p>
          <p style=""font-size: 16px;"">F = YES &nbsp;&nbsp;&nbsp; J = NO</p>
        ","j","html-keyboard-response","94","2.1.0","198842","F=YES, J=NO","jwwyx54111","1","68","75","60","","","","","","","","","twopch","test1","pseudoword","pseudoword","j","true","",""
"null","<p style=""font-size: 50px;"">+</p>","null","html-keyboard-response","95","2.1.0","199152","F=YES, J=NO","jwwyx54111","1","68","75","60","","","","","","","","","","","","","","","",""
"null","audio/beep-329314.mp3","null","audio-keyboard-response","96","2.1.0","200681","F=YES, J=NO","jwwyx54111","1","68","75","60","","","","","","","","","","","","","","","",""
"null","audio/key1.wav","null","audio-keyboard-response","97","2.1.0","201050","F=YES, J=NO","jwwyx54111","1","68","75","60","","","","","","","","","","","","","","","",""
"805","
          <p id=""word"" style=""font-size: 40px;"">sminsh</p>
          <p style=""font-size: 16px;"">F = YES &nbsp;&nbsp;&nbsp; J = NO</p>
        ","j","html-keyboard-response","98","2.1.0","201855","F=YES, J=NO","jwwyx54111","1","68","75","60","","","","","","","","","sminsh","key1","pseudoword","pseudoword","j","true","",""
"null","<p style=""font-size: 50px;"">+</p>","null","html-keyboard-response","99","2.1.0","202160","F=YES, J=NO","jwwyx54111","1","68","75","60","","","","","","","","","","","","","","","",""
"null","audio/beep-329314.mp3","null","audio-keyboard-response","100","2.1.0","203702","F=YES, J=NO","jwwyx54111","1","68","75","60","","","","","","","","","","","","","","","",""
"null","audio/cancer1.wav","null","audio-keyboard-response","101","2.1.0","204250","F=YES, J=NO","jwwyx54111","1","68","75","60","","","","","","","","","","","","","","","",""
"532","
          <p id=""word"" style=""font-size: 40px;"">draw</p>
          <p style=""font-size: 16px;"">F = YES &nbsp;&nbsp;&nbsp; J = NO</p>
        ","f","html-keyboard-response","102","2.1.0","204783","F=YES, J=NO","jwwyx54111","1","68","75","60","","","","","","","","","draw","cancer1","filler","filler","f","true","",""
"null","<p style=""font-size: 50px;"">+</p>","null","html-keyboard-response","103","2.1.0","205093","F=YES, J=NO","jwwyx54111","1","68","75","60","","","","","","","","","","","","","","","",""
"null","audio/beep-329314.mp3","null","audio-keyboard-response","104","2.1.0","206620","F=YES, J=NO","jwwyx54111","1","68","75","60","","","","","","","","","","","","","","","",""
"null","audio/camera1.wav","null","audio-keyboard-response","105","2.1.0","207111","F=YES, J=NO","jwwyx54111","1","68","75","60","","","","","","","","","","","","","","","",""
"592","
          <p id=""word"" style=""font-size: 40px;"">stir</p>
          <p style=""font-size: 16px;"">F = YES &nbsp;&nbsp;&nbsp; J = NO</p>
        ","f","html-keyboard-response","106","2.1.0","207703","F=YES, J=NO","jwwyx54111","1","68","75","60","","","","","","","","","stir","camera1","filler","filler","f","true","",""
"null","<p style=""font-size: 50px;"">+</p>","null","html-keyboard-response","107","2.1.0","208005","F=YES, J=NO","jwwyx54111","1","68","75","60","","","","","","","","","","","","","","","",""
"null","audio/beep-329314.mp3","null","audio-keyboard-response","108","2.1.0","209539","F=YES, J=NO","jwwyx54111","1","68","75","60","","","","","","","","","","","","","","","",""
"null","audio/sugar1.wav","null","audio-keyboard-response","109","2.1.0","210131","F=YES, J=NO","jwwyx54111","1","68","75","60","","","","","","","","","","","","","","","",""
"665","
          <p id=""word"" style=""font-size: 40px;"">glung</p>
          <p style=""font-size: 16px;"">F = YES &nbsp;&nbsp;&nbsp; J = NO</p>
        ","j","html-keyboard-response","110","2.1.0","210796","F=YES, J=NO","jwwyx54111","1","68","75","60","","","","","","","","","glung","sugar1","pseudoword","pseudoword","j","true","",""
"null","<p style=""font-size: 50px;"">+</p>","null","html-keyboard-response","111","2.1.0","211107","F=YES, J=NO","jwwyx54111","1","68","75","60","","","","","","","","","","","","","","","",""
"null","audio/beep-329314.mp3","null","audio-keyboard-response","112","2.1.0","212640","F=YES, J=NO","jwwyx54111","1","68","75","60","","","","","","","","","","","","","","","",""
"null","audio/dollar.wav","null","audio-keyboard-response","113","2.1.0","213090","F=YES, J=NO","jwwyx54111","1","68","75","60","","","","","","","","","","","","","","","",""
"886","
          <p id=""word"" style=""font-size: 40px;"">gliptism</p>
          <p style=""font-size: 16px;"">F = YES &nbsp;&nbsp;&nbsp; J = NO</p>
        ","j","html-keyboard-response","114","2.1.0","213977","F=YES, J=NO","jwwyx54111","1","68","75","60","","","","","","","","","gliptism","dollar","pseudoword","pseudoword","j","true","",""
"1675","<p>Starting practice block 2 of 2. Press any key to continue.</p>"," ","html-keyboard-response","115","2.1.0","215653","F=YES, J=NO","jwwyx54111","1","68","75","60","","","","","","","","","","","","","","","",""
"null","<p style=""font-size: 50px;"">+</p>","null","html-keyboard-response","116","2.1.0","215966","F=YES, J=NO","jwwyx54111","1","68","75","60","","","","","","","","","","","","","","","",""
"null","audio/beep-329314.mp3","null","audio-keyboard-response","117","2.1.0","217501","F=YES, J=NO","jwwyx54111","1","68","75","60","","","","","","","","","","","","","","","",""
"null","audio/theory1.wav","null","audio-keyboard-response","118","2.1.0","218210","F=YES, J=NO","jwwyx54111","1","68","75","60","","","","","","","","","","","","","","","",""
"1037","
          <p id=""word"" style=""font-size: 40px;"">scolve</p>
          <p style=""font-size: 16px;"">F = YES &nbsp;&nbsp;&nbsp; J = NO</p>
        ","j","html-keyboard-response","119","2.1.0","219247","F=YES, J=NO","jwwyx54111","1","68","75","60","","","","","","","","","scolve","theory1","pseudoword","pseudoword","j","true","",""
"null","<p style=""font-size: 50px;"">+</p>","null","html-keyboard-response","120","2.1.0","219556","F=YES, J=NO","jwwyx54111","1","68","75","60","","","","","","","","","","","","","","","",""
"null","audio/beep-329314.mp3","null","audio-keyboard-response","121","2.1.0","221079","F=YES, J=NO","jwwyx54111","1","68","75","60","","","","","","","","","","","","","","","",""
"null","audio/scar.wav","null","audio-keyboard-response","122","2.1.0","221732","F=YES, J=NO","jwwyx54111","1","68","75","60","","","","","","","","","","","","","","","",""
"959","
          <p id=""word"" style=""font-size: 40px;"">adelineate</p>
          <p style=""font-size: 16px;"">F = YES &nbsp;&nbsp;&nbsp; J = NO</p>
        ","j","html-keyboard-response","123","2.1.0","222691","F=YES, J=NO","jwwyx54111","1","68","75","60","","","","","","","","","adelineate","scar","pseudoword","pseudoword","j","true","",""
"null","<p style=""font-size: 50px;"">+</p>","null","html-keyboard-response","124","2.1.0","223001","F=YES, J=NO","jwwyx54111","1","68","75","60","","","","","","","","","","","","","","","",""
"null","audio/beep-329314.mp3","null","audio-keyboard-response","125","2.1.0","224541","F=YES, J=NO","jwwyx54111","1","68","75","60","","","","","","","","","","","","","","","",""
"null","audio/brain.wav","null","audio-keyboard-response","126","2.1.0","225090","F=YES, J=NO","jwwyx54111","1","68","75","60","","","","","","","","","","","","","","","",""
"543","
          <p id=""word"" style=""font-size: 40px;"">throw</p>
          <p style=""font-size: 16px;"">F = YES &nbsp;&nbsp;&nbsp; J = NO</p>
        ","f","html-keyboard-response","127","2.1.0","225634","F=YES, J=NO","jwwyx54111","1","68","75","60","","","","","","","","","throw","brain","filler","filler","f","true","",""
"null","<p style=""font-size: 50px;"">+</p>","null","html-keyboard-response","128","2.1.0","225935","F=YES, J=NO","jwwyx54111","1","68","75","60","","","","","","","","","","","","","","","",""
"null","audio/beep-329314.mp3","null","audio-keyboard-response","129","2.1.0","227460","F=YES, J=NO","jwwyx54111","1","68","75","60","","","","","","","","","","","","","","","",""
"null","audio/battle1.wav","null","audio-keyboard-response","130","2.1.0","227989","F=YES, J=NO","jwwyx54111","1","68","75","60","","","","","","","","","","","","","","","",""
"584","
          <p id=""word"" style=""font-size: 40px;"">boil</p>
          <p style=""font-size: 16px;"">F = YES &nbsp;&nbsp;&nbsp; J = NO</p>
        ","f","html-keyboard-response","131","2.1.0","228574","F=YES, J=NO","jwwyx54111","1","68","75","60","","","","","","","","","boil","battle1","filler","filler","f","true","",""
"null","<p style=""font-size: 50px;"">+</p>","null","html-keyboard-response","132","2.1.0","228876","F=YES, J=NO","jwwyx54111","1","68","75","60","","","","","","","","","","","","","","","",""
"null","audio/beep-329314.mp3","null","audio-keyboard-response","133","2.1.0","230401","F=YES, J=NO","jwwyx54111","1","68","75","60","","","","","","","","","","","","","","","",""
"null","audio/alarm1.wav","null","audio-keyboard-response","134","2.1.0","230990","F=YES, J=NO","jwwyx54111","1","68","75","60","","","","","","","","","","","","","","","",""
"468","
          <p id=""word"" style=""font-size: 40px;"">lock</p>
          <p style=""font-size: 16px;"">F = YES &nbsp;&nbsp;&nbsp; J = NO</p>
        ","f","html-keyboard-response","135","2.1.0","231460","F=YES, J=NO","jwwyx54111","1","68","75","60","","","","","","","","","lock","alarm1","filler","filler","f","true","",""
"null","<p style=""font-size: 50px;"">+</p>","null","html-keyboard-response","136","2.1.0","231762","F=YES, J=NO","jwwyx54111","1","68","75","60","","","","","","","","","","","","","","","",""
"null","audio/beep-329314.mp3","null","audio-keyboard-response","137","2.1.0","233299","F=YES, J=NO","jwwyx54111","1","68","75","60","","","","","","","","","","","","","","","",""
"null","audio/menu.wav","null","audio-keyboard-response","138","2.1.0","233929","F=YES, J=NO","jwwyx54111","1","68","75","60","","","","","","","","","","","","","","","",""
"541","
          <p id=""word"" style=""font-size: 40px;"">slice</p>
          <p style=""font-size: 16px;"">F = YES &nbsp;&nbsp;&nbsp; J = NO</p>
        ","f","html-keyboard-response","139","2.1.0","234471","F=YES, J=NO","jwwyx54111","1","68","75","60","","","","","","","","","slice","menu","filler","filler","f","true","",""
"null","<p style=""font-size: 50px;"">+</p>","null","html-keyboard-response","140","2.1.0","234782","F=YES, J=NO","jwwyx54111","1","68","75","60","","","","","","","","","","","","","","","",""
"null","audio/beep-329314.mp3","null","audio-keyboard-response","141","2.1.0","236320","F=YES, J=NO","jwwyx54111","1","68","75","60","","","","","","","","","","","","","","","",""
"null","audio/bush1.wav","null","audio-keyboard-response","142","2.1.0","236790","F=YES, J=NO","jwwyx54111","1","68","75","60","","","","","","","","","","","","","","","",""
"954","
          <p id=""word"" style=""font-size: 40px;"">platined</p>
          <p style=""font-size: 16px;"">F = YES &nbsp;&nbsp;&nbsp; J = NO</p>
        ","f","html-keyboard-response","143","2.1.0","237745","F=YES, J=NO","jwwyx54111","1","68","75","60","","","","","","","","","platined","bush1","pseudoword","pseudoword","j","false","",""
"null","<p style=""font-size: 50px;"">+</p>","null","html-keyboard-response","144","2.1.0","238050","F=YES, J=NO","jwwyx54111","1","68","75","60","","","","","","","","","","","","","","","",""
"null","audio/beep-329314.mp3","null","audio-keyboard-response","145","2.1.0","239579","F=YES, J=NO","jwwyx54111","1","68","75","60","","","","","","","","","","","","","","","",""
"null","audio/winter.wav","null","audio-keyboard-response","146","2.1.0","240151","F=YES, J=NO","jwwyx54111","1","68","75","60","","","","","","","","","","","","","","","",""
"1039","
          <p id=""word"" style=""font-size: 40px;"">straven</p>
          <p style=""font-size: 16px;"">F = YES &nbsp;&nbsp;&nbsp; J = NO</p>
        ","j","html-keyboard-response","147","2.1.0","241190","F=YES, J=NO","jwwyx54111","1","68","75","60","","","","","","","","","straven","winter","pseudoword","pseudoword","j","true","",""
"null","<p style=""font-size: 50px;"">+</p>","null","html-keyboard-response","148","2.1.0","241493","F=YES, J=NO","jwwyx54111","1","68","75","60","","","","","","","","","","","","","","","",""
"null","audio/beep-329314.mp3","null","audio-keyboard-response","149","2.1.0","243022","F=YES, J=NO","jwwyx54111","1","68","75","60","","","","","","","","","","","","","","","",""
"null","audio/weight1.wav","null","audio-keyboard-response","150","2.1.0","243551","F=YES, J=NO","jwwyx54111","1","68","75","60","","","","","","","","","","","","","","","",""
"544","
          <p id=""word"" style=""font-size: 40px;"">crimsh</p>
          <p style=""font-size: 16px;"">F = YES &nbsp;&nbsp;&nbsp; J = NO</p>
        ","f","html-keyboard-response","151","2.1.0","244096","F=YES, J=NO","jwwyx54111","1","68","75","60","","","","","","","","","crimsh","weight1","pseudoword","pseudoword","j","false","",""
"null","<p style=""font-size: 50px;"">+</p>","null","html-keyboard-response","152","2.1.0","244403","F=YES, J=NO","jwwyx54111","1","68","75","60","","","","","","","","","","","","","","","",""
"null","audio/beep-329314.mp3","null","audio-keyboard-response","153","2.1.0","245940","F=YES, J=NO","jwwyx54111","1","68","75","60","","","","","","","","","","","","","","","",""
"null","audio/van1.wav","null","audio-keyboard-response","154","2.1.0","246550","F=YES, J=NO","jwwyx54111","1","68","75","60","","","","","","","","","","","","","","","",""
"562","
          <p id=""word"" style=""font-size: 40px;"">push</p>
          <p style=""font-size: 16px;"">F = YES &nbsp;&nbsp;&nbsp; J = NO</p>
        ","f","html-keyboard-response","155","2.1.0","247112","F=YES, J=NO","jwwyx54111","1","68","75","60","","","","","","","","","push","van1","filler","filler","f","true","",""
"null","<p style=""font-size: 50px;"">+</p>","null","html-keyboard-response","156","2.1.0","247425","F=YES, J=NO","jwwyx54111","1","68","75","60","","","","","","","","","","","","","","","",""
"null","audio/beep-329314.mp3","null","audio-keyboard-response","157","2.1.0","248959","F=YES, J=NO","jwwyx54111","1","68","75","60","","","","","","","","","","","","","","","",""
"null","audio/table1.wav","null","audio-keyboard-response","158","2.1.0","249510","F=YES, J=NO","jwwyx54111","1","68","75","60","","","","","","","","","","","","","","","",""
"749","
          <p id=""word"" style=""font-size: 40px;"">stimb</p>
          <p style=""font-size: 16px;"">F = YES &nbsp;&nbsp;&nbsp; J = NO</p>
        ","j","html-keyboard-response","159","2.1.0","250259","F=YES, J=NO","jwwyx54111","1","68","75","60","","","","","","","","","stimb","table1","pseudoword","pseudoword","j","true","",""
"null","<p style=""font-size: 50px;"">+</p>","null","html-keyboard-response","160","2.1.0","250570","F=YES, J=NO","jwwyx54111","1","68","75","60","","","","","","","","","","","","","","","",""
"null","audio/beep-329314.mp3","null","audio-keyboard-response","161","2.1.0","252099","F=YES, J=NO","jwwyx54111","1","68","75","60","","","","","","","","","","","","","","","",""
"null","audio/arm.wav","null","audio-keyboard-response","162","2.1.0","252650","F=YES, J=NO","jwwyx54111","1","68","75","60","","","","","","","","","","","","","","","",""
"630","
          <p id=""word"" style=""font-size: 40px;"">fold</p>
          <p style=""font-size: 16px;"">F = YES &nbsp;&nbsp;&nbsp; J = NO</p>
        ","f","html-keyboard-response","163","2.1.0","253280","F=YES, J=NO","jwwyx54111","1","68","75","60","","","","","","","","","fold","arm","filler","filler","f","true","",""
"6380","
    <div style=""max-width: 800px; margin: auto; text-align: left;"">
      <h2>Part 2: Main Trials</h2>
      <p>Great job on the practice trials!</p>
      <p>You will now begin the <strong>main set of trials</strong>.</p>
      <p>Remember your key assignments:</p>
      <ul>
        <li><strong>F</strong> = YES (real English word)</li>
        <li><strong>J</strong> = NO (not a real English word)</li>
      </ul>
      <p>Try to respond as <strong>quickly and accurately</strong> as possible.</p>
      <p style=""margin-top: 2em;"">Press any key to begin the main trials.</p>
    </div>
  "," ","html-keyboard-response","164","2.1.0","259661","F=YES, J=NO","jwwyx54111","1","68","75","60","","","","","","","","","","","","","","","",""
"2522","<p>Starting main block 1 of 8. Press any key to continue.</p>"," ","html-keyboard-response","165","2.1.0","262184","F=YES, J=NO","jwwyx54111","1","68","75","60","","","","","","","","","","","","","","","",""
"null","<p style=""font-size: 50px;"">+</p>","null","html-keyboard-response","166","2.1.0","262487","F=YES, J=NO","jwwyx54111","1","68","75","60","","","","","","","","","","","","","","","",""
"null","audio/beep-329314.mp3","null","audio-keyboard-response","167","2.1.0","263999","F=YES, J=NO","jwwyx54111","1","68","75","60","","","","","","","","","","","","","","","",""
"null","audio/bomb1.wav","null","audio-keyboard-response","168","2.1.0","264369","F=YES, J=NO","jwwyx54111","1","68","75","60","","","","","","","","","","","","","","","",""
"529","
          <p id=""word"" style=""font-size: 40px;"">drop</p>
          <p style=""font-size: 16px;"">F = YES &nbsp;&nbsp;&nbsp; J = NO</p>
        ","f","html-keyboard-response","169","2.1.0","264899","F=YES, J=NO","jwwyx54111","1","68","75","60","","","","","","","","","drop","bomb1","literal","experimental","f","true","",""
"null","<p style=""font-size: 50px;"">+</p>","null","html-keyboard-response","170","2.1.0","265210","F=YES, J=NO","jwwyx54111","1","68","75","60","","","","","","","","","","","","","","","",""
"null","audio/beep-329314.mp3","null","audio-keyboard-response","171","2.1.0","266741","F=YES, J=NO","jwwyx54111","1","68","75","60","","","","","","","","","","","","","","","",""
"null","audio/dome.wav","null","audio-keyboard-response","172","2.1.0","267171","F=YES, J=NO","jwwyx54111","1","68","75","60","","","","","","","","","","","","","","","",""
"700","
          <p id=""word"" style=""font-size: 40px;"">scrupliness</p>
          <p style=""font-size: 16px;"">F = YES &nbsp;&nbsp;&nbsp; J = NO</p>
        ","f","html-keyboard-response","173","2.1.0","267872","F=YES, J=NO","jwwyx54111","1","68","75","60","","","","","","","","","scrupliness","dome","pseudoword","pseudoword","j","false","",""
"null","<p style=""font-size: 50px;"">+</p>","null","html-keyboard-response","174","2.1.0","268182","F=YES, J=NO","jwwyx54111","1","68","75","60","","","","","","","","","","","","","","","",""
"null","audio/beep-329314.mp3","null","audio-keyboard-response","175","2.1.0","269720","F=YES, J=NO","jwwyx54111","1","68","75","60","","","","","","","","","","","","","","","",""
"null","audio/corpse1.wav","null","audio-keyboard-response","176","2.1.0","270351","F=YES, J=NO","jwwyx54111","1","68","75","60","","","","","","","","","","","","","","","",""
"633","
          <p id=""word"" style=""font-size: 40px;"">glonet</p>
          <p style=""font-size: 16px;"">F = YES &nbsp;&nbsp;&nbsp; J = NO</p>
        ","j","html-keyboard-response","177","2.1.0","270985","F=YES, J=NO","jwwyx54111","1","68","75","60","","","","","","","","","glonet","corpse1","pseudoword","pseudoword","j","true","",""
"null","<p style=""font-size: 50px;"">+</p>","null","html-keyboard-response","178","2.1.0","271298","F=YES, J=NO","jwwyx54111","1","68","75","60","","","","","","","","","","","","","","","",""
"null","audio/beep-329314.mp3","null","audio-keyboard-response","179","2.1.0","272820","F=YES, J=NO","jwwyx54111","1","68","75","60","","","","","","","","","","","","","","","",""
"null","audio/fence.wav","null","audio-keyboard-response","180","2.1.0","273471","F=YES, J=NO","jwwyx54111","1","68","75","60","","","","","","","","","","","","","","","",""
"535","
          <p id=""word"" style=""font-size: 40px;"">trim</p>
          <p style=""font-size: 16px;"">F = YES &nbsp;&nbsp;&nbsp; J = NO</p>
        ","f","html-keyboard-response","181","2.1.0","274007","F=YES, J=NO","jwwyx54111","1","68","75","60","","","","","","","","","trim","fence","filler","filler","f","true","",""
"null","<p style=""font-size: 50px;"">+</p>","null","html-keyboard-response","182","2.1.0","274320","F=YES, J=NO","jwwyx54111","1","68","75","60","","","","","","","","","","","","","","","",""
"null","audio/beep-329314.mp3","null","audio-keyboard-response","183","2.1.0","275859","F=YES, J=NO","jwwyx54111","1","68","75","60","","","","","","","","","","","","","","","",""
"null","audio/floor.wav","null","audio-keyboard-response","184","2.1.0","276409","F=YES, J=NO","jwwyx54111","1","68","75","60","","","","","","","","","","","","","","","",""
"525","
          <p id=""word"" style=""font-size: 40px;"">mop</p>
          <p style=""font-size: 16px;"">F = YES &nbsp;&nbsp;&nbsp; J = NO</p>
        ","f","html-keyboard-response","185","2.1.0","276935","F=YES, J=NO","jwwyx54111","1","68","75","60","","","","","","","","","mop","floor","filler","filler","f","true","",""
"null","<p style=""font-size: 50px;"">+</p>","null","html-keyboard-response","186","2.1.0","277244","F=YES, J=NO","jwwyx54111","1","68","75","60","","","","","","","","","","","","","","","",""
"null","audio/beep-329314.mp3","null","audio-keyboard-response","187","2.1.0","278781","F=YES, J=NO","jwwyx54111","1","68","75","60","","","","","","","","","","","","","","","",""
"null","audio/kettle1.wav","null","audio-keyboard-response","188","2.1.0","279231","F=YES, J=NO","jwwyx54111","1","68","75","60","","","","","","","","","","","","","","","",""
"774","
          <p id=""word"" style=""font-size: 40px;"">navigate</p>
          <p style=""font-size: 16px;"">F = YES &nbsp;&nbsp;&nbsp; J = NO</p>
        ","f","html-keyboard-response","189","2.1.0","280005","F=YES, J=NO","jwwyx54111","1","68","75","60","","","","","","","","","navigate","kettle1","unrelated","experimental","f","true","",""
"null","<p style=""font-size: 50px;"">+</p>","null","html-keyboard-response","190","2.1.0","280316","F=YES, J=NO","jwwyx54111","1","68","75","60","","","","","","","","","","","","","","","",""
"null","audio/beep-329314.mp3","null","audio-keyboard-response","191","2.1.0","281839","F=YES, J=NO","jwwyx54111","1","68","75","60","","","","","","","","","","","","","","","",""
"null","audio/breath.wav","null","audio-keyboard-response","192","2.1.0","282409","F=YES, J=NO","jwwyx54111","1","68","75","60","","","","","","","","","","","","","","","",""
"1088","
          <p id=""word"" style=""font-size: 40px;"">construct</p>
          <p style=""font-size: 16px;"">F = YES &nbsp;&nbsp;&nbsp; J = NO</p>
        ","f","html-keyboard-response","193","2.1.0","283498","F=YES, J=NO","jwwyx54111","1","68","75","60","","","","","","","","","construct","breath","unrelated","experimental","f","true","",""
"null","<p style=""font-size: 50px;"">+</p>","null","html-keyboard-response","194","2.1.0","283809","F=YES, J=NO","jwwyx54111","1","68","75","60","","","","","","","","","","","","","","","",""
"null","audio/beep-329314.mp3","null","audio-keyboard-response","195","2.1.0","285340","F=YES, J=NO","jwwyx54111","1","68","75","60","","","","","","","","","","","","","","","",""
"null","audio/vehicle1.wav","null","audio-keyboard-response","196","2.1.0","285990","F=YES, J=NO","jwwyx54111","1","68","75","60","","","","","","","","","","","","","","","",""
"722","
          <p id=""word"" style=""font-size: 40px;"">approach</p>
          <p style=""font-size: 16px;"">F = YES &nbsp;&nbsp;&nbsp; J = NO</p>
        ","f","html-keyboard-response","197","2.1.0","286713","F=YES, J=NO","jwwyx54111","1","68","75","60","","","","","","","","","approach","vehicle1","literal","experimental","f","true","",""
"null","<p style=""font-size: 50px;"">+</p>","null","html-keyboard-response","198","2.1.0","287015","F=YES, J=NO","jwwyx54111","1","68","75","60","","","","","","","","","","","","","","","",""
"null","audio/beep-329314.mp3","null","audio-keyboard-response","199","2.1.0","288540","F=YES, J=NO","jwwyx54111","1","68","75","60","","","","","","","","","","","","","","","",""
"null","audio/uncle1.wav","null","audio-keyboard-response","200","2.1.0","289030","F=YES, J=NO","jwwyx54111","1","68","75","60","","","","","","","","","","","","","","","",""
"541","
          <p id=""word"" style=""font-size: 40px;"">break</p>
          <p style=""font-size: 16px;"">F = YES &nbsp;&nbsp;&nbsp; J = NO</p>
        ","f","html-keyboard-response","201","2.1.0","289572","F=YES, J=NO","jwwyx54111","1","68","75","60","","","","","","","","","break","uncle1","unrelated","experimental","f","true","",""
"null","<p style=""font-size: 50px;"">+</p>","null","html-keyboard-response","202","2.1.0","289881","F=YES, J=NO","jwwyx54111","1","68","75","60","","","","","","","","","","","","","","","",""
"null","audio/beep-329314.mp3","null","audio-keyboard-response","203","2.1.0","291421","F=YES, J=NO","jwwyx54111","1","68","75","60","","","","","","","","","","","","","","","",""
"null","audio/ankle1.wav","null","audio-keyboard-response","204","2.1.0","291950","F=YES, J=NO","jwwyx54111","1","68","75","60","","","","","","","","","","","","","","","",""
"507","
          <p id=""word"" style=""font-size: 40px;"">kick</p>
          <p style=""font-size: 16px;"">F = YES &nbsp;&nbsp;&nbsp; J = NO</p>
        ","f","html-keyboard-response","205","2.1.0","292458","F=YES, J=NO","jwwyx54111","1","68","75","60","","","","","","","","","kick","ankle1","filler","filler","f","true","",""
"null","<p style=""font-size: 50px;"">+</p>","null","html-keyboard-response","206","2.1.0","292764","F=YES, J=NO","jwwyx54111","1","68","75","60","","","","","","","","","","","","","","","",""
"null","audio/beep-329314.mp3","null","audio-keyboard-response","207","2.1.0","294301","F=YES, J=NO","jwwyx54111","1","68","75","60","","","","","","","","","","","","","","","",""
"null","audio/bomb1.wav","null","audio-keyboard-response","208","2.1.0","294670","F=YES, J=NO","jwwyx54111","1","68","75","60","","","","","","","","","","","","","","","",""
"483","
          <p id=""word"" style=""font-size: 40px;"">clean</p>
          <p style=""font-size: 16px;"">F = YES &nbsp;&nbsp;&nbsp; J = NO</p>
        ","f","html-keyboard-response","209","2.1.0","295153","F=YES, J=NO","jwwyx54111","1","68","75","60","","","","","","","","","clean","bomb1","filler","filler","f","true","",""
"null","<p style=""font-size: 50px;"">+</p>","null","html-keyboard-response","210","2.1.0","295456","F=YES, J=NO","jwwyx54111","1","68","75","60","","","","","","","","","","","","","","","",""
"null","audio/beep-329314.mp3","null","audio-keyboard-response","211","2.1.0","296980","F=YES, J=NO","jwwyx54111","1","68","75","60","","","","","","","","","","","","","","","",""
"null","audio/truth1.wav","null","audio-keyboard-response","212","2.1.0","297532","F=YES, J=NO","jwwyx54111","1","68","75","60","","","","","","","","","","","","","","","",""
"677","
          <p id=""word"" style=""font-size: 40px;"">calitom</p>
          <p style=""font-size: 16px;"">F = YES &nbsp;&nbsp;&nbsp; J = NO</p>
        ","j","html-keyboard-response","213","2.1.0","298210","F=YES, J=NO","jwwyx54111","1","68","75","60","","","","","","","","","calitom","truth1","pseudoword","pseudoword","j","true","",""
"null","<p style=""font-size: 50px;"">+</p>","null","html-keyboard-response","214","2.1.0","298511","F=YES, J=NO","jwwyx54111","1","68","75","60","","","","","","","","","","","","","","","",""
"null","audio/beep-329314.mp3","null","audio-keyboard-response","215","2.1.0","300041","F=YES, J=NO","jwwyx54111","1","68","75","60","","","","","","","","","","","","","","","",""
"null","audio/road.wav","null","audio-keyboard-response","216","2.1.0","300470","F=YES, J=NO","jwwyx54111","1","68","75","60","","","","","","","","","","","","","","","",""
"1202","
          <p id=""word"" style=""font-size: 40px;"">wappings</p>
          <p style=""font-size: 16px;"">F = YES &nbsp;&nbsp;&nbsp; J = NO</p>
        ","j","html-keyboard-response","217","2.1.0","301673","F=YES, J=NO","jwwyx54111","1","68","75","60","","","","","","","","","wappings","road","pseudoword","pseudoword","j","true","",""
"null","<p style=""font-size: 50px;"">+</p>","null","html-keyboard-response","218","2.1.0","301983","F=YES, J=NO","jwwyx54111","1","68","75","60","","","","","","","","","","","","","","","",""
"null","audio/beep-329314.mp3","null","audio-keyboard-response","219","2.1.0","303519","F=YES, J=NO","jwwyx54111","1","68","75","60","","","","","","","","","","","","","","","",""
"null","audio/topic.wav","null","audio-keyboard-response","220","2.1.0","304090","F=YES, J=NO","jwwyx54111","1","68","75","60","","","","","","","","","","","","","","","",""
"700","
          <p id=""word"" style=""font-size: 40px;"">infortuitist</p>
          <p style=""font-size: 16px;"">F = YES &nbsp;&nbsp;&nbsp; J = NO</p>
        ","j","html-keyboard-response","221","2.1.0","304791","F=YES, J=NO","jwwyx54111","1","68","75","60","","","","","","","","","infortuitist","topic","pseudoword","pseudoword","j","true","",""
"null","<p style=""font-size: 50px;"">+</p>","null","html-keyboard-response","222","2.1.0","305092","F=YES, J=NO","jwwyx54111","1","68","75","60","","","","","","","","","","","","","","","",""
"null","audio/beep-329314.mp3","null","audio-keyboard-response","223","2.1.0","306621","F=YES, J=NO","jwwyx54111","1","68","75","60","","","","","","","","","","","","","","","",""
"null","audio/account1.wav","null","audio-keyboard-response","224","2.1.0","307292","F=YES, J=NO","jwwyx54111","1","68","75","60","","","","","","","","","","","","","","","",""
"343","
          <p id=""word"" style=""font-size: 40px;"">open</p>
          <p style=""font-size: 16px;"">F = YES &nbsp;&nbsp;&nbsp; J = NO</p>
        ","f","html-keyboard-response","225","2.1.0","307635","F=YES, J=NO","jwwyx54111","1","68","75","60","","","","","","","","","open","account1","metaphor","experimental","f","true","",""
"null","<p style=""font-size: 50px;"">+</p>","null","html-keyboard-response","226","2.1.0","307945","F=YES, J=NO","jwwyx54111","1","68","75","60","","","","","","","","","","","","","","","",""
"null","audio/beep-329314.mp3","null","audio-keyboard-response","227","2.1.0","309482","F=YES, J=NO","jwwyx54111","1","68","75","60","","","","","","","","","","","","","","","",""
"null","audio/foot1.wav","null","audio-keyboard-response","228","2.1.0","310031","F=YES, J=NO","jwwyx54111","1","68","75","60","","","","","","","","","","","","","","","",""
"380","
          <p id=""word"" style=""font-size: 40px;"">thrutt</p>
          <p style=""font-size: 16px;"">F = YES &nbsp;&nbsp;&nbsp; J = NO</p>
        ","f","html-keyboard-response","229","2.1.0","310411","F=YES, J=NO","jwwyx54111","1","68","75","60","","","","","","","","","thrutt","foot1","pseudoword","pseudoword","j","false","",""
"4232","<p>Excellent! You have finished block 1 of 8.</p>
                     <p>Feel free to take a 30 second break.</p>
                     <p>Press any key when you're ready to continue.</p>"," ","html-keyboard-response","230","2.1.0","314644","F=YES, J=NO","jwwyx54111","1","68","75","60","","","","","","","","","","","","","","","",""
"1742","<p>Starting main block 2 of 8. Press any key to continue.</p>"," ","html-keyboard-response","231","2.1.0","316387","F=YES, J=NO","jwwyx54111","1","68","75","60","","","","","","","","","","","","","","","",""
"null","<p style=""font-size: 50px;"">+</p>","null","html-keyboard-response","232","2.1.0","316697","F=YES, J=NO","jwwyx54111","1","68","75","60","","","","","","","","","","","","","","","",""
"null","audio/beep-329314.mp3","null","audio-keyboard-response","233","2.1.0","318219","F=YES, J=NO","jwwyx54111","1","68","75","60","","","","","","","","","","","","","","","",""
"null","audio/pine.wav","null","audio-keyboard-response","234","2.1.0","318711","F=YES, J=NO","jwwyx54111","1","68","75","60","","","","","","","","","","","","","","","",""
"536","
          <p id=""word"" style=""font-size: 40px;"">crebble</p>
          <p style=""font-size: 16px;"">F = YES &nbsp;&nbsp;&nbsp; J = NO</p>
        ","f","html-keyboard-response","235","2.1.0","319247","F=YES, J=NO","jwwyx54111","1","68","75","60","","","","","","","","","crebble","pine","pseudoword","pseudoword","j","false","",""
"null","<p style=""font-size: 50px;"">+</p>","null","html-keyboard-response","236","2.1.0","319559","F=YES, J=NO","jwwyx54111","1","68","75","60","","","","","","","","","","","","","","","",""
"null","audio/beep-329314.mp3","null","audio-keyboard-response","237","2.1.0","321080","F=YES, J=NO","jwwyx54111","1","68","75","60","","","","","","","","","","","","","","","",""
"null","audio/survey1.wav","null","audio-keyboard-response","238","2.1.0","321810","F=YES, J=NO","jwwyx54111","1","68","75","60","","","","","","","","","","","","","","","",""
"708","
          <p id=""word"" style=""font-size: 40px;"">imploth</p>
          <p style=""font-size: 16px;"">F = YES &nbsp;&nbsp;&nbsp; J = NO</p>
        ","j","html-keyboard-response","239","2.1.0","322519","F=YES, J=NO","jwwyx54111","1","68","75","60","","","","","","","","","imploth","survey1","pseudoword","pseudoword","j","true","",""
"null","<p style=""font-size: 50px;"">+</p>","null","html-keyboard-response","240","2.1.0","322833","F=YES, J=NO","jwwyx54111","1","68","75","60","","","","","","","","","","","","","","","",""
"null","audio/beep-329314.mp3","null","audio-keyboard-response","241","2.1.0","324362","F=YES, J=NO","jwwyx54111","1","68","75","60","","","","","","","","","","","","","","","",""
"null","audio/bridge.wav","null","audio-keyboard-response","242","2.1.0","324910","F=YES, J=NO","jwwyx54111","1","68","75","60","","","","","","","","","","","","","","","",""
"508","
          <p id=""word"" style=""font-size: 40px;"">crack</p>
          <p style=""font-size: 16px;"">F = YES &nbsp;&nbsp;&nbsp; J = NO</p>
        ","f","html-keyboard-response","243","2.1.0","325419","F=YES, J=NO","jwwyx54111","1","68","75","60","","","","","","","","","crack","bridge","filler","filler","f","true","",""
"null","<p style=""font-size: 50px;"">+</p>","null","html-keyboard-response","244","2.1.0","325725","F=YES, J=NO","jwwyx54111","1","68","75","60","","","","","","","","","","","","","","","",""
"null","audio/beep-329314.mp3","null","audio-keyboard-response","245","2.1.0","327261","F=YES, J=NO","jwwyx54111","1","68","75","60","","","","","","","","","","","","","","","",""
"null","audio/hawk1.wav","null","audio-keyboard-response","246","2.1.0","327850","F=YES, J=NO","jwwyx54111","1","68","75","60","","","","","","","","","","","","","","","",""
"726","
          <p id=""word"" style=""font-size: 40px;"">ostach</p>
          <p style=""font-size: 16px;"">F = YES &nbsp;&nbsp;&nbsp; J = NO</p>
        ","j","html-keyboard-response","247","2.1.0","328577","F=YES, J=NO","jwwyx54111","1","68","75","60","","","","","","","","","ostach","hawk1","pseudoword","pseudoword","j","true","",""
"null","<p style=""font-size: 50px;"">+</p>","null","html-keyboard-response","248","2.1.0","328891","F=YES, J=NO","jwwyx54111","1","68","75","60","","","","","","","","","","","","","","","",""
"null","audio/beep-329314.mp3","null","audio-keyboard-response","249","2.1.0","330419","F=YES, J=NO","jwwyx54111","1","68","75","60","","","","","","","","","","","","","","","",""
"null","audio/golf1.wav","null","audio-keyboard-response","250","2.1.0","330991","F=YES, J=NO","jwwyx54111","1","68","75","60","","","","","","","","","","","","","","","",""
"715","
          <p id=""word"" style=""font-size: 40px;"">drabble</p>
          <p style=""font-size: 16px;"">F = YES &nbsp;&nbsp;&nbsp; J = NO</p>
        ","f","html-keyboard-response","251","2.1.0","331706","F=YES, J=NO","jwwyx54111","1","68","75","60","","","","","","","","","drabble","golf1","pseudoword","pseudoword","j","false","",""
"null","<p style=""font-size: 50px;"">+</p>","null","html-keyboard-response","252","2.1.0","332016","F=YES, J=NO","jwwyx54111","1","68","75","60","","","","","","","","","","","","","","","",""
"null","audio/beep-329314.mp3","null","audio-keyboard-response","253","2.1.0","333539","F=YES, J=NO","jwwyx54111","1","68","75","60","","","","","","","","","","","","","","","",""
"null","audio/bush1.wav","null","audio-keyboard-response","254","2.1.0","333991","F=YES, J=NO","jwwyx54111","1","68","75","60","","","","","","","","","","","","","","","",""
"417","
          <p id=""word"" style=""font-size: 40px;"">run</p>
          <p style=""font-size: 16px;"">F = YES &nbsp;&nbsp;&nbsp; J = NO</p>
        ","f","html-keyboard-response","255","2.1.0","334408","F=YES, J=NO","jwwyx54111","1","68","75","60","","","","","","","","","run","bush1","unrelated","experimental","f","true","",""
"null","<p style=""font-size: 50px;"">+</p>","null","html-keyboard-response","256","2.1.0","334713","F=YES, J=NO","jwwyx54111","1","68","75","60","","","","","","","","","","","","","","","",""
"null","audio/beep-329314.mp3","null","audio-keyboard-response","257","2.1.0","336240","F=YES, J=NO","jwwyx54111","1","68","75","60","","","","","","","","","","","","","","","",""
"null","audio/foe1.wav","null","audio-keyboard-response","258","2.1.0","336750","F=YES, J=NO","jwwyx54111","1","68","75","60","","","","","","","","","","","","","","","",""
"802","
          <p id=""word"" style=""font-size: 40px;"">creth</p>
          <p style=""font-size: 16px;"">F = YES &nbsp;&nbsp;&nbsp; J = NO</p>
        ","j","html-keyboard-response","259","2.1.0","337553","F=YES, J=NO","jwwyx54111","1","68","75","60","","","","","","","","","creth","foe1","pseudoword","pseudoword","j","true","",""
"null","<p style=""font-size: 50px;"">+</p>","null","html-keyboard-response","260","2.1.0","337860","F=YES, J=NO","jwwyx54111","1","68","75","60","","","","","","","","","","","","","","","",""
"null","audio/beep-329314.mp3","null","audio-keyboard-response","261","2.1.0","339399","F=YES, J=NO","jwwyx54111","1","68","75","60","","","","","","","","","","","","","","","",""
"null","audio/cave1.wav","null","audio-keyboard-response","262","2.1.0","339950","F=YES, J=NO","jwwyx54111","1","68","75","60","","","","","","","","","","","","","","","",""
"446","
          <p id=""word"" style=""font-size: 40px;"">blacket</p>
          <p style=""font-size: 16px;"">F = YES &nbsp;&nbsp;&nbsp; J = NO</p>
        ","f","html-keyboard-response","263","2.1.0","340397","F=YES, J=NO","jwwyx54111","1","68","75","60","","","","","","","","","blacket","cave1","pseudoword","pseudoword","j","false","",""
"null","<p style=""font-size: 50px;"">+</p>","null","html-keyboard-response","264","2.1.0","340699","F=YES, J=NO","jwwyx54111","1","68","75","60","","","","","","","","","","","","","","","",""
"null","audio/beep-329314.mp3","null","audio-keyboard-response","265","2.1.0","342242","F=YES, J=NO","jwwyx54111","1","68","75","60","","","","","","","","","","","","","","","",""
"null","audio/flaw.wav","null","audio-keyboard-response","266","2.1.0","342870","F=YES, J=NO","jwwyx54111","1","68","75","60","","","","","","","","","","","","","","","",""
"778","
          <p id=""word"" style=""font-size: 40px;"">thwool</p>
          <p style=""font-size: 16px;"">F = YES &nbsp;&nbsp;&nbsp; J = NO</p>
        ","j","html-keyboard-response","267","2.1.0","343649","F=YES, J=NO","jwwyx54111","1","68","75","60","","","","","","","","","thwool","flaw","pseudoword","pseudoword","j","true","",""
"null","<p style=""font-size: 50px;"">+</p>","null","html-keyboard-response","268","2.1.0","343958","F=YES, J=NO","jwwyx54111","1","68","75","60","","","","","","","","","","","","","","","",""
"null","audio/beep-329314.mp3","null","audio-keyboard-response","269","2.1.0","345482","F=YES, J=NO","jwwyx54111","1","68","75","60","","","","","","","","","","","","","","","",""
"null","audio/stain.wav","null","audio-keyboard-response","270","2.1.0","346130","F=YES, J=NO","jwwyx54111","1","68","75","60","","","","","","","","","","","","","","","",""
"817","
          <p id=""word"" style=""font-size: 40px;"">rumpsied</p>
          <p style=""font-size: 16px;"">F = YES &nbsp;&nbsp;&nbsp; J = NO</p>
        ","j","html-keyboard-response","271","2.1.0","346948","F=YES, J=NO","jwwyx54111","1","68","75","60","","","","","","","","","rumpsied","stain","pseudoword","pseudoword","j","true","",""
"null","<p style=""font-size: 50px;"">+</p>","null","html-keyboard-response","272","2.1.0","347262","F=YES, J=NO","jwwyx54111","1","68","75","60","","","","","","","","","","","","","","","",""
"null","audio/beep-329314.mp3","null","audio-keyboard-response","273","2.1.0","348801","F=YES, J=NO","jwwyx54111","1","68","75","60","","","","","","","","","","","","","","","",""
"null","audio/fence.wav","null","audio-keyboard-response","274","2.1.0","349429","F=YES, J=NO","jwwyx54111","1","68","75","60","","","","","","","","","","","","","","","",""
"387","
          <p id=""word"" style=""font-size: 40px;"">climb</p>
          <p style=""font-size: 16px;"">F = YES &nbsp;&nbsp;&nbsp; J = NO</p>
        ","f","html-keyboard-response","275","2.1.0","349817","F=YES, J=NO","jwwyx54111","1","68","75","60","","","","","","","","","climb","fence","literal","experimental","f","true","",""
"null","<p style=""font-size: 50px;"">+</p>","null","html-keyboard-response","276","2.1.0","350121","F=YES, J=NO","jwwyx54111","1","68","75","60","","","","","","","","","","","","","","","",""
"null","audio/beep-329314.mp3","null","audio-keyboard-response","277","2.1.0","351661","F=YES, J=NO","jwwyx54111","1","68","75","60","","","","","","","","","","","","","","","",""
"null","audio/plot1.wav","null","audio-keyboard-response","278","2.1.0","352211","F=YES, J=NO","jwwyx54111","1","68","75","60","","","","","","","","","","","","","","","",""
"978","
          <p id=""word"" style=""font-size: 40px;"">glenter</p>
          <p style=""font-size: 16px;"">F = YES &nbsp;&nbsp;&nbsp; J = NO</p>
        ","j","html-keyboard-response","279","2.1.0","353190","F=YES, J=NO","jwwyx54111","1","68","75","60","","","","","","","","","glenter","plot1","pseudoword","pseudoword","j","true","",""
"null","<p style=""font-size: 50px;"">+</p>","null","html-keyboard-response","280","2.1.0","353502","F=YES, J=NO","jwwyx54111","1","68","75","60","","","","","","","","","","","","","","","",""
"null","audio/beep-329314.mp3","null","audio-keyboard-response","281","2.1.0","355041","F=YES, J=NO","jwwyx54111","1","68","75","60","","","","","","","","","","","","","","","",""
"null","audio/strength.wav","null","audio-keyboard-response","282","2.1.0","355770","F=YES, J=NO","jwwyx54111","1","68","75","60","","","","","","","","","","","","","","","",""
"437","
          <p id=""word"" style=""font-size: 40px;"">possess</p>
          <p style=""font-size: 16px;"">F = YES &nbsp;&nbsp;&nbsp; J = NO</p>
        ","f","html-keyboard-response","283","2.1.0","356208","F=YES, J=NO","jwwyx54111","1","68","75","60","","","","","","","","","possess","strength","metaphor","experimental","f","true","",""
"null","<p style=""font-size: 50px;"">+</p>","null","html-keyboard-response","284","2.1.0","356517","F=YES, J=NO","jwwyx54111","1","68","75","60","","","","","","","","","","","","","","","",""
"null","audio/beep-329314.mp3","null","audio-keyboard-response","285","2.1.0","358041","F=YES, J=NO","jwwyx54111","1","68","75","60","","","","","","","","","","","","","","","",""
"null","audio/mind.wav","null","audio-keyboard-response","286","2.1.0","358610","F=YES, J=NO","jwwyx54111","1","68","75","60","","","","","","","","","","","","","","","",""
"903","
          <p id=""word"" style=""font-size: 40px;"">crainate</p>
          <p style=""font-size: 16px;"">F = YES &nbsp;&nbsp;&nbsp; J = NO</p>
        ","f","html-keyboard-response","287","2.1.0","359514","F=YES, J=NO","jwwyx54111","1","68","75","60","","","","","","","","","crainate","mind","pseudoword","pseudoword","j","false","",""
"null","<p style=""font-size: 50px;"">+</p>","null","html-keyboard-response","288","2.1.0","359832","F=YES, J=NO","jwwyx54111","1","68","75","60","","","","","","","","","","","","","","","",""
"null","audio/beep-329314.mp3","null","audio-keyboard-response","289","2.1.0","361360","F=YES, J=NO","jwwyx54111","1","68","75","60","","","","","","","","","","","","","","","",""
"null","audio/breath.wav","null","audio-keyboard-response","290","2.1.0","361910","F=YES, J=NO","jwwyx54111","1","68","75","60","","","","","","","","","","","","","","","",""
"371","
          <p id=""word"" style=""font-size: 40px;"">pack</p>
          <p style=""font-size: 16px;"">F = YES &nbsp;&nbsp;&nbsp; J = NO</p>
        ","f","html-keyboard-response","291","2.1.0","362282","F=YES, J=NO","jwwyx54111","1","68","75","60","","","","","","","","","pack","breath","filler","filler","f","true","",""
"null","<p style=""font-size: 50px;"">+</p>","null","html-keyboard-response","292","2.1.0","362593","F=YES, J=NO","jwwyx54111","1","68","75","60","","","","","","","","","","","","","","","",""
"null","audio/beep-329314.mp3","null","audio-keyboard-response","293","2.1.0","364122","F=YES, J=NO","jwwyx54111","1","68","75","60","","","","","","","","","","","","","","","",""
"null","audio/window1.wav","null","audio-keyboard-response","294","2.1.0","364730","F=YES, J=NO","jwwyx54111","1","68","75","60","","","","","","","","","","","","","","","",""
"348","
          <p id=""word"" style=""font-size: 40px;"">toss</p>
          <p style=""font-size: 16px;"">F = YES &nbsp;&nbsp;&nbsp; J = NO</p>
        ","f","html-keyboard-response","295","2.1.0","365079","F=YES, J=NO","jwwyx54111","1","68","75","60","","","","","","","","","toss","window1","filler","filler","f","true","",""
"17175","<p>Excellent! You have finished block 2 of 8.</p>
                     <p>Feel free to take a 30 second break.</p>
                     <p>Press any key when you're ready to continue.</p>"," ","html-keyboard-response","296","2.1.0","382254","F=YES, J=NO","jwwyx54111","1","68","75","60","","","","","","","","","","","","","","","",""
"1872","<p>Starting main block 3 of 8. Press any key to continue.</p>"," ","html-keyboard-response","297","2.1.0","384127","F=YES, J=NO","jwwyx54111","1","68","75","60","","","","","","","","","","","","","","","",""
"null","<p style=""font-size: 50px;"">+</p>","null","html-keyboard-response","298","2.1.0","384442","F=YES, J=NO","jwwyx54111","1","68","75","60","","","","","","","","","","","","","","","",""
"null","audio/beep-329314.mp3","null","audio-keyboard-response","299","2.1.0","386100","F=YES, J=NO","jwwyx54111","1","68","75","60","","","","","","","","","","","","","","","",""
"null","audio/church1.wav","null","audio-keyboard-response","300","2.1.0","386808","F=YES, J=NO","jwwyx54111","1","68","75","60","","","","","","","","","","","","","","","",""
"374","
          <p id=""word"" style=""font-size: 40px;"">cover</p>
          <p style=""font-size: 16px;"">F = YES &nbsp;&nbsp;&nbsp; J = NO</p>
        ","f","html-keyboard-response","301","2.1.0","387182","F=YES, J=NO","jwwyx54111","1","68","75","60","","","","","","","","","cover","church1","unrelated","experimental","f","true","",""
"null","<p style=""font-size: 50px;"">+</p>","null","html-keyboard-response","302","2.1.0","387485","F=YES, J=NO","jwwyx54111","1","68","75","60","","","","","","","","","","","","","","","",""
"null","audio/beep-329314.mp3","null","audio-keyboard-response","303","2.1.0","389018","F=YES, J=NO","jwwyx54111","1","68","75","60","","","","","","","","","","","","","","","",""
"null","audio/planet1.wav","null","audio-keyboard-response","304","2.1.0","389608","F=YES, J=NO","jwwyx54111","1","68","75","60","","","","","","","","","","","","","","","",""
"517","
          <p id=""word"" style=""font-size: 40px;"">cratched</p>
          <p style=""font-size: 16px;"">F = YES &nbsp;&nbsp;&nbsp; J = NO</p>
        ","f","html-keyboard-response","305","2.1.0","390125","F=YES, J=NO","jwwyx54111","1","68","75","60","","","","","","","","","cratched","planet1","pseudoword","pseudoword","j","false","",""
"null","<p style=""font-size: 50px;"">+</p>","null","html-keyboard-response","306","2.1.0","390432","F=YES, J=NO","jwwyx54111","1","68","75","60","","","","","","","","","","","","","","","",""
"null","audio/beep-329314.mp3","null","audio-keyboard-response","307","2.1.0","391957","F=YES, J=NO","jwwyx54111","1","68","75","60","","","","","","","","","","","","","","","",""
"null","audio/tax1.wav","null","audio-keyboard-response","308","2.1.0","392568","F=YES, J=NO","jwwyx54111","1","68","75","60","","","","","","","","","","","","","","","",""
"1118","
          <p id=""word"" style=""font-size: 40px;"">snate</p>
          <p style=""font-size: 16px;"">F = YES &nbsp;&nbsp;&nbsp; J = NO</p>
        ","j","html-keyboard-response","309","2.1.0","393687","F=YES, J=NO","jwwyx54111","1","68","75","60","","","","","","","","","snate","tax1","pseudoword","pseudoword","j","true","",""
"null","<p style=""font-size: 50px;"">+</p>","null","html-keyboard-response","310","2.1.0","393997","F=YES, J=NO","jwwyx54111","1","68","75","60","","","","","","","","","","","","","","","",""
"null","audio/beep-329314.mp3","null","audio-keyboard-response","311","2.1.0","395520","F=YES, J=NO","jwwyx54111","1","68","75","60","","","","","","","","","","","","","","","",""
"null","audio/mouth1.wav","null","audio-keyboard-response","312","2.1.0","396089","F=YES, J=NO","jwwyx54111","1","68","75","60","","","","","","","","","","","","","","","",""
"577","
          <p id=""word"" style=""font-size: 40px;"">spolial</p>
          <p style=""font-size: 16px;"">F = YES &nbsp;&nbsp;&nbsp; J = NO</p>
        ","f","html-keyboard-response","313","2.1.0","396667","F=YES, J=NO","jwwyx54111","1","68","75","60","","","","","","","","","spolial","mouth1","pseudoword","pseudoword","j","false","",""
"null","<p style=""font-size: 50px;"">+</p>","null","html-keyboard-response","314","2.1.0","396973","F=YES, J=NO","jwwyx54111","1","68","75","60","","","","","","","","","","","","","","","",""
"null","audio/beep-329314.mp3","null","audio-keyboard-response","315","2.1.0","398498","F=YES, J=NO","jwwyx54111","1","68","75","60","","","","","","","","","","","","","","","",""
"null","audio/road.wav","null","audio-keyboard-response","316","2.1.0","398910","F=YES, J=NO","jwwyx54111","1","68","75","60","","","","","","","","","","","","","","","",""
"554","
          <p id=""word"" style=""font-size: 40px;"">flood</p>
          <p style=""font-size: 16px;"">F = YES &nbsp;&nbsp;&nbsp; J = NO</p>
        ","f","html-keyboard-response","317","2.1.0","399465","F=YES, J=NO","jwwyx54111","1","68","75","60","","","","","","","","","flood","road","literal","experimental","f","true","",""
"null","<p style=""font-size: 50px;"">+</p>","null","html-keyboard-response","318","2.1.0","399774","F=YES, J=NO","jwwyx54111","1","68","75","60","","","","","","","","","","","","","","","",""
"null","audio/beep-329314.mp3","null","audio-keyboard-response","319","2.1.0","401300","F=YES, J=NO","jwwyx54111","1","68","75","60","","","","","","","","","","","","","","","",""
"null","audio/cancer1.wav","null","audio-keyboard-response","320","2.1.0","401830","F=YES, J=NO","jwwyx54111","1","68","75","60","","","","","","","","","","","","","","","",""
"522","
          <p id=""word"" style=""font-size: 40px;"">fight</p>
          <p style=""font-size: 16px;"">F = YES &nbsp;&nbsp;&nbsp; J = NO</p>
        ","f","html-keyboard-response","321","2.1.0","402353","F=YES, J=NO","jwwyx54111","1","68","75","60","","","","","","","","","fight","cancer1","metaphor","experimental","f","true","",""
"null","<p style=""font-size: 50px;"">+</p>","null","html-keyboard-response","322","2.1.0","402657","F=YES, J=NO","jwwyx54111","1","68","75","60","","","","","","","","","","","","","","","",""
"null","audio/beep-329314.mp3","null","audio-keyboard-response","323","2.1.0","404198","F=YES, J=NO","jwwyx54111","1","68","75","60","","","","","","","","","","","","","","","",""
"null","audio/cinema1.wav","null","audio-keyboard-response","324","2.1.0","404791","F=YES, J=NO","jwwyx54111","1","68","75","60","","","","","","","","","","","","","","","",""
"399","
          <p id=""word"" style=""font-size: 40px;"">grow</p>
          <p style=""font-size: 16px;"">F = YES &nbsp;&nbsp;&nbsp; J = NO</p>
        ","f","html-keyboard-response","325","2.1.0","405191","F=YES, J=NO","jwwyx54111","1","68","75","60","","","","","","","","","grow","cinema1","unrelated","experimental","f","true","",""
"null","<p style=""font-size: 50px;"">+</p>","null","html-keyboard-response","326","2.1.0","405496","F=YES, J=NO","jwwyx54111","1","68","75","60","","","","","","","","","","","","","","","",""
"null","audio/beep-329314.mp3","null","audio-keyboard-response","327","2.1.0","407019","F=YES, J=NO","jwwyx54111","1","68","75","60","","","","","","","","","","","","","","","",""
"null","audio/show.wav","null","audio-keyboard-response","328","2.1.0","407568","F=YES, J=NO","jwwyx54111","1","68","75","60","","","","","","","","","","","","","","","",""
"549","
          <p id=""word"" style=""font-size: 40px;"">smark</p>
          <p style=""font-size: 16px;"">F = YES &nbsp;&nbsp;&nbsp; J = NO</p>
        ","f","html-keyboard-response","329","2.1.0","408117","F=YES, J=NO","jwwyx54111","1","68","75","60","","","","","","","","","smark","show","pseudoword","pseudoword","j","false","",""
"null","<p style=""font-size: 50px;"">+</p>","null","html-keyboard-response","330","2.1.0","408428","F=YES, J=NO","jwwyx54111","1","68","75","60","","","","","","","","","","","","","","","",""
"null","audio/beep-329314.mp3","null","audio-keyboard-response","331","2.1.0","409960","F=YES, J=NO","jwwyx54111","1","68","75","60","","","","","","","","","","","","","","","",""
"null","audio/baby.wav","null","audio-keyboard-response","332","2.1.0","410430","F=YES, J=NO","jwwyx54111","1","68","75","60","","","","","","","","","","","","","","","",""
"564","
          <p id=""word"" style=""font-size: 40px;"">lift</p>
          <p style=""font-size: 16px;"">F = YES &nbsp;&nbsp;&nbsp; J = NO</p>
        ","f","html-keyboard-response","333","2.1.0","410995","F=YES, J=NO","jwwyx54111","1","68","75","60","","","","","","","","","lift","baby","filler","filler","f","true","",""
"null","<p style=""font-size: 50px;"">+</p>","null","html-keyboard-response","334","2.1.0","411308","F=YES, J=NO","jwwyx54111","1","68","75","60","","","","","","","","","","","","","","","",""
"null","audio/beep-329314.mp3","null","audio-keyboard-response","335","2.1.0","412838","F=YES, J=NO","jwwyx54111","1","68","75","60","","","","","","","","","","","","","","","",""
"null","audio/enemy1.wav","null","audio-keyboard-response","336","2.1.0","413310","F=YES, J=NO","jwwyx54111","1","68","75","60","","","","","","","","","","","","","","","",""
"591","
          <p id=""word"" style=""font-size: 40px;"">defeat</p>
          <p style=""font-size: 16px;"">F = YES &nbsp;&nbsp;&nbsp; J = NO</p>
        ","f","html-keyboard-response","337","2.1.0","413902","F=YES, J=NO","jwwyx54111","1","68","75","60","","","","","","","","","defeat","enemy1","literal","experimental","f","true","",""
"null","<p style=""font-size: 50px;"">+</p>","null","html-keyboard-response","338","2.1.0","414217","F=YES, J=NO","jwwyx54111","1","68","75","60","","","","","","","","","","","","","","","",""
"null","audio/beep-329314.mp3","null","audio-keyboard-response","339","2.1.0","415740","F=YES, J=NO","jwwyx54111","1","68","75","60","","","","","","","","","","","","","","","",""
"null","audio/pain1.wav","null","audio-keyboard-response","340","2.1.0","416187","F=YES, J=NO","jwwyx54111","1","68","75","60","","","","","","","","","","","","","","","",""
"479","
          <p id=""word"" style=""font-size: 40px;"">sell</p>
          <p style=""font-size: 16px;"">F = YES &nbsp;&nbsp;&nbsp; J = NO</p>
        ","f","html-keyboard-response","341","2.1.0","416667","F=YES, J=NO","jwwyx54111","1","68","75","60","","","","","","","","","sell","pain1","unrelated","experimental","f","true","",""
"null","<p style=""font-size: 50px;"">+</p>","null","html-keyboard-response","342","2.1.0","416978","F=YES, J=NO","jwwyx54111","1","68","75","60","","","","","","","","","","","","","","","",""
"null","audio/beep-329314.mp3","null","audio-keyboard-response","343","2.1.0","418520","F=YES, J=NO","jwwyx54111","1","68","75","60","","","","","","","","","","","","","","","",""
"null","audio/bottle.wav","null","audio-keyboard-response","344","2.1.0","418990","F=YES, J=NO","jwwyx54111","1","68","75","60","","","","","","","","","","","","","","","",""
"594","
          <p id=""word"" style=""font-size: 40px;"">watch</p>
          <p style=""font-size: 16px;"">F = YES &nbsp;&nbsp;&nbsp; J = NO</p>
        ","f","html-keyboard-response","345","2.1.0","419585","F=YES, J=NO","jwwyx54111","1","68","75","60","","","","","","","","","watch","bottle","filler","filler","f","true","",""
"null","<p style=""font-size: 50px;"">+</p>","null","html-keyboard-response","346","2.1.0","419892","F=YES, J=NO","jwwyx54111","1","68","75","60","","","","","","","","","","","","","","","",""
"null","audio/beep-329314.mp3","null","audio-keyboard-response","347","2.1.0","421418","F=YES, J=NO","jwwyx54111","1","68","75","60","","","","","","","","","","","","","","","",""
"null","audio/tomato.wav","null","audio-keyboard-response","348","2.1.0","422090","F=YES, J=NO","jwwyx54111","1","68","75","60","","","","","","","","","","","","","","","",""
"686","
          <p id=""word"" style=""font-size: 40px;"">gladies</p>
          <p style=""font-size: 16px;"">F = YES &nbsp;&nbsp;&nbsp; J = NO</p>
        ","j","html-keyboard-response","349","2.1.0","422777","F=YES, J=NO","jwwyx54111","1","68","75","60","","","","","","","","","gladies","tomato","pseudoword","pseudoword","j","true","",""
"null","<p style=""font-size: 50px;"">+</p>","null","html-keyboard-response","350","2.1.0","423083","F=YES, J=NO","jwwyx54111","1","68","75","60","","","","","","","","","","","","","","","",""
"null","audio/beep-329314.mp3","null","audio-keyboard-response","351","2.1.0","424618","F=YES, J=NO","jwwyx54111","1","68","75","60","","","","","","","","","","","","","","","",""
"null","audio/sand.wav","null","audio-keyboard-response","352","2.1.0","425269","F=YES, J=NO","jwwyx54111","1","68","75","60","","","","","","","","","","","","","","","",""
"1449","
          <p id=""word"" style=""font-size: 40px;"">proted</p>
          <p style=""font-size: 16px;"">F = YES &nbsp;&nbsp;&nbsp; J = NO</p>
        ","j","html-keyboard-response","353","2.1.0","426719","F=YES, J=NO","jwwyx54111","1","68","75","60","","","","","","","","","proted","sand","pseudoword","pseudoword","j","true","",""
"null","<p style=""font-size: 50px;"">+</p>","null","html-keyboard-response","354","2.1.0","427026","F=YES, J=NO","jwwyx54111","1","68","75","60","","","","","","","","","","","","","","","",""
"null","audio/beep-329314.mp3","null","audio-keyboard-response","355","2.1.0","428559","F=YES, J=NO","jwwyx54111","1","68","75","60","","","","","","","","","","","","","","","",""
"null","audio/ego.wav","null","audio-keyboard-response","356","2.1.0","429109","F=YES, J=NO","jwwyx54111","1","68","75","60","","","","","","","","","","","","","","","",""
"1116","
          <p id=""word"" style=""font-size: 40px;"">bruite</p>
          <p style=""font-size: 16px;"">F = YES &nbsp;&nbsp;&nbsp; J = NO</p>
        ","f","html-keyboard-response","357","2.1.0","430227","F=YES, J=NO","jwwyx54111","1","68","75","60","","","","","","","","","bruite","ego","pseudoword","pseudoword","j","false","",""
"null","<p style=""font-size: 50px;"">+</p>","null","html-keyboard-response","358","2.1.0","430538","F=YES, J=NO","jwwyx54111","1","68","75","60","","","","","","","","","","","","","","","",""
"null","audio/beep-329314.mp3","null","audio-keyboard-response","359","2.1.0","432079","F=YES, J=NO","jwwyx54111","1","68","75","60","","","","","","","","","","","","","","","",""
"null","audio/age1.wav","null","audio-keyboard-response","360","2.1.0","432630","F=YES, J=NO","jwwyx54111","1","68","75","60","","","","","","","","","","","","","","","",""
"370","
          <p id=""word"" style=""font-size: 40px;"">bake</p>
          <p style=""font-size: 16px;"">F = YES &nbsp;&nbsp;&nbsp; J = NO</p>
        ","f","html-keyboard-response","361","2.1.0","433000","F=YES, J=NO","jwwyx54111","1","68","75","60","","","","","","","","","bake","age1","filler","filler","f","true","",""
"1392","<p>Excellent! You have finished block 3 of 8.</p>
                     <p>Feel free to take a 30 second break.</p>
                     <p>Press any key when you're ready to continue.</p>"," ","html-keyboard-response","362","2.1.0","434393","F=YES, J=NO","jwwyx54111","1","68","75","60","","","","","","","","","","","","","","","",""
"631","<p>Starting main block 4 of 8. Press any key to continue.</p>"," ","html-keyboard-response","363","2.1.0","435026","F=YES, J=NO","jwwyx54111","1","68","75","60","","","","","","","","","","","","","","","",""
"null","<p style=""font-size: 50px;"">+</p>","null","html-keyboard-response","364","2.1.0","435334","F=YES, J=NO","jwwyx54111","1","68","75","60","","","","","","","","","","","","","","","",""
"null","audio/beep-329314.mp3","null","audio-keyboard-response","365","2.1.0","436858","F=YES, J=NO","jwwyx54111","1","68","75","60","","","","","","","","","","","","","","","",""
"null","audio/meal.wav","null","audio-keyboard-response","366","2.1.0","437308","F=YES, J=NO","jwwyx54111","1","68","75","60","","","","","","","","","","","","","","","",""
"836","
          <p id=""word"" style=""font-size: 40px;"">gallite</p>
          <p style=""font-size: 16px;"">F = YES &nbsp;&nbsp;&nbsp; J = NO</p>
        ","j","html-keyboard-response","367","2.1.0","438144","F=YES, J=NO","jwwyx54111","1","68","75","60","","","","","","","","","gallite","meal","pseudoword","pseudoword","j","true","",""
"null","<p style=""font-size: 50px;"">+</p>","null","html-keyboard-response","368","2.1.0","438453","F=YES, J=NO","jwwyx54111","1","68","75","60","","","","","","","","","","","","","","","",""
"null","audio/beep-329314.mp3","null","audio-keyboard-response","369","2.1.0","439979","F=YES, J=NO","jwwyx54111","1","68","75","60","","","","","","","","","","","","","","","",""
"null","audio/heart1.wav","null","audio-keyboard-response","370","2.1.0","440608","F=YES, J=NO","jwwyx54111","1","68","75","60","","","","","","","","","","","","","","","",""
"378","
          <p id=""word"" style=""font-size: 40px;"">dralm</p>
          <p style=""font-size: 16px;"">F = YES &nbsp;&nbsp;&nbsp; J = NO</p>
        ","f","html-keyboard-response","371","2.1.0","440987","F=YES, J=NO","jwwyx54111","1","68","75","60","","","","","","","","","dralm","heart1","pseudoword","pseudoword","j","false","",""
"null","<p style=""font-size: 50px;"">+</p>","null","html-keyboard-response","372","2.1.0","441293","F=YES, J=NO","jwwyx54111","1","68","75","60","","","","","","","","","","","","","","","",""
"null","audio/beep-329314.mp3","null","audio-keyboard-response","373","2.1.0","442820","F=YES, J=NO","jwwyx54111","1","68","75","60","","","","","","","","","","","","","","","",""
"null","audio/ego.wav","null","audio-keyboard-response","374","2.1.0","443350","F=YES, J=NO","jwwyx54111","1","68","75","60","","","","","","","","","","","","","","","",""
"470","
          <p id=""word"" style=""font-size: 40px;"">feed</p>
          <p style=""font-size: 16px;"">F = YES &nbsp;&nbsp;&nbsp; J = NO</p>
        ","f","html-keyboard-response","375","2.1.0","443820","F=YES, J=NO","jwwyx54111","1","68","75","60","","","","","","","","","feed","ego","metaphor","experimental","f","true","",""
"null","<p style=""font-size: 50px;"">+</p>","null","html-keyboard-response","376","2.1.0","444135","F=YES, J=NO","jwwyx54111","1","68","75","60","","","","","","","","","","","","","","","",""
"null","audio/beep-329314.mp3","null","audio-keyboard-response","377","2.1.0","445658","F=YES, J=NO","jwwyx54111","1","68","75","60","","","","","","","","","","","","","","","",""
"null","audio/camera1.wav","null","audio-keyboard-response","378","2.1.0","446128","F=YES, J=NO","jwwyx54111","1","68","75","60","","","","","","","","","","","","","","","",""
"580","
          <p id=""word"" style=""font-size: 40px;"">bring</p>
          <p style=""font-size: 16px;"">F = YES &nbsp;&nbsp;&nbsp; J = NO</p>
        ","f","html-keyboard-response","379","2.1.0","446708","F=YES, J=NO","jwwyx54111","1","68","75","60","","","","","","","","","bring","camera1","literal","experimental","f","true","",""
"null","<p style=""font-size: 50px;"">+</p>","null","html-keyboard-response","380","2.1.0","447022","F=YES, J=NO","jwwyx54111","1","68","75","60","","","","","","","","","","","","","","","",""
"null","audio/beep-329314.mp3","null","audio-keyboard-response","381","2.1.0","448559","F=YES, J=NO","jwwyx54111","1","68","75","60","","","","","","","","","","","","","","","",""
"null","audio/pizza1.wav","null","audio-keyboard-response","382","2.1.0","449128","F=YES, J=NO","jwwyx54111","1","68","75","60","","","","","","","","","","","","","","","",""
"527","
          <p id=""word"" style=""font-size: 40px;"">devour</p>
          <p style=""font-size: 16px;"">F = YES &nbsp;&nbsp;&nbsp; J = NO</p>
        ","f","html-keyboard-response","383","2.1.0","449656","F=YES, J=NO","jwwyx54111","1","68","75","60","","","","","","","","","devour","pizza1","literal","experimental","f","true","",""
"null","<p style=""font-size: 50px;"">+</p>","null","html-keyboard-response","384","2.1.0","449969","F=YES, J=NO","jwwyx54111","1","68","75","60","","","","","","","","","","","","","","","",""
"null","audio/beep-329314.mp3","null","audio-keyboard-response","385","2.1.0","451498","F=YES, J=NO","jwwyx54111","1","68","75","60","","","","","","","","","","","","","","","",""
"null","audio/butter1.wav","null","audio-keyboard-response","386","2.1.0","451949","F=YES, J=NO","jwwyx54111","1","68","75","60","","","","","","","","","","","","","","","",""
"679","
          <p id=""word"" style=""font-size: 40px;"">chew</p>
          <p style=""font-size: 16px;"">F = YES &nbsp;&nbsp;&nbsp; J = NO</p>
        ","f","html-keyboard-response","387","2.1.0","452628","F=YES, J=NO","jwwyx54111","1","68","75","60","","","","","","","","","chew","butter1","filler","filler","f","true","",""
"null","<p style=""font-size: 50px;"">+</p>","null","html-keyboard-response","388","2.1.0","452933","F=YES, J=NO","jwwyx54111","1","68","75","60","","","","","","","","","","","","","","","",""
"null","audio/beep-329314.mp3","null","audio-keyboard-response","389","2.1.0","454460","F=YES, J=NO","jwwyx54111","1","68","75","60","","","","","","","","","","","","","","","",""
"null","audio/cloud1.wav","null","audio-keyboard-response","390","2.1.0","455009","F=YES, J=NO","jwwyx54111","1","68","75","60","","","","","","","","","","","","","","","",""
"627","
          <p id=""word"" style=""font-size: 40px;"">brotant</p>
          <p style=""font-size: 16px;"">F = YES &nbsp;&nbsp;&nbsp; J = NO</p>
        ","j","html-keyboard-response","391","2.1.0","455637","F=YES, J=NO","jwwyx54111","1","68","75","60","","","","","","","","","brotant","cloud1","pseudoword","pseudoword","j","true","",""
