"rt","stimulus","response","trial_type","trial_index","plugin_version","time_elapsed","response_mapping","subject_id","list_index","lextale_score","lextale_word_score","lextale_nonword_score","success","timeout","failed_images","failed_audio","failed_video","task","isWord","isDummy","target","prime","prime_type","stimulus_type","correct_response","correct","section","question_order"
"98972","
    <div style=""max-width: 800px; margin: auto; text-align: left;"">
      <h2>STANFORD UNIVERSITY</h2>
      <h3>Research Information Sheet</h3>
      <p><strong>Protocol Director:</strong> Robert Hawkins<br>
      <strong>Protocol Title:</strong> Communication and social cognition in natural audiovisual contexts<br>
      <strong>IRB#:</strong> 77226</p>

      <p><strong>DESCRIPTION:</strong> You are invited to participate in a research study about language and communication. The purpose of the research is to understand how you interact and communicate with other people in naturalistic settings as a fluent English speaker. This research will be conducted through the Prolific platform, including participants from the US, UK, and Canada. If you decide to participate in this research, you will play a communication game in a group with one or more partners.</p>

      <p><strong>TIME INVOLVEMENT:</strong> The task will last the amount of time advertised on Prolific. You are free to withdraw from the study at any time.</p>

      <p><strong>RISKS AND BENEFITS:</strong> You may become frustrated if your partner gets distracted, or experience discomfort if other participants in your group send text that is inappropriate for the task. We ask you to please be respectful of other participants you might be interacting with to mitigate these risks. You may also experience discomfort when being asked to discuss or challenge emotionally salient political beliefs. Study data will be stored securely, in compliance with Stanford University standards, minimizing the risk of confidentiality breach. This study advances our scientific understanding of how people communicate and collaborate in naturalistic settings. This study may lead to further insights about what can go wrong in teamwork, suggest potential interventions to overcome these barriers, and help to develop assistive technologies that collaborate with human partners. We cannot and do not guarantee or promise that you will receive any benefits from this study.</p>

      <p><strong>PAYMENTS:</strong> You will receive payment in the amount advertised on Prolific. If you do not complete this study, you will receive prorated payment based on the time that you have spent. Additionally, you may be eligible for bonus payments as described in the instructions.</p>

      <p><strong>PARTICIPANT’S RIGHTS:</strong> If you have read this form and have decided to participate in this project, please understand your participation is voluntary and you have the right to withdraw your consent or discontinue participation at any time without penalty or loss of benefits to which you are otherwise entitled. The alternative is not to participate. You have the right to refuse to answer particular questions. The results of this research study may be presented at scientific or professional meetings or published in scientific journals. Your individual privacy will be maintained in all published and written data resulting from the study. In accordance with scientific norms, the data from this study may be used or shared with other researchers for future research (after removing personally identifying information) without additional consent from you.</p>

      <p><strong>CONTACT INFORMATION:</strong><br>
      Questions: If you have any questions, concerns or complaints about this research, its procedures, risks and benefits, contact the Protocol Director, Robert Hawkins (<a href=""mailto:rdhawkins@stanford.edu"">rdhawkins@stanford.edu</a>, 217-549-6923).<br>
      Independent Contact: If you are not satisfied with how this study is being conducted, or if you have any concerns, complaints, or general questions about the research or your rights as a participant, please contact the Stanford Institutional Review Board (IRB) to speak to someone independent of the research team at 650-723-2480 or toll free at 1-866-680-2906, or email at <a href=""mailto:irbnon-med@stanford.edu"">irbnon-med@stanford.edu</a>. You can also write to the Stanford IRB, Stanford University, 1705 El Camino Real, Palo Alto, CA 94306.</p>

      <p><strong>Please save or print a copy of this page for your records.</strong></p>
      <p>If you agree to participate in this research, click ""Continue"" below.</p>
    </div>
  ","0","html-button-response","0","2.1.0","98981","F=YES, J=NO","l2vzkxjjrg","2","81","78","85","","","","","","","","","","","","","","","",""
"24525","
    <div style=""max-width: 800px; margin: auto; text-align: left;"">
      <h2>Welcome!</h2>
      <p>Thank you for participating in this study. The experiment consists of three parts:</p>
      <ol>
        <li>An English vocabulary test</li>
        <li>A main task in which you will hear and see words, and decide whether the written word is a real English word</li>
        <li>A brief survey about your background</li>
      </ol>
      <p>Each part will be introduced before it begins.</p>
      <p>Please make sure you are in a quiet environment and can hear audio clearly for the final task.</p>
      <p style=""margin-top: 2em;"">Press any key to begin.</p>
    </div>
  ","q","html-keyboard-response","1","2.1.0","123507","F=YES, J=NO","l2vzkxjjrg","2","81","78","85","","","","","","","","","","","","","","","",""
"","","","preload","2","2.1.0","124573","F=YES, J=NO","l2vzkxjjrg","2","81","78","85","true","false","[]","[]","[]","","","","","","","","","","",""
"4642","
    <div style=""max-width: 800px; margin: auto; text-align: left;"">
      <h2>Part 1: Vocabulary Test</h2>
      <p>You will now complete the first part of the study: a short English vocabulary test.</p>
      <p>This test is called <strong>LexTALE</strong> and helps us get a general sense of your English proficiency.</p>
      <p style=""margin-top: 2em;"">Press any key to continue.</p>
    </div>
  ","q","html-keyboard-response","3","2.1.0","129216","F=YES, J=NO","l2vzkxjjrg","2","81","78","85","","","","","","","","","","","","","","","",""
"86223","
    <div style=""max-width: 800px; margin: auto; text-align: left;"">
      <h2>LexTALE Vocabulary Test</h2>
      <p>In this test, you will see a series of letter strings—one at a time.</p>
      <p>Your task is to decide whether each string is a real English word.</p>
      <p><strong>Key responses:</strong></p>
      <ul>
        <li><strong>F</strong> = YES (real English word)</li>
        <li><strong>J</strong> = NO (not a real English word)</li>
      </ul>
      <p>There is no time limit, but please try to be accurate.</p>
      <p style=""margin-top: 2em;"">Press any key to begin.</p>
    </div>
  ","f","html-keyboard-response","4","2.1.0","215440","F=YES, J=NO","l2vzkxjjrg","2","81","78","85","","","","","","","","","","","","","","","",""
"2063","
  <p style=""font-size: 40px;"">platery</p>
  <p style=""font-size: 16px;"">F = YES &nbsp;&nbsp;&nbsp; J = NO</p>
","f","html-keyboard-response","5","2.1.0","217504","F=YES, J=NO","l2vzkxjjrg","2","81","78","85","","","","","","lextale","false","true","","","","","","","",""
"927","
  <p style=""font-size: 40px;"">denial</p>
  <p style=""font-size: 16px;"">F = YES &nbsp;&nbsp;&nbsp; J = NO</p>
","f","html-keyboard-response","6","2.1.0","218432","F=YES, J=NO","l2vzkxjjrg","2","81","78","85","","","","","","lextale","true","true","","","","","","","",""
"1559","
  <p style=""font-size: 40px;"">marrit</p>
  <p style=""font-size: 16px;"">F = YES &nbsp;&nbsp;&nbsp; J = NO</p>
","f","html-keyboard-response","7","2.1.0","219992","F=YES, J=NO","l2vzkxjjrg","2","81","78","85","","","","","","lextale","false","true","","","","","","","",""
"1432","
  <p style=""font-size: 40px;"">bottle</p>
  <p style=""font-size: 16px;"">F = YES &nbsp;&nbsp;&nbsp; J = NO</p>
","f","html-keyboard-response","8","2.1.0","221424","F=YES, J=NO","l2vzkxjjrg","2","81","78","85","","","","","","lextale","true","false","","","","","","","",""
"1015","
  <p style=""font-size: 40px;"">birst</p>
  <p style=""font-size: 16px;"">F = YES &nbsp;&nbsp;&nbsp; J = NO</p>
","j","html-keyboard-response","9","2.1.0","222439","F=YES, J=NO","l2vzkxjjrg","2","81","78","85","","","","","","lextale","false","false","","","","","","","",""
"919","
  <p style=""font-size: 40px;"">envy</p>
  <p style=""font-size: 16px;"">F = YES &nbsp;&nbsp;&nbsp; J = NO</p>
","f","html-keyboard-response","10","2.1.0","223359","F=YES, J=NO","l2vzkxjjrg","2","81","78","85","","","","","","lextale","true","false","","","","","","","",""
"1048","
  <p style=""font-size: 40px;"">brang</p>
  <p style=""font-size: 16px;"">F = YES &nbsp;&nbsp;&nbsp; J = NO</p>
","j","html-keyboard-response","11","2.1.0","224408","F=YES, J=NO","l2vzkxjjrg","2","81","78","85","","","","","","lextale","false","false","","","","","","","",""
"759","
  <p style=""font-size: 40px;"">huge</p>
  <p style=""font-size: 16px;"">F = YES &nbsp;&nbsp;&nbsp; J = NO</p>
","f","html-keyboard-response","12","2.1.0","225168","F=YES, J=NO","l2vzkxjjrg","2","81","78","85","","","","","","lextale","true","false","","","","","","","",""
"1151","
  <p style=""font-size: 40px;"">plove</p>
  <p style=""font-size: 16px;"">F = YES &nbsp;&nbsp;&nbsp; J = NO</p>
","j","html-keyboard-response","13","2.1.0","226319","F=YES, J=NO","l2vzkxjjrg","2","81","78","85","","","","","","lextale","false","false","","","","","","","",""
"912","
  <p style=""font-size: 40px;"">border</p>
  <p style=""font-size: 16px;"">F = YES &nbsp;&nbsp;&nbsp; J = NO</p>
","f","html-keyboard-response","14","2.1.0","227232","F=YES, J=NO","l2vzkxjjrg","2","81","78","85","","","","","","lextale","true","false","","","","","","","",""
"1367","
  <p style=""font-size: 40px;"">flimsy</p>
  <p style=""font-size: 16px;"">F = YES &nbsp;&nbsp;&nbsp; J = NO</p>
","f","html-keyboard-response","15","2.1.0","228599","F=YES, J=NO","l2vzkxjjrg","2","81","78","85","","","","","","lextale","true","false","","","","","","","",""
"879","
  <p style=""font-size: 40px;"">drain</p>
  <p style=""font-size: 16px;"">F = YES &nbsp;&nbsp;&nbsp; J = NO</p>
","f","html-keyboard-response","16","2.1.0","229479","F=YES, J=NO","l2vzkxjjrg","2","81","78","85","","","","","","lextale","true","false","","","","","","","",""
"5704","
  <p style=""font-size: 40px;"">twindle</p>
  <p style=""font-size: 16px;"">F = YES &nbsp;&nbsp;&nbsp; J = NO</p>
","f","html-keyboard-response","17","2.1.0","235184","F=YES, J=NO","l2vzkxjjrg","2","81","78","85","","","","","","lextale","false","false","","","","","","","",""
"872","
  <p style=""font-size: 40px;"">propose</p>
  <p style=""font-size: 16px;"">F = YES &nbsp;&nbsp;&nbsp; J = NO</p>
","f","html-keyboard-response","18","2.1.0","236056","F=YES, J=NO","l2vzkxjjrg","2","81","78","85","","","","","","lextale","true","false","","","","","","","",""
"927","
  <p style=""font-size: 40px;"">forlay</p>
  <p style=""font-size: 16px;"">F = YES &nbsp;&nbsp;&nbsp; J = NO</p>
","j","html-keyboard-response","19","2.1.0","236983","F=YES, J=NO","l2vzkxjjrg","2","81","78","85","","","","","","lextale","false","false","","","","","","","",""
"1015","
  <p style=""font-size: 40px;"">tenant</p>
  <p style=""font-size: 16px;"">F = YES &nbsp;&nbsp;&nbsp; J = NO</p>
","f","html-keyboard-response","20","2.1.0","237999","F=YES, J=NO","l2vzkxjjrg","2","81","78","85","","","","","","lextale","true","false","","","","","","","",""
"1976","
  <p style=""font-size: 40px;"">strain</p>
  <p style=""font-size: 16px;"">F = YES &nbsp;&nbsp;&nbsp; J = NO</p>
","f","html-keyboard-response","21","2.1.0","239976","F=YES, J=NO","l2vzkxjjrg","2","81","78","85","","","","","","lextale","true","false","","","","","","","",""
"1272","
  <p style=""font-size: 40px;"">holster</p>
  <p style=""font-size: 16px;"">F = YES &nbsp;&nbsp;&nbsp; J = NO</p>
","f","html-keyboard-response","22","2.1.0","241248","F=YES, J=NO","l2vzkxjjrg","2","81","78","85","","","","","","lextale","true","false","","","","","","","",""
"1135","
  <p style=""font-size: 40px;"">hinder</p>
  <p style=""font-size: 16px;"">F = YES &nbsp;&nbsp;&nbsp; J = NO</p>
","f","html-keyboard-response","23","2.1.0","242383","F=YES, J=NO","l2vzkxjjrg","2","81","78","85","","","","","","lextale","true","false","","","","","","","",""
"2792","
  <p style=""font-size: 40px;"">swindle</p>
  <p style=""font-size: 16px;"">F = YES &nbsp;&nbsp;&nbsp; J = NO</p>
","f","html-keyboard-response","24","2.1.0","245176","F=YES, J=NO","l2vzkxjjrg","2","81","78","85","","","","","","lextale","true","false","","","","","","","",""
"1415","
  <p style=""font-size: 40px;"">nuder</p>
  <p style=""font-size: 16px;"">F = YES &nbsp;&nbsp;&nbsp; J = NO</p>
","j","html-keyboard-response","25","2.1.0","246591","F=YES, J=NO","l2vzkxjjrg","2","81","78","85","","","","","","lextale","false","false","","","","","","","",""
"856","
  <p style=""font-size: 40px;"">pillow</p>
  <p style=""font-size: 16px;"">F = YES &nbsp;&nbsp;&nbsp; J = NO</p>
","f","html-keyboard-response","26","2.1.0","247448","F=YES, J=NO","l2vzkxjjrg","2","81","78","85","","","","","","lextale","true","false","","","","","","","",""
"1055","
  <p style=""font-size: 40px;"">shumble</p>
  <p style=""font-size: 16px;"">F = YES &nbsp;&nbsp;&nbsp; J = NO</p>
","j","html-keyboard-response","27","2.1.0","248503","F=YES, J=NO","l2vzkxjjrg","2","81","78","85","","","","","","lextale","false","false","","","","","","","",""
"1128","
  <p style=""font-size: 40px;"">thirst</p>
  <p style=""font-size: 16px;"">F = YES &nbsp;&nbsp;&nbsp; J = NO</p>
","f","html-keyboard-response","28","2.1.0","249631","F=YES, J=NO","l2vzkxjjrg","2","81","78","85","","","","","","lextale","true","false","","","","","","","",""
"1832","
  <p style=""font-size: 40px;"">unsail</p>
  <p style=""font-size: 16px;"">F = YES &nbsp;&nbsp;&nbsp; J = NO</p>
","j","html-keyboard-response","29","2.1.0","251464","F=YES, J=NO","l2vzkxjjrg","2","81","78","85","","","","","","lextale","false","false","","","","","","","",""
"1247","
  <p style=""font-size: 40px;"">rifle</p>
  <p style=""font-size: 16px;"">F = YES &nbsp;&nbsp;&nbsp; J = NO</p>
","f","html-keyboard-response","30","2.1.0","252712","F=YES, J=NO","l2vzkxjjrg","2","81","78","85","","","","","","lextale","true","false","","","","","","","",""
"751","
  <p style=""font-size: 40px;"">mush</p>
  <p style=""font-size: 16px;"">F = YES &nbsp;&nbsp;&nbsp; J = NO</p>
","f","html-keyboard-response","31","2.1.0","253464","F=YES, J=NO","l2vzkxjjrg","2","81","78","85","","","","","","lextale","false","false","","","","","","","",""
"5848","
  <p style=""font-size: 40px;"">drench</p>
  <p style=""font-size: 16px;"">F = YES &nbsp;&nbsp;&nbsp; J = NO</p>
","f","html-keyboard-response","32","2.1.0","259312","F=YES, J=NO","l2vzkxjjrg","2","81","78","85","","","","","","lextale","true","false","","","","","","","",""
"791","
  <p style=""font-size: 40px;"">snirt</p>
  <p style=""font-size: 16px;"">F = YES &nbsp;&nbsp;&nbsp; J = NO</p>
","j","html-keyboard-response","33","2.1.0","260104","F=YES, J=NO","l2vzkxjjrg","2","81","78","85","","","","","","lextale","false","false","","","","","","","",""
"871","
  <p style=""font-size: 40px;"">bitter</p>
  <p style=""font-size: 16px;"">F = YES &nbsp;&nbsp;&nbsp; J = NO</p>
","f","html-keyboard-response","34","2.1.0","260975","F=YES, J=NO","l2vzkxjjrg","2","81","78","85","","","","","","lextale","true","false","","","","","","","",""
"1055","
  <p style=""font-size: 40px;"">pliff</p>
  <p style=""font-size: 16px;"">F = YES &nbsp;&nbsp;&nbsp; J = NO</p>
","j","html-keyboard-response","35","2.1.0","262031","F=YES, J=NO","l2vzkxjjrg","2","81","78","85","","","","","","lextale","false","false","","","","","","","",""
"800","
  <p style=""font-size: 40px;"">tablet</p>
  <p style=""font-size: 16px;"">F = YES &nbsp;&nbsp;&nbsp; J = NO</p>
","f","html-keyboard-response","36","2.1.0","262831","F=YES, J=NO","l2vzkxjjrg","2","81","78","85","","","","","","lextale","true","false","","","","","","","",""
"2183","
  <p style=""font-size: 40px;"">glimmer</p>
  <p style=""font-size: 16px;"">F = YES &nbsp;&nbsp;&nbsp; J = NO</p>
","f","html-keyboard-response","37","2.1.0","265015","F=YES, J=NO","l2vzkxjjrg","2","81","78","85","","","","","","lextale","true","false","","","","","","","",""
"743","
  <p style=""font-size: 40px;"">slink</p>
  <p style=""font-size: 16px;"">F = YES &nbsp;&nbsp;&nbsp; J = NO</p>
","j","html-keyboard-response","38","2.1.0","265759","F=YES, J=NO","l2vzkxjjrg","2","81","78","85","","","","","","lextale","true","false","","","","","","","",""
"823","
  <p style=""font-size: 40px;"">clever</p>
  <p style=""font-size: 16px;"">F = YES &nbsp;&nbsp;&nbsp; J = NO</p>
","f","html-keyboard-response","39","2.1.0","266583","F=YES, J=NO","l2vzkxjjrg","2","81","78","85","","","","","","lextale","true","false","","","","","","","",""
"927","
  <p style=""font-size: 40px;"">grum</p>
  <p style=""font-size: 16px;"">F = YES &nbsp;&nbsp;&nbsp; J = NO</p>
","j","html-keyboard-response","40","2.1.0","267511","F=YES, J=NO","l2vzkxjjrg","2","81","78","85","","","","","","lextale","false","false","","","","","","","",""
"928","
  <p style=""font-size: 40px;"">string</p>
  <p style=""font-size: 16px;"">F = YES &nbsp;&nbsp;&nbsp; J = NO</p>
","f","html-keyboard-response","41","2.1.0","268439","F=YES, J=NO","l2vzkxjjrg","2","81","78","85","","","","","","lextale","true","false","","","","","","","",""
"2080","
  <p style=""font-size: 40px;"">plim</p>
  <p style=""font-size: 16px;"">F = YES &nbsp;&nbsp;&nbsp; J = NO</p>
","j","html-keyboard-response","42","2.1.0","270520","F=YES, J=NO","l2vzkxjjrg","2","81","78","85","","","","","","lextale","false","false","","","","","","","",""
"832","
  <p style=""font-size: 40px;"">cable</p>
  <p style=""font-size: 16px;"">F = YES &nbsp;&nbsp;&nbsp; J = NO</p>
","f","html-keyboard-response","43","2.1.0","271352","F=YES, J=NO","l2vzkxjjrg","2","81","78","85","","","","","","lextale","true","false","","","","","","","",""
"2719","
  <p style=""font-size: 40px;"">shrivel</p>
  <p style=""font-size: 16px;"">F = YES &nbsp;&nbsp;&nbsp; J = NO</p>
","f","html-keyboard-response","44","2.1.0","274072","F=YES, J=NO","l2vzkxjjrg","2","81","78","85","","","","","","lextale","true","false","","","","","","","",""
"7287","
  <p style=""font-size: 40px;"">tarnish</p>
  <p style=""font-size: 16px;"">F = YES &nbsp;&nbsp;&nbsp; J = NO</p>
","f","html-keyboard-response","45","2.1.0","281360","F=YES, J=NO","l2vzkxjjrg","2","81","78","85","","","","","","lextale","true","false","","","","","","","",""
"936","
  <p style=""font-size: 40px;"">blim</p>
  <p style=""font-size: 16px;"">F = YES &nbsp;&nbsp;&nbsp; J = NO</p>
","j","html-keyboard-response","46","2.1.0","282296","F=YES, J=NO","l2vzkxjjrg","2","81","78","85","","","","","","lextale","false","false","","","","","","","",""
"2311","
  <p style=""font-size: 40px;"">stifle</p>
  <p style=""font-size: 16px;"">F = YES &nbsp;&nbsp;&nbsp; J = NO</p>
","j","html-keyboard-response","47","2.1.0","284607","F=YES, J=NO","l2vzkxjjrg","2","81","78","85","","","","","","lextale","true","false","","","","","","","",""
"983","
  <p style=""font-size: 40px;"">bint</p>
  <p style=""font-size: 16px;"">F = YES &nbsp;&nbsp;&nbsp; J = NO</p>
","j","html-keyboard-response","48","2.1.0","285591","F=YES, J=NO","l2vzkxjjrg","2","81","78","85","","","","","","lextale","false","false","","","","","","","",""
"760","
  <p style=""font-size: 40px;"">purple</p>
  <p style=""font-size: 16px;"">F = YES &nbsp;&nbsp;&nbsp; J = NO</p>
","f","html-keyboard-response","49","2.1.0","286352","F=YES, J=NO","l2vzkxjjrg","2","81","78","85","","","","","","lextale","true","false","","","","","","","",""
"4647","
  <p style=""font-size: 40px;"">wriggle</p>
  <p style=""font-size: 16px;"">F = YES &nbsp;&nbsp;&nbsp; J = NO</p>
","f","html-keyboard-response","50","2.1.0","291000","F=YES, J=NO","l2vzkxjjrg","2","81","78","85","","","","","","lextale","true","false","","","","","","","",""
"2536","
  <p style=""font-size: 40px;"">mangle</p>
  <p style=""font-size: 16px;"">F = YES &nbsp;&nbsp;&nbsp; J = NO</p>
","j","html-keyboard-response","51","2.1.0","293536","F=YES, J=NO","l2vzkxjjrg","2","81","78","85","","","","","","lextale","true","false","","","","","","","",""
"1167","
  <p style=""font-size: 40px;"">shramp</p>
  <p style=""font-size: 16px;"">F = YES &nbsp;&nbsp;&nbsp; J = NO</p>
","j","html-keyboard-response","52","2.1.0","294704","F=YES, J=NO","l2vzkxjjrg","2","81","78","85","","","","","","lextale","false","false","","","","","","","",""
"720","
  <p style=""font-size: 40px;"">flirt</p>
  <p style=""font-size: 16px;"">F = YES &nbsp;&nbsp;&nbsp; J = NO</p>
","f","html-keyboard-response","53","2.1.0","295424","F=YES, J=NO","l2vzkxjjrg","2","81","78","85","","","","","","lextale","true","false","","","","","","","",""
"943","
  <p style=""font-size: 40px;"">frip</p>
  <p style=""font-size: 16px;"">F = YES &nbsp;&nbsp;&nbsp; J = NO</p>
","j","html-keyboard-response","54","2.1.0","296368","F=YES, J=NO","l2vzkxjjrg","2","81","78","85","","","","","","lextale","false","false","","","","","","","",""
"2000","
  <p style=""font-size: 40px;"">tangle</p>
  <p style=""font-size: 16px;"">F = YES &nbsp;&nbsp;&nbsp; J = NO</p>
","f","html-keyboard-response","55","2.1.0","298368","F=YES, J=NO","l2vzkxjjrg","2","81","78","85","","","","","","lextale","true","false","","","","","","","",""
"943","
  <p style=""font-size: 40px;"">crumble</p>
  <p style=""font-size: 16px;"">F = YES &nbsp;&nbsp;&nbsp; J = NO</p>
","f","html-keyboard-response","56","2.1.0","299312","F=YES, J=NO","l2vzkxjjrg","2","81","78","85","","","","","","lextale","true","false","","","","","","","",""
"879","
  <p style=""font-size: 40px;"">wrinkle</p>
  <p style=""font-size: 16px;"">F = YES &nbsp;&nbsp;&nbsp; J = NO</p>
","f","html-keyboard-response","57","2.1.0","300192","F=YES, J=NO","l2vzkxjjrg","2","81","78","85","","","","","","lextale","true","false","","","","","","","",""
"1864","
  <p style=""font-size: 40px;"">slumb</p>
  <p style=""font-size: 16px;"">F = YES &nbsp;&nbsp;&nbsp; J = NO</p>
","j","html-keyboard-response","58","2.1.0","302056","F=YES, J=NO","l2vzkxjjrg","2","81","78","85","","","","","","lextale","false","false","","","","","","","",""
"808","
  <p style=""font-size: 40px;"">jungle</p>
  <p style=""font-size: 16px;"">F = YES &nbsp;&nbsp;&nbsp; J = NO</p>
","f","html-keyboard-response","59","2.1.0","302864","F=YES, J=NO","l2vzkxjjrg","2","81","78","85","","","","","","lextale","true","false","","","","","","","",""
"1655","
  <p style=""font-size: 40px;"">frolick</p>
  <p style=""font-size: 16px;"">F = YES &nbsp;&nbsp;&nbsp; J = NO</p>
","j","html-keyboard-response","60","2.1.0","304520","F=YES, J=NO","l2vzkxjjrg","2","81","78","85","","","","","","lextale","false","false","","","","","","","",""
"57583","
      <h2>LexTALE Test Completed</h2>
      <p>Your LexTALE vocabulary score is: <strong>81%</strong></p>
      <p>Press any key to continue.</p>
    ","j","html-keyboard-response","61","2.1.0","362104","F=YES, J=NO","l2vzkxjjrg","2","81","78","85","","","","","","","","","","","","","","","",""
"6184","
    <div style=""max-width: 800px; margin: auto; text-align: left;"">
      <h2>Break Time</h2>
      <p>You have completed the first part of the study.</p>
      <p>You may take a short <strong>30-second break</strong> before continuing.</p>
      <p>When you’re ready, press any key to continue to the final task.</p>
    </div>
  ","j","html-keyboard-response","62","2.1.0","368288","F=YES, J=NO","l2vzkxjjrg","2","81","78","85","","","","","","","","","","","","","","","",""
"57775","
    <div style=""max-width: 800px; margin: auto; text-align: left;"">
      <h2>Part 2: Lexical Decision Task</h2>
      <p>You will now begin the second part of the study.</p>
      <p>Each trial will follow this sequence:</p>
      <ul>
        <li>A fixation cross (+) appears at the center of the screen.</li>
        <li>You will hear a short beep followed by a spoken word.</li>
        <li>A written word will appear briefly on the screen.</li>
      </ul>
      <p>Your task is to judge whether the <strong>written word</strong> is a real English word.</p>
      <p style=""margin-top: 1em;""><strong>Key responses:</strong></p>
      <ul>
        <li><strong>F</strong> = YES (real English word)</li>
        <li><strong>J</strong> = NO (not a real English word)</li>
      </ul>
      <p>Please respond as quickly and accurately as you can.</p>
      <p style=""margin-top: 2em;"">Press any key to continue.</p>
    </div>
  ","j","html-keyboard-response","63","2.1.0","426064","F=YES, J=NO","l2vzkxjjrg","2","81","78","85","","","","","","","","","","","","","","","",""
"9943","
    <div style=""max-width: 800px; margin: auto; text-align: left;"">
      <h2>Before You Begin</h2>
      <p>Make sure your sound is turned on.</p>
      <p>You will hear audio during each trial, but your decision should be based only on the <strong>written word</strong> you see on the screen.</p>
      <p><strong>Reminder:</strong></p>
      <ul>
        <li><strong>F</strong> = YES (real English word)</li>
        <li><strong>J</strong> = NO (not a real English word)</li>
      </ul>
      <p style=""margin-top: 2em;"">Press any key when you are ready to begin.</p>
    </div>
  ","j","html-keyboard-response","64","2.1.0","436008","F=YES, J=NO","l2vzkxjjrg","2","81","78","85","","","","","","","","","","","","","","","",""
"4224","
    <div style=""max-width: 800px; margin: auto; text-align: left;"">
      <h2>Part 2: Practice Trials</h2>
      <p>You will now complete a few <strong>practice trials</strong> to get familiar with the task.</p>
      <p>These trials are <strong>not scored</strong> and are only to help you get used to the format.</p>
      <p style=""margin-top: 2em;"">Press any key to begin.</p>
    </div>
  ","j","html-keyboard-response","65","2.1.0","440232","F=YES, J=NO","l2vzkxjjrg","2","81","78","85","","","","","","","","","","","","","","","",""
"2687","<p>Starting practice block 1 of 2. Press any key to continue.</p>","j","html-keyboard-response","66","2.1.0","442920","F=YES, J=NO","l2vzkxjjrg","2","81","78","85","","","","","","","","","","","","","","","",""
"null","<p style=""font-size: 50px;"">+</p>","null","html-keyboard-response","67","2.1.0","443231","F=YES, J=NO","l2vzkxjjrg","2","81","78","85","","","","","","","","","","","","","","","",""
"null","audio/beep-329314.mp3","null","audio-keyboard-response","68","2.1.0","444803","F=YES, J=NO","l2vzkxjjrg","2","81","78","85","","","","","","","","","","","","","","","",""
"null","audio/butter1.wav","null","audio-keyboard-response","69","2.1.0","445303","F=YES, J=NO","l2vzkxjjrg","2","81","78","85","","","","","","","","","","","","","","","",""
"null","
          <p id=""word"" style=""font-size: 40px;"">chew</p>
          <p style=""font-size: 16px;"">F = YES &nbsp;&nbsp;&nbsp; J = NO</p>
        ","null","html-keyboard-response","70","2.1.0","446811","F=YES, J=NO","l2vzkxjjrg","2","81","78","85","","","","","","","","","chew","butter1","filler","filler","f","false","",""
"null","<p style=""font-size: 50px;"">+</p>","null","html-keyboard-response","71","2.1.0","447119","F=YES, J=NO","l2vzkxjjrg","2","81","78","85","","","","","","","","","","","","","","","",""
"null","audio/beep-329314.mp3","null","audio-keyboard-response","72","2.1.0","448643","F=YES, J=NO","l2vzkxjjrg","2","81","78","85","","","","","","","","","","","","","","","",""
"null","audio/alarm1.wav","null","audio-keyboard-response","73","2.1.0","449223","F=YES, J=NO","l2vzkxjjrg","2","81","78","85","","","","","","","","","","","","","","","",""
"null","
          <p id=""word"" style=""font-size: 40px;"">swetp</p>
          <p style=""font-size: 16px;"">F = YES &nbsp;&nbsp;&nbsp; J = NO</p>
        ","null","html-keyboard-response","74","2.1.0","450734","F=YES, J=NO","l2vzkxjjrg","2","81","78","85","","","","","","","","","swetp","alarm1","pseudoword","pseudoword","j","false","",""
"null","<p style=""font-size: 50px;"">+</p>","null","html-keyboard-response","75","2.1.0","451046","F=YES, J=NO","l2vzkxjjrg","2","81","78","85","","","","","","","","","","","","","","","",""
"null","audio/beep-329314.mp3","null","audio-keyboard-response","76","2.1.0","452583","F=YES, J=NO","l2vzkxjjrg","2","81","78","85","","","","","","","","","","","","","","","",""
"null","audio/age1.wav","null","audio-keyboard-response","77","2.1.0","453183","F=YES, J=NO","l2vzkxjjrg","2","81","78","85","","","","","","","","","","","","","","","",""
"1256","
          <p id=""word"" style=""font-size: 40px;"">bake</p>
          <p style=""font-size: 16px;"">F = YES &nbsp;&nbsp;&nbsp; J = NO</p>
        ","f","html-keyboard-response","78","2.1.0","454440","F=YES, J=NO","l2vzkxjjrg","2","81","78","85","","","","","","","","","bake","age1","filler","filler","f","true","",""
"null","<p style=""font-size: 50px;"">+</p>","null","html-keyboard-response","79","2.1.0","454751","F=YES, J=NO","l2vzkxjjrg","2","81","78","85","","","","","","","","","","","","","","","",""
"null","audio/beep-329314.mp3","null","audio-keyboard-response","80","2.1.0","456283","F=YES, J=NO","l2vzkxjjrg","2","81","78","85","","","","","","","","","","","","","","","",""
"null","audio/meal.wav","null","audio-keyboard-response","81","2.1.0","456783","F=YES, J=NO","l2vzkxjjrg","2","81","78","85","","","","","","","","","","","","","","","",""
"784","
          <p id=""word"" style=""font-size: 40px;"">gallite</p>
          <p style=""font-size: 16px;"">F = YES &nbsp;&nbsp;&nbsp; J = NO</p>
        ","j","html-keyboard-response","82","2.1.0","457568","F=YES, J=NO","l2vzkxjjrg","2","81","78","85","","","","","","","","","gallite","meal","pseudoword","pseudoword","j","true","",""
"null","<p style=""font-size: 50px;"">+</p>","null","html-keyboard-response","83","2.1.0","457874","F=YES, J=NO","l2vzkxjjrg","2","81","78","85","","","","","","","","","","","","","","","",""
"null","audio/beep-329314.mp3","null","audio-keyboard-response","84","2.1.0","459403","F=YES, J=NO","l2vzkxjjrg","2","81","78","85","","","","","","","","","","","","","","","",""
"null","audio/birth1.wav","null","audio-keyboard-response","85","2.1.0","460003","F=YES, J=NO","l2vzkxjjrg","2","81","78","85","","","","","","","","","","","","","","","",""
"820","
          <p id=""word"" style=""font-size: 40px;"">peel</p>
          <p style=""font-size: 16px;"">F = YES &nbsp;&nbsp;&nbsp; J = NO</p>
        ","f","html-keyboard-response","86","2.1.0","460824","F=YES, J=NO","l2vzkxjjrg","2","81","78","85","","","","","","","","","peel","birth1","filler","filler","f","true","",""
"null","<p style=""font-size: 50px;"">+</p>","null","html-keyboard-response","87","2.1.0","461129","F=YES, J=NO","l2vzkxjjrg","2","81","78","85","","","","","","","","","","","","","","","",""
"null","audio/beep-329314.mp3","null","audio-keyboard-response","88","2.1.0","462663","F=YES, J=NO","l2vzkxjjrg","2","81","78","85","","","","","","","","","","","","","","","",""
"null","audio/terrain.wav","null","audio-keyboard-response","89","2.1.0","463303","F=YES, J=NO","l2vzkxjjrg","2","81","78","85","","","","","","","","","","","","","","","",""
"465","
          <p id=""word"" style=""font-size: 40px;"">twist</p>
          <p style=""font-size: 16px;"">F = YES &nbsp;&nbsp;&nbsp; J = NO</p>
        ","f","html-keyboard-response","90","2.1.0","463768","F=YES, J=NO","l2vzkxjjrg","2","81","78","85","","","","","","","","","twist","terrain","filler","filler","f","true","",""
"null","<p style=""font-size: 50px;"">+</p>","null","html-keyboard-response","91","2.1.0","464073","F=YES, J=NO","l2vzkxjjrg","2","81","78","85","","","","","","","","","","","","","","","",""
"null","audio/beep-329314.mp3","null","audio-keyboard-response","92","2.1.0","465603","F=YES, J=NO","l2vzkxjjrg","2","81","78","85","","","","","","","","","","","","","","","",""
"null","audio/smirk1.wav","null","audio-keyboard-response","93","2.1.0","466383","F=YES, J=NO","l2vzkxjjrg","2","81","78","85","","","","","","","","","","","","","","","",""
"728","
          <p id=""word"" style=""font-size: 40px;"">snopt</p>
          <p style=""font-size: 16px;"">F = YES &nbsp;&nbsp;&nbsp; J = NO</p>
        ","j","html-keyboard-response","94","2.1.0","467112","F=YES, J=NO","l2vzkxjjrg","2","81","78","85","","","","","","","","","snopt","smirk1","pseudoword","pseudoword","j","true","",""
"null","<p style=""font-size: 50px;"">+</p>","null","html-keyboard-response","95","2.1.0","467416","F=YES, J=NO","l2vzkxjjrg","2","81","78","85","","","","","","","","","","","","","","","",""
"null","audio/beep-329314.mp3","null","audio-keyboard-response","96","2.1.0","468943","F=YES, J=NO","l2vzkxjjrg","2","81","78","85","","","","","","","","","","","","","","","",""
"null","audio/novel.wav","null","audio-keyboard-response","97","2.1.0","469503","F=YES, J=NO","l2vzkxjjrg","2","81","78","85","","","","","","","","","","","","","","","",""
"728","
          <p id=""word"" style=""font-size: 40px;"">type</p>
          <p style=""font-size: 16px;"">F = YES &nbsp;&nbsp;&nbsp; J = NO</p>
        ","f","html-keyboard-response","98","2.1.0","470232","F=YES, J=NO","l2vzkxjjrg","2","81","78","85","","","","","","","","","type","novel","filler","filler","f","true","",""
"null","<p style=""font-size: 50px;"">+</p>","null","html-keyboard-response","99","2.1.0","470541","F=YES, J=NO","l2vzkxjjrg","2","81","78","85","","","","","","","","","","","","","","","",""
"null","audio/beep-329314.mp3","null","audio-keyboard-response","100","2.1.0","472063","F=YES, J=NO","l2vzkxjjrg","2","81","78","85","","","","","","","","","","","","","","","",""
"null","audio/dollar.wav","null","audio-keyboard-response","101","2.1.0","472503","F=YES, J=NO","l2vzkxjjrg","2","81","78","85","","","","","","","","","","","","","","","",""
"960","
          <p id=""word"" style=""font-size: 40px;"">gliptism</p>
          <p style=""font-size: 16px;"">F = YES &nbsp;&nbsp;&nbsp; J = NO</p>
        ","j","html-keyboard-response","102","2.1.0","473464","F=YES, J=NO","l2vzkxjjrg","2","81","78","85","","","","","","","","","gliptism","dollar","pseudoword","pseudoword","j","true","",""
"null","<p style=""font-size: 50px;"">+</p>","null","html-keyboard-response","103","2.1.0","473778","F=YES, J=NO","l2vzkxjjrg","2","81","78","85","","","","","","","","","","","","","","","",""
"null","audio/beep-329314.mp3","null","audio-keyboard-response","104","2.1.0","475303","F=YES, J=NO","l2vzkxjjrg","2","81","78","85","","","","","","","","","","","","","","","",""
"null","audio/camera1.wav","null","audio-keyboard-response","105","2.1.0","475844","F=YES, J=NO","l2vzkxjjrg","2","81","78","85","","","","","","","","","","","","","","","",""
"739","
          <p id=""word"" style=""font-size: 40px;"">stir</p>
          <p style=""font-size: 16px;"">F = YES &nbsp;&nbsp;&nbsp; J = NO</p>
        ","f","html-keyboard-response","106","2.1.0","476584","F=YES, J=NO","l2vzkxjjrg","2","81","78","85","","","","","","","","","stir","camera1","filler","filler","f","true","",""
"null","<p style=""font-size: 50px;"">+</p>","null","html-keyboard-response","107","2.1.0","476891","F=YES, J=NO","l2vzkxjjrg","2","81","78","85","","","","","","","","","","","","","","","",""
"null","audio/beep-329314.mp3","null","audio-keyboard-response","108","2.1.0","478423","F=YES, J=NO","l2vzkxjjrg","2","81","78","85","","","","","","","","","","","","","","","",""
"null","audio/emotion.wav","null","audio-keyboard-response","109","2.1.0","479063","F=YES, J=NO","l2vzkxjjrg","2","81","78","85","","","","","","","","","","","","","","","",""
"912","
          <p id=""word"" style=""font-size: 40px;"">devering</p>
          <p style=""font-size: 16px;"">F = YES &nbsp;&nbsp;&nbsp; J = NO</p>
        ","j","html-keyboard-response","110","2.1.0","479976","F=YES, J=NO","l2vzkxjjrg","2","81","78","85","","","","","","","","","devering","emotion","pseudoword","pseudoword","j","true","",""
"null","<p style=""font-size: 50px;"">+</p>","null","html-keyboard-response","111","2.1.0","480291","F=YES, J=NO","l2vzkxjjrg","2","81","78","85","","","","","","","","","","","","","","","",""
"null","audio/beep-329314.mp3","null","audio-keyboard-response","112","2.1.0","481823","F=YES, J=NO","l2vzkxjjrg","2","81","78","85","","","","","","","","","","","","","","","",""
"null","audio/cash1.wav","null","audio-keyboard-response","113","2.1.0","482383","F=YES, J=NO","l2vzkxjjrg","2","81","78","85","","","","","","","","","","","","","","","",""
"489","
          <p id=""word"" style=""font-size: 40px;"">splear</p>
          <p style=""font-size: 16px;"">F = YES &nbsp;&nbsp;&nbsp; J = NO</p>
        ","f","html-keyboard-response","114","2.1.0","482872","F=YES, J=NO","l2vzkxjjrg","2","81","78","85","","","","","","","","","splear","cash1","pseudoword","pseudoword","j","false","",""
"671","<p>Starting practice block 2 of 2. Press any key to continue.</p>","f","html-keyboard-response","115","2.1.0","483544","F=YES, J=NO","l2vzkxjjrg","2","81","78","85","","","","","","","","","","","","","","","",""
"null","<p style=""font-size: 50px;"">+</p>","null","html-keyboard-response","116","2.1.0","483848","F=YES, J=NO","l2vzkxjjrg","2","81","78","85","","","","","","","","","","","","","","","",""
"null","audio/beep-329314.mp3","null","audio-keyboard-response","117","2.1.0","485383","F=YES, J=NO","l2vzkxjjrg","2","81","78","85","","","","","","","","","","","","","","","",""
"null","audio/budget1.wav","null","audio-keyboard-response","118","2.1.0","486043","F=YES, J=NO","l2vzkxjjrg","2","81","78","85","","","","","","","","","","","","","","","",""
"829","
          <p id=""word"" style=""font-size: 40px;"">sulist</p>
          <p style=""font-size: 16px;"">F = YES &nbsp;&nbsp;&nbsp; J = NO</p>
        ","j","html-keyboard-response","119","2.1.0","486872","F=YES, J=NO","l2vzkxjjrg","2","81","78","85","","","","","","","","","sulist","budget1","pseudoword","pseudoword","j","true","",""
"null","<p style=""font-size: 50px;"">+</p>","null","html-keyboard-response","120","2.1.0","487178","F=YES, J=NO","l2vzkxjjrg","2","81","78","85","","","","","","","","","","","","","","","",""
"null","audio/beep-329314.mp3","null","audio-keyboard-response","121","2.1.0","488703","F=YES, J=NO","l2vzkxjjrg","2","81","78","85","","","","","","","","","","","","","","","",""
"null","audio/cave1.wav","null","audio-keyboard-response","122","2.1.0","489303","F=YES, J=NO","l2vzkxjjrg","2","81","78","85","","","","","","","","","","","","","","","",""
"1376","
          <p id=""word"" style=""font-size: 40px;"">blacket</p>
          <p style=""font-size: 16px;"">F = YES &nbsp;&nbsp;&nbsp; J = NO</p>
        ","j","html-keyboard-response","123","2.1.0","490680","F=YES, J=NO","l2vzkxjjrg","2","81","78","85","","","","","","","","","blacket","cave1","pseudoword","pseudoword","j","true","",""
"null","<p style=""font-size: 50px;"">+</p>","null","html-keyboard-response","124","2.1.0","490986","F=YES, J=NO","l2vzkxjjrg","2","81","78","85","","","","","","","","","","","","","","","",""
"null","audio/beep-329314.mp3","null","audio-keyboard-response","125","2.1.0","492523","F=YES, J=NO","l2vzkxjjrg","2","81","78","85","","","","","","","","","","","","","","","",""
"null","audio/belief.wav","null","audio-keyboard-response","126","2.1.0","493143","F=YES, J=NO","l2vzkxjjrg","2","81","78","85","","","","","","","","","","","","","","","",""
"672","
          <p id=""word"" style=""font-size: 40px;"">read</p>
          <p style=""font-size: 16px;"">F = YES &nbsp;&nbsp;&nbsp; J = NO</p>
        ","f","html-keyboard-response","127","2.1.0","493816","F=YES, J=NO","l2vzkxjjrg","2","81","78","85","","","","","","","","","read","belief","filler","filler","f","true","",""
"null","<p style=""font-size: 50px;"">+</p>","null","html-keyboard-response","128","2.1.0","494129","F=YES, J=NO","l2vzkxjjrg","2","81","78","85","","","","","","","","","","","","","","","",""
"null","audio/beep-329314.mp3","null","audio-keyboard-response","129","2.1.0","495663","F=YES, J=NO","l2vzkxjjrg","2","81","78","85","","","","","","","","","","","","","","","",""
"null","audio/beach1.wav","null","audio-keyboard-response","130","2.1.0","496303","F=YES, J=NO","l2vzkxjjrg","2","81","78","85","","","","","","","","","","","","","","","",""
"793","
          <p id=""word"" style=""font-size: 40px;"">drive</p>
          <p style=""font-size: 16px;"">F = YES &nbsp;&nbsp;&nbsp; J = NO</p>
        ","f","html-keyboard-response","131","2.1.0","497096","F=YES, J=NO","l2vzkxjjrg","2","81","78","85","","","","","","","","","drive","beach1","filler","filler","f","true","",""
"null","<p style=""font-size: 50px;"">+</p>","null","html-keyboard-response","132","2.1.0","497407","F=YES, J=NO","l2vzkxjjrg","2","81","78","85","","","","","","","","","","","","","","","",""
"null","audio/beep-329314.mp3","null","audio-keyboard-response","133","2.1.0","498943","F=YES, J=NO","l2vzkxjjrg","2","81","78","85","","","","","","","","","","","","","","","",""
"null","audio/menu.wav","null","audio-keyboard-response","134","2.1.0","499563","F=YES, J=NO","l2vzkxjjrg","2","81","78","85","","","","","","","","","","","","","","","",""
"732","
          <p id=""word"" style=""font-size: 40px;"">slice</p>
          <p style=""font-size: 16px;"">F = YES &nbsp;&nbsp;&nbsp; J = NO</p>
        ","f","html-keyboard-response","135","2.1.0","500296","F=YES, J=NO","l2vzkxjjrg","2","81","78","85","","","","","","","","","slice","menu","filler","filler","f","true","",""
"null","<p style=""font-size: 50px;"">+</p>","null","html-keyboard-response","136","2.1.0","500612","F=YES, J=NO","l2vzkxjjrg","2","81","78","85","","","","","","","","","","","","","","","",""
"null","audio/beep-329314.mp3","null","audio-keyboard-response","137","2.1.0","502143","F=YES, J=NO","l2vzkxjjrg","2","81","78","85","","","","","","","","","","","","","","","",""
"null","audio/effort.wav","null","audio-keyboard-response","138","2.1.0","502783","F=YES, J=NO","l2vzkxjjrg","2","81","78","85","","","","","","","","","","","","","","","",""
"760","
          <p id=""word"" style=""font-size: 40px;"">whonk</p>
          <p style=""font-size: 16px;"">F = YES &nbsp;&nbsp;&nbsp; J = NO</p>
        ","j","html-keyboard-response","139","2.1.0","503544","F=YES, J=NO","l2vzkxjjrg","2","81","78","85","","","","","","","","","whonk","effort","pseudoword","pseudoword","j","true","",""
"null","<p style=""font-size: 50px;"">+</p>","null","html-keyboard-response","140","2.1.0","503856","F=YES, J=NO","l2vzkxjjrg","2","81","78","85","","","","","","","","","","","","","","","",""
"null","audio/beep-329314.mp3","null","audio-keyboard-response","141","2.1.0","505383","F=YES, J=NO","l2vzkxjjrg","2","81","78","85","","","","","","","","","","","","","","","",""
"null","audio/handle.wav","null","audio-keyboard-response","142","2.1.0","506063","F=YES, J=NO","l2vzkxjjrg","2","81","78","85","","","","","","","","","","","","","","","",""
"1185","
          <p id=""word"" style=""font-size: 40px;"">moutes</p>
          <p style=""font-size: 16px;"">F = YES &nbsp;&nbsp;&nbsp; J = NO</p>
        ","j","html-keyboard-response","143","2.1.0","507248","F=YES, J=NO","l2vzkxjjrg","2","81","78","85","","","","","","","","","moutes","handle","pseudoword","pseudoword","j","true","",""
"null","<p style=""font-size: 50px;"">+</p>","null","html-keyboard-response","144","2.1.0","507551","F=YES, J=NO","l2vzkxjjrg","2","81","78","85","","","","","","","","","","","","","","","",""
"null","audio/beep-329314.mp3","null","audio-keyboard-response","145","2.1.0","509083","F=YES, J=NO","l2vzkxjjrg","2","81","78","85","","","","","","","","","","","","","","","",""
"null","audio/purpose.wav","null","audio-keyboard-response","146","2.1.0","509743","F=YES, J=NO","l2vzkxjjrg","2","81","78","85","","","","","","","","","","","","","","","",""
"984","
          <p id=""word"" style=""font-size: 40px;"">whigm</p>
          <p style=""font-size: 16px;"">F = YES &nbsp;&nbsp;&nbsp; J = NO</p>
        ","j","html-keyboard-response","147","2.1.0","510728","F=YES, J=NO","l2vzkxjjrg","2","81","78","85","","","","","","","","","whigm","purpose","pseudoword","pseudoword","j","true","",""
"null","<p style=""font-size: 50px;"">+</p>","null","html-keyboard-response","148","2.1.0","511030","F=YES, J=NO","l2vzkxjjrg","2","81","78","85","","","","","","","","","","","","","","","",""
"null","audio/beep-329314.mp3","null","audio-keyboard-response","149","2.1.0","512563","F=YES, J=NO","l2vzkxjjrg","2","81","78","85","","","","","","","","","","","","","","","",""
"null","audio/arm.wav","null","audio-keyboard-response","150","2.1.0","513163","F=YES, J=NO","l2vzkxjjrg","2","81","78","85","","","","","","","","","","","","","","","",""
"596","
          <p id=""word"" style=""font-size: 40px;"">fold</p>
          <p style=""font-size: 16px;"">F = YES &nbsp;&nbsp;&nbsp; J = NO</p>
        ","f","html-keyboard-response","151","2.1.0","513760","F=YES, J=NO","l2vzkxjjrg","2","81","78","85","","","","","","","","","fold","arm","filler","filler","f","true","",""
"null","<p style=""font-size: 50px;"">+</p>","null","html-keyboard-response","152","2.1.0","514071","F=YES, J=NO","l2vzkxjjrg","2","81","78","85","","","","","","","","","","","","","","","",""
"null","audio/beep-329314.mp3","null","audio-keyboard-response","153","2.1.0","515603","F=YES, J=NO","l2vzkxjjrg","2","81","78","85","","","","","","","","","","","","","","","",""
"null","audio/fence.wav","null","audio-keyboard-response","154","2.1.0","516303","F=YES, J=NO","l2vzkxjjrg","2","81","78","85","","","","","","","","","","","","","","","",""
"720","
          <p id=""word"" style=""font-size: 40px;"">trim</p>
          <p style=""font-size: 16px;"">F = YES &nbsp;&nbsp;&nbsp; J = NO</p>
        ","f","html-keyboard-response","155","2.1.0","517024","F=YES, J=NO","l2vzkxjjrg","2","81","78","85","","","","","","","","","trim","fence","filler","filler","f","true","",""
"null","<p style=""font-size: 50px;"">+</p>","null","html-keyboard-response","156","2.1.0","517337","F=YES, J=NO","l2vzkxjjrg","2","81","78","85","","","","","","","","","","","","","","","",""
"null","audio/beep-329314.mp3","null","audio-keyboard-response","157","2.1.0","518863","F=YES, J=NO","l2vzkxjjrg","2","81","78","85","","","","","","","","","","","","","","","",""
"null","audio/van1.wav","null","audio-keyboard-response","158","2.1.0","519343","F=YES, J=NO","l2vzkxjjrg","2","81","78","85","","","","","","","","","","","","","","","",""
"665","
          <p id=""word"" style=""font-size: 40px;"">push</p>
          <p style=""font-size: 16px;"">F = YES &nbsp;&nbsp;&nbsp; J = NO</p>
        ","f","html-keyboard-response","159","2.1.0","520008","F=YES, J=NO","l2vzkxjjrg","2","81","78","85","","","","","","","","","push","van1","filler","filler","f","true","",""
"null","<p style=""font-size: 50px;"">+</p>","null","html-keyboard-response","160","2.1.0","520310","F=YES, J=NO","l2vzkxjjrg","2","81","78","85","","","","","","","","","","","","","","","",""
"null","audio/beep-329314.mp3","null","audio-keyboard-response","161","2.1.0","521843","F=YES, J=NO","l2vzkxjjrg","2","81","78","85","","","","","","","","","","","","","","","",""
"null","audio/mind.wav","null","audio-keyboard-response","162","2.1.0","522463","F=YES, J=NO","l2vzkxjjrg","2","81","78","85","","","","","","","","","","","","","","","",""
"1160","
          <p id=""word"" style=""font-size: 40px;"">crainate</p>
          <p style=""font-size: 16px;"">F = YES &nbsp;&nbsp;&nbsp; J = NO</p>
        ","j","html-keyboard-response","163","2.1.0","523624","F=YES, J=NO","l2vzkxjjrg","2","81","78","85","","","","","","","","","crainate","mind","pseudoword","pseudoword","j","true","",""
"77216","
    <div style=""max-width: 800px; margin: auto; text-align: left;"">
      <h2>Part 2: Main Trials</h2>
      <p>Great job on the practice trials!</p>
      <p>You will now begin the <strong>main set of trials</strong>.</p>
      <p>Remember your key assignments:</p>
      <ul>
        <li><strong>F</strong> = YES (real English word)</li>
        <li><strong>J</strong> = NO (not a real English word)</li>
      </ul>
      <p>Try to respond as <strong>quickly and accurately</strong> as possible.</p>
      <p style=""margin-top: 2em;"">Press any key to begin the main trials.</p>
    </div>
  "," ","html-keyboard-response","164","2.1.0","600840","F=YES, J=NO","l2vzkxjjrg","2","81","78","85","","","","","","","","","","","","","","","",""
"3287","<p>Starting main block 1 of 8. Press any key to continue.</p>","j","html-keyboard-response","165","2.1.0","604128","F=YES, J=NO","l2vzkxjjrg","2","81","78","85","","","","","","","","","","","","","","","",""
"null","<p style=""font-size: 50px;"">+</p>","null","html-keyboard-response","166","2.1.0","604434","F=YES, J=NO","l2vzkxjjrg","2","81","78","85","","","","","","","","","","","","","","","",""
"null","audio/beep-329314.mp3","null","audio-keyboard-response","167","2.1.0","605952","F=YES, J=NO","l2vzkxjjrg","2","81","78","85","","","","","","","","","","","","","","","",""
"null","audio/hawk1.wav","null","audio-keyboard-response","168","2.1.0","606662","F=YES, J=NO","l2vzkxjjrg","2","81","78","85","","","","","","","","","","","","","","","",""
"794","
          <p id=""word"" style=""font-size: 40px;"">wipe</p>
          <p style=""font-size: 16px;"">F = YES &nbsp;&nbsp;&nbsp; J = NO</p>
        ","f","html-keyboard-response","169","2.1.0","607456","F=YES, J=NO","l2vzkxjjrg","2","81","78","85","","","","","","","","","wipe","hawk1","unrelated","experimental","f","true","",""
"null","<p style=""font-size: 50px;"">+</p>","null","html-keyboard-response","170","2.1.0","607771","F=YES, J=NO","l2vzkxjjrg","2","81","78","85","","","","","","","","","","","","","","","",""
"null","audio/beep-329314.mp3","null","audio-keyboard-response","171","2.1.0","609292","F=YES, J=NO","l2vzkxjjrg","2","81","78","85","","","","","","","","","","","","","","","",""
"null","audio/brain.wav","null","audio-keyboard-response","172","2.1.0","609822","F=YES, J=NO","l2vzkxjjrg","2","81","78","85","","","","","","","","","","","","","","","",""
"714","
          <p id=""word"" style=""font-size: 40px;"">throw</p>
          <p style=""font-size: 16px;"">F = YES &nbsp;&nbsp;&nbsp; J = NO</p>
        ","f","html-keyboard-response","173","2.1.0","610536","F=YES, J=NO","l2vzkxjjrg","2","81","78","85","","","","","","","","","throw","brain","filler","filler","f","true","",""
"null","<p style=""font-size: 50px;"">+</p>","null","html-keyboard-response","174","2.1.0","610837","F=YES, J=NO","l2vzkxjjrg","2","81","78","85","","","","","","","","","","","","","","","",""
"null","audio/beep-329314.mp3","null","audio-keyboard-response","175","2.1.0","612372","F=YES, J=NO","l2vzkxjjrg","2","81","78","85","","","","","","","","","","","","","","","",""
"null","audio/pain1.wav","null","audio-keyboard-response","176","2.1.0","612802","F=YES, J=NO","l2vzkxjjrg","2","81","78","85","","","","","","","","","","","","","","","",""
"798","
          <p id=""word"" style=""font-size: 40px;"">tritted</p>
          <p style=""font-size: 16px;"">F = YES &nbsp;&nbsp;&nbsp; J = NO</p>
        ","j","html-keyboard-response","177","2.1.0","613600","F=YES, J=NO","l2vzkxjjrg","2","81","78","85","","","","","","","","","tritted","pain1","pseudoword","pseudoword","j","true","",""
"null","<p style=""font-size: 50px;"">+</p>","null","html-keyboard-response","178","2.1.0","613915","F=YES, J=NO","l2vzkxjjrg","2","81","78","85","","","","","","","","","","","","","","","",""
"null","audio/beep-329314.mp3","null","audio-keyboard-response","179","2.1.0","615452","F=YES, J=NO","l2vzkxjjrg","2","81","78","85","","","","","","","","","","","","","","","",""
"null","audio/sugar1.wav","null","audio-keyboard-response","180","2.1.0","615942","F=YES, J=NO","l2vzkxjjrg","2","81","78","85","","","","","","","","","","","","","","","",""
"706","
          <p id=""word"" style=""font-size: 40px;"">glung</p>
          <p style=""font-size: 16px;"">F = YES &nbsp;&nbsp;&nbsp; J = NO</p>
        ","j","html-keyboard-response","181","2.1.0","616648","F=YES, J=NO","l2vzkxjjrg","2","81","78","85","","","","","","","","","glung","sugar1","pseudoword","pseudoword","j","true","",""
"null","<p style=""font-size: 50px;"">+</p>","null","html-keyboard-response","182","2.1.0","616964","F=YES, J=NO","l2vzkxjjrg","2","81","78","85","","","","","","","","","","","","","","","",""
"null","audio/beep-329314.mp3","null","audio-keyboard-response","183","2.1.0","618492","F=YES, J=NO","l2vzkxjjrg","2","81","78","85","","","","","","","","","","","","","","","",""
"null","audio/battle1.wav","null","audio-keyboard-response","184","2.1.0","619102","F=YES, J=NO","l2vzkxjjrg","2","81","78","85","","","","","","","","","","","","","","","",""
"674","
          <p id=""word"" style=""font-size: 40px;"">boil</p>
          <p style=""font-size: 16px;"">F = YES &nbsp;&nbsp;&nbsp; J = NO</p>
        ","f","html-keyboard-response","185","2.1.0","619776","F=YES, J=NO","l2vzkxjjrg","2","81","78","85","","","","","","","","","boil","battle1","filler","filler","f","true","",""
"null","<p style=""font-size: 50px;"">+</p>","null","html-keyboard-response","186","2.1.0","620077","F=YES, J=NO","l2vzkxjjrg","2","81","78","85","","","","","","","","","","","","","","","",""
"null","audio/beep-329314.mp3","null","audio-keyboard-response","187","2.1.0","621612","F=YES, J=NO","l2vzkxjjrg","2","81","78","85","","","","","","","","","","","","","","","",""
"null","audio/breath.wav","null","audio-keyboard-response","188","2.1.0","622322","F=YES, J=NO","l2vzkxjjrg","2","81","78","85","","","","","","","","","","","","","","","",""
"710","
          <p id=""word"" style=""font-size: 40px;"">pack</p>
          <p style=""font-size: 16px;"">F = YES &nbsp;&nbsp;&nbsp; J = NO</p>
        ","f","html-keyboard-response","189","2.1.0","623032","F=YES, J=NO","l2vzkxjjrg","2","81","78","85","","","","","","","","","pack","breath","filler","filler","f","true","",""
"null","<p style=""font-size: 50px;"">+</p>","null","html-keyboard-response","190","2.1.0","623340","F=YES, J=NO","l2vzkxjjrg","2","81","78","85","","","","","","","","","","","","","","","",""
"null","audio/beep-329314.mp3","null","audio-keyboard-response","191","2.1.0","624872","F=YES, J=NO","l2vzkxjjrg","2","81","78","85","","","","","","","","","","","","","","","",""
"null","audio/camp.wav","null","audio-keyboard-response","192","2.1.0","625422","F=YES, J=NO","l2vzkxjjrg","2","81","78","85","","","","","","","","","","","","","","","",""
"634","
          <p id=""word"" style=""font-size: 40px;"">touch</p>
          <p style=""font-size: 16px;"">F = YES &nbsp;&nbsp;&nbsp; J = NO</p>
        ","f","html-keyboard-response","193","2.1.0","626056","F=YES, J=NO","l2vzkxjjrg","2","81","78","85","","","","","","","","","touch","camp","unrelated","experimental","f","true","",""
"null","<p style=""font-size: 50px;"">+</p>","null","html-keyboard-response","194","2.1.0","626358","F=YES, J=NO","l2vzkxjjrg","2","81","78","85","","","","","","","","","","","","","","","",""
"null","audio/beep-329314.mp3","null","audio-keyboard-response","195","2.1.0","627892","F=YES, J=NO","l2vzkxjjrg","2","81","78","85","","","","","","","","","","","","","","","",""
"null","audio/birth1.wav","null","audio-keyboard-response","196","2.1.0","628422","F=YES, J=NO","l2vzkxjjrg","2","81","78","85","","","","","","","","","","","","","","","",""
"601","
          <p id=""word"" style=""font-size: 40px;"">drop</p>
          <p style=""font-size: 16px;"">F = YES &nbsp;&nbsp;&nbsp; J = NO</p>
        ","f","html-keyboard-response","197","2.1.0","629024","F=YES, J=NO","l2vzkxjjrg","2","81","78","85","","","","","","","","","drop","birth1","unrelated","experimental","f","true","",""
"null","<p style=""font-size: 50px;"">+</p>","null","html-keyboard-response","198","2.1.0","629330","F=YES, J=NO","l2vzkxjjrg","2","81","78","85","","","","","","","","","","","","","","","",""
"null","audio/beep-329314.mp3","null","audio-keyboard-response","199","2.1.0","630852","F=YES, J=NO","l2vzkxjjrg","2","81","78","85","","","","","","","","","","","","","","","",""
"null","audio/revenue1.wav","null","audio-keyboard-response","200","2.1.0","631562","F=YES, J=NO","l2vzkxjjrg","2","81","78","85","","","","","","","","","","","","","","","",""
"613","
          <p id=""word"" style=""font-size: 40px;"">grow</p>
          <p style=""font-size: 16px;"">F = YES &nbsp;&nbsp;&nbsp; J = NO</p>
        ","f","html-keyboard-response","201","2.1.0","632176","F=YES, J=NO","l2vzkxjjrg","2","81","78","85","","","","","","","","","grow","revenue1","metaphor","experimental","f","true","",""
"null","<p style=""font-size: 50px;"">+</p>","null","html-keyboard-response","202","2.1.0","632490","F=YES, J=NO","l2vzkxjjrg","2","81","78","85","","","","","","","","","","","","","","","",""
"null","audio/beep-329314.mp3","null","audio-keyboard-response","203","2.1.0","634012","F=YES, J=NO","l2vzkxjjrg","2","81","78","85","","","","","","","","","","","","","","","",""
"null","audio/pattern.wav","null","audio-keyboard-response","204","2.1.0","634522","F=YES, J=NO","l2vzkxjjrg","2","81","78","85","","","","","","","","","","","","","","","",""
"1310","
          <p id=""word"" style=""font-size: 40px;"">tug</p>
          <p style=""font-size: 16px;"">F = YES &nbsp;&nbsp;&nbsp; J = NO</p>
        ","f","html-keyboard-response","205","2.1.0","635832","F=YES, J=NO","l2vzkxjjrg","2","81","78","85","","","","","","","","","tug","pattern","filler","filler","f","true","",""
"null","<p style=""font-size: 50px;"">+</p>","null","html-keyboard-response","206","2.1.0","636139","F=YES, J=NO","l2vzkxjjrg","2","81","78","85","","","","","","","","","","","","","","","",""
"null","audio/beep-329314.mp3","null","audio-keyboard-response","207","2.1.0","637672","F=YES, J=NO","l2vzkxjjrg","2","81","78","85","","","","","","","","","","","","","","","",""
"null","audio/beach1.wav","null","audio-keyboard-response","208","2.1.0","638242","F=YES, J=NO","l2vzkxjjrg","2","81","78","85","","","","","","","","","","","","","","","",""
"678","
          <p id=""word"" style=""font-size: 40px;"">cut</p>
          <p style=""font-size: 16px;"">F = YES &nbsp;&nbsp;&nbsp; J = NO</p>
        ","f","html-keyboard-response","209","2.1.0","638920","F=YES, J=NO","l2vzkxjjrg","2","81","78","85","","","","","","","","","cut","beach1","unrelated","experimental","f","true","",""
"null","<p style=""font-size: 50px;"">+</p>","null","html-keyboard-response","210","2.1.0","639222","F=YES, J=NO","l2vzkxjjrg","2","81","78","85","","","","","","","","","","","","","","","",""
"null","audio/beep-329314.mp3","null","audio-keyboard-response","211","2.1.0","640752","F=YES, J=NO","l2vzkxjjrg","2","81","78","85","","","","","","","","","","","","","","","",""
"null","audio/winter.wav","null","audio-keyboard-response","212","2.1.0","641482","F=YES, J=NO","l2vzkxjjrg","2","81","78","85","","","","","","","","","","","","","","","",""
"878","
          <p id=""word"" style=""font-size: 40px;"">straven</p>
          <p style=""font-size: 16px;"">F = YES &nbsp;&nbsp;&nbsp; J = NO</p>
        ","j","html-keyboard-response","213","2.1.0","642360","F=YES, J=NO","l2vzkxjjrg","2","81","78","85","","","","","","","","","straven","winter","pseudoword","pseudoword","j","true","",""
"null","<p style=""font-size: 50px;"">+</p>","null","html-keyboard-response","214","2.1.0","642668","F=YES, J=NO","l2vzkxjjrg","2","81","78","85","","","","","","","","","","","","","","","",""
"null","audio/beep-329314.mp3","null","audio-keyboard-response","215","2.1.0","644192","F=YES, J=NO","l2vzkxjjrg","2","81","78","85","","","","","","","","","","","","","","","",""
"null","audio/holiday1.wav","null","audio-keyboard-response","216","2.1.0","644862","F=YES, J=NO","l2vzkxjjrg","2","81","78","85","","","","","","","","","","","","","","","",""
"1009","
          <p id=""word"" style=""font-size: 40px;"">drivets</p>
          <p style=""font-size: 16px;"">F = YES &nbsp;&nbsp;&nbsp; J = NO</p>
        ","j","html-keyboard-response","217","2.1.0","645872","F=YES, J=NO","l2vzkxjjrg","2","81","78","85","","","","","","","","","drivets","holiday1","pseudoword","pseudoword","j","true","",""
"null","<p style=""font-size: 50px;"">+</p>","null","html-keyboard-response","218","2.1.0","646184","F=YES, J=NO","l2vzkxjjrg","2","81","78","85","","","","","","","","","","","","","","","",""
"null","audio/beep-329314.mp3","null","audio-keyboard-response","219","2.1.0","647712","F=YES, J=NO","l2vzkxjjrg","2","81","78","85","","","","","","","","","","","","","","","",""
"null","audio/tax1.wav","null","audio-keyboard-response","220","2.1.0","648362","F=YES, J=NO","l2vzkxjjrg","2","81","78","85","","","","","","","","","","","","","","","",""
"718","
          <p id=""word"" style=""font-size: 40px;"">scrap</p>
          <p style=""font-size: 16px;"">F = YES &nbsp;&nbsp;&nbsp; J = NO</p>
        ","f","html-keyboard-response","221","2.1.0","649080","F=YES, J=NO","l2vzkxjjrg","2","81","78","85","","","","","","","","","scrap","tax1","metaphor","experimental","f","true","",""
"null","<p style=""font-size: 50px;"">+</p>","null","html-keyboard-response","222","2.1.0","649384","F=YES, J=NO","l2vzkxjjrg","2","81","78","85","","","","","","","","","","","","","","","",""
"null","audio/beep-329314.mp3","null","audio-keyboard-response","223","2.1.0","650912","F=YES, J=NO","l2vzkxjjrg","2","81","78","85","","","","","","","","","","","","","","","",""
"null","audio/bomb1.wav","null","audio-keyboard-response","224","2.1.0","651282","F=YES, J=NO","l2vzkxjjrg","2","81","78","85","","","","","","","","","","","","","","","",""
"614","
          <p id=""word"" style=""font-size: 40px;"">clean</p>
          <p style=""font-size: 16px;"">F = YES &nbsp;&nbsp;&nbsp; J = NO</p>
        ","f","html-keyboard-response","225","2.1.0","651896","F=YES, J=NO","l2vzkxjjrg","2","81","78","85","","","","","","","","","clean","bomb1","filler","filler","f","true","",""
"null","<p style=""font-size: 50px;"">+</p>","null","html-keyboard-response","226","2.1.0","652200","F=YES, J=NO","l2vzkxjjrg","2","81","78","85","","","","","","","","","","","","","","","",""
"null","audio/beep-329314.mp3","null","audio-keyboard-response","227","2.1.0","653732","F=YES, J=NO","l2vzkxjjrg","2","81","78","85","","","","","","","","","","","","","","","",""
"null","audio/kettle1.wav","null","audio-keyboard-response","228","2.1.0","654242","F=YES, J=NO","l2vzkxjjrg","2","81","78","85","","","","","","","","","","","","","","","",""
"638","
          <p id=""word"" style=""font-size: 40px;"">navigate</p>
          <p style=""font-size: 16px;"">F = YES &nbsp;&nbsp;&nbsp; J = NO</p>
        ","f","html-keyboard-response","229","2.1.0","654880","F=YES, J=NO","l2vzkxjjrg","2","81","78","85","","","","","","","","","navigate","kettle1","unrelated","experimental","f","true","",""
"81743","<p>Excellent! You have finished block 1 of 8.</p>
                     <p>Feel free to take a 30 second break.</p>
                     <p>Press any key when you're ready to continue.</p>","j","html-keyboard-response","230","2.1.0","736624","F=YES, J=NO","l2vzkxjjrg","2","81","78","85","","","","","","","","","","","","","","","",""
"1344","<p>Starting main block 2 of 8. Press any key to continue.</p>","j","html-keyboard-response","231","2.1.0","737969","F=YES, J=NO","l2vzkxjjrg","2","81","78","85","","","","","","","","","","","","","","","",""
"null","<p style=""font-size: 50px;"">+</p>","null","html-keyboard-response","232","2.1.0","738272","F=YES, J=NO","l2vzkxjjrg","2","81","78","85","","","","","","","","","","","","","","","",""
"null","audio/beep-329314.mp3","null","audio-keyboard-response","233","2.1.0","739790","F=YES, J=NO","l2vzkxjjrg","2","81","78","85","","","","","","","","","","","","","","","",""
"null","audio/chance.wav","null","audio-keyboard-response","234","2.1.0","740460","F=YES, J=NO","l2vzkxjjrg","2","81","78","85","","","","","","","","","","","","","","","",""
"748","
          <p id=""word"" style=""font-size: 40px;"">seize</p>
          <p style=""font-size: 16px;"">F = YES &nbsp;&nbsp;&nbsp; J = NO</p>
        ","f","html-keyboard-response","235","2.1.0","741208","F=YES, J=NO","l2vzkxjjrg","2","81","78","85","","","","","","","","","seize","chance","metaphor","experimental","f","true","",""
"null","<p style=""font-size: 50px;"">+</p>","null","html-keyboard-response","236","2.1.0","741512","F=YES, J=NO","l2vzkxjjrg","2","81","78","85","","","","","","","","","","","","","","","",""
"null","audio/beep-329314.mp3","null","audio-keyboard-response","237","2.1.0","743050","F=YES, J=NO","l2vzkxjjrg","2","81","78","85","","","","","","","","","","","","","","","",""
"null","audio/ankle1.wav","null","audio-keyboard-response","238","2.1.0","743740","F=YES, J=NO","l2vzkxjjrg","2","81","78","85","","","","","","","","","","","","","","","",""
"747","
          <p id=""word"" style=""font-size: 40px;"">switm</p>
          <p style=""font-size: 16px;"">F = YES &nbsp;&nbsp;&nbsp; J = NO</p>
        ","j","html-keyboard-response","239","2.1.0","744488","F=YES, J=NO","l2vzkxjjrg","2","81","78","85","","","","","","","","","switm","ankle1","pseudoword","pseudoword","j","true","",""
"null","<p style=""font-size: 50px;"">+</p>","null","html-keyboard-response","240","2.1.0","744794","F=YES, J=NO","l2vzkxjjrg","2","81","78","85","","","","","","","","","","","","","","","",""
"null","audio/beep-329314.mp3","null","audio-keyboard-response","241","2.1.0","746330","F=YES, J=NO","l2vzkxjjrg","2","81","78","85","","","","","","","","","","","","","","","",""
"null","audio/gossip1.wav","null","audio-keyboard-response","242","2.1.0","747000","F=YES, J=NO","l2vzkxjjrg","2","81","78","85","","","","","","","","","","","","","","","",""
"728","
          <p id=""word"" style=""font-size: 40px;"">wrestle</p>
          <p style=""font-size: 16px;"">F = YES &nbsp;&nbsp;&nbsp; J = NO</p>
        ","f","html-keyboard-response","243","2.1.0","747728","F=YES, J=NO","l2vzkxjjrg","2","81","78","85","","","","","","","","","wrestle","gossip1","unrelated","experimental","f","true","",""
"null","<p style=""font-size: 50px;"">+</p>","null","html-keyboard-response","244","2.1.0","748030","F=YES, J=NO","l2vzkxjjrg","2","81","78","85","","","","","","","","","","","","","","","",""
"null","audio/beep-329314.mp3","null","audio-keyboard-response","245","2.1.0","749570","F=YES, J=NO","l2vzkxjjrg","2","81","78","85","","","","","","","","","","","","","","","",""
"null","audio/death1.wav","null","audio-keyboard-response","246","2.1.0","750100","F=YES, J=NO","l2vzkxjjrg","2","81","78","85","","","","","","","","","","","","","","","",""
"804","
          <p id=""word"" style=""font-size: 40px;"">conquer</p>
          <p style=""font-size: 16px;"">F = YES &nbsp;&nbsp;&nbsp; J = NO</p>
        ","f","html-keyboard-response","247","2.1.0","750904","F=YES, J=NO","l2vzkxjjrg","2","81","78","85","","","","","","","","","conquer","death1","metaphor","experimental","f","true","",""
"null","<p style=""font-size: 50px;"">+</p>","null","html-keyboard-response","248","2.1.0","751216","F=YES, J=NO","l2vzkxjjrg","2","81","78","85","","","","","","","","","","","","","","","",""
"null","audio/beep-329314.mp3","null","audio-keyboard-response","249","2.1.0","752750","F=YES, J=NO","l2vzkxjjrg","2","81","78","85","","","","","","","","","","","","","","","",""
"null","audio/pig.wav","null","audio-keyboard-response","250","2.1.0","753120","F=YES, J=NO","l2vzkxjjrg","2","81","78","85","","","","","","","","","","","","","","","",""
"736","
          <p id=""word"" style=""font-size: 40px;"">tirlike</p>
          <p style=""font-size: 16px;"">F = YES &nbsp;&nbsp;&nbsp; J = NO</p>
        ","j","html-keyboard-response","251","2.1.0","753856","F=YES, J=NO","l2vzkxjjrg","2","81","78","85","","","","","","","","","tirlike","pig","pseudoword","pseudoword","j","true","",""
"null","<p style=""font-size: 50px;"">+</p>","null","html-keyboard-response","252","2.1.0","754167","F=YES, J=NO","l2vzkxjjrg","2","81","78","85","","","","","","","","","","","","","","","",""
"null","audio/beep-329314.mp3","null","audio-keyboard-response","253","2.1.0","755690","F=YES, J=NO","l2vzkxjjrg","2","81","78","85","","","","","","","","","","","","","","","",""
"null","audio/cash1.wav","null","audio-keyboard-response","254","2.1.0","756240","F=YES, J=NO","l2vzkxjjrg","2","81","78","85","","","","","","","","","","","","","","","",""
"519","
          <p id=""word"" style=""font-size: 40px;"">invest</p>
          <p style=""font-size: 16px;"">F = YES &nbsp;&nbsp;&nbsp; J = NO</p>
        ","f","html-keyboard-response","255","2.1.0","756760","F=YES, J=NO","l2vzkxjjrg","2","81","78","85","","","","","","","","","invest","cash1","literal","experimental","f","true","",""
"null","<p style=""font-size: 50px;"">+</p>","null","html-keyboard-response","256","2.1.0","757064","F=YES, J=NO","l2vzkxjjrg","2","81","78","85","","","","","","","","","","","","","","","",""
"null","audio/beep-329314.mp3","null","audio-keyboard-response","257","2.1.0","758590","F=YES, J=NO","l2vzkxjjrg","2","81","78","85","","","","","","","","","","","","","","","",""
"null","audio/planet1.wav","null","audio-keyboard-response","258","2.1.0","759341","F=YES, J=NO","l2vzkxjjrg","2","81","78","85","","","","","","","","","","","","","","","",""
"779","
          <p id=""word"" style=""font-size: 40px;"">cratched</p>
          <p style=""font-size: 16px;"">F = YES &nbsp;&nbsp;&nbsp; J = NO</p>
        ","j","html-keyboard-response","259","2.1.0","760120","F=YES, J=NO","l2vzkxjjrg","2","81","78","85","","","","","","","","","cratched","planet1","pseudoword","pseudoword","j","true","",""
"null","<p style=""font-size: 50px;"">+</p>","null","html-keyboard-response","260","2.1.0","760430","F=YES, J=NO","l2vzkxjjrg","2","81","78","85","","","","","","","","","","","","","","","",""
"null","audio/beep-329314.mp3","null","audio-keyboard-response","261","2.1.0","761970","F=YES, J=NO","l2vzkxjjrg","2","81","78","85","","","","","","","","","","","","","","","",""
"null","audio/belief.wav","null","audio-keyboard-response","262","2.1.0","762580","F=YES, J=NO","l2vzkxjjrg","2","81","78","85","","","","","","","","","","","","","","","",""
"548","
          <p id=""word"" style=""font-size: 40px;"">share</p>
          <p style=""font-size: 16px;"">F = YES &nbsp;&nbsp;&nbsp; J = NO</p>
        ","f","html-keyboard-response","263","2.1.0","763128","F=YES, J=NO","l2vzkxjjrg","2","81","78","85","","","","","","","","","share","belief","metaphor","experimental","f","true","",""
"null","<p style=""font-size: 50px;"">+</p>","null","html-keyboard-response","264","2.1.0","763442","F=YES, J=NO","l2vzkxjjrg","2","81","78","85","","","","","","","","","","","","","","","",""
"null","audio/beep-329314.mp3","null","audio-keyboard-response","265","2.1.0","764970","F=YES, J=NO","l2vzkxjjrg","2","81","78","85","","","","","","","","","","","","","","","",""
"null","audio/baby.wav","null","audio-keyboard-response","266","2.1.0","765480","F=YES, J=NO","l2vzkxjjrg","2","81","78","85","","","","","","","","","","","","","","","",""
"567","
          <p id=""word"" style=""font-size: 40px;"">hold</p>
          <p style=""font-size: 16px;"">F = YES &nbsp;&nbsp;&nbsp; J = NO</p>
        ","f","html-keyboard-response","267","2.1.0","766048","F=YES, J=NO","l2vzkxjjrg","2","81","78","85","","","","","","","","","hold","baby","literal","experimental","f","true","",""
"null","<p style=""font-size: 50px;"">+</p>","null","html-keyboard-response","268","2.1.0","766358","F=YES, J=NO","l2vzkxjjrg","2","81","78","85","","","","","","","","","","","","","","","",""
"null","audio/beep-329314.mp3","null","audio-keyboard-response","269","2.1.0","767890","F=YES, J=NO","l2vzkxjjrg","2","81","78","85","","","","","","","","","","","","","","","",""
"null","audio/heart1.wav","null","audio-keyboard-response","270","2.1.0","768660","F=YES, J=NO","l2vzkxjjrg","2","81","78","85","","","","","","","","","","","","","","","",""
"844","
          <p id=""word"" style=""font-size: 40px;"">dralm</p>
          <p style=""font-size: 16px;"">F = YES &nbsp;&nbsp;&nbsp; J = NO</p>
        ","j","html-keyboard-response","271","2.1.0","769504","F=YES, J=NO","l2vzkxjjrg","2","81","78","85","","","","","","","","","dralm","heart1","pseudoword","pseudoword","j","true","",""
"null","<p style=""font-size: 50px;"">+</p>","null","html-keyboard-response","272","2.1.0","769808","F=YES, J=NO","l2vzkxjjrg","2","81","78","85","","","","","","","","","","","","","","","",""
"null","audio/beep-329314.mp3","null","audio-keyboard-response","273","2.1.0","771330","F=YES, J=NO","l2vzkxjjrg","2","81","78","85","","","","","","","","","","","","","","","",""
"null","audio/essence1.wav","null","audio-keyboard-response","274","2.1.0","772060","F=YES, J=NO","l2vzkxjjrg","2","81","78","85","","","","","","","","","","","","","","","",""
"731","
          <p id=""word"" style=""font-size: 40px;"">grasp</p>
          <p style=""font-size: 16px;"">F = YES &nbsp;&nbsp;&nbsp; J = NO</p>
        ","f","html-keyboard-response","275","2.1.0","772792","F=YES, J=NO","l2vzkxjjrg","2","81","78","85","","","","","","","","","grasp","essence1","metaphor","experimental","f","true","",""
"null","<p style=""font-size: 50px;"">+</p>","null","html-keyboard-response","276","2.1.0","773099","F=YES, J=NO","l2vzkxjjrg","2","81","78","85","","","","","","","","","","","","","","","",""
"null","audio/beep-329314.mp3","null","audio-keyboard-response","277","2.1.0","774630","F=YES, J=NO","l2vzkxjjrg","2","81","78","85","","","","","","","","","","","","","","","",""
"null","audio/cloud1.wav","null","audio-keyboard-response","278","2.1.0","775220","F=YES, J=NO","l2vzkxjjrg","2","81","78","85","","","","","","","","","","","","","","","",""
"787","
          <p id=""word"" style=""font-size: 40px;"">brotant</p>
          <p style=""font-size: 16px;"">F = YES &nbsp;&nbsp;&nbsp; J = NO</p>
        ","j","html-keyboard-response","279","2.1.0","776008","F=YES, J=NO","l2vzkxjjrg","2","81","78","85","","","","","","","","","brotant","cloud1","pseudoword","pseudoword","j","true","",""
"null","<p style=""font-size: 50px;"">+</p>","null","html-keyboard-response","280","2.1.0","776318","F=YES, J=NO","l2vzkxjjrg","2","81","78","85","","","","","","","","","","","","","","","",""
"null","audio/beep-329314.mp3","null","audio-keyboard-response","281","2.1.0","777850","F=YES, J=NO","l2vzkxjjrg","2","81","78","85","","","","","","","","","","","","","","","",""
"null","audio/pig.wav","null","audio-keyboard-response","282","2.1.0","778220","F=YES, J=NO","l2vzkxjjrg","2","81","78","85","","","","","","","","","","","","","","","",""
"659","
          <p id=""word"" style=""font-size: 40px;"">feed</p>
          <p style=""font-size: 16px;"">F = YES &nbsp;&nbsp;&nbsp; J = NO</p>
        ","f","html-keyboard-response","283","2.1.0","778880","F=YES, J=NO","l2vzkxjjrg","2","81","78","85","","","","","","","","","feed","pig","literal","experimental","f","true","",""
"null","<p style=""font-size: 50px;"">+</p>","null","html-keyboard-response","284","2.1.0","779183","F=YES, J=NO","l2vzkxjjrg","2","81","78","85","","","","","","","","","","","","","","","",""
"null","audio/beep-329314.mp3","null","audio-keyboard-response","285","2.1.0","780710","F=YES, J=NO","l2vzkxjjrg","2","81","78","85","","","","","","","","","","","","","","","",""
"null","audio/noise1.wav","null","audio-keyboard-response","286","2.1.0","781360","F=YES, J=NO","l2vzkxjjrg","2","81","78","85","","","","","","","","","","","","","","","",""
"711","
          <p id=""word"" style=""font-size: 40px;"">slintered</p>
          <p style=""font-size: 16px;"">F = YES &nbsp;&nbsp;&nbsp; J = NO</p>
        ","j","html-keyboard-response","287","2.1.0","782072","F=YES, J=NO","l2vzkxjjrg","2","81","78","85","","","","","","","","","slintered","noise1","pseudoword","pseudoword","j","true","",""
"null","<p style=""font-size: 50px;"">+</p>","null","html-keyboard-response","288","2.1.0","782375","F=YES, J=NO","l2vzkxjjrg","2","81","78","85","","","","","","","","","","","","","","","",""
"null","audio/beep-329314.mp3","null","audio-keyboard-response","289","2.1.0","783910","F=YES, J=NO","l2vzkxjjrg","2","81","78","85","","","","","","","","","","","","","","","",""
"null","audio/alarm1.wav","null","audio-keyboard-response","290","2.1.0","784480","F=YES, J=NO","l2vzkxjjrg","2","81","78","85","","","","","","","","","","","","","","","",""
"528","
          <p id=""word"" style=""font-size: 40px;"">save</p>
          <p style=""font-size: 16px;"">F = YES &nbsp;&nbsp;&nbsp; J = NO</p>
        ","f","html-keyboard-response","291","2.1.0","785009","F=YES, J=NO","l2vzkxjjrg","2","81","78","85","","","","","","","","","save","alarm1","unrelated","experimental","f","true","",""
"null","<p style=""font-size: 50px;"">+</p>","null","html-keyboard-response","292","2.1.0","785312","F=YES, J=NO","l2vzkxjjrg","2","81","78","85","","","","","","","","","","","","","","","",""
"null","audio/beep-329314.mp3","null","audio-keyboard-response","293","2.1.0","786850","F=YES, J=NO","l2vzkxjjrg","2","81","78","85","","","","","","","","","","","","","","","",""
"null","audio/seat.wav","null","audio-keyboard-response","294","2.1.0","787520","F=YES, J=NO","l2vzkxjjrg","2","81","78","85","","","","","","","","","","","","","","","",""
"719","
          <p id=""word"" style=""font-size: 40px;"">digest</p>
          <p style=""font-size: 16px;"">F = YES &nbsp;&nbsp;&nbsp; J = NO</p>
        ","f","html-keyboard-response","295","2.1.0","788240","F=YES, J=NO","l2vzkxjjrg","2","81","78","85","","","","","","","","","digest","seat","unrelated","experimental","f","true","",""
"80344","<p>Excellent! You have finished block 2 of 8.</p>
                     <p>Feel free to take a 30 second break.</p>
                     <p>Press any key when you're ready to continue.</p>","f","html-keyboard-response","296","2.1.0","868584","F=YES, J=NO","l2vzkxjjrg","2","81","78","85","","","","","","","","","","","","","","","",""
"1000","<p>Starting main block 3 of 8. Press any key to continue.</p>","j","html-keyboard-response","297","2.1.0","869584","F=YES, J=NO","l2vzkxjjrg","2","81","78","85","","","","","","","","","","","","","","","",""
"null","<p style=""font-size: 50px;"">+</p>","null","html-keyboard-response","298","2.1.0","869893","F=YES, J=NO","l2vzkxjjrg","2","81","78","85","","","","","","","","","","","","","","","",""
"null","audio/beep-329314.mp3","null","audio-keyboard-response","299","2.1.0","871410","F=YES, J=NO","l2vzkxjjrg","2","81","78","85","","","","","","","","","","","","","","","",""
"null","audio/vehicle1.wav","null","audio-keyboard-response","300","2.1.0","872180","F=YES, J=NO","l2vzkxjjrg","2","81","78","85","","","","","","","","","","","","","","","",""
"795","
          <p id=""word"" style=""font-size: 40px;"">dropt</p>
          <p style=""font-size: 16px;"">F = YES &nbsp;&nbsp;&nbsp; J = NO</p>
        ","j","html-keyboard-response","301","2.1.0","872976","F=YES, J=NO","l2vzkxjjrg","2","81","78","85","","","","","","","","","dropt","vehicle1","pseudoword","pseudoword","j","true","",""
"null","<p style=""font-size: 50px;"">+</p>","null","html-keyboard-response","302","2.1.0","873286","F=YES, J=NO","l2vzkxjjrg","2","81","78","85","","","","","","","","","","","","","","","",""
"null","audio/beep-329314.mp3","null","audio-keyboard-response","303","2.1.0","874810","F=YES, J=NO","l2vzkxjjrg","2","81","78","85","","","","","","","","","","","","","","","",""
"null","audio/stain.wav","null","audio-keyboard-response","304","2.1.0","875520","F=YES, J=NO","l2vzkxjjrg","2","81","78","85","","","","","","","","","","","","","","","",""
"847","
          <p id=""word"" style=""font-size: 40px;"">rumpsied</p>
          <p style=""font-size: 16px;"">F = YES &nbsp;&nbsp;&nbsp; J = NO</p>
        ","j","html-keyboard-response","305","2.1.0","876368","F=YES, J=NO","l2vzkxjjrg","2","81","78","85","","","","","","","","","rumpsied","stain","pseudoword","pseudoword","j","true","",""
"null","<p style=""font-size: 50px;"">+</p>","null","html-keyboard-response","306","2.1.0","876683","F=YES, J=NO","l2vzkxjjrg","2","81","78","85","","","","","","","","","","","","","","","",""
"null","audio/beep-329314.mp3","null","audio-keyboard-response","307","2.1.0","878210","F=YES, J=NO","l2vzkxjjrg","2","81","78","85","","","","","","","","","","","","","","","",""
"null","audio/ankle1.wav","null","audio-keyboard-response","308","2.1.0","878720","F=YES, J=NO","l2vzkxjjrg","2","81","78","85","","","","","","","","","","","","","","","",""
"544","
          <p id=""word"" style=""font-size: 40px;"">kick</p>
          <p style=""font-size: 16px;"">F = YES &nbsp;&nbsp;&nbsp; J = NO</p>
        ","f","html-keyboard-response","309","2.1.0","879265","F=YES, J=NO","l2vzkxjjrg","2","81","78","85","","","","","","","","","kick","ankle1","filler","filler","f","true","",""
"null","<p style=""font-size: 50px;"">+</p>","null","html-keyboard-response","310","2.1.0","879572","F=YES, J=NO","l2vzkxjjrg","2","81","78","85","","","","","","","","","","","","","","","",""
"null","audio/beep-329314.mp3","null","audio-keyboard-response","311","2.1.0","881110","F=YES, J=NO","l2vzkxjjrg","2","81","78","85","","","","","","","","","","","","","","","",""
"null","audio/truth1.wav","null","audio-keyboard-response","312","2.1.0","881721","F=YES, J=NO","l2vzkxjjrg","2","81","78","85","","","","","","","","","","","","","","","",""
"759","
          <p id=""word"" style=""font-size: 40px;"">calitom</p>
          <p style=""font-size: 16px;"">F = YES &nbsp;&nbsp;&nbsp; J = NO</p>
        ","j","html-keyboard-response","313","2.1.0","882480","F=YES, J=NO","l2vzkxjjrg","2","81","78","85","","","","","","","","","calitom","truth1","pseudoword","pseudoword","j","true","",""
"null","<p style=""font-size: 50px;"">+</p>","null","html-keyboard-response","314","2.1.0","882782","F=YES, J=NO","l2vzkxjjrg","2","81","78","85","","","","","","","","","","","","","","","",""
"null","audio/beep-329314.mp3","null","audio-keyboard-response","315","2.1.0","884310","F=YES, J=NO","l2vzkxjjrg","2","81","78","85","","","","","","","","","","","","","","","",""
"null","audio/bush1.wav","null","audio-keyboard-response","316","2.1.0","884820","F=YES, J=NO","l2vzkxjjrg","2","81","78","85","","","","","","","","","","","","","","","",""
"523","
          <p id=""word"" style=""font-size: 40px;"">run</p>
          <p style=""font-size: 16px;"">F = YES &nbsp;&nbsp;&nbsp; J = NO</p>
        ","f","html-keyboard-response","317","2.1.0","885344","F=YES, J=NO","l2vzkxjjrg","2","81","78","85","","","","","","","","","run","bush1","unrelated","experimental","f","true","",""
"null","<p style=""font-size: 50px;"">+</p>","null","html-keyboard-response","318","2.1.0","885657","F=YES, J=NO","l2vzkxjjrg","2","81","78","85","","","","","","","","","","","","","","","",""
"null","audio/beep-329314.mp3","null","audio-keyboard-response","319","2.1.0","887190","F=YES, J=NO","l2vzkxjjrg","2","81","78","85","","","","","","","","","","","","","","","",""
"null","audio/account1.wav","null","audio-keyboard-response","320","2.1.0","887920","F=YES, J=NO","l2vzkxjjrg","2","81","78","85","","","","","","","","","","","","","","","",""
"935","
          <p id=""word"" style=""font-size: 40px;"">paint</p>
          <p style=""font-size: 16px;"">F = YES &nbsp;&nbsp;&nbsp; J = NO</p>
        ","f","html-keyboard-response","321","2.1.0","888856","F=YES, J=NO","l2vzkxjjrg","2","81","78","85","","","","","","","","","paint","account1","filler","filler","f","true","",""
"null","<p style=""font-size: 50px;"">+</p>","null","html-keyboard-response","322","2.1.0","889172","F=YES, J=NO","l2vzkxjjrg","2","81","78","85","","","","","","","","","","","","","","","",""
"null","audio/beep-329314.mp3","null","audio-keyboard-response","323","2.1.0","890710","F=YES, J=NO","l2vzkxjjrg","2","81","78","85","","","","","","","","","","","","","","","",""
"null","audio/tomato.wav","null","audio-keyboard-response","324","2.1.0","891420","F=YES, J=NO","l2vzkxjjrg","2","81","78","85","","","","","","","","","","","","","","","",""
"1084","
          <p id=""word"" style=""font-size: 40px;"">gladies</p>
          <p style=""font-size: 16px;"">F = YES &nbsp;&nbsp;&nbsp; J = NO</p>
        ","j","html-keyboard-response","325","2.1.0","892505","F=YES, J=NO","l2vzkxjjrg","2","81","78","85","","","","","","","","","gladies","tomato","pseudoword","pseudoword","j","true","",""
"null","<p style=""font-size: 50px;"">+</p>","null","html-keyboard-response","326","2.1.0","892818","F=YES, J=NO","l2vzkxjjrg","2","81","78","85","","","","","","","","","","","","","","","",""
"null","audio/beep-329314.mp3","null","audio-keyboard-response","327","2.1.0","894351","F=YES, J=NO","l2vzkxjjrg","2","81","78","85","","","","","","","","","","","","","","","",""
"null","audio/trout1.wav","null","audio-keyboard-response","328","2.1.0","894981","F=YES, J=NO","l2vzkxjjrg","2","81","78","85","","","","","","","","","","","","","","","",""
"971","
          <p id=""word"" style=""font-size: 40px;"">catch</p>
          <p style=""font-size: 16px;"">F = YES &nbsp;&nbsp;&nbsp; J = NO</p>
        ","f","html-keyboard-response","329","2.1.0","895952","F=YES, J=NO","l2vzkxjjrg","2","81","78","85","","","","","","","","","catch","trout1","literal","experimental","f","true","",""
"null","<p style=""font-size: 50px;"">+</p>","null","html-keyboard-response","330","2.1.0","896261","F=YES, J=NO","l2vzkxjjrg","2","81","78","85","","","","","","","","","","","","","","","",""
"null","audio/beep-329314.mp3","null","audio-keyboard-response","331","2.1.0","897790","F=YES, J=NO","l2vzkxjjrg","2","81","78","85","","","","","","","","","","","","","","","",""
"null","audio/weight1.wav","null","audio-keyboard-response","332","2.1.0","898360","F=YES, J=NO","l2vzkxjjrg","2","81","78","85","","","","","","","","","","","","","","","",""
"935","
          <p id=""word"" style=""font-size: 40px;"">crimsh</p>
          <p style=""font-size: 16px;"">F = YES &nbsp;&nbsp;&nbsp; J = NO</p>
        ","j","html-keyboard-response","333","2.1.0","899296","F=YES, J=NO","l2vzkxjjrg","2","81","78","85","","","","","","","","","crimsh","weight1","pseudoword","pseudoword","j","true","",""
"null","<p style=""font-size: 50px;"">+</p>","null","html-keyboard-response","334","2.1.0","899600","F=YES, J=NO","l2vzkxjjrg","2","81","78","85","","","","","","","","","","","","","","","",""
"null","audio/beep-329314.mp3","null","audio-keyboard-response","335","2.1.0","901130","F=YES, J=NO","l2vzkxjjrg","2","81","78","85","","","","","","","","","","","","","","","",""
"null","audio/topic.wav","null","audio-keyboard-response","336","2.1.0","901740","F=YES, J=NO","l2vzkxjjrg","2","81","78","85","","","","","","","","","","","","","","","",""
"923","
          <p id=""word"" style=""font-size: 40px;"">infortuitist</p>
          <p style=""font-size: 16px;"">F = YES &nbsp;&nbsp;&nbsp; J = NO</p>
        ","j","html-keyboard-response","337","2.1.0","902664","F=YES, J=NO","l2vzkxjjrg","2","81","78","85","","","","","","","","","infortuitist","topic","pseudoword","pseudoword","j","true","",""
"null","<p style=""font-size: 50px;"">+</p>","null","html-keyboard-response","338","2.1.0","902970","F=YES, J=NO","l2vzkxjjrg","2","81","78","85","","","","","","","","","","","","","","","",""
"null","audio/beep-329314.mp3","null","audio-keyboard-response","339","2.1.0","904510","F=YES, J=NO","l2vzkxjjrg","2","81","78","85","","","","","","","","","","","","","","","",""
"null","audio/trout1.wav","null","audio-keyboard-response","340","2.1.0","905081","F=YES, J=NO","l2vzkxjjrg","2","81","78","85","","","","","","","","","","","","","","","",""
"855","
          <p id=""word"" style=""font-size: 40px;"">spimt</p>
          <p style=""font-size: 16px;"">F = YES &nbsp;&nbsp;&nbsp; J = NO</p>
        ","j","html-keyboard-response","341","2.1.0","905936","F=YES, J=NO","l2vzkxjjrg","2","81","78","85","","","","","","","","","spimt","trout1","pseudoword","pseudoword","j","true","",""
"null","<p style=""font-size: 50px;"">+</p>","null","html-keyboard-response","342","2.1.0","906244","F=YES, J=NO","l2vzkxjjrg","2","81","78","85","","","","","","","","","","","","","","","",""
"null","audio/beep-329314.mp3","null","audio-keyboard-response","343","2.1.0","907770","F=YES, J=NO","l2vzkxjjrg","2","81","78","85","","","","","","","","","","","","","","","",""
"null","audio/prisoner.wav","null","audio-keyboard-response","344","2.1.0","908320","F=YES, J=NO","l2vzkxjjrg","2","81","78","85","","","","","","","","","","","","","","","",""
"599","
          <p id=""word"" style=""font-size: 40px;"">release</p>
          <p style=""font-size: 16px;"">F = YES &nbsp;&nbsp;&nbsp; J = NO</p>
        ","f","html-keyboard-response","345","2.1.0","908920","F=YES, J=NO","l2vzkxjjrg","2","81","78","85","","","","","","","","","release","prisoner","literal","experimental","f","true","",""
"null","<p style=""font-size: 50px;"">+</p>","null","html-keyboard-response","346","2.1.0","909233","F=YES, J=NO","l2vzkxjjrg","2","81","78","85","","","","","","","","","","","","","","","",""
"null","audio/beep-329314.mp3","null","audio-keyboard-response","347","2.1.0","910770","F=YES, J=NO","l2vzkxjjrg","2","81","78","85","","","","","","","","","","","","","","","",""
"null","audio/butter1.wav","null","audio-keyboard-response","348","2.1.0","911200","F=YES, J=NO","l2vzkxjjrg","2","81","78","85","","","","","","","","","","","","","","","",""
"528","
          <p id=""word"" style=""font-size: 40px;"">spread</p>
          <p style=""font-size: 16px;"">F = YES &nbsp;&nbsp;&nbsp; J = NO</p>
        ","f","html-keyboard-response","349","2.1.0","911729","F=YES, J=NO","l2vzkxjjrg","2","81","78","85","","","","","","","","","spread","butter1","literal","experimental","f","true","",""
"null","<p style=""font-size: 50px;"">+</p>","null","html-keyboard-response","350","2.1.0","912043","F=YES, J=NO","l2vzkxjjrg","2","81","78","85","","","","","","","","","","","","","","","",""
"null","audio/beep-329314.mp3","null","audio-keyboard-response","351","2.1.0","913570","F=YES, J=NO","l2vzkxjjrg","2","81","78","85","","","","","","","","","","","","","","","",""
"null","audio/show.wav","null","audio-keyboard-response","352","2.1.0","914160","F=YES, J=NO","l2vzkxjjrg","2","81","78","85","","","","","","","","","","","","","","","",""
"1079","
          <p id=""word"" style=""font-size: 40px;"">smark</p>
          <p style=""font-size: 16px;"">F = YES &nbsp;&nbsp;&nbsp; J = NO</p>
        ","j","html-keyboard-response","353","2.1.0","915240","F=YES, J=NO","l2vzkxjjrg","2","81","78","85","","","","","","","","","smark","show","pseudoword","pseudoword","j","true","",""
"null","<p style=""font-size: 50px;"">+</p>","null","html-keyboard-response","354","2.1.0","915550","F=YES, J=NO","l2vzkxjjrg","2","81","78","85","","","","","","","","","","","","","","","",""
"null","audio/beep-329314.mp3","null","audio-keyboard-response","355","2.1.0","917091","F=YES, J=NO","l2vzkxjjrg","2","81","78","85","","","","","","","","","","","","","","","",""
"null","audio/gossip1.wav","null","audio-keyboard-response","356","2.1.0","917700","F=YES, J=NO","l2vzkxjjrg","2","81","78","85","","","","","","","","","","","","","","","",""
"1035","
          <p id=""word"" style=""font-size: 40px;"">camerish</p>
          <p style=""font-size: 16px;"">F = YES &nbsp;&nbsp;&nbsp; J = NO</p>
        ","j","html-keyboard-response","357","2.1.0","918736","F=YES, J=NO","l2vzkxjjrg","2","81","78","85","","","","","","","","","camerish","gossip1","pseudoword","pseudoword","j","true","",""
"null","<p style=""font-size: 50px;"">+</p>","null","html-keyboard-response","358","2.1.0","919037","F=YES, J=NO","l2vzkxjjrg","2","81","78","85","","","","","","","","","","","","","","","",""
"null","audio/beep-329314.mp3","null","audio-keyboard-response","359","2.1.0","920570","F=YES, J=NO","l2vzkxjjrg","2","81","78","85","","","","","","","","","","","","","","","",""
"null","audio/roof1.wav","null","audio-keyboard-response","360","2.1.0","921160","F=YES, J=NO","l2vzkxjjrg","2","81","78","85","","","","","","","","","","","","","","","",""
"743","
          <p id=""word"" style=""font-size: 40px;"">construct</p>
          <p style=""font-size: 16px;"">F = YES &nbsp;&nbsp;&nbsp; J = NO</p>
        ","f","html-keyboard-response","361","2.1.0","921904","F=YES, J=NO","l2vzkxjjrg","2","81","78","85","","","","","","","","","construct","roof1","literal","experimental","f","true","",""
"110936","<p>Excellent! You have finished block 3 of 8.</p>
                     <p>Feel free to take a 30 second break.</p>
                     <p>Press any key when you're ready to continue.</p>","j","html-keyboard-response","362","2.1.0","1032841","F=YES, J=NO","l2vzkxjjrg","2","81","78","85","","","","","","","","","","","","","","","",""
"783","<p>Starting main block 4 of 8. Press any key to continue.</p>","j","html-keyboard-response","363","2.1.0","1033624","F=YES, J=NO","l2vzkxjjrg","2","81","78","85","","","","","","","","","","","","","","","",""
"null","<p style=""font-size: 50px;"">+</p>","null","html-keyboard-response","364","2.1.0","1033928","F=YES, J=NO","l2vzkxjjrg","2","81","78","85","","","","","","","","","","","","","","","",""
"null","audio/beep-329314.mp3","null","audio-keyboard-response","365","2.1.0","1035446","F=YES, J=NO","l2vzkxjjrg","2","81","78","85","","","","","","","","","","","","","","","",""
"null","audio/client1.wav","null","audio-keyboard-response","366","2.1.0","1036156","F=YES, J=NO","l2vzkxjjrg","2","81","78","85","","","","","","","","","","","","","","","",""
"620","
          <p id=""word"" style=""font-size: 40px;"">land</p>
          <p style=""font-size: 16px;"">F = YES &nbsp;&nbsp;&nbsp; J = NO</p>
        ","f","html-keyboard-response","367","2.1.0","1036776","F=YES, J=NO","l2vzkxjjrg","2","81","78","85","","","","","","","","","land","client1","metaphor","experimental","f","true","",""
"null","<p style=""font-size: 50px;"">+</p>","null","html-keyboard-response","368","2.1.0","1037087","F=YES, J=NO","l2vzkxjjrg","2","81","78","85","","","","","","","","","","","","","","","",""
"null","audio/beep-329314.mp3","null","audio-keyboard-response","369","2.1.0","1038627","F=YES, J=NO","l2vzkxjjrg","2","81","78","85","","","","","","","","","","","","","","","",""
"null","audio/uncle1.wav","null","audio-keyboard-response","370","2.1.0","1039156","F=YES, J=NO","l2vzkxjjrg","2","81","78","85","","","","","","","","","","","","","","","",""
"636","
          <p id=""word"" style=""font-size: 40px;"">dramble</p>
          <p style=""font-size: 16px;"">F = YES &nbsp;&nbsp;&nbsp; J = NO</p>
        ","j","html-keyboard-response","371","2.1.0","1039792","F=YES, J=NO","l2vzkxjjrg","2","81","78","85","","","","","","","","","dramble","uncle1","pseudoword","pseudoword","j","true","",""
"null","<p style=""font-size: 50px;"">+</p>","null","html-keyboard-response","372","2.1.0","1040100","F=YES, J=NO","l2vzkxjjrg","2","81","78","85","","","","","","","","","","","","","","","",""
"null","audio/beep-329314.mp3","null","audio-keyboard-response","373","2.1.0","1041626","F=YES, J=NO","l2vzkxjjrg","2","81","78","85","","","","","","","","","","","","","","","",""
"null","audio/size1.wav","null","audio-keyboard-response","374","2.1.0","1042416","F=YES, J=NO","l2vzkxjjrg","2","81","78","85","","","","","","","","","","","","","","","",""
"536","
          <p id=""word"" style=""font-size: 40px;"">clear</p>
          <p style=""font-size: 16px;"">F = YES &nbsp;&nbsp;&nbsp; J = NO</p>
        ","f","html-keyboard-response","375","2.1.0","1042953","F=YES, J=NO","l2vzkxjjrg","2","81","78","85","","","","","","","","","clear","size1","unrelated","experimental","f","true","",""
"null","<p style=""font-size: 50px;"">+</p>","null","html-keyboard-response","376","2.1.0","1043264","F=YES, J=NO","l2vzkxjjrg","2","81","78","85","","","","","","","","","","","","","","","",""
"null","audio/beep-329314.mp3","null","audio-keyboard-response","377","2.1.0","1044787","F=YES, J=NO","l2vzkxjjrg","2","81","78","85","","","","","","","","","","","","","","","",""
"null","audio/voice.wav","null","audio-keyboard-response","378","2.1.0","1045436","F=YES, J=NO","l2vzkxjjrg","2","81","78","85","","","","","","","","","","","","","","","",""
"572","
          <p id=""word"" style=""font-size: 40px;"">grintle</p>
          <p style=""font-size: 16px;"">F = YES &nbsp;&nbsp;&nbsp; J = NO</p>
        ","j","html-keyboard-response","379","2.1.0","1046008","F=YES, J=NO","l2vzkxjjrg","2","81","78","85","","","","","","","","","grintle","voice","pseudoword","pseudoword","j","true","",""
"null","<p style=""font-size: 50px;"">+</p>","null","html-keyboard-response","380","2.1.0","1046316","F=YES, J=NO","l2vzkxjjrg","2","81","78","85","","","","","","","","","","","","","","","",""
"null","audio/beep-329314.mp3","null","audio-keyboard-response","381","2.1.0","1047846","F=YES, J=NO","l2vzkxjjrg","2","81","78","85","","","","","","","","","","","","","","","",""
"null","audio/key1.wav","null","audio-keyboard-response","382","2.1.0","1048196","F=YES, J=NO","l2vzkxjjrg","2","81","78","85","","","","","","","","","","","","","","","",""
"764","
          <p id=""word"" style=""font-size: 40px;"">sminsh</p>
          <p style=""font-size: 16px;"">F = YES &nbsp;&nbsp;&nbsp; J = NO</p>
        ","j","html-keyboard-response","383","2.1.0","1048960","F=YES, J=NO","l2vzkxjjrg","2","81","78","85","","","","","","","","","sminsh","key1","pseudoword","pseudoword","j","true","",""
"null","<p style=""font-size: 50px;"">+</p>","null","html-keyboard-response","384","2.1.0","1049263","F=YES, J=NO","l2vzkxjjrg","2","81","78","85","","","","","","","","","","","","","","","",""
"null","audio/beep-329314.mp3","null","audio-keyboard-response","385","2.1.0","1050786","F=YES, J=NO","l2vzkxjjrg","2","81","78","85","","","","","","","","","","","","","","","",""
"null","audio/baby.wav","null","audio-keyboard-response","386","2.1.0","1051236","F=YES, J=NO","l2vzkxjjrg","2","81","78","85","","","","","","","","","","","","","","","",""
"532","
          <p id=""word"" style=""font-size: 40px;"">lift</p>
          <p style=""font-size: 16px;"">F = YES &nbsp;&nbsp;&nbsp; J = NO</p>
        ","f","html-keyboard-response","387","2.1.0","1051768","F=YES, J=NO","l2vzkxjjrg","2","81","78","85","","","","","","","","","lift","baby","filler","filler","f","true","",""
"null","<p style=""font-size: 50px;"">+</p>","null","html-keyboard-response","388","2.1.0","1052084","F=YES, J=NO","l2vzkxjjrg","2","81","78","85","","","","","","","","","","","","","","","",""
"null","audio/beep-329314.mp3","null","audio-keyboard-response","389","2.1.0","1053606","F=YES, J=NO","l2vzkxjjrg","2","81","78","85","","","","","","","","","","","","","","","",""
"null","audio/corpse1.wav","null","audio-keyboard-response","390","2.1.0","1054276","F=YES, J=NO","l2vzkxjjrg","2","81","78","85","","","","","","","","","","","","","","","",""
"732","
          <p id=""word"" style=""font-size: 40px;"">glonet</p>
          <p style=""font-size: 16px;"">F = YES &nbsp;&nbsp;&nbsp; J = NO</p>
