"rt","stimulus","response","trial_type","trial_index","plugin_version","time_elapsed","response_mapping","subject_id","list_index","lextale_score","lextale_word_score","lextale_nonword_score","success","timeout","failed_images","failed_audio","failed_video","task","isWord","isDummy","target","prime","prime_type","stimulus_type","correct_response","correct","section","question_order"
"12368","
    <div style=""max-width: 800px; margin: auto; text-align: left;"">
      <h2>STANFORD UNIVERSITY</h2>
      <h3>Research Information Sheet</h3>
      <p><strong>Protocol Director:</strong> Robert Hawkins<br>
      <strong>Protocol Title:</strong> Communication and social cognition in natural audiovisual contexts<br>
      <strong>IRB#:</strong> 77226</p>

      <p><strong>DESCRIPTION:</strong> You are invited to participate in a research study about language and communication. The purpose of the research is to understand how you interact and communicate with other people in naturalistic settings as a fluent English speaker. This research will be conducted through the Prolific platform, including participants from the US, UK, and Canada. If you decide to participate in this research, you will play a communication game in a group with one or more partners.</p>

      <p><strong>TIME INVOLVEMENT:</strong> The task will last the amount of time advertised on Prolific. You are free to withdraw from the study at any time.</p>

      <p><strong>RISKS AND BENEFITS:</strong> You may become frustrated if your partner gets distracted, or experience discomfort if other participants in your group send text that is inappropriate for the task. We ask you to please be respectful of other participants you might be interacting with to mitigate these risks. You may also experience discomfort when being asked to discuss or challenge emotionally salient political beliefs. Study data will be stored securely, in compliance with Stanford University standards, minimizing the risk of confidentiality breach. This study advances our scientific understanding of how people communicate and collaborate in naturalistic settings. This study may lead to further insights about what can go wrong in teamwork, suggest potential interventions to overcome these barriers, and help to develop assistive technologies that collaborate with human partners. We cannot and do not guarantee or promise that you will receive any benefits from this study.</p>

      <p><strong>PAYMENTS:</strong> You will receive payment in the amount advertised on Prolific. If you do not complete this study, you will receive prorated payment based on the time that you have spent. Additionally, you may be eligible for bonus payments as described in the instructions.</p>

      <p><strong>PARTICIPANT’S RIGHTS:</strong> If you have read this form and have decided to participate in this project, please understand your participation is voluntary and you have the right to withdraw your consent or discontinue participation at any time without penalty or loss of benefits to which you are otherwise entitled. The alternative is not to participate. You have the right to refuse to answer particular questions. The results of this research study may be presented at scientific or professional meetings or published in scientific journals. Your individual privacy will be maintained in all published and written data resulting from the study. In accordance with scientific norms, the data from this study may be used or shared with other researchers for future research (after removing personally identifying information) without additional consent from you.</p>

      <p><strong>CONTACT INFORMATION:</strong><br>
      Questions: If you have any questions, concerns or complaints about this research, its procedures, risks and benefits, contact the Protocol Director, Robert Hawkins (<a href=""mailto:rdhawkins@stanford.edu"">rdhawkins@stanford.edu</a>, 217-549-6923).<br>
      Independent Contact: If you are not satisfied with how this study is being conducted, or if you have any concerns, complaints, or general questions about the research or your rights as a participant, please contact the Stanford Institutional Review Board (IRB) to speak to someone independent of the research team at 650-723-2480 or toll free at 1-866-680-2906, or email at <a href=""mailto:irbnon-med@stanford.edu"">irbnon-med@stanford.edu</a>. You can also write to the Stanford IRB, Stanford University, 1705 El Camino Real, Palo Alto, CA 94306.</p>

      <p><strong>Please save or print a copy of this page for your records.</strong></p>
      <p>If you agree to participate in this research, click ""Continue"" below.</p>
    </div>
  ","0","html-button-response","0","2.1.0","12375","J=YES, F=NO","l46s8rt5rr","1","76","83","70","","","","","","","","","","","","","","","",""
"16801","
    <div style=""max-width: 800px; margin: auto; text-align: left;"">
      <h2>Welcome!</h2>
      <p>Thank you for participating in this study. The experiment consists of three parts:</p>
      <ol>
        <li>An English vocabulary test</li>
        <li>A main task in which you will hear and see words, and decide whether the written word is a real English word</li>
        <li>A brief survey about your background</li>
      </ol>
      <p>Each part will be introduced before it begins.</p>
      <p>Please make sure you are in a quiet environment and can hear audio clearly for the final task.</p>
      <p style=""margin-top: 2em;"">Press any key to begin.</p>
    </div>
  "," ","html-keyboard-response","1","2.1.0","29177","J=YES, F=NO","l46s8rt5rr","1","76","83","70","","","","","","","","","","","","","","","",""
"","","","preload","2","2.1.0","31201","J=YES, F=NO","l46s8rt5rr","1","76","83","70","true","false","[]","[]","[]","","","","","","","","","","",""
"14470","
    <div style=""max-width: 800px; margin: auto; text-align: left;"">
      <h2>Part 1: Vocabulary Test</h2>
      <p>You will now complete the first part of the study: a short English vocabulary test.</p>
      <p>This test is called <strong>LexTALE</strong> and helps us get a general sense of your English proficiency.</p>
      <p style=""margin-top: 2em;"">Press any key to continue.</p>
    </div>
  "," ","html-keyboard-response","3","2.1.0","45672","J=YES, F=NO","l46s8rt5rr","1","76","83","70","","","","","","","","","","","","","","","",""
"14982","
    <div style=""max-width: 800px; margin: auto; text-align: left;"">
      <h2>LexTALE Vocabulary Test</h2>
      <p>In this test, you will see a series of letter strings—one at a time.</p>
      <p>Your task is to decide whether each string is a real English word.</p>
      <p><strong>Key responses:</strong></p>
      <ul>
        <li><strong>J</strong> = YES (real English word)</li>
        <li><strong>F</strong> = NO (not a real English word)</li>
      </ul>
      <p>There is no time limit, but please try to be accurate.</p>
      <p style=""margin-top: 2em;"">Press any key to begin.</p>
    </div>
  "," ","html-keyboard-response","4","2.1.0","60655","J=YES, F=NO","l46s8rt5rr","1","76","83","70","","","","","","","","","","","","","","","",""
"3500","
  <p style=""font-size: 40px;"">platery</p>
  <p style=""font-size: 16px;"">J = YES &nbsp;&nbsp;&nbsp; F = NO</p>
","j","html-keyboard-response","5","2.1.0","64155","J=YES, F=NO","l46s8rt5rr","1","76","83","70","","","","","","lextale","false","true","","","","","","","",""
"963","
  <p style=""font-size: 40px;"">denial</p>
  <p style=""font-size: 16px;"">J = YES &nbsp;&nbsp;&nbsp; F = NO</p>
","j","html-keyboard-response","6","2.1.0","65119","J=YES, F=NO","l46s8rt5rr","1","76","83","70","","","","","","lextale","true","true","","","","","","","",""
"1739","
  <p style=""font-size: 40px;"">marrit</p>
  <p style=""font-size: 16px;"">J = YES &nbsp;&nbsp;&nbsp; F = NO</p>
","f","html-keyboard-response","7","2.1.0","66859","J=YES, F=NO","l46s8rt5rr","1","76","83","70","","","","","","lextale","false","true","","","","","","","",""
"715","
  <p style=""font-size: 40px;"">bottle</p>
  <p style=""font-size: 16px;"">J = YES &nbsp;&nbsp;&nbsp; F = NO</p>
","j","html-keyboard-response","8","2.1.0","67574","J=YES, F=NO","l46s8rt5rr","1","76","83","70","","","","","","lextale","true","false","","","","","","","",""
"1207","
  <p style=""font-size: 40px;"">birst</p>
  <p style=""font-size: 16px;"">J = YES &nbsp;&nbsp;&nbsp; F = NO</p>
","f","html-keyboard-response","9","2.1.0","68782","J=YES, F=NO","l46s8rt5rr","1","76","83","70","","","","","","lextale","false","false","","","","","","","",""
"762","
  <p style=""font-size: 40px;"">envy</p>
  <p style=""font-size: 16px;"">J = YES &nbsp;&nbsp;&nbsp; F = NO</p>
","j","html-keyboard-response","10","2.1.0","69545","J=YES, F=NO","l46s8rt5rr","1","76","83","70","","","","","","lextale","true","false","","","","","","","",""
"1315","
  <p style=""font-size: 40px;"">brang</p>
  <p style=""font-size: 16px;"">J = YES &nbsp;&nbsp;&nbsp; F = NO</p>
","f","html-keyboard-response","11","2.1.0","70860","J=YES, F=NO","l46s8rt5rr","1","76","83","70","","","","","","lextale","false","false","","","","","","","",""
"606","
  <p style=""font-size: 40px;"">huge</p>
  <p style=""font-size: 16px;"">J = YES &nbsp;&nbsp;&nbsp; F = NO</p>
","j","html-keyboard-response","12","2.1.0","71466","J=YES, F=NO","l46s8rt5rr","1","76","83","70","","","","","","lextale","true","false","","","","","","","",""
"1789","
  <p style=""font-size: 40px;"">plove</p>
  <p style=""font-size: 16px;"">J = YES &nbsp;&nbsp;&nbsp; F = NO</p>
","f","html-keyboard-response","13","2.1.0","73256","J=YES, F=NO","l46s8rt5rr","1","76","83","70","","","","","","lextale","false","false","","","","","","","",""
"646","
  <p style=""font-size: 40px;"">border</p>
  <p style=""font-size: 16px;"">J = YES &nbsp;&nbsp;&nbsp; F = NO</p>
","j","html-keyboard-response","14","2.1.0","73902","J=YES, F=NO","l46s8rt5rr","1","76","83","70","","","","","","lextale","true","false","","","","","","","",""
"1739","
  <p style=""font-size: 40px;"">flimsy</p>
  <p style=""font-size: 16px;"">J = YES &nbsp;&nbsp;&nbsp; F = NO</p>
","j","html-keyboard-response","15","2.1.0","75642","J=YES, F=NO","l46s8rt5rr","1","76","83","70","","","","","","lextale","true","false","","","","","","","",""
"788","
  <p style=""font-size: 40px;"">drain</p>
  <p style=""font-size: 16px;"">J = YES &nbsp;&nbsp;&nbsp; F = NO</p>
","j","html-keyboard-response","16","2.1.0","76430","J=YES, F=NO","l46s8rt5rr","1","76","83","70","","","","","","lextale","true","false","","","","","","","",""
"872","
  <p style=""font-size: 40px;"">twindle</p>
  <p style=""font-size: 16px;"">J = YES &nbsp;&nbsp;&nbsp; F = NO</p>
","f","html-keyboard-response","17","2.1.0","77302","J=YES, F=NO","l46s8rt5rr","1","76","83","70","","","","","","lextale","false","false","","","","","","","",""
"724","
  <p style=""font-size: 40px;"">propose</p>
  <p style=""font-size: 16px;"">J = YES &nbsp;&nbsp;&nbsp; F = NO</p>
","j","html-keyboard-response","18","2.1.0","78026","J=YES, F=NO","l46s8rt5rr","1","76","83","70","","","","","","lextale","true","false","","","","","","","",""
"3968","
  <p style=""font-size: 40px;"">forlay</p>
  <p style=""font-size: 16px;"">J = YES &nbsp;&nbsp;&nbsp; F = NO</p>
","j","html-keyboard-response","19","2.1.0","81994","J=YES, F=NO","l46s8rt5rr","1","76","83","70","","","","","","lextale","false","false","","","","","","","",""
"867","
  <p style=""font-size: 40px;"">tenant</p>
  <p style=""font-size: 16px;"">J = YES &nbsp;&nbsp;&nbsp; F = NO</p>
","j","html-keyboard-response","20","2.1.0","82862","J=YES, F=NO","l46s8rt5rr","1","76","83","70","","","","","","lextale","true","false","","","","","","","",""
"696","
  <p style=""font-size: 40px;"">strain</p>
  <p style=""font-size: 16px;"">J = YES &nbsp;&nbsp;&nbsp; F = NO</p>
","j","html-keyboard-response","21","2.1.0","83558","J=YES, F=NO","l46s8rt5rr","1","76","83","70","","","","","","lextale","true","false","","","","","","","",""
"819","
  <p style=""font-size: 40px;"">holster</p>
  <p style=""font-size: 16px;"">J = YES &nbsp;&nbsp;&nbsp; F = NO</p>
","j","html-keyboard-response","22","2.1.0","84378","J=YES, F=NO","l46s8rt5rr","1","76","83","70","","","","","","lextale","true","false","","","","","","","",""
"862","
  <p style=""font-size: 40px;"">hinder</p>
  <p style=""font-size: 16px;"">J = YES &nbsp;&nbsp;&nbsp; F = NO</p>
","j","html-keyboard-response","23","2.1.0","85240","J=YES, F=NO","l46s8rt5rr","1","76","83","70","","","","","","lextale","true","false","","","","","","","",""
"1091","
  <p style=""font-size: 40px;"">swindle</p>
  <p style=""font-size: 16px;"">J = YES &nbsp;&nbsp;&nbsp; F = NO</p>
","j","html-keyboard-response","24","2.1.0","86332","J=YES, F=NO","l46s8rt5rr","1","76","83","70","","","","","","lextale","true","false","","","","","","","",""
"924","
  <p style=""font-size: 40px;"">nuder</p>
  <p style=""font-size: 16px;"">J = YES &nbsp;&nbsp;&nbsp; F = NO</p>
","f","html-keyboard-response","25","2.1.0","87256","J=YES, F=NO","l46s8rt5rr","1","76","83","70","","","","","","lextale","false","false","","","","","","","",""
"793","
  <p style=""font-size: 40px;"">pillow</p>
  <p style=""font-size: 16px;"">J = YES &nbsp;&nbsp;&nbsp; F = NO</p>
","j","html-keyboard-response","26","2.1.0","88050","J=YES, F=NO","l46s8rt5rr","1","76","83","70","","","","","","lextale","true","false","","","","","","","",""
"1650","
  <p style=""font-size: 40px;"">shumble</p>
  <p style=""font-size: 16px;"">J = YES &nbsp;&nbsp;&nbsp; F = NO</p>
","f","html-keyboard-response","27","2.1.0","89701","J=YES, F=NO","l46s8rt5rr","1","76","83","70","","","","","","lextale","false","false","","","","","","","",""
"651","
  <p style=""font-size: 40px;"">thirst</p>
  <p style=""font-size: 16px;"">J = YES &nbsp;&nbsp;&nbsp; F = NO</p>
","j","html-keyboard-response","28","2.1.0","90352","J=YES, F=NO","l46s8rt5rr","1","76","83","70","","","","","","lextale","true","false","","","","","","","",""
"2475","
  <p style=""font-size: 40px;"">unsail</p>
  <p style=""font-size: 16px;"">J = YES &nbsp;&nbsp;&nbsp; F = NO</p>
","f","html-keyboard-response","29","2.1.0","92828","J=YES, F=NO","l46s8rt5rr","1","76","83","70","","","","","","lextale","false","false","","","","","","","",""
"1257","
  <p style=""font-size: 40px;"">rifle</p>
  <p style=""font-size: 16px;"">J = YES &nbsp;&nbsp;&nbsp; F = NO</p>
","j","html-keyboard-response","30","2.1.0","94085","J=YES, F=NO","l46s8rt5rr","1","76","83","70","","","","","","lextale","true","false","","","","","","","",""
"786","
  <p style=""font-size: 40px;"">mush</p>
  <p style=""font-size: 16px;"">J = YES &nbsp;&nbsp;&nbsp; F = NO</p>
","j","html-keyboard-response","31","2.1.0","94873","J=YES, F=NO","l46s8rt5rr","1","76","83","70","","","","","","lextale","false","false","","","","","","","",""
"816","
  <p style=""font-size: 40px;"">drench</p>
  <p style=""font-size: 16px;"">J = YES &nbsp;&nbsp;&nbsp; F = NO</p>
","j","html-keyboard-response","32","2.1.0","95689","J=YES, F=NO","l46s8rt5rr","1","76","83","70","","","","","","lextale","true","false","","","","","","","",""
"875","
  <p style=""font-size: 40px;"">snirt</p>
  <p style=""font-size: 16px;"">J = YES &nbsp;&nbsp;&nbsp; F = NO</p>
","f","html-keyboard-response","33","2.1.0","96564","J=YES, F=NO","l46s8rt5rr","1","76","83","70","","","","","","lextale","false","false","","","","","","","",""
"660","
  <p style=""font-size: 40px;"">bitter</p>
  <p style=""font-size: 16px;"">J = YES &nbsp;&nbsp;&nbsp; F = NO</p>
","j","html-keyboard-response","34","2.1.0","97225","J=YES, F=NO","l46s8rt5rr","1","76","83","70","","","","","","lextale","true","false","","","","","","","",""
"830","
  <p style=""font-size: 40px;"">pliff</p>
  <p style=""font-size: 16px;"">J = YES &nbsp;&nbsp;&nbsp; F = NO</p>
","f","html-keyboard-response","35","2.1.0","98055","J=YES, F=NO","l46s8rt5rr","1","76","83","70","","","","","","lextale","false","false","","","","","","","",""
"790","
  <p style=""font-size: 40px;"">tablet</p>
  <p style=""font-size: 16px;"">J = YES &nbsp;&nbsp;&nbsp; F = NO</p>
","j","html-keyboard-response","36","2.1.0","98845","J=YES, F=NO","l46s8rt5rr","1","76","83","70","","","","","","lextale","true","false","","","","","","","",""
"1515","
  <p style=""font-size: 40px;"">glimmer</p>
  <p style=""font-size: 16px;"">J = YES &nbsp;&nbsp;&nbsp; F = NO</p>
","j","html-keyboard-response","37","2.1.0","100360","J=YES, F=NO","l46s8rt5rr","1","76","83","70","","","","","","lextale","true","false","","","","","","","",""
"832","
  <p style=""font-size: 40px;"">slink</p>
  <p style=""font-size: 16px;"">J = YES &nbsp;&nbsp;&nbsp; F = NO</p>
","j","html-keyboard-response","38","2.1.0","101193","J=YES, F=NO","l46s8rt5rr","1","76","83","70","","","","","","lextale","true","false","","","","","","","",""
"752","
  <p style=""font-size: 40px;"">clever</p>
  <p style=""font-size: 16px;"">J = YES &nbsp;&nbsp;&nbsp; F = NO</p>
","j","html-keyboard-response","39","2.1.0","101945","J=YES, F=NO","l46s8rt5rr","1","76","83","70","","","","","","lextale","true","false","","","","","","","",""
"741","
  <p style=""font-size: 40px;"">grum</p>
  <p style=""font-size: 16px;"">J = YES &nbsp;&nbsp;&nbsp; F = NO</p>
","f","html-keyboard-response","40","2.1.0","102687","J=YES, F=NO","l46s8rt5rr","1","76","83","70","","","","","","lextale","false","false","","","","","","","",""
"712","
  <p style=""font-size: 40px;"">string</p>
  <p style=""font-size: 16px;"">J = YES &nbsp;&nbsp;&nbsp; F = NO</p>
","j","html-keyboard-response","41","2.1.0","103400","J=YES, F=NO","l46s8rt5rr","1","76","83","70","","","","","","lextale","true","false","","","","","","","",""
"6454","
  <p style=""font-size: 40px;"">plim</p>
  <p style=""font-size: 16px;"">J = YES &nbsp;&nbsp;&nbsp; F = NO</p>
","f","html-keyboard-response","42","2.1.0","109854","J=YES, F=NO","l46s8rt5rr","1","76","83","70","","","","","","lextale","false","false","","","","","","","",""
"1367","
  <p style=""font-size: 40px;"">cable</p>
  <p style=""font-size: 16px;"">J = YES &nbsp;&nbsp;&nbsp; F = NO</p>
","j","html-keyboard-response","43","2.1.0","111222","J=YES, F=NO","l46s8rt5rr","1","76","83","70","","","","","","lextale","true","false","","","","","","","",""
"2362","
  <p style=""font-size: 40px;"">shrivel</p>
  <p style=""font-size: 16px;"">J = YES &nbsp;&nbsp;&nbsp; F = NO</p>
","f","html-keyboard-response","44","2.1.0","113584","J=YES, F=NO","l46s8rt5rr","1","76","83","70","","","","","","lextale","true","false","","","","","","","",""
"952","
  <p style=""font-size: 40px;"">tarnish</p>
  <p style=""font-size: 16px;"">J = YES &nbsp;&nbsp;&nbsp; F = NO</p>
","j","html-keyboard-response","45","2.1.0","114537","J=YES, F=NO","l46s8rt5rr","1","76","83","70","","","","","","lextale","true","false","","","","","","","",""
"22537","
  <p style=""font-size: 40px;"">blim</p>
  <p style=""font-size: 16px;"">J = YES &nbsp;&nbsp;&nbsp; F = NO</p>
","j","html-keyboard-response","46","2.1.0","137074","J=YES, F=NO","l46s8rt5rr","1","76","83","70","","","","","","lextale","false","false","","","","","","","",""
"9261","
  <p style=""font-size: 40px;"">stifle</p>
  <p style=""font-size: 16px;"">J = YES &nbsp;&nbsp;&nbsp; F = NO</p>
","j","html-keyboard-response","47","2.1.0","146335","J=YES, F=NO","l46s8rt5rr","1","76","83","70","","","","","","lextale","true","false","","","","","","","",""
"11058","
  <p style=""font-size: 40px;"">bint</p>
  <p style=""font-size: 16px;"">J = YES &nbsp;&nbsp;&nbsp; F = NO</p>
","f","html-keyboard-response","48","2.1.0","157394","J=YES, F=NO","l46s8rt5rr","1","76","83","70","","","","","","lextale","false","false","","","","","","","",""
"1314","
  <p style=""font-size: 40px;"">purple</p>
  <p style=""font-size: 16px;"">J = YES &nbsp;&nbsp;&nbsp; F = NO</p>
","j","html-keyboard-response","49","2.1.0","158708","J=YES, F=NO","l46s8rt5rr","1","76","83","70","","","","","","lextale","true","false","","","","","","","",""
"7472","
  <p style=""font-size: 40px;"">wriggle</p>
  <p style=""font-size: 16px;"">J = YES &nbsp;&nbsp;&nbsp; F = NO</p>
","j","html-keyboard-response","50","2.1.0","166181","J=YES, F=NO","l46s8rt5rr","1","76","83","70","","","","","","lextale","true","false","","","","","","","",""
"12472","
  <p style=""font-size: 40px;"">mangle</p>
  <p style=""font-size: 16px;"">J = YES &nbsp;&nbsp;&nbsp; F = NO</p>
","j","html-keyboard-response","51","2.1.0","178654","J=YES, F=NO","l46s8rt5rr","1","76","83","70","","","","","","lextale","true","false","","","","","","","",""
"1277","
  <p style=""font-size: 40px;"">shramp</p>
  <p style=""font-size: 16px;"">J = YES &nbsp;&nbsp;&nbsp; F = NO</p>
","f","html-keyboard-response","52","2.1.0","179931","J=YES, F=NO","l46s8rt5rr","1","76","83","70","","","","","","lextale","false","false","","","","","","","",""
"563","
  <p style=""font-size: 40px;"">flirt</p>
  <p style=""font-size: 16px;"">J = YES &nbsp;&nbsp;&nbsp; F = NO</p>
","j","html-keyboard-response","53","2.1.0","180494","J=YES, F=NO","l46s8rt5rr","1","76","83","70","","","","","","lextale","true","false","","","","","","","",""
"862","
  <p style=""font-size: 40px;"">frip</p>
  <p style=""font-size: 16px;"">J = YES &nbsp;&nbsp;&nbsp; F = NO</p>
","j","html-keyboard-response","54","2.1.0","181356","J=YES, F=NO","l46s8rt5rr","1","76","83","70","","","","","","lextale","false","false","","","","","","","",""
"715","
  <p style=""font-size: 40px;"">tangle</p>
  <p style=""font-size: 16px;"">J = YES &nbsp;&nbsp;&nbsp; F = NO</p>
","j","html-keyboard-response","55","2.1.0","182072","J=YES, F=NO","l46s8rt5rr","1","76","83","70","","","","","","lextale","true","false","","","","","","","",""
"959","
  <p style=""font-size: 40px;"">crumble</p>
  <p style=""font-size: 16px;"">J = YES &nbsp;&nbsp;&nbsp; F = NO</p>
","j","html-keyboard-response","56","2.1.0","183032","J=YES, F=NO","l46s8rt5rr","1","76","83","70","","","","","","lextale","true","false","","","","","","","",""
"1167","
  <p style=""font-size: 40px;"">wrinkle</p>
  <p style=""font-size: 16px;"">J = YES &nbsp;&nbsp;&nbsp; F = NO</p>
","j","html-keyboard-response","57","2.1.0","184200","J=YES, F=NO","l46s8rt5rr","1","76","83","70","","","","","","lextale","true","false","","","","","","","",""
"2262","
  <p style=""font-size: 40px;"">slumb</p>
  <p style=""font-size: 16px;"">J = YES &nbsp;&nbsp;&nbsp; F = NO</p>
","j","html-keyboard-response","58","2.1.0","186462","J=YES, F=NO","l46s8rt5rr","1","76","83","70","","","","","","lextale","false","false","","","","","","","",""
"935","
  <p style=""font-size: 40px;"">jungle</p>
  <p style=""font-size: 16px;"">J = YES &nbsp;&nbsp;&nbsp; F = NO</p>
","j","html-keyboard-response","59","2.1.0","187398","J=YES, F=NO","l46s8rt5rr","1","76","83","70","","","","","","lextale","true","false","","","","","","","",""
"776","
  <p style=""font-size: 40px;"">frolick</p>
  <p style=""font-size: 16px;"">J = YES &nbsp;&nbsp;&nbsp; F = NO</p>
","f","html-keyboard-response","60","2.1.0","188175","J=YES, F=NO","l46s8rt5rr","1","76","83","70","","","","","","lextale","false","false","","","","","","","",""
"1880","
      <h2>LexTALE Test Completed</h2>
      <p>Your LexTALE vocabulary score is: <strong>76%</strong></p>
      <p>Press any key to continue.</p>
    "," ","html-keyboard-response","61","2.1.0","190058","J=YES, F=NO","l46s8rt5rr","1","76","83","70","","","","","","","","","","","","","","","",""
"6433","
    <div style=""max-width: 800px; margin: auto; text-align: left;"">
      <h2>Break Time</h2>
      <p>You have completed the first part of the study.</p>
      <p>You may take a short <strong>30-second break</strong> before continuing.</p>
      <p>When you’re ready, press any key to continue to the final task.</p>
    </div>
  "," ","html-keyboard-response","62","2.1.0","196491","J=YES, F=NO","l46s8rt5rr","1","76","83","70","","","","","","","","","","","","","","","",""
"15298","
    <div style=""max-width: 800px; margin: auto; text-align: left;"">
      <h2>Part 2: Lexical Decision Task</h2>
      <p>You will now begin the second part of the study.</p>
      <p>Each trial will follow this sequence:</p>
      <ul>
        <li>A fixation cross (+) appears at the center of the screen.</li>
        <li>You will hear a short beep followed by a spoken word.</li>
        <li>A written word will appear briefly on the screen.</li>
      </ul>
      <p>Your task is to judge whether the <strong>written word</strong> is a real English word.</p>
      <p style=""margin-top: 1em;""><strong>Key responses:</strong></p>
      <ul>
        <li><strong>J</strong> = YES (real English word)</li>
        <li><strong>F</strong> = NO (not a real English word)</li>
      </ul>
      <p>Please respond as quickly and accurately as you can.</p>
      <p style=""margin-top: 2em;"">Press any key to continue.</p>
    </div>
  "," ","html-keyboard-response","63","2.1.0","211790","J=YES, F=NO","l46s8rt5rr","1","76","83","70","","","","","","","","","","","","","","","",""
"1948","
    <div style=""max-width: 800px; margin: auto; text-align: left;"">
      <h2>Before You Begin</h2>
      <p>Make sure your sound is turned on.</p>
      <p>You will hear audio during each trial, but your decision should be based only on the <strong>written word</strong> you see on the screen.</p>
      <p><strong>Reminder:</strong></p>
      <ul>
        <li><strong>J</strong> = YES (real English word)</li>
        <li><strong>F</strong> = NO (not a real English word)</li>
      </ul>
      <p style=""margin-top: 2em;"">Press any key when you are ready to begin.</p>
    </div>
  "," ","html-keyboard-response","64","2.1.0","213738","J=YES, F=NO","l46s8rt5rr","1","76","83","70","","","","","","","","","","","","","","","",""
"2672","
    <div style=""max-width: 800px; margin: auto; text-align: left;"">
      <h2>Part 2: Practice Trials</h2>
      <p>You will now complete a few <strong>practice trials</strong> to get familiar with the task.</p>
      <p>These trials are <strong>not scored</strong> and are only to help you get used to the format.</p>
      <p style=""margin-top: 2em;"">Press any key to begin.</p>
    </div>
  "," ","html-keyboard-response","65","2.1.0","216411","J=YES, F=NO","l46s8rt5rr","1","76","83","70","","","","","","","","","","","","","","","",""
"1716","<p>Starting practice block 1 of 2. Press any key to continue.</p>"," ","html-keyboard-response","66","2.1.0","218127","J=YES, F=NO","l46s8rt5rr","1","76","83","70","","","","","","","","","","","","","","","",""
"null","<p style=""font-size: 50px;"">+</p>","null","html-keyboard-response","67","2.1.0","218435","J=YES, F=NO","l46s8rt5rr","1","76","83","70","","","","","","","","","","","","","","","",""
"null","audio/beep-329314.mp3","null","audio-keyboard-response","68","2.1.0","220213","J=YES, F=NO","l46s8rt5rr","1","76","83","70","","","","","","","","","","","","","","","",""
"null","audio/floor.wav","null","audio-keyboard-response","69","2.1.0","220824","J=YES, F=NO","l46s8rt5rr","1","76","83","70","","","","","","","","","","","","","","","",""
"null","
          <p id=""word"" style=""font-size: 40px;"">mop</p>
          <p style=""font-size: 16px;"">J = YES &nbsp;&nbsp;&nbsp; F = NO</p>
        ","null","html-keyboard-response","70","2.1.0","222327","J=YES, F=NO","l46s8rt5rr","1","76","83","70","","","","","","","","","mop","floor","filler","filler","j","false","",""
"null","<p style=""font-size: 50px;"">+</p>","null","html-keyboard-response","71","2.1.0","222635","J=YES, F=NO","l46s8rt5rr","1","76","83","70","","","","","","","","","","","","","","","",""
"null","audio/beep-329314.mp3","null","audio-keyboard-response","72","2.1.0","224175","J=YES, F=NO","l46s8rt5rr","1","76","83","70","","","","","","","","","","","","","","","",""
"null","audio/ankle1.wav","null","audio-keyboard-response","73","2.1.0","224703","J=YES, F=NO","l46s8rt5rr","1","76","83","70","","","","","","","","","","","","","","","",""
"null","
          <p id=""word"" style=""font-size: 40px;"">kick</p>
          <p style=""font-size: 16px;"">J = YES &nbsp;&nbsp;&nbsp; F = NO</p>
        ","null","html-keyboard-response","74","2.1.0","226216","J=YES, F=NO","l46s8rt5rr","1","76","83","70","","","","","","","","","kick","ankle1","filler","filler","j","false","",""
"null","<p style=""font-size: 50px;"">+</p>","null","html-keyboard-response","75","2.1.0","226525","J=YES, F=NO","l46s8rt5rr","1","76","83","70","","","","","","","","","","","","","","","",""
"null","audio/beep-329314.mp3","null","audio-keyboard-response","76","2.1.0","228314","J=YES, F=NO","l46s8rt5rr","1","76","83","70","","","","","","","","","","","","","","","",""
"null","audio/brain.wav","null","audio-keyboard-response","77","2.1.0","228844","J=YES, F=NO","l46s8rt5rr","1","76","83","70","","","","","","","","","","","","","","","",""
"null","
          <p id=""word"" style=""font-size: 40px;"">throw</p>
          <p style=""font-size: 16px;"">J = YES &nbsp;&nbsp;&nbsp; F = NO</p>
        ","null","html-keyboard-response","78","2.1.0","230356","J=YES, F=NO","l46s8rt5rr","1","76","83","70","","","","","","","","","throw","brain","filler","filler","j","false","",""
"null","<p style=""font-size: 50px;"">+</p>","null","html-keyboard-response","79","2.1.0","230662","J=YES, F=NO","l46s8rt5rr","1","76","83","70","","","","","","","","","","","","","","","",""
"null","audio/beep-329314.mp3","null","audio-keyboard-response","80","2.1.0","232194","J=YES, F=NO","l46s8rt5rr","1","76","83","70","","","","","","","","","","","","","","","",""
"null","audio/breath.wav","null","audio-keyboard-response","81","2.1.0","232764","J=YES, F=NO","l46s8rt5rr","1","76","83","70","","","","","","","","","","","","","","","",""
"null","
          <p id=""word"" style=""font-size: 40px;"">twets</p>
          <p style=""font-size: 16px;"">J = YES &nbsp;&nbsp;&nbsp; F = NO</p>
        ","null","html-keyboard-response","82","2.1.0","234279","J=YES, F=NO","l46s8rt5rr","1","76","83","70","","","","","","","","","twets","breath","pseudoword","pseudoword","f","false","",""
"null","<p style=""font-size: 50px;"">+</p>","null","html-keyboard-response","83","2.1.0","234580","J=YES, F=NO","l46s8rt5rr","1","76","83","70","","","","","","","","","","","","","","","",""
"null","audio/beep-329314.mp3","null","audio-keyboard-response","84","2.1.0","236114","J=YES, F=NO","l46s8rt5rr","1","76","83","70","","","","","","","","","","","","","","","",""
"null","audio/holiday1.wav","null","audio-keyboard-response","85","2.1.0","236786","J=YES, F=NO","l46s8rt5rr","1","76","83","70","","","","","","","","","","","","","","","",""
"null","
          <p id=""word"" style=""font-size: 40px;"">drivets</p>
          <p style=""font-size: 16px;"">J = YES &nbsp;&nbsp;&nbsp; F = NO</p>
        ","null","html-keyboard-response","86","2.1.0","238302","J=YES, F=NO","l46s8rt5rr","1","76","83","70","","","","","","","","","drivets","holiday1","pseudoword","pseudoword","f","false","",""
"null","<p style=""font-size: 50px;"">+</p>","null","html-keyboard-response","87","2.1.0","238615","J=YES, F=NO","l46s8rt5rr","1","76","83","70","","","","","","","","","","","","","","","",""
"null","audio/beep-329314.mp3","null","audio-keyboard-response","88","2.1.0","240154","J=YES, F=NO","l46s8rt5rr","1","76","83","70","","","","","","","","","","","","","","","",""
"null","audio/breath.wav","null","audio-keyboard-response","89","2.1.0","240705","J=YES, F=NO","l46s8rt5rr","1","76","83","70","","","","","","","","","","","","","","","",""
"791","
          <p id=""word"" style=""font-size: 40px;"">pack</p>
          <p style=""font-size: 16px;"">J = YES &nbsp;&nbsp;&nbsp; F = NO</p>
        ","j","html-keyboard-response","90","2.1.0","241498","J=YES, F=NO","l46s8rt5rr","1","76","83","70","","","","","","","","","pack","breath","filler","filler","j","true","",""
"null","<p style=""font-size: 50px;"">+</p>","null","html-keyboard-response","91","2.1.0","241813","J=YES, F=NO","l46s8rt5rr","1","76","83","70","","","","","","","","","","","","","","","",""
"null","audio/beep-329314.mp3","null","audio-keyboard-response","92","2.1.0","243334","J=YES, F=NO","l46s8rt5rr","1","76","83","70","","","","","","","","","","","","","","","",""
"null","audio/heart1.wav","null","audio-keyboard-response","93","2.1.0","243966","J=YES, F=NO","l46s8rt5rr","1","76","83","70","","","","","","","","","","","","","","","",""
"978","
          <p id=""word"" style=""font-size: 40px;"">dralm</p>
          <p style=""font-size: 16px;"">J = YES &nbsp;&nbsp;&nbsp; F = NO</p>
        ","f","html-keyboard-response","94","2.1.0","244945","J=YES, F=NO","l46s8rt5rr","1","76","83","70","","","","","","","","","dralm","heart1","pseudoword","pseudoword","f","true","",""
"null","<p style=""font-size: 50px;"">+</p>","null","html-keyboard-response","95","2.1.0","245253","J=YES, F=NO","l46s8rt5rr","1","76","83","70","","","","","","","","","","","","","","","",""
"null","audio/beep-329314.mp3","null","audio-keyboard-response","96","2.1.0","246775","J=YES, F=NO","l46s8rt5rr","1","76","83","70","","","","","","","","","","","","","","","",""
"null","audio/menu.wav","null","audio-keyboard-response","97","2.1.0","247344","J=YES, F=NO","l46s8rt5rr","1","76","83","70","","","","","","","","","","","","","","","",""
"null","
          <p id=""word"" style=""font-size: 40px;"">slice</p>
          <p style=""font-size: 16px;"">J = YES &nbsp;&nbsp;&nbsp; F = NO</p>
        ","null","html-keyboard-response","98","2.1.0","248855","J=YES, F=NO","l46s8rt5rr","1","76","83","70","","","","","","","","","slice","menu","filler","filler","j","false","",""
"null","<p style=""font-size: 50px;"">+</p>","null","html-keyboard-response","99","2.1.0","249163","J=YES, F=NO","l46s8rt5rr","1","76","83","70","","","","","","","","","","","","","","","",""
"null","audio/beep-329314.mp3","null","audio-keyboard-response","100","2.1.0","250694","J=YES, F=NO","l46s8rt5rr","1","76","83","70","","","","","","","","","","","","","","","",""
"null","audio/weight1.wav","null","audio-keyboard-response","101","2.1.0","251224","J=YES, F=NO","l46s8rt5rr","1","76","83","70","","","","","","","","","","","","","","","",""
"911","
          <p id=""word"" style=""font-size: 40px;"">crimsh</p>
          <p style=""font-size: 16px;"">J = YES &nbsp;&nbsp;&nbsp; F = NO</p>
        ","f","html-keyboard-response","102","2.1.0","252136","J=YES, F=NO","l46s8rt5rr","1","76","83","70","","","","","","","","","crimsh","weight1","pseudoword","pseudoword","f","true","",""
"null","<p style=""font-size: 50px;"">+</p>","null","html-keyboard-response","103","2.1.0","252452","J=YES, F=NO","l46s8rt5rr","1","76","83","70","","","","","","","","","","","","","","","",""
"null","audio/beep-329314.mp3","null","audio-keyboard-response","104","2.1.0","253975","J=YES, F=NO","l46s8rt5rr","1","76","83","70","","","","","","","","","","","","","","","",""
"null","audio/tomato.wav","null","audio-keyboard-response","105","2.1.0","254704","J=YES, F=NO","l46s8rt5rr","1","76","83","70","","","","","","","","","","","","","","","",""
"1154","
          <p id=""word"" style=""font-size: 40px;"">gladies</p>
          <p style=""font-size: 16px;"">J = YES &nbsp;&nbsp;&nbsp; F = NO</p>
        ","f","html-keyboard-response","106","2.1.0","255859","J=YES, F=NO","l46s8rt5rr","1","76","83","70","","","","","","","","","gladies","tomato","pseudoword","pseudoword","f","true","",""
"null","<p style=""font-size: 50px;"">+</p>","null","html-keyboard-response","107","2.1.0","256164","J=YES, F=NO","l46s8rt5rr","1","76","83","70","","","","","","","","","","","","","","","",""
"null","audio/beep-329314.mp3","null","audio-keyboard-response","108","2.1.0","257694","J=YES, F=NO","l46s8rt5rr","1","76","83","70","","","","","","","","","","","","","","","",""
"null","audio/birth1.wav","null","audio-keyboard-response","109","2.1.0","258284","J=YES, F=NO","l46s8rt5rr","1","76","83","70","","","","","","","","","","","","","","","",""
"862","
          <p id=""word"" style=""font-size: 40px;"">peel</p>
          <p style=""font-size: 16px;"">J = YES &nbsp;&nbsp;&nbsp; F = NO</p>
        ","j","html-keyboard-response","110","2.1.0","259147","J=YES, F=NO","l46s8rt5rr","1","76","83","70","","","","","","","","","peel","birth1","filler","filler","j","true","",""
"null","<p style=""font-size: 50px;"">+</p>","null","html-keyboard-response","111","2.1.0","259460","J=YES, F=NO","l46s8rt5rr","1","76","83","70","","","","","","","","","","","","","","","",""
"null","audio/beep-329314.mp3","null","audio-keyboard-response","112","2.1.0","260996","J=YES, F=NO","l46s8rt5rr","1","76","83","70","","","","","","","","","","","","","","","",""
"null","audio/bush1.wav","null","audio-keyboard-response","113","2.1.0","261466","J=YES, F=NO","l46s8rt5rr","1","76","83","70","","","","","","","","","","","","","","","",""
"882","
          <p id=""word"" style=""font-size: 40px;"">platined</p>
          <p style=""font-size: 16px;"">J = YES &nbsp;&nbsp;&nbsp; F = NO</p>
        ","f","html-keyboard-response","114","2.1.0","262349","J=YES, F=NO","l46s8rt5rr","1","76","83","70","","","","","","","","","platined","bush1","pseudoword","pseudoword","f","true","",""
"1998","<p>Starting practice block 2 of 2. Press any key to continue.</p>"," ","html-keyboard-response","115","2.1.0","264347","J=YES, F=NO","l46s8rt5rr","1","76","83","70","","","","","","","","","","","","","","","",""
"null","<p style=""font-size: 50px;"">+</p>","null","html-keyboard-response","116","2.1.0","264664","J=YES, F=NO","l46s8rt5rr","1","76","83","70","","","","","","","","","","","","","","","",""
"null","audio/beep-329314.mp3","null","audio-keyboard-response","117","2.1.0","266194","J=YES, F=NO","l46s8rt5rr","1","76","83","70","","","","","","","","","","","","","","","",""
"null","audio/pain1.wav","null","audio-keyboard-response","118","2.1.0","266685","J=YES, F=NO","l46s8rt5rr","1","76","83","70","","","","","","","","","","","","","","","",""
"1099","
          <p id=""word"" style=""font-size: 40px;"">tritted</p>
          <p style=""font-size: 16px;"">J = YES &nbsp;&nbsp;&nbsp; F = NO</p>
        ","f","html-keyboard-response","119","2.1.0","267785","J=YES, F=NO","l46s8rt5rr","1","76","83","70","","","","","","","","","tritted","pain1","pseudoword","pseudoword","f","true","",""
"null","<p style=""font-size: 50px;"">+</p>","null","html-keyboard-response","120","2.1.0","268098","J=YES, F=NO","l46s8rt5rr","1","76","83","70","","","","","","","","","","","","","","","",""
"null","audio/beep-329314.mp3","null","audio-keyboard-response","121","2.1.0","269633","J=YES, F=NO","l46s8rt5rr","1","76","83","70","","","","","","","","","","","","","","","",""
"null","audio/bottle.wav","null","audio-keyboard-response","122","2.1.0","270144","J=YES, F=NO","l46s8rt5rr","1","76","83","70","","","","","","","","","","","","","","","",""
"664","
          <p id=""word"" style=""font-size: 40px;"">watch</p>
          <p style=""font-size: 16px;"">J = YES &nbsp;&nbsp;&nbsp; F = NO</p>
        ","j","html-keyboard-response","123","2.1.0","270808","J=YES, F=NO","l46s8rt5rr","1","76","83","70","","","","","","","","","watch","bottle","filler","filler","j","true","",""
"null","<p style=""font-size: 50px;"">+</p>","null","html-keyboard-response","124","2.1.0","271115","J=YES, F=NO","l46s8rt5rr","1","76","83","70","","","","","","","","","","","","","","","",""
"null","audio/beep-329314.mp3","null","audio-keyboard-response","125","2.1.0","272654","J=YES, F=NO","l46s8rt5rr","1","76","83","70","","","","","","","","","","","","","","","",""
"null","audio/window1.wav","null","audio-keyboard-response","126","2.1.0","273304","J=YES, F=NO","l46s8rt5rr","1","76","83","70","","","","","","","","","","","","","","","",""
"775","
          <p id=""word"" style=""font-size: 40px;"">toss</p>
          <p style=""font-size: 16px;"">J = YES &nbsp;&nbsp;&nbsp; F = NO</p>
        ","j","html-keyboard-response","127","2.1.0","274080","J=YES, F=NO","l46s8rt5rr","1","76","83","70","","","","","","","","","toss","window1","filler","filler","j","true","",""
"null","<p style=""font-size: 50px;"">+</p>","null","html-keyboard-response","128","2.1.0","274386","J=YES, F=NO","l46s8rt5rr","1","76","83","70","","","","","","","","","","","","","","","",""
"null","audio/beep-329314.mp3","null","audio-keyboard-response","129","2.1.0","275914","J=YES, F=NO","l46s8rt5rr","1","76","83","70","","","","","","","","","","","","","","","",""
"null","audio/survey1.wav","null","audio-keyboard-response","130","2.1.0","276647","J=YES, F=NO","l46s8rt5rr","1","76","83","70","","","","","","","","","","","","","","","",""
"1175","
          <p id=""word"" style=""font-size: 40px;"">imploth</p>
          <p style=""font-size: 16px;"">J = YES &nbsp;&nbsp;&nbsp; F = NO</p>
        ","f","html-keyboard-response","131","2.1.0","277823","J=YES, F=NO","l46s8rt5rr","1","76","83","70","","","","","","","","","imploth","survey1","pseudoword","pseudoword","f","true","",""
"null","<p style=""font-size: 50px;"">+</p>","null","html-keyboard-response","132","2.1.0","278133","J=YES, F=NO","l46s8rt5rr","1","76","83","70","","","","","","","","","","","","","","","",""
"null","audio/beep-329314.mp3","null","audio-keyboard-response","133","2.1.0","279656","J=YES, F=NO","l46s8rt5rr","1","76","83","70","","","","","","","","","","","","","","","",""
"null","audio/show.wav","null","audio-keyboard-response","134","2.1.0","280246","J=YES, F=NO","l46s8rt5rr","1","76","83","70","","","","","","","","","","","","","","","",""
"1143","
          <p id=""word"" style=""font-size: 40px;"">smark</p>
          <p style=""font-size: 16px;"">J = YES &nbsp;&nbsp;&nbsp; F = NO</p>
        ","f","html-keyboard-response","135","2.1.0","281390","J=YES, F=NO","l46s8rt5rr","1","76","83","70","","","","","","","","","smark","show","pseudoword","pseudoword","f","true","",""
"null","<p style=""font-size: 50px;"">+</p>","null","html-keyboard-response","136","2.1.0","281703","J=YES, F=NO","l46s8rt5rr","1","76","83","70","","","","","","","","","","","","","","","",""
"null","audio/beep-329314.mp3","null","audio-keyboard-response","137","2.1.0","283236","J=YES, F=NO","l46s8rt5rr","1","76","83","70","","","","","","","","","","","","","","","",""
"null","audio/foot1.wav","null","audio-keyboard-response","138","2.1.0","283786","J=YES, F=NO","l46s8rt5rr","1","76","83","70","","","","","","","","","","","","","","","",""
"693","
          <p id=""word"" style=""font-size: 40px;"">thrutt</p>
          <p style=""font-size: 16px;"">J = YES &nbsp;&nbsp;&nbsp; F = NO</p>
        ","f","html-keyboard-response","139","2.1.0","284481","J=YES, F=NO","l46s8rt5rr","1","76","83","70","","","","","","","","","thrutt","foot1","pseudoword","pseudoword","f","true","",""
"null","<p style=""font-size: 50px;"">+</p>","null","html-keyboard-response","140","2.1.0","284793","J=YES, F=NO","l46s8rt5rr","1","76","83","70","","","","","","","","","","","","","","","",""
"null","audio/beep-329314.mp3","null","audio-keyboard-response","141","2.1.0","286316","J=YES, F=NO","l46s8rt5rr","1","76","83","70","","","","","","","","","","","","","","","",""
"null","audio/baby.wav","null","audio-keyboard-response","142","2.1.0","286787","J=YES, F=NO","l46s8rt5rr","1","76","83","70","","","","","","","","","","","","","","","",""
"567","
          <p id=""word"" style=""font-size: 40px;"">lift</p>
          <p style=""font-size: 16px;"">J = YES &nbsp;&nbsp;&nbsp; F = NO</p>
        ","j","html-keyboard-response","143","2.1.0","287355","J=YES, F=NO","l46s8rt5rr","1","76","83","70","","","","","","","","","lift","baby","filler","filler","j","true","",""
"null","<p style=""font-size: 50px;"">+</p>","null","html-keyboard-response","144","2.1.0","287665","J=YES, F=NO","l46s8rt5rr","1","76","83","70","","","","","","","","","","","","","","","",""
"null","audio/beep-329314.mp3","null","audio-keyboard-response","145","2.1.0","289194","J=YES, F=NO","l46s8rt5rr","1","76","83","70","","","","","","","","","","","","","","","",""
"null","audio/alarm1.wav","null","audio-keyboard-response","146","2.1.0","289787","J=YES, F=NO","l46s8rt5rr","1","76","83","70","","","","","","","","","","","","","","","",""
"520","
          <p id=""word"" style=""font-size: 40px;"">lock</p>
          <p style=""font-size: 16px;"">J = YES &nbsp;&nbsp;&nbsp; F = NO</p>
        ","j","html-keyboard-response","147","2.1.0","290308","J=YES, F=NO","l46s8rt5rr","1","76","83","70","","","","","","","","","lock","alarm1","filler","filler","j","true","",""
"null","<p style=""font-size: 50px;"">+</p>","null","html-keyboard-response","148","2.1.0","290623","J=YES, F=NO","l46s8rt5rr","1","76","83","70","","","","","","","","","","","","","","","",""
"null","audio/beep-329314.mp3","null","audio-keyboard-response","149","2.1.0","292156","J=YES, F=NO","l46s8rt5rr","1","76","83","70","","","","","","","","","","","","","","","",""
"null","audio/fence.wav","null","audio-keyboard-response","150","2.1.0","292806","J=YES, F=NO","l46s8rt5rr","1","76","83","70","","","","","","","","","","","","","","","",""
"661","
          <p id=""word"" style=""font-size: 40px;"">trim</p>
          <p style=""font-size: 16px;"">J = YES &nbsp;&nbsp;&nbsp; F = NO</p>
        ","j","html-keyboard-response","151","2.1.0","293467","J=YES, F=NO","l46s8rt5rr","1","76","83","70","","","","","","","","","trim","fence","filler","filler","j","true","",""
"null","<p style=""font-size: 50px;"">+</p>","null","html-keyboard-response","152","2.1.0","293783","J=YES, F=NO","l46s8rt5rr","1","76","83","70","","","","","","","","","","","","","","","",""
"null","audio/beep-329314.mp3","null","audio-keyboard-response","153","2.1.0","295316","J=YES, F=NO","l46s8rt5rr","1","76","83","70","","","","","","","","","","","","","","","",""
"null","audio/kettle1.wav","null","audio-keyboard-response","154","2.1.0","295846","J=YES, F=NO","l46s8rt5rr","1","76","83","70","","","","","","","","","","","","","","","",""
"489","
          <p id=""word"" style=""font-size: 40px;"">wrap</p>
          <p style=""font-size: 16px;"">J = YES &nbsp;&nbsp;&nbsp; F = NO</p>
        ","j","html-keyboard-response","155","2.1.0","296336","J=YES, F=NO","l46s8rt5rr","1","76","83","70","","","","","","","","","wrap","kettle1","filler","filler","j","true","",""
"null","<p style=""font-size: 50px;"">+</p>","null","html-keyboard-response","156","2.1.0","296648","J=YES, F=NO","l46s8rt5rr","1","76","83","70","","","","","","","","","","","","","","","",""
"null","audio/beep-329314.mp3","null","audio-keyboard-response","157","2.1.0","298174","J=YES, F=NO","l46s8rt5rr","1","76","83","70","","","","","","","","","","","","","","","",""
"null","audio/table1.wav","null","audio-keyboard-response","158","2.1.0","298705","J=YES, F=NO","l46s8rt5rr","1","76","83","70","","","","","","","","","","","","","","","",""
"682","
          <p id=""word"" style=""font-size: 40px;"">stimb</p>
          <p style=""font-size: 16px;"">J = YES &nbsp;&nbsp;&nbsp; F = NO</p>
        ","f","html-keyboard-response","159","2.1.0","299388","J=YES, F=NO","l46s8rt5rr","1","76","83","70","","","","","","","","","stimb","table1","pseudoword","pseudoword","f","true","",""
"null","<p style=""font-size: 50px;"">+</p>","null","html-keyboard-response","160","2.1.0","299704","J=YES, F=NO","l46s8rt5rr","1","76","83","70","","","","","","","","","","","","","","","",""
"null","audio/beep-329314.mp3","null","audio-keyboard-response","161","2.1.0","301234","J=YES, F=NO","l46s8rt5rr","1","76","83","70","","","","","","","","","","","","","","","",""
"null","audio/pine.wav","null","audio-keyboard-response","162","2.1.0","301727","J=YES, F=NO","l46s8rt5rr","1","76","83","70","","","","","","","","","","","","","","","",""
"632","
          <p id=""word"" style=""font-size: 40px;"">crebble</p>
          <p style=""font-size: 16px;"">J = YES &nbsp;&nbsp;&nbsp; F = NO</p>
        ","f","html-keyboard-response","163","2.1.0","302360","J=YES, F=NO","l46s8rt5rr","1","76","83","70","","","","","","","","","crebble","pine","pseudoword","pseudoword","f","true","",""
"10213","
    <div style=""max-width: 800px; margin: auto; text-align: left;"">
      <h2>Part 2: Main Trials</h2>
      <p>Great job on the practice trials!</p>
      <p>You will now begin the <strong>main set of trials</strong>.</p>
      <p>Remember your key assignments:</p>
      <ul>
        <li><strong>J</strong> = YES (real English word)</li>
        <li><strong>F</strong> = NO (not a real English word)</li>
      </ul>
      <p>Try to respond as <strong>quickly and accurately</strong> as possible.</p>
      <p style=""margin-top: 2em;"">Press any key to begin the main trials.</p>
    </div>
  ","f","html-keyboard-response","164","2.1.0","312572","J=YES, F=NO","l46s8rt5rr","1","76","83","70","","","","","","","","","","","","","","","",""
"4984","<p>Starting main block 1 of 8. Press any key to continue.</p>"," ","html-keyboard-response","165","2.1.0","317557","J=YES, F=NO","l46s8rt5rr","1","76","83","70","","","","","","","","","","","","","","","",""
"null","<p style=""font-size: 50px;"">+</p>","null","html-keyboard-response","166","2.1.0","317874","J=YES, F=NO","l46s8rt5rr","1","76","83","70","","","","","","","","","","","","","","","",""
"null","audio/beep-329314.mp3","null","audio-keyboard-response","167","2.1.0","319487","J=YES, F=NO","l46s8rt5rr","1","76","83","70","","","","","","","","","","","","","","","",""
"null","audio/desire.wav","null","audio-keyboard-response","168","2.1.0","320117","J=YES, F=NO","l46s8rt5rr","1","76","83","70","","","","","","","","","","","","","","","",""
"691","
          <p id=""word"" style=""font-size: 40px;"">open</p>
          <p style=""font-size: 16px;"">J = YES &nbsp;&nbsp;&nbsp; F = NO</p>
        ","j","html-keyboard-response","169","2.1.0","320808","J=YES, F=NO","l46s8rt5rr","1","76","83","70","","","","","","","","","open","desire","unrelated","experimental","j","true","",""
"null","<p style=""font-size: 50px;"">+</p>","null","html-keyboard-response","170","2.1.0","321119","J=YES, F=NO","l46s8rt5rr","1","76","83","70","","","","","","","","","","","","","","","",""
"null","audio/beep-329314.mp3","null","audio-keyboard-response","171","2.1.0","322647","J=YES, F=NO","l46s8rt5rr","1","76","83","70","","","","","","","","","","","","","","","",""
"null","audio/breath.wav","null","audio-keyboard-response","172","2.1.0","323197","J=YES, F=NO","l46s8rt5rr","1","76","83","70","","","","","","","","","","","","","","","",""
"528","
          <p id=""word"" style=""font-size: 40px;"">construct</p>
          <p style=""font-size: 16px;"">J = YES &nbsp;&nbsp;&nbsp; F = NO</p>
        ","j","html-keyboard-response","173","2.1.0","323726","J=YES, F=NO","l46s8rt5rr","1","76","83","70","","","","","","","","","construct","breath","unrelated","experimental","j","true","",""
"null","<p style=""font-size: 50px;"">+</p>","null","html-keyboard-response","174","2.1.0","324038","J=YES, F=NO","l46s8rt5rr","1","76","83","70","","","","","","","","","","","","","","","",""
"null","audio/beep-329314.mp3","null","audio-keyboard-response","175","2.1.0","325567","J=YES, F=NO","l46s8rt5rr","1","76","83","70","","","","","","","","","","","","","","","",""
"null","audio/sand.wav","null","audio-keyboard-response","176","2.1.0","326217","J=YES, F=NO","l46s8rt5rr","1","76","83","70","","","","","","","","","","","","","","","",""
"744","
          <p id=""word"" style=""font-size: 40px;"">proted</p>
          <p style=""font-size: 16px;"">J = YES &nbsp;&nbsp;&nbsp; F = NO</p>
        ","f","html-keyboard-response","177","2.1.0","326962","J=YES, F=NO","l46s8rt5rr","1","76","83","70","","","","","","","","","proted","sand","pseudoword","pseudoword","f","true","",""
"null","<p style=""font-size: 50px;"">+</p>","null","html-keyboard-response","178","2.1.0","327264","J=YES, F=NO","l46s8rt5rr","1","76","83","70","","","","","","","","","","","","","","","",""
"null","audio/beep-329314.mp3","null","audio-keyboard-response","179","2.1.0","328807","J=YES, F=NO","l46s8rt5rr","1","76","83","70","","","","","","","","","","","","","","","",""
"null","audio/desire.wav","null","audio-keyboard-response","180","2.1.0","329398","J=YES, F=NO","l46s8rt5rr","1","76","83","70","","","","","","","","","","","","","","","",""
"696","
          <p id=""word"" style=""font-size: 40px;"">nophed</p>
          <p style=""font-size: 16px;"">J = YES &nbsp;&nbsp;&nbsp; F = NO</p>
        ","f","html-keyboard-response","181","2.1.0","330095","J=YES, F=NO","l46s8rt5rr","1","76","83","70","","","","","","","","","nophed","desire","pseudoword","pseudoword","f","true","",""
"null","<p style=""font-size: 50px;"">+</p>","null","html-keyboard-response","182","2.1.0","330402","J=YES, F=NO","l46s8rt5rr","1","76","83","70","","","","","","","","","","","","","","","",""
"null","audio/beep-329314.mp3","null","audio-keyboard-response","183","2.1.0","331927","J=YES, F=NO","l46s8rt5rr","1","76","83","70","","","","","","","","","","","","","","","",""
"null","audio/voice.wav","null","audio-keyboard-response","184","2.1.0","332518","J=YES, F=NO","l46s8rt5rr","1","76","83","70","","","","","","","","","","","","","","","",""
"864","
          <p id=""word"" style=""font-size: 40px;"">grintle</p>
          <p style=""font-size: 16px;"">J = YES &nbsp;&nbsp;&nbsp; F = NO</p>
        ","f","html-keyboard-response","185","2.1.0","333382","J=YES, F=NO","l46s8rt5rr","1","76","83","70","","","","","","","","","grintle","voice","pseudoword","pseudoword","f","true","",""
"null","<p style=""font-size: 50px;"">+</p>","null","html-keyboard-response","186","2.1.0","333691","J=YES, F=NO","l46s8rt5rr","1","76","83","70","","","","","","","","","","","","","","","",""
"null","audio/beep-329314.mp3","null","audio-keyboard-response","187","2.1.0","335227","J=YES, F=NO","l46s8rt5rr","1","76","83","70","","","","","","","","","","","","","","","",""
"null","audio/noise1.wav","null","audio-keyboard-response","188","2.1.0","335875","J=YES, F=NO","l46s8rt5rr","1","76","83","70","","","","","","","","","","","","","","","",""
"734","
          <p id=""word"" style=""font-size: 40px;"">slintered</p>
          <p style=""font-size: 16px;"">J = YES &nbsp;&nbsp;&nbsp; F = NO</p>
        ","j","html-keyboard-response","189","2.1.0","336610","J=YES, F=NO","l46s8rt5rr","1","76","83","70","","","","","","","","","slintered","noise1","pseudoword","pseudoword","f","false","",""
"null","<p style=""font-size: 50px;"">+</p>","null","html-keyboard-response","190","2.1.0","336920","J=YES, F=NO","l46s8rt5rr","1","76","83","70","","","","","","","","","","","","","","","",""
"null","audio/beep-329314.mp3","null","audio-keyboard-response","191","2.1.0","338447","J=YES, F=NO","l46s8rt5rr","1","76","83","70","","","","","","","","","","","","","","","",""
"null","audio/age1.wav","null","audio-keyboard-response","192","2.1.0","338997","J=YES, F=NO","l46s8rt5rr","1","76","83","70","","","","","","","","","","","","","","","",""
"759","
          <p id=""word"" style=""font-size: 40px;"">lachry</p>
          <p style=""font-size: 16px;"">J = YES &nbsp;&nbsp;&nbsp; F = NO</p>
        ","f","html-keyboard-response","193","2.1.0","339757","J=YES, F=NO","l46s8rt5rr","1","76","83","70","","","","","","","","","lachry","age1","pseudoword","pseudoword","f","true","",""
"null","<p style=""font-size: 50px;"">+</p>","null","html-keyboard-response","194","2.1.0","340066","J=YES, F=NO","l46s8rt5rr","1","76","83","70","","","","","","","","","","","","","","","",""
"null","audio/beep-329314.mp3","null","audio-keyboard-response","195","2.1.0","341607","J=YES, F=NO","l46s8rt5rr","1","76","83","70","","","","","","","","","","","","","","","",""
"null","audio/grass.wav","null","audio-keyboard-response","196","2.1.0","342255","J=YES, F=NO","l46s8rt5rr","1","76","83","70","","","","","","","","","","","","","","","",""
"635","
          <p id=""word"" style=""font-size: 40px;"">milames</p>
          <p style=""font-size: 16px;"">J = YES &nbsp;&nbsp;&nbsp; F = NO</p>
        ","f","html-keyboard-response","197","2.1.0","342891","J=YES, F=NO","l46s8rt5rr","1","76","83","70","","","","","","","","","milames","grass","pseudoword","pseudoword","f","true","",""
"null","<p style=""font-size: 50px;"">+</p>","null","html-keyboard-response","198","2.1.0","343202","J=YES, F=NO","l46s8rt5rr","1","76","83","70","","","","","","","","","","","","","","","",""
"null","audio/beep-329314.mp3","null","audio-keyboard-response","199","2.1.0","344726","J=YES, F=NO","l46s8rt5rr","1","76","83","70","","","","","","","","","","","","","","","",""
"null","audio/ankle1.wav","null","audio-keyboard-response","200","2.1.0","345235","J=YES, F=NO","l46s8rt5rr","1","76","83","70","","","","","","","","","","","","","","","",""
"683","
          <p id=""word"" style=""font-size: 40px;"">hurt</p>
          <p style=""font-size: 16px;"">J = YES &nbsp;&nbsp;&nbsp; F = NO</p>
        ","j","html-keyboard-response","201","2.1.0","345919","J=YES, F=NO","l46s8rt5rr","1","76","83","70","","","","","","","","","hurt","ankle1","literal","experimental","j","true","",""
"null","<p style=""font-size: 50px;"">+</p>","null","html-keyboard-response","202","2.1.0","346234","J=YES, F=NO","l46s8rt5rr","1","76","83","70","","","","","","","","","","","","","","","",""
"null","audio/beep-329314.mp3","null","audio-keyboard-response","203","2.1.0","347767","J=YES, F=NO","l46s8rt5rr","1","76","83","70","","","","","","","","","","","","","","","",""
"null","audio/terrain.wav","null","audio-keyboard-response","204","2.1.0","348376","J=YES, F=NO","l46s8rt5rr","1","76","83","70","","","","","","","","","","","","","","","",""
"540","
          <p id=""word"" style=""font-size: 40px;"">twist</p>
          <p style=""font-size: 16px;"">J = YES &nbsp;&nbsp;&nbsp; F = NO</p>
        ","j","html-keyboard-response","205","2.1.0","348917","J=YES, F=NO","l46s8rt5rr","1","76","83","70","","","","","","","","","twist","terrain","filler","filler","j","true","",""
"null","<p style=""font-size: 50px;"">+</p>","null","html-keyboard-response","206","2.1.0","349226","J=YES, F=NO","l46s8rt5rr","1","76","83","70","","","","","","","","","","","","","","","",""
"null","audio/beep-329314.mp3","null","audio-keyboard-response","207","2.1.0","350767","J=YES, F=NO","l46s8rt5rr","1","76","83","70","","","","","","","","","","","","","","","",""
"null","audio/heart1.wav","null","audio-keyboard-response","208","2.1.0","351376","J=YES, F=NO","l46s8rt5rr","1","76","83","70","","","","","","","","","","","","","","","",""
"668","
          <p id=""word"" style=""font-size: 40px;"">touch</p>
          <p style=""font-size: 16px;"">J = YES &nbsp;&nbsp;&nbsp; F = NO</p>
        ","j","html-keyboard-response","209","2.1.0","352046","J=YES, F=NO","l46s8rt5rr","1","76","83","70","","","","","","","","","touch","heart1","metaphor","experimental","j","true","",""
"null","<p style=""font-size: 50px;"">+</p>","null","html-keyboard-response","210","2.1.0","352358","J=YES, F=NO","l46s8rt5rr","1","76","83","70","","","","","","","","","","","","","","","",""
"null","audio/beep-329314.mp3","null","audio-keyboard-response","211","2.1.0","353888","J=YES, F=NO","l46s8rt5rr","1","76","83","70","","","","","","","","","","","","","","","",""
"null","audio/account1.wav","null","audio-keyboard-response","212","2.1.0","354597","J=YES, F=NO","l46s8rt5rr","1","76","83","70","","","","","","","","","","","","","","","",""
"534","
          <p id=""word"" style=""font-size: 40px;"">paint</p>
          <p style=""font-size: 16px;"">J = YES &nbsp;&nbsp;&nbsp; F = NO</p>
        ","j","html-keyboard-response","213","2.1.0","355132","J=YES, F=NO","l46s8rt5rr","1","76","83","70","","","","","","","","","paint","account1","filler","filler","j","true","",""
"null","<p style=""font-size: 50px;"">+</p>","null","html-keyboard-response","214","2.1.0","355444","J=YES, F=NO","l46s8rt5rr","1","76","83","70","","","","","","","","","","","","","","","",""
"null","audio/beep-329314.mp3","null","audio-keyboard-response","215","2.1.0","356967","J=YES, F=NO","l46s8rt5rr","1","76","83","70","","","","","","","","","","","","","","","",""
"null","audio/cloud1.wav","null","audio-keyboard-response","216","2.1.0","357517","J=YES, F=NO","l46s8rt5rr","1","76","83","70","","","","","","","","","","","","","","","",""
"672","
          <p id=""word"" style=""font-size: 40px;"">brotant</p>
          <p style=""font-size: 16px;"">J = YES &nbsp;&nbsp;&nbsp; F = NO</p>
        ","f","html-keyboard-response","217","2.1.0","358191","J=YES, F=NO","l46s8rt5rr","1","76","83","70","","","","","","","","","brotant","cloud1","pseudoword","pseudoword","f","true","",""
"null","<p style=""font-size: 50px;"">+</p>","null","html-keyboard-response","218","2.1.0","358506","J=YES, F=NO","l46s8rt5rr","1","76","83","70","","","","","","","","","","","","","","","",""
"null","audio/beep-329314.mp3","null","audio-keyboard-response","219","2.1.0","360047","J=YES, F=NO","l46s8rt5rr","1","76","83","70","","","","","","","","","","","","","","","",""
"null","audio/flaw.wav","null","audio-keyboard-response","220","2.1.0","360676","J=YES, F=NO","l46s8rt5rr","1","76","83","70","","","","","","","","","","","","","","","",""
"691","
          <p id=""word"" style=""font-size: 40px;"">thwool</p>
          <p style=""font-size: 16px;"">J = YES &nbsp;&nbsp;&nbsp; F = NO</p>
        ","f","html-keyboard-response","221","2.1.0","361369","J=YES, F=NO","l46s8rt5rr","1","76","83","70","","","","","","","","","thwool","flaw","pseudoword","pseudoword","f","true","",""
"null","<p style=""font-size: 50px;"">+</p>","null","html-keyboard-response","222","2.1.0","361679","J=YES, F=NO","l46s8rt5rr","1","76","83","70","","","","","","","","","","","","","","","",""
"null","audio/beep-329314.mp3","null","audio-keyboard-response","223","2.1.0","363207","J=YES, F=NO","l46s8rt5rr","1","76","83","70","","","","","","","","","","","","","","","",""
"null","audio/beach1.wav","null","audio-keyboard-response","224","2.1.0","363797","J=YES, F=NO","l46s8rt5rr","1","76","83","70","","","","","","","","","","","","","","","",""
"612","
          <p id=""word"" style=""font-size: 40px;"">drive</p>
          <p style=""font-size: 16px;"">J = YES &nbsp;&nbsp;&nbsp; F = NO</p>
        ","j","html-keyboard-response","225","2.1.0","364410","J=YES, F=NO","l46s8rt5rr","1","76","83","70","","","","","","","","","drive","beach1","filler","filler","j","true","",""
"null","<p style=""font-size: 50px;"">+</p>","null","html-keyboard-response","226","2.1.0","364718","J=YES, F=NO","l46s8rt5rr","1","76","83","70","","","","","","","","","","","","","","","",""
"null","audio/beep-329314.mp3","null","audio-keyboard-response","227","2.1.0","366248","J=YES, F=NO","l46s8rt5rr","1","76","83","70","","","","","","","","","","","","","","","",""
"null","audio/camera1.wav","null","audio-keyboard-response","228","2.1.0","366756","J=YES, F=NO","l46s8rt5rr","1","76","83","70","","","","","","","","","","","","","","","",""
"878","
          <p id=""word"" style=""font-size: 40px;"">stir</p>
          <p style=""font-size: 16px;"">J = YES &nbsp;&nbsp;&nbsp; F = NO</p>
        ","j","html-keyboard-response","229","2.1.0","367635","J=YES, F=NO","l46s8rt5rr","1","76","83","70","","","","","","","","","stir","camera1","filler","filler","j","true","",""
"2208","<p>Excellent! You have finished block 1 of 8.</p>
                     <p>Feel free to take a 30 second break.</p>
                     <p>Press any key when you're ready to continue.</p>"," ","html-keyboard-response","230","2.1.0","369843","J=YES, F=NO","l46s8rt5rr","1","76","83","70","","","","","","","","","","","","","","","",""
"2682","<p>Starting main block 2 of 8. Press any key to continue.</p>"," ","html-keyboard-response","231","2.1.0","372526","J=YES, F=NO","l46s8rt5rr","1","76","83","70","","","","","","","","","","","","","","","",""
"null","<p style=""font-size: 50px;"">+</p>","null","html-keyboard-response","232","2.1.0","372836","J=YES, F=NO","l46s8rt5rr","1","76","83","70","","","","","","","","","","","","","","","",""
"null","audio/beep-329314.mp3","null","audio-keyboard-response","233","2.1.0","374366","J=YES, F=NO","l46s8rt5rr","1","76","83","70","","","","","","","","","","","","","","","",""
"null","audio/meal.wav","null","audio-keyboard-response","234","2.1.0","374817","J=YES, F=NO","l46s8rt5rr","1","76","83","70","","","","","","","","","","","","","","","",""
"668","
          <p id=""word"" style=""font-size: 40px;"">gallite</p>
          <p style=""font-size: 16px;"">J = YES &nbsp;&nbsp;&nbsp; F = NO</p>
        ","f","html-keyboard-response","235","2.1.0","375486","J=YES, F=NO","l46s8rt5rr","1","76","83","70","","","","","","","","","gallite","meal","pseudoword","pseudoword","f","true","",""
"null","<p style=""font-size: 50px;"">+</p>","null","html-keyboard-response","236","2.1.0","375793","J=YES, F=NO","l46s8rt5rr","1","76","83","70","","","","","","","","","","","","","","","",""
"null","audio/beep-329314.mp3","null","audio-keyboard-response","237","2.1.0","377325","J=YES, F=NO","l46s8rt5rr","1","76","83","70","","","","","","","","","","","","","","","",""
"null","audio/ankle1.wav","null","audio-keyboard-response","238","2.1.0","377836","J=YES, F=NO","l46s8rt5rr","1","76","83","70","","","","","","","","","","","","","","","",""
"784","
          <p id=""word"" style=""font-size: 40px;"">switm</p>
          <p style=""font-size: 16px;"">J = YES &nbsp;&nbsp;&nbsp; F = NO</p>
        ","f","html-keyboard-response","239","2.1.0","378622","J=YES, F=NO","l46s8rt5rr","1","76","83","70","","","","","","","","","switm","ankle1","pseudoword","pseudoword","f","true","",""
"null","<p style=""font-size: 50px;"">+</p>","null","html-keyboard-response","240","2.1.0","378931","J=YES, F=NO","l46s8rt5rr","1","76","83","70","","","","","","","","","","","","","","","",""
"null","audio/beep-329314.mp3","null","audio-keyboard-response","241","2.1.0","380467","J=YES, F=NO","l46s8rt5rr","1","76","83","70","","","","","","","","","","","","","","","",""
"null","audio/promise1.wav","null","audio-keyboard-response","242","2.1.0","381096","J=YES, F=NO","l46s8rt5rr","1","76","83","70","","","","","","","","","","","","","","","",""
"613","
          <p id=""word"" style=""font-size: 40px;"">break</p>
          <p style=""font-size: 16px;"">J = YES &nbsp;&nbsp;&nbsp; F = NO</p>
        ","j","html-keyboard-response","243","2.1.0","381710","J=YES, F=NO","l46s8rt5rr","1","76","83","70","","","","","","","","","break","promise1","metaphor","experimental","j","true","",""
"null","<p style=""font-size: 50px;"">+</p>","null","html-keyboard-response","244","2.1.0","382014","J=YES, F=NO","l46s8rt5rr","1","76","83","70","","","","","","","","","","","","","","","",""
"null","audio/beep-329314.mp3","null","audio-keyboard-response","245","2.1.0","383547","J=YES, F=NO","l46s8rt5rr","1","76","83","70","","","","","","","","","","","","","","","",""
"null","audio/golf1.wav","null","audio-keyboard-response","246","2.1.0","384117","J=YES, F=NO","l46s8rt5rr","1","76","83","70","","","","","","","","","","","","","","","",""
"1065","
          <p id=""word"" style=""font-size: 40px;"">drabble</p>
          <p style=""font-size: 16px;"">J = YES &nbsp;&nbsp;&nbsp; F = NO</p>
        ","f","html-keyboard-response","247","2.1.0","385184","J=YES, F=NO","l46s8rt5rr","1","76","83","70","","","","","","","","","drabble","golf1","pseudoword","pseudoword","f","true","",""
"null","<p style=""font-size: 50px;"">+</p>","null","html-keyboard-response","248","2.1.0","385496","J=YES, F=NO","l46s8rt5rr","1","76","83","70","","","","","","","","","","","","","","","",""
"null","audio/beep-329314.mp3","null","audio-keyboard-response","249","2.1.0","387027","J=YES, F=NO","l46s8rt5rr","1","76","83","70","","","","","","","","","","","","","","","",""
"null","audio/belief.wav","null","audio-keyboard-response","250","2.1.0","387658","J=YES, F=NO","l46s8rt5rr","1","76","83","70","","","","","","","","","","","","","","","",""
"831","
          <p id=""word"" style=""font-size: 40px;"">read</p>
          <p style=""font-size: 16px;"">J = YES &nbsp;&nbsp;&nbsp; F = NO</p>
        ","j","html-keyboard-response","251","2.1.0","388490","J=YES, F=NO","l46s8rt5rr","1","76","83","70","","","","","","","","","read","belief","filler","filler","j","true","",""
"null","<p style=""font-size: 50px;"">+</p>","null","html-keyboard-response","252","2.1.0","388791","J=YES, F=NO","l46s8rt5rr","1","76","83","70","","","","","","","","","","","","","","","",""
"null","audio/beep-329314.mp3","null","audio-keyboard-response","253","2.1.0","390327","J=YES, F=NO","l46s8rt5rr","1","76","83","70","","","","","","","","","","","","","","","",""
"null","audio/radio1.wav","null","audio-keyboard-response","254","2.1.0","390916","J=YES, F=NO","l46s8rt5rr","1","76","83","70","","","","","","","","","","","","","","","",""
"981","
          <p id=""word"" style=""font-size: 40px;"">blanter</p>
          <p style=""font-size: 16px;"">J = YES &nbsp;&nbsp;&nbsp; F = NO</p>
        ","f","html-keyboard-response","255","2.1.0","391898","J=YES, F=NO","l46s8rt5rr","1","76","83","70","","","","","","","","","blanter","radio1","pseudoword","pseudoword","f","true","",""
"null","<p style=""font-size: 50px;"">+</p>","null","html-keyboard-response","256","2.1.0","392206","J=YES, F=NO","l46s8rt5rr","1","76","83","70","","","","","","","","","","","","","","","",""
"null","audio/beep-329314.mp3","null","audio-keyboard-response","257","2.1.0","393745","J=YES, F=NO","l46s8rt5rr","1","76","83","70","","","","","","","","","","","","","","","",""
"null","audio/survey1.wav","null","audio-keyboard-response","258","2.1.0","394455","J=YES, F=NO","l46s8rt5rr","1","76","83","70","","","","","","","","","","","","","","","",""
"574","
          <p id=""word"" style=""font-size: 40px;"">release</p>
          <p style=""font-size: 16px;"">J = YES &nbsp;&nbsp;&nbsp; F = NO</p>
        ","j","html-keyboard-response","259","2.1.0","395029","J=YES, F=NO","l46s8rt5rr","1","76","83","70","","","","","","","","","release","survey1","metaphor","experimental","j","true","",""
"null","<p style=""font-size: 50px;"">+</p>","null","html-keyboard-response","260","2.1.0","395344","J=YES, F=NO","l46s8rt5rr","1","76","83","70","","","","","","","","","","","","","","","",""
"null","audio/beep-329314.mp3","null","audio-keyboard-response","261","2.1.0","396867","J=YES, F=NO","l46s8rt5rr","1","76","83","70","","","","","","","","","","","","","","","",""
"null","audio/chance.wav","null","audio-keyboard-response","262","2.1.0","397516","J=YES, F=NO","l46s8rt5rr","1","76","83","70","","","","","","","","","","","","","","","",""
"604","
          <p id=""word"" style=""font-size: 40px;"">seize</p>
          <p style=""font-size: 16px;"">J = YES &nbsp;&nbsp;&nbsp; F = NO</p>
        ","j","html-keyboard-response","263","2.1.0","398121","J=YES, F=NO","l46s8rt5rr","1","76","83","70","","","","","","","","","seize","chance","metaphor","experimental","j","true","",""
"null","<p style=""font-size: 50px;"">+</p>","null","html-keyboard-response","264","2.1.0","398438","J=YES, F=NO","l46s8rt5rr","1","76","83","70","","","","","","","","","","","","","","","",""
"null","audio/beep-329314.mp3","null","audio-keyboard-response","265","2.1.0","399968","J=YES, F=NO","l46s8rt5rr","1","76","83","70","","","","","","","","","","","","","","","",""
"null","audio/scar.wav","null","audio-keyboard-response","266","2.1.0","400558","J=YES, F=NO","l46s8rt5rr","1","76","83","70","","","","","","","","","","","","","","","",""
"810","
          <p id=""word"" style=""font-size: 40px;"">adelineate</p>
          <p style=""font-size: 16px;"">J = YES &nbsp;&nbsp;&nbsp; F = NO</p>
        ","f","html-keyboard-response","267","2.1.0","401369","J=YES, F=NO","l46s8rt5rr","1","76","83","70","","","","","","","","","adelineate","scar","pseudoword","pseudoword","f","true","",""
"null","<p style=""font-size: 50px;"">+</p>","null","html-keyboard-response","268","2.1.0","401680","J=YES, F=NO","l46s8rt5rr","1","76","83","70","","","","","","","","","","","","","","","",""
"null","audio/beep-329314.mp3","null","audio-keyboard-response","269","2.1.0","403207","J=YES, F=NO","l46s8rt5rr","1","76","83","70","","","","","","","","","","","","","","","",""
"null","audio/demon1.wav","null","audio-keyboard-response","270","2.1.0","403696","J=YES, F=NO","l46s8rt5rr","1","76","83","70","","","","","","","","","","","","","","","",""
"883","
          <p id=""word"" style=""font-size: 40px;"">wrestle</p>
          <p style=""font-size: 16px;"">J = YES &nbsp;&nbsp;&nbsp; F = NO</p>
        ","j","html-keyboard-response","271","2.1.0","404581","J=YES, F=NO","l46s8rt5rr","1","76","83","70","","","","","","","","","wrestle","demon1","metaphor","experimental","j","true","",""
"null","<p style=""font-size: 50px;"">+</p>","null","html-keyboard-response","272","2.1.0","404891","J=YES, F=NO","l46s8rt5rr","1","76","83","70","","","","","","","","","","","","","","","",""
"null","audio/beep-329314.mp3","null","audio-keyboard-response","273","2.1.0","406427","J=YES, F=NO","l46s8rt5rr","1","76","83","70","","","","","","","","","","","","","","","",""
"null","audio/bishop1.wav","null","audio-keyboard-response","274","2.1.0","407017","J=YES, F=NO","l46s8rt5rr","1","76","83","70","","","","","","","","","","","","","","","",""
"500","
          <p id=""word"" style=""font-size: 40px;"">play</p>
          <p style=""font-size: 16px;"">J = YES &nbsp;&nbsp;&nbsp; F = NO</p>
        ","j","html-keyboard-response","275","2.1.0","407519","J=YES, F=NO","l46s8rt5rr","1","76","83","70","","","","","","","","","play","bishop1","filler","filler","j","true","",""
"null","<p style=""font-size: 50px;"">+</p>","null","html-keyboard-response","276","2.1.0","407829","J=YES, F=NO","l46s8rt5rr","1","76","83","70","","","","","","","","","","","","","","","",""
"null","audio/beep-329314.mp3","null","audio-keyboard-response","277","2.1.0","409367","J=YES, F=NO","l46s8rt5rr","1","76","83","70","","","","","","","","","","","","","","","",""
"null","audio/dollar.wav","null","audio-keyboard-response","278","2.1.0","409757","J=YES, F=NO","l46s8rt5rr","1","76","83","70","","","","","","","","","","","","","","","",""
"468","
          <p id=""word"" style=""font-size: 40px;"">save</p>
          <p style=""font-size: 16px;"">J = YES &nbsp;&nbsp;&nbsp; F = NO</p>
        ","j","html-keyboard-response","279","2.1.0","410226","J=YES, F=NO","l46s8rt5rr","1","76","83","70","","","","","","","","","save","dollar","literal","experimental","j","true","",""
"null","<p style=""font-size: 50px;"">+</p>","null","html-keyboard-response","280","2.1.0","410529","J=YES, F=NO","l46s8rt5rr","1","76","83","70","","","","","","","","","","","","","","","",""
"null","audio/beep-329314.mp3","null","audio-keyboard-response","281","2.1.0","412066","J=YES, F=NO","l46s8rt5rr","1","76","83","70","","","","","","","","","","","","","","","",""
"null","audio/weight1.wav","null","audio-keyboard-response","282","2.1.0","412575","J=YES, F=NO","l46s8rt5rr","1","76","83","70","","","","","","","","","","","","","","","",""
"500","
          <p id=""word"" style=""font-size: 40px;"">support</p>
          <p style=""font-size: 16px;"">J = YES &nbsp;&nbsp;&nbsp; F = NO</p>
        ","j","html-keyboard-response","283","2.1.0","413076","J=YES, F=NO","l46s8rt5rr","1","76","83","70","","","","","","","","","support","weight1","literal","experimental","j","true","",""
"null","<p style=""font-size: 50px;"">+</p>","null","html-keyboard-response","284","2.1.0","413387","J=YES, F=NO","l46s8rt5rr","1","76","83","70","","","","","","","","","","","","","","","",""
"null","audio/beep-329314.mp3","null","audio-keyboard-response","285","2.1.0","414927","J=YES, F=NO","l46s8rt5rr","1","76","83","70","","","","","","","","","","","","","","","",""
"null","audio/corpse1.wav","null","audio-keyboard-response","286","2.1.0","415558","J=YES, F=NO","l46s8rt5rr","1","76","83","70","","","","","","","","","","","","","","","",""
"618","
          <p id=""word"" style=""font-size: 40px;"">glonet</p>
          <p style=""font-size: 16px;"">J = YES &nbsp;&nbsp;&nbsp; F = NO</p>
        ","f","html-keyboard-response","287","2.1.0","416177","J=YES, F=NO","l46s8rt5rr","1","76","83","70","","","","","","","","","glonet","corpse1","pseudoword","pseudoword","f","true","",""
"null","<p style=""font-size: 50px;"">+</p>","null","html-keyboard-response","288","2.1.0","416484","J=YES, F=NO","l46s8rt5rr","1","76","83","70","","","","","","","","","","","","","","","",""
"null","audio/beep-329314.mp3","null","audio-keyboard-response","289","2.1.0","418007","J=YES, F=NO","l46s8rt5rr","1","76","83","70","","","","","","","","","","","","","","","",""
"null","audio/burden.wav","null","audio-keyboard-response","290","2.1.0","418515","J=YES, F=NO","l46s8rt5rr","1","76","83","70","","","","","","","","","","","","","","","",""
"641","
          <p id=""word"" style=""font-size: 40px;"">whotth</p>
          <p style=""font-size: 16px;"">J = YES &nbsp;&nbsp;&nbsp; F = NO</p>
        ","f","html-keyboard-response","291","2.1.0","419157","J=YES, F=NO","l46s8rt5rr","1","76","83","70","","","","","","","","","whotth","burden","pseudoword","pseudoword","f","true","",""
"null","<p style=""font-size: 50px;"">+</p>","null","html-keyboard-response","292","2.1.0","419474","J=YES, F=NO","l46s8rt5rr","1","76","83","70","","","","","","","","","","","","","","","",""
"null","audio/beep-329314.mp3","null","audio-keyboard-response","293","2.1.0","421007","J=YES, F=NO","l46s8rt5rr","1","76","83","70","","","","","","","","","","","","","","","",""
"null","audio/voice.wav","null","audio-keyboard-response","294","2.1.0","421576","J=YES, F=NO","l46s8rt5rr","1","76","83","70","","","","","","","","","","","","","","","",""
"591","
          <p id=""word"" style=""font-size: 40px;"">flood</p>
          <p style=""font-size: 16px;"">J = YES &nbsp;&nbsp;&nbsp; F = NO</p>
        ","j","html-keyboard-response","295","2.1.0","422168","J=YES, F=NO","l46s8rt5rr","1","76","83","70","","","","","","","","","flood","voice","unrelated","experimental","j","true","",""
"1435","<p>Excellent! You have finished block 2 of 8.</p>
                     <p>Feel free to take a 30 second break.</p>
                     <p>Press any key when you're ready to continue.</p>","j","html-keyboard-response","296","2.1.0","423604","J=YES, F=NO","l46s8rt5rr","1","76","83","70","","","","","","","","","","","","","","","",""
"635","<p>Starting main block 3 of 8. Press any key to continue.</p>","j","html-keyboard-response","297","2.1.0","424239","J=YES, F=NO","l46s8rt5rr","1","76","83","70","","","","","","","","","","","","","","","",""
"null","<p style=""font-size: 50px;"">+</p>","null","html-keyboard-response","298","2.1.0","424545","J=YES, F=NO","l46s8rt5rr","1","76","83","70","","","","","","","","","","","","","","","",""
"null","audio/beep-329314.mp3","null","audio-keyboard-response","299","2.1.0","426087","J=YES, F=NO","l46s8rt5rr","1","76","83","70","","","","","","","","","","","","","","","",""
"null","audio/tunnel.wav","null","audio-keyboard-response","300","2.1.0","426517","J=YES, F=NO","l46s8rt5rr","1","76","83","70","","","","","","","","","","","","","","","",""
"769","
          <p id=""word"" style=""font-size: 40px;"">gred</p>
          <p style=""font-size: 16px;"">J = YES &nbsp;&nbsp;&nbsp; F = NO</p>
        ","f","html-keyboard-response","301","2.1.0","427287","J=YES, F=NO","l46s8rt5rr","1","76","83","70","","","","","","","","","gred","tunnel","pseudoword","pseudoword","f","true","",""
"null","<p style=""font-size: 50px;"">+</p>","null","html-keyboard-response","302","2.1.0","427594","J=YES, F=NO","l46s8rt5rr","1","76","83","70","","","","","","","","","","","","","","","",""
"null","audio/beep-329314.mp3","null","audio-keyboard-response","303","2.1.0","429125","J=YES, F=NO","l46s8rt5rr","1","76","83","70","","","","","","","","","","","","","","","",""
"null","audio/mouth1.wav","null","audio-keyboard-response","304","2.1.0","429735","J=YES, F=NO","l46s8rt5rr","1","76","83","70","","","","","","","","","","","","","","","",""
"738","
          <p id=""word"" style=""font-size: 40px;"">spolial</p>
          <p style=""font-size: 16px;"">J = YES &nbsp;&nbsp;&nbsp; F = NO</p>
        ","f","html-keyboard-response","305","2.1.0","430474","J=YES, F=NO","l46s8rt5rr","1","76","83","70","","","","","","","","","spolial","mouth1","pseudoword","pseudoword","f","true","",""
"null","<p style=""font-size: 50px;"">+</p>","null","html-keyboard-response","306","2.1.0","430781","J=YES, F=NO","l46s8rt5rr","1","76","83","70","","","","","","","","","","","","","","","",""
"null","audio/beep-329314.mp3","null","audio-keyboard-response","307","2.1.0","432305","J=YES, F=NO","l46s8rt5rr","1","76","83","70","","","","","","","","","","","","","","","",""
"null","audio/battle1.wav","null","audio-keyboard-response","308","2.1.0","432775","J=YES, F=NO","l46s8rt5rr","1","76","83","70","","","","","","","","","","","","","","","",""
"576","
          <p id=""word"" style=""font-size: 40px;"">fight</p>
          <p style=""font-size: 16px;"">J = YES &nbsp;&nbsp;&nbsp; F = NO</p>
        ","j","html-keyboard-response","309","2.1.0","433351","J=YES, F=NO","l46s8rt5rr","1","76","83","70","","","","","","","","","fight","battle1","literal","experimental","j","true","",""
"null","<p style=""font-size: 50px;"">+</p>","null","html-keyboard-response","310","2.1.0","433660","J=YES, F=NO","l46s8rt5rr","1","76","83","70","","","","","","","","","","","","","","","",""
"null","audio/beep-329314.mp3","null","audio-keyboard-response","311","2.1.0","435185","J=YES, F=NO","l46s8rt5rr","1","76","83","70","","","","","","","","","","","","","","","",""
"null","audio/dollar.wav","null","audio-keyboard-response","312","2.1.0","435555","J=YES, F=NO","l46s8rt5rr","1","76","83","70","","","","","","","","","","","","","","","",""
"598","
          <p id=""word"" style=""font-size: 40px;"">gliptism</p>
          <p style=""font-size: 16px;"">J = YES &nbsp;&nbsp;&nbsp; F = NO</p>
        ","f","html-keyboard-response","313","2.1.0","436154","J=YES, F=NO","l46s8rt5rr","1","76","83","70","","","","","","","","","gliptism","dollar","pseudoword","pseudoword","f","true","",""
"null","<p style=""font-size: 50px;"">+</p>","null","html-keyboard-response","314","2.1.0","436459","J=YES, F=NO","l46s8rt5rr","1","76","83","70","","","","","","","","","","","","","","","",""
"null","audio/beep-329314.mp3","null","audio-keyboard-response","315","2.1.0","437985","J=YES, F=NO","l46s8rt5rr","1","76","83","70","","","","","","","","","","","","","","","",""
"null","audio/hotel1.wav","null","audio-keyboard-response","316","2.1.0","438775","J=YES, F=NO","l46s8rt5rr","1","76","83","70","","","","","","","","","","","","","","","",""
"556","
          <p id=""word"" style=""font-size: 40px;"">flanter</p>
          <p style=""font-size: 16px;"">J = YES &nbsp;&nbsp;&nbsp; F = NO</p>
        ","j","html-keyboard-response","317","2.1.0","439331","J=YES, F=NO","l46s8rt5rr","1","76","83","70","","","","","","","","","flanter","hotel1","pseudoword","pseudoword","f","false","",""
"null","<p style=""font-size: 50px;"">+</p>","null","html-keyboard-response","318","2.1.0","439643","J=YES, F=NO","l46s8rt5rr","1","76","83","70","","","","","","","","","","","","","","","",""
"null","audio/beep-329314.mp3","null","audio-keyboard-response","319","2.1.0","441165","J=YES, F=NO","l46s8rt5rr","1","76","83","70","","","","","","","","","","","","","","","",""
"null","audio/prisoner.wav","null","audio-keyboard-response","320","2.1.0","441677","J=YES, F=NO","l46s8rt5rr","1","76","83","70","","","","","","","","","","","","","","","",""
"646","
          <p id=""word"" style=""font-size: 40px;"">egotian</p>
          <p style=""font-size: 16px;"">J = YES &nbsp;&nbsp;&nbsp; F = NO</p>
        ","f","html-keyboard-response","321","2.1.0","442324","J=YES, F=NO","l46s8rt5rr","1","76","83","70","","","","","","","","","egotian","prisoner","pseudoword","pseudoword","f","true","",""
"null","<p style=""font-size: 50px;"">+</p>","null","html-keyboard-response","322","2.1.0","442634","J=YES, F=NO","l46s8rt5rr","1","76","83","70","","","","","","","","","","","","","","","",""
"null","audio/beep-329314.mp3","null","audio-keyboard-response","323","2.1.0","444167","J=YES, F=NO","l46s8rt5rr","1","76","83","70","","","","","","","","","","","","","","","",""
"null","audio/test1.wav","null","audio-keyboard-response","324","2.1.0","444735","J=YES, F=NO","l46s8rt5rr","1","76","83","70","","","","","","","","","","","","","","","",""
"617","
          <p id=""word"" style=""font-size: 40px;"">twopch</p>
          <p style=""font-size: 16px;"">J = YES &nbsp;&nbsp;&nbsp; F = NO</p>
        ","f","html-keyboard-response","325","2.1.0","445352","J=YES, F=NO","l46s8rt5rr","1","76","83","70","","","","","","","","","twopch","test1","pseudoword","pseudoword","f","true","",""
"null","<p style=""font-size: 50px;"">+</p>","null","html-keyboard-response","326","2.1.0","445660","J=YES, F=NO","l46s8rt5rr","1","76","83","70","","","","","","","","","","","","","","","",""
"null","audio/beep-329314.mp3","null","audio-keyboard-response","327","2.1.0","447187","J=YES, F=NO","l46s8rt5rr","1","76","83","70","","","","","","","","","","","","","","","",""
"null","audio/roof1.wav","null","audio-keyboard-response","328","2.1.0","447717","J=YES, F=NO","l46s8rt5rr","1","76","83","70","","","","","","","","","","","","","","","",""
"561","
          <p id=""word"" style=""font-size: 40px;"">wronb</p>
          <p style=""font-size: 16px;"">J = YES &nbsp;&nbsp;&nbsp; F = NO</p>
        ","f","html-keyboard-response","329","2.1.0","448279","J=YES, F=NO","l46s8rt5rr","1","76","83","70","","","","","","","","","wronb","roof1","pseudoword","pseudoword","f","true","",""
"null","<p style=""font-size: 50px;"">+</p>","null","html-keyboard-response","330","2.1.0","448587","J=YES, F=NO","l46s8rt5rr","1","76","83","70","","","","","","","","","","","","","","","",""
"null","audio/beep-329314.mp3","null","audio-keyboard-response","331","2.1.0","450127","J=YES, F=NO","l46s8rt5rr","1","76","83","70","","","","","","","","","","","","","","","",""
"null","audio/size1.wav","null","audio-keyboard-response","332","2.1.0","450876","J=YES, F=NO","l46s8rt5rr","1","76","83","70","","","","","","","","","","","","","","","",""
"518","
          <p id=""word"" style=""font-size: 40px;"">clear</p>
          <p style=""font-size: 16px;"">J = YES &nbsp;&nbsp;&nbsp; F = NO</p>
        ","j","html-keyboard-response","333","2.1.0","451395","J=YES, F=NO","l46s8rt5rr","1","76","83","70","","","","","","","","","clear","size1","unrelated","experimental","j","true","",""
"null","<p style=""font-size: 50px;"">+</p>","null","html-keyboard-response","334","2.1.0","451706","J=YES, F=NO","l46s8rt5rr","1","76","83","70","","","","","","","","","","","","","","","",""
"null","audio/beep-329314.mp3","null","audio-keyboard-response","335","2.1.0","453247","J=YES, F=NO","l46s8rt5rr","1","76","83","70","","","","","","","","","","","","","","","",""
"null","audio/battle1.wav","null","audio-keyboard-response","336","2.1.0","453696","J=YES, F=NO","l46s8rt5rr","1","76","83","70","","","","","","","","","","","","","","","",""
"859","
          <p id=""word"" style=""font-size: 40px;"">boil</p>
          <p style=""font-size: 16px;"">J = YES &nbsp;&nbsp;&nbsp; F = NO</p>
        ","j","html-keyboard-response","337","2.1.0","454556","J=YES, F=NO","l46s8rt5rr","1","76","83","70","","","","","","","","","boil","battle1","filler","filler","j","true","",""
"null","<p style=""font-size: 50px;"">+</p>","null","html-keyboard-response","338","2.1.0","454866","J=YES, F=NO","l46s8rt5rr","1","76","83","70","","","","","","","","","","","","","","","",""
"null","audio/beep-329314.mp3","null","audio-keyboard-response","339","2.1.0","456407","J=YES, F=NO","l46s8rt5rr","1","76","83","70","","","","","","","","","","","","","","","",""
"null","audio/alarm1.wav","null","audio-keyboard-response","340","2.1.0","456976","J=YES, F=NO","l46s8rt5rr","1","76","83","70","","","","","","","","","","","","","","","",""
"1261","
          <p id=""word"" style=""font-size: 40px;"">swetp</p>
          <p style=""font-size: 16px;"">J = YES &nbsp;&nbsp;&nbsp; F = NO</p>
        ","f","html-keyboard-response","341","2.1.0","458238","J=YES, F=NO","l46s8rt5rr","1","76","83","70","","","","","","","","","swetp","alarm1","pseudoword","pseudoword","f","true","",""
"null","<p style=""font-size: 50px;"">+</p>","null","html-keyboard-response","342","2.1.0","458547","J=YES, F=NO","l46s8rt5rr","1","76","83","70","","","","","","","","","","","","","","","",""
"null","audio/beep-329314.mp3","null","audio-keyboard-response","343","2.1.0","460087","J=YES, F=NO","l46s8rt5rr","1","76","83","70","","","","","","","","","","","","","","","",""
"null","audio/fence.wav","null","audio-keyboard-response","344","2.1.0","460717","J=YES, F=NO","l46s8rt5rr","1","76","83","70","","","","","","","","","","","","","","","",""
"633","
          <p id=""word"" style=""font-size: 40px;"">climb</p>
          <p style=""font-size: 16px;"">J = YES &nbsp;&nbsp;&nbsp; F = NO</p>
        ","j","html-keyboard-response","345","2.1.0","461351","J=YES, F=NO","l46s8rt5rr","1","76","83","70","","","","","","","","","climb","fence","literal","experimental","j","true","",""
"null","<p style=""font-size: 50px;"">+</p>","null","html-keyboard-response","346","2.1.0","461661","J=YES, F=NO","l46s8rt5rr","1","76","83","70","","","","","","","","","","","","","","","",""
"null","audio/beep-329314.mp3","null","audio-keyboard-response","347","2.1.0","463187","J=YES, F=NO","l46s8rt5rr","1","76","83","70","","","","","","","","","","","","","","","",""
"null","audio/purpose.wav","null","audio-keyboard-response","348","2.1.0","463897","J=YES, F=NO","l46s8rt5rr","1","76","83","70","","","","","","","","","","","","","","","",""
"597","
          <p id=""word"" style=""font-size: 40px;"">whigm</p>
          <p style=""font-size: 16px;"">J = YES &nbsp;&nbsp;&nbsp; F = NO</p>
        ","f","html-keyboard-response","349","2.1.0","464494","J=YES, F=NO","l46s8rt5rr","1","76","83","70","","","","","","","","","whigm","purpose","pseudoword","pseudoword","f","true","",""
"null","<p style=""font-size: 50px;"">+</p>","null","html-keyboard-response","350","2.1.0","464804","J=YES, F=NO","l46s8rt5rr","1","76","83","70","","","","","","","","","","","","","","","",""
"null","audio/beep-329314.mp3","null","audio-keyboard-response","351","2.1.0","466327","J=YES, F=NO","l46s8rt5rr","1","76","83","70","","","","","","","","","","","","","","","",""
"null","audio/fear.wav","null","audio-keyboard-response","352","2.1.0","466858","J=YES, F=NO","l46s8rt5rr","1","76","83","70","","","","","","","","","","","","","","","",""
"512","
          <p id=""word"" style=""font-size: 40px;"">spread</p>
          <p style=""font-size: 16px;"">J = YES &nbsp;&nbsp;&nbsp; F = NO</p>
        ","j","html-keyboard-response","353","2.1.0","467370","J=YES, F=NO","l46s8rt5rr","1","76","83","70","","","","","","","","","spread","fear","metaphor","experimental","j","true","",""
"null","<p style=""font-size: 50px;"">+</p>","null","html-keyboard-response","354","2.1.0","467676","J=YES, F=NO","l46s8rt5rr","1","76","83","70","","","","","","","","","","","","","","","",""
"null","audio/beep-329314.mp3","null","audio-keyboard-response","355","2.1.0","469207","J=YES, F=NO","l46s8rt5rr","1","76","83","70","","","","","","","","","","","","","","","",""
"null","audio/mile1.wav","null","audio-keyboard-response","356","2.1.0","469736","J=YES, F=NO","l46s8rt5rr","1","76","83","70","","","","","","","","","","","","","","","",""
"699","
          <p id=""word"" style=""font-size: 40px;"">writch</p>
          <p style=""font-size: 16px;"">J = YES &nbsp;&nbsp;&nbsp; F = NO</p>
        ","f","html-keyboard-response","357","2.1.0","470436","J=YES, F=NO","l46s8rt5rr","1","76","83","70","","","","","","","","","writch","mile1","pseudoword","pseudoword","f","true","",""
"null","<p style=""font-size: 50px;"">+</p>","null","html-keyboard-response","358","2.1.0","470752","J=YES, F=NO","l46s8rt5rr","1","76","83","70","","","","","","","","","","","","","","","",""
"null","audio/beep-329314.mp3","null","audio-keyboard-response","359","2.1.0","472287","J=YES, F=NO","l46s8rt5rr","1","76","83","70","","","","","","","","","","","","","","","",""
"null","audio/pine.wav","null","audio-keyboard-response","360","2.1.0","472756","J=YES, F=NO","l46s8rt5rr","1","76","83","70","","","","","","","","","","","","","","","",""
"480","
          <p id=""word"" style=""font-size: 40px;"">weave</p>
          <p style=""font-size: 16px;"">J = YES &nbsp;&nbsp;&nbsp; F = NO</p>
        ","j","html-keyboard-response","361","2.1.0","473237","J=YES, F=NO","l46s8rt5rr","1","76","83","70","","","","","","","","","weave","pine","unrelated","experimental","j","true","",""
"1158","<p>Excellent! You have finished block 3 of 8.</p>
                     <p>Feel free to take a 30 second break.</p>
                     <p>Press any key when you're ready to continue.</p>"," ","html-keyboard-response","362","2.1.0","474395","J=YES, F=NO","l46s8rt5rr","1","76","83","70","","","","","","","","","","","","","","","",""
"907","<p>Starting main block 4 of 8. Press any key to continue.</p>"," ","html-keyboard-response","363","2.1.0","475303","J=YES, F=NO","l46s8rt5rr","1","76","83","70","","","","","","","","","","","","","","","",""
"null","<p style=""font-size: 50px;"">+</p>","null","html-keyboard-response","364","2.1.0","475614","J=YES, F=NO","l46s8rt5rr","1","76","83","70","","","","","","","","","","","","","","","",""
"null","audio/beep-329314.mp3","null","audio-keyboard-response","365","2.1.0","477147","J=YES, F=NO","l46s8rt5rr","1","76","83","70","","","","","","","","","","","","","","","",""
"null","audio/theory1.wav","null","audio-keyboard-response","366","2.1.0","477776","J=YES, F=NO","l46s8rt5rr","1","76","83","70","","","","","","","","","","","","","","","",""
"633","
          <p id=""word"" style=""font-size: 40px;"">scolve</p>
          <p style=""font-size: 16px;"">J = YES &nbsp;&nbsp;&nbsp; F = NO</p>
        ","f","html-keyboard-response","367","2.1.0","478409","J=YES, F=NO","l46s8rt5rr","1","76","83","70","","","","","","","","","scolve","theory1","pseudoword","pseudoword","f","true","",""
"null","<p style=""font-size: 50px;"">+</p>","null","html-keyboard-response","368","2.1.0","478718","J=YES, F=NO","l46s8rt5rr","1","76","83","70","","","","","","","","","","","","","","","",""
"null","audio/beep-329314.mp3","null","audio-keyboard-response","369","2.1.0","480245","J=YES, F=NO","l46s8rt5rr","1","76","83","70","","","","","","","","","","","","","","","",""
"null","audio/handle.wav","null","audio-keyboard-response","370","2.1.0","480916","J=YES, F=NO","l46s8rt5rr","1","76","83","70","","","","","","","","","","","","","","","",""
"627","
          <p id=""word"" style=""font-size: 40px;"">moutes</p>
          <p style=""font-size: 16px;"">J = YES &nbsp;&nbsp;&nbsp; F = NO</p>
        ","f","html-keyboard-response","371","2.1.0","481545","J=YES, F=NO","l46s8rt5rr","1","76","83","70","","","","","","","","","moutes","handle","pseudoword","pseudoword","f","true","",""
"null","<p style=""font-size: 50px;"">+</p>","null","html-keyboard-response","372","2.1.0","481853","J=YES, F=NO","l46s8rt5rr","1","76","83","70","","","","","","","","","","","","","","","",""
"null","audio/beep-329314.mp3","null","audio-keyboard-response","373","2.1.0","483386","J=YES, F=NO","l46s8rt5rr","1","76","83","70","","","","","","","","","","","","","","","",""
"null","audio/vehicle1.wav","null","audio-keyboard-response","374","2.1.0","484036","J=YES, F=NO","l46s8rt5rr","1","76","83","70","","","","","","","","","","","","","","","",""
"703","
          <p id=""word"" style=""font-size: 40px;"">dropt</p>
          <p style=""font-size: 16px;"">J = YES &nbsp;&nbsp;&nbsp; F = NO</p>
        ","f","html-keyboard-response","375","2.1.0","484740","J=YES, F=NO","l46s8rt5rr","1","76","83","70","","","","","","","","","dropt","vehicle1","pseudoword","pseudoword","f","true","",""
"null","<p style=""font-size: 50px;"">+</p>","null","html-keyboard-response","376","2.1.0","485043","J=YES, F=NO","l46s8rt5rr","1","76","83","70","","","","","","","","","","","","","","","",""
"null","audio/beep-329314.mp3","null","audio-keyboard-response","377","2.1.0","486566","J=YES, F=NO","l46s8rt5rr","1","76","83","70","","","","","","","","","","","","","","","",""
"null","audio/uncle1.wav","null","audio-keyboard-response","378","2.1.0","487195","J=YES, F=NO","l46s8rt5rr","1","76","83","70","","","","","","","","","","","","","","","",""
"748","
          <p id=""word"" style=""font-size: 40px;"">dramble</p>
          <p style=""font-size: 16px;"">J = YES &nbsp;&nbsp;&nbsp; F = NO</p>
        ","f","html-keyboard-response","379","2.1.0","487943","J=YES, F=NO","l46s8rt5rr","1","76","83","70","","","","","","","","","dramble","uncle1","pseudoword","pseudoword","f","true","",""
"null","<p style=""font-size: 50px;"">+</p>","null","html-keyboard-response","380","2.1.0","488252","J=YES, F=NO","l46s8rt5rr","1","76","83","70","","","","","","","","","","","","","","","",""
"null","audio/beep-329314.mp3","null","audio-keyboard-response","381","2.1.0","489787","J=YES, F=NO","l46s8rt5rr","1","76","83","70","","","","","","","","","","","","","","","",""
"null","audio/dome.wav","null","audio-keyboard-response","382","2.1.0","490216","J=YES, F=NO","l46s8rt5rr","1","76","83","70","","","","","","","","","","","","","","","",""
"728","
          <p id=""word"" style=""font-size: 40px;"">scrupliness</p>
          <p style=""font-size: 16px;"">J = YES &nbsp;&nbsp;&nbsp; F = NO</p>
        ","f","html-keyboard-response","383","2.1.0","490946","J=YES, F=NO","l46s8rt5rr","1","76","83","70","","","","","","","","","scrupliness","dome","pseudoword","pseudoword","f","true","",""
"null","<p style=""font-size: 50px;"">+</p>","null","html-keyboard-response","384","2.1.0","491254","J=YES, F=NO","l46s8rt5rr","1","76","83","70","","","","","","","","","","","","","","","",""
"null","audio/beep-329314.mp3","null","audio-keyboard-response","385","2.1.0","492787","J=YES, F=NO","l46s8rt5rr","1","76","83","70","","","","","","","","","","","","","","","",""
"null","audio/gift1.wav","null","audio-keyboard-response","386","2.1.0","493257","J=YES, F=NO","l46s8rt5rr","1","76","83","70","","","","","","","","","","","","","","","",""
"672","
          <p id=""word"" style=""font-size: 40px;"">protsh</p>
          <p style=""font-size: 16px;"">J = YES &nbsp;&nbsp;&nbsp; F = NO</p>
        ","f","html-keyboard-response","387","2.1.0","493931","J=YES, F=NO","l46s8rt5rr","1","76","83","70","","","","","","","","","protsh","gift1","pseudoword","pseudoword","f","true","",""
"null","<p style=""font-size: 50px;"">+</p>","null","html-keyboard-response","388","2.1.0","494240","J=YES, F=NO","l46s8rt5rr","1","76","83","70","","","","","","","","","","","","","","","",""
"null","audio/beep-329314.mp3","null","audio-keyboard-response","389","2.1.0","495767","J=YES, F=NO","l46s8rt5rr","1","76","83","70","","","","","","","","","","","","","","","",""
"null","audio/neck.wav","null","audio-keyboard-response","390","2.1.0","496318","J=YES, F=NO","l46s8rt5rr","1","76","83","70","","","","","","","","","","","","","","","",""
"679","
          <p id=""word"" style=""font-size: 40px;"">werling</p>
          <p style=""font-size: 16px;"">J = YES &nbsp;&nbsp;&nbsp; F = NO</p>
