"rt","stimulus","response","trial_type","trial_index","plugin_version","time_elapsed","response_mapping","subject_id","list_index","lextale_score","lextale_word_score","lextale_nonword_score","success","timeout","failed_images","failed_audio","failed_video","task","isWord","isDummy","target","prime","prime_type","stimulus_type","correct_response","correct","section","question_order"
"335741","
    <div style=""max-width: 800px; margin: auto; text-align: left;"">
      <h2>STANFORD UNIVERSITY</h2>
      <h3>Research Information Sheet</h3>
      <p><strong>Protocol Director:</strong> Robert Hawkins<br>
      <strong>Protocol Title:</strong> Communication and social cognition in natural audiovisual contexts<br>
      <strong>IRB#:</strong> 77226</p>

      <p><strong>DESCRIPTION:</strong> You are invited to participate in a research study about language and communication. The purpose of the research is to understand how you interact and communicate with other people in naturalistic settings as a fluent English speaker. This research will be conducted through the Prolific platform, including participants from the US, UK, and Canada. If you decide to participate in this research, you will play a communication game in a group with one or more partners.</p>

      <p><strong>TIME INVOLVEMENT:</strong> The task will last the amount of time advertised on Prolific. You are free to withdraw from the study at any time.</p>

      <p><strong>RISKS AND BENEFITS:</strong> You may become frustrated if your partner gets distracted, or experience discomfort if other participants in your group send text that is inappropriate for the task. We ask you to please be respectful of other participants you might be interacting with to mitigate these risks. You may also experience discomfort when being asked to discuss or challenge emotionally salient political beliefs. Study data will be stored securely, in compliance with Stanford University standards, minimizing the risk of confidentiality breach. This study advances our scientific understanding of how people communicate and collaborate in naturalistic settings. This study may lead to further insights about what can go wrong in teamwork, suggest potential interventions to overcome these barriers, and help to develop assistive technologies that collaborate with human partners. We cannot and do not guarantee or promise that you will receive any benefits from this study.</p>

      <p><strong>PAYMENTS:</strong> You will receive payment in the amount advertised on Prolific. If you do not complete this study, you will receive prorated payment based on the time that you have spent. Additionally, you may be eligible for bonus payments as described in the instructions.</p>

      <p><strong>PARTICIPANT’S RIGHTS:</strong> If you have read this form and have decided to participate in this project, please understand your participation is voluntary and you have the right to withdraw your consent or discontinue participation at any time without penalty or loss of benefits to which you are otherwise entitled. The alternative is not to participate. You have the right to refuse to answer particular questions. The results of this research study may be presented at scientific or professional meetings or published in scientific journals. Your individual privacy will be maintained in all published and written data resulting from the study. In accordance with scientific norms, the data from this study may be used or shared with other researchers for future research (after removing personally identifying information) without additional consent from you.</p>

      <p><strong>CONTACT INFORMATION:</strong><br>
      Questions: If you have any questions, concerns or complaints about this research, its procedures, risks and benefits, contact the Protocol Director, Robert Hawkins (<a href=""mailto:rdhawkins@stanford.edu"">rdhawkins@stanford.edu</a>, 217-549-6923).<br>
      Independent Contact: If you are not satisfied with how this study is being conducted, or if you have any concerns, complaints, or general questions about the research or your rights as a participant, please contact the Stanford Institutional Review Board (IRB) to speak to someone independent of the research team at 650-723-2480 or toll free at 1-866-680-2906, or email at <a href=""mailto:irbnon-med@stanford.edu"">irbnon-med@stanford.edu</a>. You can also write to the Stanford IRB, Stanford University, 1705 El Camino Real, Palo Alto, CA 94306.</p>

      <p><strong>Please save or print a copy of this page for your records.</strong></p>
      <p>If you agree to participate in this research, click ""Continue"" below.</p>
    </div>
  ","0","html-button-response","0","2.1.0","335756","F=YES, J=NO","l4euv7ao43","2","75","75","75","","","","","","","","","","","","","","","",""
"7826","
    <div style=""max-width: 800px; margin: auto; text-align: left;"">
      <h2>Welcome!</h2>
      <p>Thank you for participating in this study. The experiment consists of three parts:</p>
      <ol>
        <li>An English vocabulary test</li>
        <li>A main task in which you will hear and see words, and decide whether the written word is a real English word</li>
        <li>A brief survey about your background</li>
      </ol>
      <p>Each part will be introduced before it begins.</p>
      <p>Please make sure you are in a quiet environment and can hear audio clearly for the final task.</p>
      <p style=""margin-top: 2em;"">Press any key to begin.</p>
    </div>
  "," ","html-keyboard-response","1","2.1.0","343585","F=YES, J=NO","l4euv7ao43","2","75","75","75","","","","","","","","","","","","","","","",""
"","","","preload","2","2.1.0","348073","F=YES, J=NO","l4euv7ao43","2","75","75","75","true","false","[]","[]","[]","","","","","","","","","","",""
"5420","
    <div style=""max-width: 800px; margin: auto; text-align: left;"">
      <h2>Part 1: Vocabulary Test</h2>
      <p>You will now complete the first part of the study: a short English vocabulary test.</p>
      <p>This test is called <strong>LexTALE</strong> and helps us get a general sense of your English proficiency.</p>
      <p style=""margin-top: 2em;"">Press any key to continue.</p>
    </div>
  "," ","html-keyboard-response","3","2.1.0","353494","F=YES, J=NO","l4euv7ao43","2","75","75","75","","","","","","","","","","","","","","","",""
"8005","
    <div style=""max-width: 800px; margin: auto; text-align: left;"">
      <h2>LexTALE Vocabulary Test</h2>
      <p>In this test, you will see a series of letter strings—one at a time.</p>
      <p>Your task is to decide whether each string is a real English word.</p>
      <p><strong>Key responses:</strong></p>
      <ul>
        <li><strong>F</strong> = YES (real English word)</li>
        <li><strong>J</strong> = NO (not a real English word)</li>
      </ul>
      <p>There is no time limit, but please try to be accurate.</p>
      <p style=""margin-top: 2em;"">Press any key to begin.</p>
    </div>
  "," ","html-keyboard-response","4","2.1.0","361500","F=YES, J=NO","l4euv7ao43","2","75","75","75","","","","","","","","","","","","","","","",""
"1586","
  <p style=""font-size: 40px;"">platery</p>
  <p style=""font-size: 16px;"">F = YES &nbsp;&nbsp;&nbsp; J = NO</p>
","j","html-keyboard-response","5","2.1.0","363087","F=YES, J=NO","l4euv7ao43","2","75","75","75","","","","","","lextale","false","true","","","","","","","",""
"804","
  <p style=""font-size: 40px;"">denial</p>
  <p style=""font-size: 16px;"">F = YES &nbsp;&nbsp;&nbsp; J = NO</p>
","f","html-keyboard-response","6","2.1.0","363892","F=YES, J=NO","l4euv7ao43","2","75","75","75","","","","","","lextale","true","true","","","","","","","",""
"1159","
  <p style=""font-size: 40px;"">marrit</p>
  <p style=""font-size: 16px;"">F = YES &nbsp;&nbsp;&nbsp; J = NO</p>
","j","html-keyboard-response","7","2.1.0","365053","F=YES, J=NO","l4euv7ao43","2","75","75","75","","","","","","lextale","false","true","","","","","","","",""
"600","
  <p style=""font-size: 40px;"">bottle</p>
  <p style=""font-size: 16px;"">F = YES &nbsp;&nbsp;&nbsp; J = NO</p>
","f","html-keyboard-response","8","2.1.0","365654","F=YES, J=NO","l4euv7ao43","2","75","75","75","","","","","","lextale","true","false","","","","","","","",""
"2156","
  <p style=""font-size: 40px;"">birst</p>
  <p style=""font-size: 16px;"">F = YES &nbsp;&nbsp;&nbsp; J = NO</p>
","j","html-keyboard-response","9","2.1.0","367812","F=YES, J=NO","l4euv7ao43","2","75","75","75","","","","","","lextale","false","false","","","","","","","",""
"764","
  <p style=""font-size: 40px;"">envy</p>
  <p style=""font-size: 16px;"">F = YES &nbsp;&nbsp;&nbsp; J = NO</p>
","f","html-keyboard-response","10","2.1.0","368577","F=YES, J=NO","l4euv7ao43","2","75","75","75","","","","","","lextale","true","false","","","","","","","",""
"2569","
  <p style=""font-size: 40px;"">brang</p>
  <p style=""font-size: 16px;"">F = YES &nbsp;&nbsp;&nbsp; J = NO</p>
","f","html-keyboard-response","11","2.1.0","371147","F=YES, J=NO","l4euv7ao43","2","75","75","75","","","","","","lextale","false","false","","","","","","","",""
"834","
  <p style=""font-size: 40px;"">huge</p>
  <p style=""font-size: 16px;"">F = YES &nbsp;&nbsp;&nbsp; J = NO</p>
","f","html-keyboard-response","12","2.1.0","371982","F=YES, J=NO","l4euv7ao43","2","75","75","75","","","","","","lextale","true","false","","","","","","","",""
"893","
  <p style=""font-size: 40px;"">plove</p>
  <p style=""font-size: 16px;"">F = YES &nbsp;&nbsp;&nbsp; J = NO</p>
","j","html-keyboard-response","13","2.1.0","372875","F=YES, J=NO","l4euv7ao43","2","75","75","75","","","","","","lextale","false","false","","","","","","","",""
"705","
  <p style=""font-size: 40px;"">border</p>
  <p style=""font-size: 16px;"">F = YES &nbsp;&nbsp;&nbsp; J = NO</p>
","f","html-keyboard-response","14","2.1.0","373581","F=YES, J=NO","l4euv7ao43","2","75","75","75","","","","","","lextale","true","false","","","","","","","",""
"853","
  <p style=""font-size: 40px;"">flimsy</p>
  <p style=""font-size: 16px;"">F = YES &nbsp;&nbsp;&nbsp; J = NO</p>
","f","html-keyboard-response","15","2.1.0","374436","F=YES, J=NO","l4euv7ao43","2","75","75","75","","","","","","lextale","true","false","","","","","","","",""
"680","
  <p style=""font-size: 40px;"">drain</p>
  <p style=""font-size: 16px;"">F = YES &nbsp;&nbsp;&nbsp; J = NO</p>
","f","html-keyboard-response","16","2.1.0","375116","F=YES, J=NO","l4euv7ao43","2","75","75","75","","","","","","lextale","true","false","","","","","","","",""
"1138","
  <p style=""font-size: 40px;"">twindle</p>
  <p style=""font-size: 16px;"">F = YES &nbsp;&nbsp;&nbsp; J = NO</p>
","j","html-keyboard-response","17","2.1.0","376255","F=YES, J=NO","l4euv7ao43","2","75","75","75","","","","","","lextale","false","false","","","","","","","",""
"801","
  <p style=""font-size: 40px;"">propose</p>
  <p style=""font-size: 16px;"">F = YES &nbsp;&nbsp;&nbsp; J = NO</p>
","f","html-keyboard-response","18","2.1.0","377057","F=YES, J=NO","l4euv7ao43","2","75","75","75","","","","","","lextale","true","false","","","","","","","",""
"1774","
  <p style=""font-size: 40px;"">forlay</p>
  <p style=""font-size: 16px;"">F = YES &nbsp;&nbsp;&nbsp; J = NO</p>
","f","html-keyboard-response","19","2.1.0","378832","F=YES, J=NO","l4euv7ao43","2","75","75","75","","","","","","lextale","false","false","","","","","","","",""
"1675","
  <p style=""font-size: 40px;"">tenant</p>
  <p style=""font-size: 16px;"">F = YES &nbsp;&nbsp;&nbsp; J = NO</p>
","f","html-keyboard-response","20","2.1.0","380508","F=YES, J=NO","l4euv7ao43","2","75","75","75","","","","","","lextale","true","false","","","","","","","",""
"3791","
  <p style=""font-size: 40px;"">strain</p>
  <p style=""font-size: 16px;"">F = YES &nbsp;&nbsp;&nbsp; J = NO</p>
","f","html-keyboard-response","21","2.1.0","384299","F=YES, J=NO","l4euv7ao43","2","75","75","75","","","","","","lextale","true","false","","","","","","","",""
"904","
  <p style=""font-size: 40px;"">holster</p>
  <p style=""font-size: 16px;"">F = YES &nbsp;&nbsp;&nbsp; J = NO</p>
","j","html-keyboard-response","22","2.1.0","385204","F=YES, J=NO","l4euv7ao43","2","75","75","75","","","","","","lextale","true","false","","","","","","","",""
"1033","
  <p style=""font-size: 40px;"">hinder</p>
  <p style=""font-size: 16px;"">F = YES &nbsp;&nbsp;&nbsp; J = NO</p>
","f","html-keyboard-response","23","2.1.0","386239","F=YES, J=NO","l4euv7ao43","2","75","75","75","","","","","","lextale","true","false","","","","","","","",""
"1056","
  <p style=""font-size: 40px;"">swindle</p>
  <p style=""font-size: 16px;"">F = YES &nbsp;&nbsp;&nbsp; J = NO</p>
","f","html-keyboard-response","24","2.1.0","387296","F=YES, J=NO","l4euv7ao43","2","75","75","75","","","","","","lextale","true","false","","","","","","","",""
"1499","
  <p style=""font-size: 40px;"">nuder</p>
  <p style=""font-size: 16px;"">F = YES &nbsp;&nbsp;&nbsp; J = NO</p>
","f","html-keyboard-response","25","2.1.0","388796","F=YES, J=NO","l4euv7ao43","2","75","75","75","","","","","","lextale","false","false","","","","","","","",""
"641","
  <p style=""font-size: 40px;"">pillow</p>
  <p style=""font-size: 16px;"">F = YES &nbsp;&nbsp;&nbsp; J = NO</p>
","f","html-keyboard-response","26","2.1.0","389438","F=YES, J=NO","l4euv7ao43","2","75","75","75","","","","","","lextale","true","false","","","","","","","",""
"5335","
  <p style=""font-size: 40px;"">shumble</p>
  <p style=""font-size: 16px;"">F = YES &nbsp;&nbsp;&nbsp; J = NO</p>
","j","html-keyboard-response","27","2.1.0","394773","F=YES, J=NO","l4euv7ao43","2","75","75","75","","","","","","lextale","false","false","","","","","","","",""
"848","
  <p style=""font-size: 40px;"">thirst</p>
  <p style=""font-size: 16px;"">F = YES &nbsp;&nbsp;&nbsp; J = NO</p>
","f","html-keyboard-response","28","2.1.0","395622","F=YES, J=NO","l4euv7ao43","2","75","75","75","","","","","","lextale","true","false","","","","","","","",""
"1085","
  <p style=""font-size: 40px;"">unsail</p>
  <p style=""font-size: 16px;"">F = YES &nbsp;&nbsp;&nbsp; J = NO</p>
","j","html-keyboard-response","29","2.1.0","396707","F=YES, J=NO","l4euv7ao43","2","75","75","75","","","","","","lextale","false","false","","","","","","","",""
"1690","
  <p style=""font-size: 40px;"">rifle</p>
  <p style=""font-size: 16px;"">F = YES &nbsp;&nbsp;&nbsp; J = NO</p>
","f","html-keyboard-response","30","2.1.0","398397","F=YES, J=NO","l4euv7ao43","2","75","75","75","","","","","","lextale","true","false","","","","","","","",""
"1065","
  <p style=""font-size: 40px;"">mush</p>
  <p style=""font-size: 16px;"">F = YES &nbsp;&nbsp;&nbsp; J = NO</p>
","j","html-keyboard-response","31","2.1.0","399463","F=YES, J=NO","l4euv7ao43","2","75","75","75","","","","","","lextale","false","false","","","","","","","",""
"1054","
  <p style=""font-size: 40px;"">drench</p>
  <p style=""font-size: 16px;"">F = YES &nbsp;&nbsp;&nbsp; J = NO</p>
","f","html-keyboard-response","32","2.1.0","400518","F=YES, J=NO","l4euv7ao43","2","75","75","75","","","","","","lextale","true","false","","","","","","","",""
"2722","
  <p style=""font-size: 40px;"">snirt</p>
  <p style=""font-size: 16px;"">F = YES &nbsp;&nbsp;&nbsp; J = NO</p>
","j","html-keyboard-response","33","2.1.0","403241","F=YES, J=NO","l4euv7ao43","2","75","75","75","","","","","","lextale","false","false","","","","","","","",""
"879","
  <p style=""font-size: 40px;"">bitter</p>
  <p style=""font-size: 16px;"">F = YES &nbsp;&nbsp;&nbsp; J = NO</p>
","f","html-keyboard-response","34","2.1.0","404120","F=YES, J=NO","l4euv7ao43","2","75","75","75","","","","","","lextale","true","false","","","","","","","",""
"942","
  <p style=""font-size: 40px;"">pliff</p>
  <p style=""font-size: 16px;"">F = YES &nbsp;&nbsp;&nbsp; J = NO</p>
","j","html-keyboard-response","35","2.1.0","405063","F=YES, J=NO","l4euv7ao43","2","75","75","75","","","","","","lextale","false","false","","","","","","","",""
"649","
  <p style=""font-size: 40px;"">tablet</p>
  <p style=""font-size: 16px;"">F = YES &nbsp;&nbsp;&nbsp; J = NO</p>
","f","html-keyboard-response","36","2.1.0","405712","F=YES, J=NO","l4euv7ao43","2","75","75","75","","","","","","lextale","true","false","","","","","","","",""
"817","
  <p style=""font-size: 40px;"">glimmer</p>
  <p style=""font-size: 16px;"">F = YES &nbsp;&nbsp;&nbsp; J = NO</p>
","f","html-keyboard-response","37","2.1.0","406530","F=YES, J=NO","l4euv7ao43","2","75","75","75","","","","","","lextale","true","false","","","","","","","",""
"1580","
  <p style=""font-size: 40px;"">slink</p>
  <p style=""font-size: 16px;"">F = YES &nbsp;&nbsp;&nbsp; J = NO</p>
","j","html-keyboard-response","38","2.1.0","408111","F=YES, J=NO","l4euv7ao43","2","75","75","75","","","","","","lextale","true","false","","","","","","","",""
"591","
  <p style=""font-size: 40px;"">clever</p>
  <p style=""font-size: 16px;"">F = YES &nbsp;&nbsp;&nbsp; J = NO</p>
","f","html-keyboard-response","39","2.1.0","408702","F=YES, J=NO","l4euv7ao43","2","75","75","75","","","","","","lextale","true","false","","","","","","","",""
"997","
  <p style=""font-size: 40px;"">grum</p>
  <p style=""font-size: 16px;"">F = YES &nbsp;&nbsp;&nbsp; J = NO</p>
","j","html-keyboard-response","40","2.1.0","409699","F=YES, J=NO","l4euv7ao43","2","75","75","75","","","","","","lextale","false","false","","","","","","","",""
"663","
  <p style=""font-size: 40px;"">string</p>
  <p style=""font-size: 16px;"">F = YES &nbsp;&nbsp;&nbsp; J = NO</p>
","f","html-keyboard-response","41","2.1.0","410364","F=YES, J=NO","l4euv7ao43","2","75","75","75","","","","","","lextale","true","false","","","","","","","",""
"1228","
  <p style=""font-size: 40px;"">plim</p>
  <p style=""font-size: 16px;"">F = YES &nbsp;&nbsp;&nbsp; J = NO</p>
","j","html-keyboard-response","42","2.1.0","411593","F=YES, J=NO","l4euv7ao43","2","75","75","75","","","","","","lextale","false","false","","","","","","","",""
"7232","
  <p style=""font-size: 40px;"">cable</p>
  <p style=""font-size: 16px;"">F = YES &nbsp;&nbsp;&nbsp; J = NO</p>
","f","html-keyboard-response","43","2.1.0","418826","F=YES, J=NO","l4euv7ao43","2","75","75","75","","","","","","lextale","true","false","","","","","","","",""
"794","
  <p style=""font-size: 40px;"">shrivel</p>
  <p style=""font-size: 16px;"">F = YES &nbsp;&nbsp;&nbsp; J = NO</p>
","j","html-keyboard-response","44","2.1.0","419621","F=YES, J=NO","l4euv7ao43","2","75","75","75","","","","","","lextale","true","false","","","","","","","",""
"819","
  <p style=""font-size: 40px;"">tarnish</p>
  <p style=""font-size: 16px;"">F = YES &nbsp;&nbsp;&nbsp; J = NO</p>
","f","html-keyboard-response","45","2.1.0","420440","F=YES, J=NO","l4euv7ao43","2","75","75","75","","","","","","lextale","true","false","","","","","","","",""
"898","
  <p style=""font-size: 40px;"">blim</p>
  <p style=""font-size: 16px;"">F = YES &nbsp;&nbsp;&nbsp; J = NO</p>
","j","html-keyboard-response","46","2.1.0","421341","F=YES, J=NO","l4euv7ao43","2","75","75","75","","","","","","lextale","false","false","","","","","","","",""
"973","
  <p style=""font-size: 40px;"">stifle</p>
  <p style=""font-size: 16px;"">F = YES &nbsp;&nbsp;&nbsp; J = NO</p>
","j","html-keyboard-response","47","2.1.0","422314","F=YES, J=NO","l4euv7ao43","2","75","75","75","","","","","","lextale","true","false","","","","","","","",""
"864","
  <p style=""font-size: 40px;"">bint</p>
  <p style=""font-size: 16px;"">F = YES &nbsp;&nbsp;&nbsp; J = NO</p>
","j","html-keyboard-response","48","2.1.0","423179","F=YES, J=NO","l4euv7ao43","2","75","75","75","","","","","","lextale","false","false","","","","","","","",""
"608","
  <p style=""font-size: 40px;"">purple</p>
  <p style=""font-size: 16px;"">F = YES &nbsp;&nbsp;&nbsp; J = NO</p>
","f","html-keyboard-response","49","2.1.0","423787","F=YES, J=NO","l4euv7ao43","2","75","75","75","","","","","","lextale","true","false","","","","","","","",""
"970","
  <p style=""font-size: 40px;"">wriggle</p>
  <p style=""font-size: 16px;"">F = YES &nbsp;&nbsp;&nbsp; J = NO</p>
","f","html-keyboard-response","50","2.1.0","424758","F=YES, J=NO","l4euv7ao43","2","75","75","75","","","","","","lextale","true","false","","","","","","","",""
"2086","
  <p style=""font-size: 40px;"">mangle</p>
  <p style=""font-size: 16px;"">F = YES &nbsp;&nbsp;&nbsp; J = NO</p>
","f","html-keyboard-response","51","2.1.0","426845","F=YES, J=NO","l4euv7ao43","2","75","75","75","","","","","","lextale","true","false","","","","","","","",""
"2774","
  <p style=""font-size: 40px;"">shramp</p>
  <p style=""font-size: 16px;"">F = YES &nbsp;&nbsp;&nbsp; J = NO</p>
","f","html-keyboard-response","52","2.1.0","429620","F=YES, J=NO","l4euv7ao43","2","75","75","75","","","","","","lextale","false","false","","","","","","","",""
"733","
  <p style=""font-size: 40px;"">flirt</p>
  <p style=""font-size: 16px;"">F = YES &nbsp;&nbsp;&nbsp; J = NO</p>
","f","html-keyboard-response","53","2.1.0","430354","F=YES, J=NO","l4euv7ao43","2","75","75","75","","","","","","lextale","true","false","","","","","","","",""
"1168","
  <p style=""font-size: 40px;"">frip</p>
  <p style=""font-size: 16px;"">F = YES &nbsp;&nbsp;&nbsp; J = NO</p>
","j","html-keyboard-response","54","2.1.0","431523","F=YES, J=NO","l4euv7ao43","2","75","75","75","","","","","","lextale","false","false","","","","","","","",""
"3537","
  <p style=""font-size: 40px;"">tangle</p>
  <p style=""font-size: 16px;"">F = YES &nbsp;&nbsp;&nbsp; J = NO</p>
","f","html-keyboard-response","55","2.1.0","435060","F=YES, J=NO","l4euv7ao43","2","75","75","75","","","","","","lextale","true","false","","","","","","","",""
"137365","
  <p style=""font-size: 40px;"">crumble</p>
  <p style=""font-size: 16px;"">F = YES &nbsp;&nbsp;&nbsp; J = NO</p>
","f","html-keyboard-response","56","2.1.0","572426","F=YES, J=NO","l4euv7ao43","2","75","75","75","","","","","","lextale","true","false","","","","","","","",""
"810","
  <p style=""font-size: 40px;"">wrinkle</p>
  <p style=""font-size: 16px;"">F = YES &nbsp;&nbsp;&nbsp; J = NO</p>
","f","html-keyboard-response","57","2.1.0","573237","F=YES, J=NO","l4euv7ao43","2","75","75","75","","","","","","lextale","true","false","","","","","","","",""
"1093","
  <p style=""font-size: 40px;"">slumb</p>
  <p style=""font-size: 16px;"">F = YES &nbsp;&nbsp;&nbsp; J = NO</p>
","j","html-keyboard-response","58","2.1.0","574331","F=YES, J=NO","l4euv7ao43","2","75","75","75","","","","","","lextale","false","false","","","","","","","",""
"588","
  <p style=""font-size: 40px;"">jungle</p>
  <p style=""font-size: 16px;"">F = YES &nbsp;&nbsp;&nbsp; J = NO</p>
","f","html-keyboard-response","59","2.1.0","574920","F=YES, J=NO","l4euv7ao43","2","75","75","75","","","","","","lextale","true","false","","","","","","","",""
"775","
  <p style=""font-size: 40px;"">frolick</p>
  <p style=""font-size: 16px;"">F = YES &nbsp;&nbsp;&nbsp; J = NO</p>
","j","html-keyboard-response","60","2.1.0","575696","F=YES, J=NO","l4euv7ao43","2","75","75","75","","","","","","lextale","false","false","","","","","","","",""
"2093","
      <h2>LexTALE Test Completed</h2>
      <p>Your LexTALE vocabulary score is: <strong>75%</strong></p>
      <p>Press any key to continue.</p>
    "," ","html-keyboard-response","61","2.1.0","577793","F=YES, J=NO","l4euv7ao43","2","75","75","75","","","","","","","","","","","","","","","",""
"2936","
    <div style=""max-width: 800px; margin: auto; text-align: left;"">
      <h2>Break Time</h2>
      <p>You have completed the first part of the study.</p>
      <p>You may take a short <strong>30-second break</strong> before continuing.</p>
      <p>When you’re ready, press any key to continue to the final task.</p>
    </div>
  "," ","html-keyboard-response","62","2.1.0","580730","F=YES, J=NO","l4euv7ao43","2","75","75","75","","","","","","","","","","","","","","","",""
"5442","
    <div style=""max-width: 800px; margin: auto; text-align: left;"">
      <h2>Part 2: Lexical Decision Task</h2>
      <p>You will now begin the second part of the study.</p>
      <p>Each trial will follow this sequence:</p>
      <ul>
        <li>A fixation cross (+) appears at the center of the screen.</li>
        <li>You will hear a short beep followed by a spoken word.</li>
        <li>A written word will appear briefly on the screen.</li>
      </ul>
      <p>Your task is to judge whether the <strong>written word</strong> is a real English word.</p>
      <p style=""margin-top: 1em;""><strong>Key responses:</strong></p>
      <ul>
        <li><strong>F</strong> = YES (real English word)</li>
        <li><strong>J</strong> = NO (not a real English word)</li>
      </ul>
      <p>Please respond as quickly and accurately as you can.</p>
      <p style=""margin-top: 2em;"">Press any key to continue.</p>
    </div>
  "," ","html-keyboard-response","63","2.1.0","586173","F=YES, J=NO","l4euv7ao43","2","75","75","75","","","","","","","","","","","","","","","",""
"1629","
    <div style=""max-width: 800px; margin: auto; text-align: left;"">
      <h2>Before You Begin</h2>
      <p>Make sure your sound is turned on.</p>
      <p>You will hear audio during each trial, but your decision should be based only on the <strong>written word</strong> you see on the screen.</p>
      <p><strong>Reminder:</strong></p>
      <ul>
        <li><strong>F</strong> = YES (real English word)</li>
        <li><strong>J</strong> = NO (not a real English word)</li>
      </ul>
      <p style=""margin-top: 2em;"">Press any key when you are ready to begin.</p>
    </div>
  "," ","html-keyboard-response","64","2.1.0","587803","F=YES, J=NO","l4euv7ao43","2","75","75","75","","","","","","","","","","","","","","","",""
"1357","
    <div style=""max-width: 800px; margin: auto; text-align: left;"">
      <h2>Part 2: Practice Trials</h2>
      <p>You will now complete a few <strong>practice trials</strong> to get familiar with the task.</p>
      <p>These trials are <strong>not scored</strong> and are only to help you get used to the format.</p>
      <p style=""margin-top: 2em;"">Press any key to begin.</p>
    </div>
  "," ","html-keyboard-response","65","2.1.0","589161","F=YES, J=NO","l4euv7ao43","2","75","75","75","","","","","","","","","","","","","","","",""
"1062","<p>Starting practice block 1 of 2. Press any key to continue.</p>"," ","html-keyboard-response","66","2.1.0","590224","F=YES, J=NO","l4euv7ao43","2","75","75","75","","","","","","","","","","","","","","","",""
"null","<p style=""font-size: 50px;"">+</p>","null","html-keyboard-response","67","2.1.0","590532","F=YES, J=NO","l4euv7ao43","2","75","75","75","","","","","","","","","","","","","","","",""
"null","audio/beep-329314.mp3","null","audio-keyboard-response","68","2.1.0","592137","F=YES, J=NO","l4euv7ao43","2","75","75","75","","","","","","","","","","","","","","","",""
"null","audio/cave1.wav","null","audio-keyboard-response","69","2.1.0","592846","F=YES, J=NO","l4euv7ao43","2","75","75","75","","","","","","","","","","","","","","","",""
"1359","
          <p id=""word"" style=""font-size: 40px;"">blacket</p>
          <p style=""font-size: 16px;"">F = YES &nbsp;&nbsp;&nbsp; J = NO</p>
        ","f","html-keyboard-response","70","2.1.0","594207","F=YES, J=NO","l4euv7ao43","2","75","75","75","","","","","","","","","blacket","cave1","pseudoword","pseudoword","j","false","",""
"null","<p style=""font-size: 50px;"">+</p>","null","html-keyboard-response","71","2.1.0","594515","F=YES, J=NO","l4euv7ao43","2","75","75","75","","","","","","","","","","","","","","","",""
"null","audio/beep-329314.mp3","null","audio-keyboard-response","72","2.1.0","596056","F=YES, J=NO","l4euv7ao43","2","75","75","75","","","","","","","","","","","","","","","",""
"null","audio/ankle1.wav","null","audio-keyboard-response","73","2.1.0","596766","F=YES, J=NO","l4euv7ao43","2","75","75","75","","","","","","","","","","","","","","","",""
"786","
          <p id=""word"" style=""font-size: 40px;"">kick</p>
          <p style=""font-size: 16px;"">F = YES &nbsp;&nbsp;&nbsp; J = NO</p>
        ","f","html-keyboard-response","74","2.1.0","597553","F=YES, J=NO","l4euv7ao43","2","75","75","75","","","","","","","","","kick","ankle1","filler","filler","f","true","",""
"null","<p style=""font-size: 50px;"">+</p>","null","html-keyboard-response","75","2.1.0","597865","F=YES, J=NO","l4euv7ao43","2","75","75","75","","","","","","","","","","","","","","","",""
"null","audio/beep-329314.mp3","null","audio-keyboard-response","76","2.1.0","599396","F=YES, J=NO","l4euv7ao43","2","75","75","75","","","","","","","","","","","","","","","",""
"null","audio/camera1.wav","null","audio-keyboard-response","77","2.1.0","600186","F=YES, J=NO","l4euv7ao43","2","75","75","75","","","","","","","","","","","","","","","",""
"null","
          <p id=""word"" style=""font-size: 40px;"">stir</p>
          <p style=""font-size: 16px;"">F = YES &nbsp;&nbsp;&nbsp; J = NO</p>
        ","null","html-keyboard-response","78","2.1.0","601691","F=YES, J=NO","l4euv7ao43","2","75","75","75","","","","","","","","","stir","camera1","filler","filler","f","false","",""
"null","<p style=""font-size: 50px;"">+</p>","null","html-keyboard-response","79","2.1.0","601995","F=YES, J=NO","l4euv7ao43","2","75","75","75","","","","","","","","","","","","","","","",""
"null","audio/beep-329314.mp3","null","audio-keyboard-response","80","2.1.0","603516","F=YES, J=NO","l4euv7ao43","2","75","75","75","","","","","","","","","","","","","","","",""
"null","audio/window1.wav","null","audio-keyboard-response","81","2.1.0","604146","F=YES, J=NO","l4euv7ao43","2","75","75","75","","","","","","","","","","","","","","","",""
"560","
          <p id=""word"" style=""font-size: 40px;"">toss</p>
          <p style=""font-size: 16px;"">F = YES &nbsp;&nbsp;&nbsp; J = NO</p>
        ","f","html-keyboard-response","82","2.1.0","604708","F=YES, J=NO","l4euv7ao43","2","75","75","75","","","","","","","","","toss","window1","filler","filler","f","true","",""
"null","<p style=""font-size: 50px;"">+</p>","null","html-keyboard-response","83","2.1.0","605015","F=YES, J=NO","l4euv7ao43","2","75","75","75","","","","","","","","","","","","","","","",""
"null","audio/beep-329314.mp3","null","audio-keyboard-response","84","2.1.0","606557","F=YES, J=NO","l4euv7ao43","2","75","75","75","","","","","","","","","","","","","","","",""
"null","audio/life1.wav","null","audio-keyboard-response","85","2.1.0","607286","F=YES, J=NO","l4euv7ao43","2","75","75","75","","","","","","","","","","","","","","","",""
"412","
          <p id=""word"" style=""font-size: 40px;"">flimch</p>
          <p style=""font-size: 16px;"">F = YES &nbsp;&nbsp;&nbsp; J = NO</p>
        ","f","html-keyboard-response","86","2.1.0","607699","F=YES, J=NO","l4euv7ao43","2","75","75","75","","","","","","","","","flimch","life1","pseudoword","pseudoword","j","false","",""
"null","<p style=""font-size: 50px;"">+</p>","null","html-keyboard-response","87","2.1.0","608005","F=YES, J=NO","l4euv7ao43","2","75","75","75","","","","","","","","","","","","","","","",""
"null","audio/beep-329314.mp3","null","audio-keyboard-response","88","2.1.0","609536","F=YES, J=NO","l4euv7ao43","2","75","75","75","","","","","","","","","","","","","","","",""
"null","audio/voice.wav","null","audio-keyboard-response","89","2.1.0","610166","F=YES, J=NO","l4euv7ao43","2","75","75","75","","","","","","","","","","","","","","","",""
"889","
          <p id=""word"" style=""font-size: 40px;"">grintle</p>
          <p style=""font-size: 16px;"">F = YES &nbsp;&nbsp;&nbsp; J = NO</p>
        ","j","html-keyboard-response","90","2.1.0","611056","F=YES, J=NO","l4euv7ao43","2","75","75","75","","","","","","","","","grintle","voice","pseudoword","pseudoword","j","true","",""
"null","<p style=""font-size: 50px;"">+</p>","null","html-keyboard-response","91","2.1.0","611365","F=YES, J=NO","l4euv7ao43","2","75","75","75","","","","","","","","","","","","","","","",""
"null","audio/beep-329314.mp3","null","audio-keyboard-response","92","2.1.0","612896","F=YES, J=NO","l4euv7ao43","2","75","75","75","","","","","","","","","","","","","","","",""
"null","audio/kettle1.wav","null","audio-keyboard-response","93","2.1.0","613546","F=YES, J=NO","l4euv7ao43","2","75","75","75","","","","","","","","","","","","","","","",""
"894","
          <p id=""word"" style=""font-size: 40px;"">wrap</p>
          <p style=""font-size: 16px;"">F = YES &nbsp;&nbsp;&nbsp; J = NO</p>
        ","f","html-keyboard-response","94","2.1.0","614440","F=YES, J=NO","l4euv7ao43","2","75","75","75","","","","","","","","","wrap","kettle1","filler","filler","f","true","",""
"null","<p style=""font-size: 50px;"">+</p>","null","html-keyboard-response","95","2.1.0","614745","F=YES, J=NO","l4euv7ao43","2","75","75","75","","","","","","","","","","","","","","","",""
"null","audio/beep-329314.mp3","null","audio-keyboard-response","96","2.1.0","616277","F=YES, J=NO","l4euv7ao43","2","75","75","75","","","","","","","","","","","","","","","",""
"null","audio/meal.wav","null","audio-keyboard-response","97","2.1.0","616906","F=YES, J=NO","l4euv7ao43","2","75","75","75","","","","","","","","","","","","","","","",""
"688","
          <p id=""word"" style=""font-size: 40px;"">gallite</p>
          <p style=""font-size: 16px;"">F = YES &nbsp;&nbsp;&nbsp; J = NO</p>
        ","j","html-keyboard-response","98","2.1.0","617595","F=YES, J=NO","l4euv7ao43","2","75","75","75","","","","","","","","","gallite","meal","pseudoword","pseudoword","j","true","",""
"null","<p style=""font-size: 50px;"">+</p>","null","html-keyboard-response","99","2.1.0","617905","F=YES, J=NO","l4euv7ao43","2","75","75","75","","","","","","","","","","","","","","","",""
"null","audio/beep-329314.mp3","null","audio-keyboard-response","100","2.1.0","619436","F=YES, J=NO","l4euv7ao43","2","75","75","75","","","","","","","","","","","","","","","",""
"null","audio/road.wav","null","audio-keyboard-response","101","2.1.0","620246","F=YES, J=NO","l4euv7ao43","2","75","75","75","","","","","","","","","","","","","","","",""
"1180","
          <p id=""word"" style=""font-size: 40px;"">wappings</p>
          <p style=""font-size: 16px;"">F = YES &nbsp;&nbsp;&nbsp; J = NO</p>
        ","f","html-keyboard-response","102","2.1.0","621427","F=YES, J=NO","l4euv7ao43","2","75","75","75","","","","","","","","","wappings","road","pseudoword","pseudoword","j","false","",""
"null","<p style=""font-size: 50px;"">+</p>","null","html-keyboard-response","103","2.1.0","621735","F=YES, J=NO","l4euv7ao43","2","75","75","75","","","","","","","","","","","","","","","",""
"null","audio/beep-329314.mp3","null","audio-keyboard-response","104","2.1.0","623276","F=YES, J=NO","l4euv7ao43","2","75","75","75","","","","","","","","","","","","","","","",""
"null","audio/tax1.wav","null","audio-keyboard-response","105","2.1.0","624226","F=YES, J=NO","l4euv7ao43","2","75","75","75","","","","","","","","","","","","","","","",""
"1183","
          <p id=""word"" style=""font-size: 40px;"">snate</p>
          <p style=""font-size: 16px;"">F = YES &nbsp;&nbsp;&nbsp; J = NO</p>
        ","j","html-keyboard-response","106","2.1.0","625410","F=YES, J=NO","l4euv7ao43","2","75","75","75","","","","","","","","","snate","tax1","pseudoword","pseudoword","j","true","",""
"null","<p style=""font-size: 50px;"">+</p>","null","html-keyboard-response","107","2.1.0","625725","F=YES, J=NO","l4euv7ao43","2","75","75","75","","","","","","","","","","","","","","","",""
"null","audio/beep-329314.mp3","null","audio-keyboard-response","108","2.1.0","627256","F=YES, J=NO","l4euv7ao43","2","75","75","75","","","","","","","","","","","","","","","",""
"null","audio/birth1.wav","null","audio-keyboard-response","109","2.1.0","628106","F=YES, J=NO","l4euv7ao43","2","75","75","75","","","","","","","","","","","","","","","",""
"1101","
          <p id=""word"" style=""font-size: 40px;"">peel</p>
          <p style=""font-size: 16px;"">F = YES &nbsp;&nbsp;&nbsp; J = NO</p>
        ","f","html-keyboard-response","110","2.1.0","629209","F=YES, J=NO","l4euv7ao43","2","75","75","75","","","","","","","","","peel","birth1","filler","filler","f","true","",""
"null","<p style=""font-size: 50px;"">+</p>","null","html-keyboard-response","111","2.1.0","629515","F=YES, J=NO","l4euv7ao43","2","75","75","75","","","","","","","","","","","","","","","",""
"null","audio/beep-329314.mp3","null","audio-keyboard-response","112","2.1.0","631036","F=YES, J=NO","l4euv7ao43","2","75","75","75","","","","","","","","","","","","","","","",""
"null","audio/mile1.wav","null","audio-keyboard-response","113","2.1.0","631766","F=YES, J=NO","l4euv7ao43","2","75","75","75","","","","","","","","","","","","","","","",""
"937","
          <p id=""word"" style=""font-size: 40px;"">writch</p>
          <p style=""font-size: 16px;"">F = YES &nbsp;&nbsp;&nbsp; J = NO</p>
        ","f","html-keyboard-response","114","2.1.0","632705","F=YES, J=NO","l4euv7ao43","2","75","75","75","","","","","","","","","writch","mile1","pseudoword","pseudoword","j","false","",""
"2258","<p>Starting practice block 2 of 2. Press any key to continue.</p>"," ","html-keyboard-response","115","2.1.0","634964","F=YES, J=NO","l4euv7ao43","2","75","75","75","","","","","","","","","","","","","","","",""
"null","<p style=""font-size: 50px;"">+</p>","null","html-keyboard-response","116","2.1.0","635273","F=YES, J=NO","l4euv7ao43","2","75","75","75","","","","","","","","","","","","","","","",""
"null","audio/beep-329314.mp3","null","audio-keyboard-response","117","2.1.0","636797","F=YES, J=NO","l4euv7ao43","2","75","75","75","","","","","","","","","","","","","","","",""
"null","audio/alarm1.wav","null","audio-keyboard-response","118","2.1.0","637406","F=YES, J=NO","l4euv7ao43","2","75","75","75","","","","","","","","","","","","","","","",""
"747","
          <p id=""word"" style=""font-size: 40px;"">lock</p>
          <p style=""font-size: 16px;"">F = YES &nbsp;&nbsp;&nbsp; J = NO</p>
        ","j","html-keyboard-response","119","2.1.0","638154","F=YES, J=NO","l4euv7ao43","2","75","75","75","","","","","","","","","lock","alarm1","filler","filler","f","false","",""
"null","<p style=""font-size: 50px;"">+</p>","null","html-keyboard-response","120","2.1.0","638455","F=YES, J=NO","l4euv7ao43","2","75","75","75","","","","","","","","","","","","","","","",""
"null","audio/beep-329314.mp3","null","audio-keyboard-response","121","2.1.0","639997","F=YES, J=NO","l4euv7ao43","2","75","75","75","","","","","","","","","","","","","","","",""
"null","audio/menu.wav","null","audio-keyboard-response","122","2.1.0","640586","F=YES, J=NO","l4euv7ao43","2","75","75","75","","","","","","","","","","","","","","","",""
"832","
          <p id=""word"" style=""font-size: 40px;"">slice</p>
          <p style=""font-size: 16px;"">F = YES &nbsp;&nbsp;&nbsp; J = NO</p>
        ","f","html-keyboard-response","123","2.1.0","641418","F=YES, J=NO","l4euv7ao43","2","75","75","75","","","","","","","","","slice","menu","filler","filler","f","true","",""
"null","<p style=""font-size: 50px;"">+</p>","null","html-keyboard-response","124","2.1.0","641724","F=YES, J=NO","l4euv7ao43","2","75","75","75","","","","","","","","","","","","","","","",""
"null","audio/beep-329314.mp3","null","audio-keyboard-response","125","2.1.0","643256","F=YES, J=NO","l4euv7ao43","2","75","75","75","","","","","","","","","","","","","","","",""
"null","audio/ankle1.wav","null","audio-keyboard-response","126","2.1.0","643786","F=YES, J=NO","l4euv7ao43","2","75","75","75","","","","","","","","","","","","","","","",""
"1040","
          <p id=""word"" style=""font-size: 40px;"">switm</p>
          <p style=""font-size: 16px;"">F = YES &nbsp;&nbsp;&nbsp; J = NO</p>
        ","j","html-keyboard-response","127","2.1.0","644828","F=YES, J=NO","l4euv7ao43","2","75","75","75","","","","","","","","","switm","ankle1","pseudoword","pseudoword","j","true","",""
"null","<p style=""font-size: 50px;"">+</p>","null","html-keyboard-response","128","2.1.0","645135","F=YES, J=NO","l4euv7ao43","2","75","75","75","","","","","","","","","","","","","","","",""
"null","audio/beep-329314.mp3","null","audio-keyboard-response","129","2.1.0","646656","F=YES, J=NO","l4euv7ao43","2","75","75","75","","","","","","","","","","","","","","","",""
"null","audio/belief.wav","null","audio-keyboard-response","130","2.1.0","647306","F=YES, J=NO","l4euv7ao43","2","75","75","75","","","","","","","","","","","","","","","",""
"458","
          <p id=""word"" style=""font-size: 40px;"">read</p>
          <p style=""font-size: 16px;"">F = YES &nbsp;&nbsp;&nbsp; J = NO</p>
        ","f","html-keyboard-response","131","2.1.0","647765","F=YES, J=NO","l4euv7ao43","2","75","75","75","","","","","","","","","read","belief","filler","filler","f","true","",""
"null","<p style=""font-size: 50px;"">+</p>","null","html-keyboard-response","132","2.1.0","648075","F=YES, J=NO","l4euv7ao43","2","75","75","75","","","","","","","","","","","","","","","",""
"null","audio/beep-329314.mp3","null","audio-keyboard-response","133","2.1.0","649597","F=YES, J=NO","l4euv7ao43","2","75","75","75","","","","","","","","","","","","","","","",""
"null","audio/bottle.wav","null","audio-keyboard-response","134","2.1.0","650386","F=YES, J=NO","l4euv7ao43","2","75","75","75","","","","","","","","","","","","","","","",""
"464","
          <p id=""word"" style=""font-size: 40px;"">watch</p>
          <p style=""font-size: 16px;"">F = YES &nbsp;&nbsp;&nbsp; J = NO</p>
        ","f","html-keyboard-response","135","2.1.0","650851","F=YES, J=NO","l4euv7ao43","2","75","75","75","","","","","","","","","watch","bottle","filler","filler","f","true","",""
"null","<p style=""font-size: 50px;"">+</p>","null","html-keyboard-response","136","2.1.0","651165","F=YES, J=NO","l4euv7ao43","2","75","75","75","","","","","","","","","","","","","","","",""
"null","audio/beep-329314.mp3","null","audio-keyboard-response","137","2.1.0","652696","F=YES, J=NO","l4euv7ao43","2","75","75","75","","","","","","","","","","","","","","","",""
"null","audio/novel.wav","null","audio-keyboard-response","138","2.1.0","653206","F=YES, J=NO","l4euv7ao43","2","75","75","75","","","","","","","","","","","","","","","",""
"609","
          <p id=""word"" style=""font-size: 40px;"">type</p>
          <p style=""font-size: 16px;"">F = YES &nbsp;&nbsp;&nbsp; J = NO</p>
        ","f","html-keyboard-response","139","2.1.0","653817","F=YES, J=NO","l4euv7ao43","2","75","75","75","","","","","","","","","type","novel","filler","filler","f","true","",""
"null","<p style=""font-size: 50px;"">+</p>","null","html-keyboard-response","140","2.1.0","654125","F=YES, J=NO","l4euv7ao43","2","75","75","75","","","","","","","","","","","","","","","",""
"null","audio/beep-329314.mp3","null","audio-keyboard-response","141","2.1.0","655656","F=YES, J=NO","l4euv7ao43","2","75","75","75","","","","","","","","","","","","","","","",""
"null","audio/cinema1.wav","null","audio-keyboard-response","142","2.1.0","656626","F=YES, J=NO","l4euv7ao43","2","75","75","75","","","","","","","","","","","","","","","",""
"909","
          <p id=""word"" style=""font-size: 40px;"">murple</p>
          <p style=""font-size: 16px;"">F = YES &nbsp;&nbsp;&nbsp; J = NO</p>
        ","j","html-keyboard-response","143","2.1.0","657536","F=YES, J=NO","l4euv7ao43","2","75","75","75","","","","","","","","","murple","cinema1","pseudoword","pseudoword","j","true","",""
"null","<p style=""font-size: 50px;"">+</p>","null","html-keyboard-response","144","2.1.0","657845","F=YES, J=NO","l4euv7ao43","2","75","75","75","","","","","","","","","","","","","","","",""
"null","audio/beep-329314.mp3","null","audio-keyboard-response","145","2.1.0","659376","F=YES, J=NO","l4euv7ao43","2","75","75","75","","","","","","","","","","","","","","","",""
"null","audio/test1.wav","null","audio-keyboard-response","146","2.1.0","659967","F=YES, J=NO","l4euv7ao43","2","75","75","75","","","","","","","","","","","","","","","",""
"695","
          <p id=""word"" style=""font-size: 40px;"">twopch</p>
          <p style=""font-size: 16px;"">F = YES &nbsp;&nbsp;&nbsp; J = NO</p>
        ","j","html-keyboard-response","147","2.1.0","660663","F=YES, J=NO","l4euv7ao43","2","75","75","75","","","","","","","","","twopch","test1","pseudoword","pseudoword","j","true","",""
"null","<p style=""font-size: 50px;"">+</p>","null","html-keyboard-response","148","2.1.0","660965","F=YES, J=NO","l4euv7ao43","2","75","75","75","","","","","","","","","","","","","","","",""
"null","audio/beep-329314.mp3","null","audio-keyboard-response","149","2.1.0","662497","F=YES, J=NO","l4euv7ao43","2","75","75","75","","","","","","","","","","","","","","","",""
"null","audio/battle1.wav","null","audio-keyboard-response","150","2.1.0","663346","F=YES, J=NO","l4euv7ao43","2","75","75","75","","","","","","","","","","","","","","","",""
"518","
          <p id=""word"" style=""font-size: 40px;"">boil</p>
          <p style=""font-size: 16px;"">F = YES &nbsp;&nbsp;&nbsp; J = NO</p>
        ","f","html-keyboard-response","151","2.1.0","663866","F=YES, J=NO","l4euv7ao43","2","75","75","75","","","","","","","","","boil","battle1","filler","filler","f","true","",""
"null","<p style=""font-size: 50px;"">+</p>","null","html-keyboard-response","152","2.1.0","664175","F=YES, J=NO","l4euv7ao43","2","75","75","75","","","","","","","","","","","","","","","",""
"null","audio/beep-329314.mp3","null","audio-keyboard-response","153","2.1.0","665696","F=YES, J=NO","l4euv7ao43","2","75","75","75","","","","","","","","","","","","","","","",""
"null","audio/foe1.wav","null","audio-keyboard-response","154","2.1.0","666226","F=YES, J=NO","l4euv7ao43","2","75","75","75","","","","","","","","","","","","","","","",""
"1136","
          <p id=""word"" style=""font-size: 40px;"">creth</p>
          <p style=""font-size: 16px;"">F = YES &nbsp;&nbsp;&nbsp; J = NO</p>
        ","j","html-keyboard-response","155","2.1.0","667362","F=YES, J=NO","l4euv7ao43","2","75","75","75","","","","","","","","","creth","foe1","pseudoword","pseudoword","j","true","",""
"null","<p style=""font-size: 50px;"">+</p>","null","html-keyboard-response","156","2.1.0","667665","F=YES, J=NO","l4euv7ao43","2","75","75","75","","","","","","","","","","","","","","","",""
"null","audio/beep-329314.mp3","null","audio-keyboard-response","157","2.1.0","669196","F=YES, J=NO","l4euv7ao43","2","75","75","75","","","","","","","","","","","","","","","",""
"null","audio/beach1.wav","null","audio-keyboard-response","158","2.1.0","670227","F=YES, J=NO","l4euv7ao43","2","75","75","75","","","","","","","","","","","","","","","",""
"633","
          <p id=""word"" style=""font-size: 40px;"">drive</p>
          <p style=""font-size: 16px;"">F = YES &nbsp;&nbsp;&nbsp; J = NO</p>
        ","f","html-keyboard-response","159","2.1.0","670861","F=YES, J=NO","l4euv7ao43","2","75","75","75","","","","","","","","","drive","beach1","filler","filler","f","true","",""
"null","<p style=""font-size: 50px;"">+</p>","null","html-keyboard-response","160","2.1.0","671165","F=YES, J=NO","l4euv7ao43","2","75","75","75","","","","","","","","","","","","","","","",""
"null","audio/beep-329314.mp3","null","audio-keyboard-response","161","2.1.0","672696","F=YES, J=NO","l4euv7ao43","2","75","75","75","","","","","","","","","","","","","","","",""
"null","audio/stain.wav","null","audio-keyboard-response","162","2.1.0","673986","F=YES, J=NO","l4euv7ao43","2","75","75","75","","","","","","","","","","","","","","","",""
"1237","
          <p id=""word"" style=""font-size: 40px;"">rumpsied</p>
          <p style=""font-size: 16px;"">F = YES &nbsp;&nbsp;&nbsp; J = NO</p>
        ","j","html-keyboard-response","163","2.1.0","675224","F=YES, J=NO","l4euv7ao43","2","75","75","75","","","","","","","","","rumpsied","stain","pseudoword","pseudoword","j","true","",""
"10004","
    <div style=""max-width: 800px; margin: auto; text-align: left;"">
      <h2>Part 2: Main Trials</h2>
      <p>Great job on the practice trials!</p>
      <p>You will now begin the <strong>main set of trials</strong>.</p>
      <p>Remember your key assignments:</p>
      <ul>
        <li><strong>F</strong> = YES (real English word)</li>
        <li><strong>J</strong> = NO (not a real English word)</li>
      </ul>
      <p>Try to respond as <strong>quickly and accurately</strong> as possible.</p>
      <p style=""margin-top: 2em;"">Press any key to begin the main trials.</p>
    </div>
  "," ","html-keyboard-response","164","2.1.0","685230","F=YES, J=NO","l4euv7ao43","2","75","75","75","","","","","","","","","","","","","","","",""
"1232","<p>Starting main block 1 of 8. Press any key to continue.</p>"," ","html-keyboard-response","165","2.1.0","686463","F=YES, J=NO","l4euv7ao43","2","75","75","75","","","","","","","","","","","","","","","",""
"null","<p style=""font-size: 50px;"">+</p>","null","html-keyboard-response","166","2.1.0","686768","F=YES, J=NO","l4euv7ao43","2","75","75","75","","","","","","","","","","","","","","","",""
"null","audio/beep-329314.mp3","null","audio-keyboard-response","167","2.1.0","688280","F=YES, J=NO","l4euv7ao43","2","75","75","75","","","","","","","","","","","","","","","",""
"null","audio/sand.wav","null","audio-keyboard-response","168","2.1.0","688929","F=YES, J=NO","l4euv7ao43","2","75","75","75","","","","","","","","","","","","","","","",""
"677","
          <p id=""word"" style=""font-size: 40px;"">possess</p>
          <p style=""font-size: 16px;"">F = YES &nbsp;&nbsp;&nbsp; J = NO</p>
        ","f","html-keyboard-response","169","2.1.0","689607","F=YES, J=NO","l4euv7ao43","2","75","75","75","","","","","","","","","possess","sand","unrelated","experimental","f","true","",""
"null","<p style=""font-size: 50px;"">+</p>","null","html-keyboard-response","170","2.1.0","689918","F=YES, J=NO","l4euv7ao43","2","75","75","75","","","","","","","","","","","","","","","",""
"null","audio/beep-329314.mp3","null","audio-keyboard-response","171","2.1.0","691459","F=YES, J=NO","l4euv7ao43","2","75","75","75","","","","","","","","","","","","","","","",""
"null","audio/rank1.wav","null","audio-keyboard-response","172","2.1.0","692049","F=YES, J=NO","l4euv7ao43","2","75","75","75","","","","","","","","","","","","","","","",""
"917","
          <p id=""word"" style=""font-size: 40px;"">climb</p>
          <p style=""font-size: 16px;"">F = YES &nbsp;&nbsp;&nbsp; J = NO</p>
        ","f","html-keyboard-response","173","2.1.0","692967","F=YES, J=NO","l4euv7ao43","2","75","75","75","","","","","","","","","climb","rank1","metaphor","experimental","f","true","",""
"null","<p style=""font-size: 50px;"">+</p>","null","html-keyboard-response","174","2.1.0","693268","F=YES, J=NO","l4euv7ao43","2","75","75","75","","","","","","","","","","","","","","","",""
"null","audio/beep-329314.mp3","null","audio-keyboard-response","175","2.1.0","694799","F=YES, J=NO","l4euv7ao43","2","75","75","75","","","","","","","","","","","","","","","",""
"null","audio/novel.wav","null","audio-keyboard-response","176","2.1.0","695289","F=YES, J=NO","l4euv7ao43","2","75","75","75","","","","","","","","","","","","","","","",""
"743","
          <p id=""word"" style=""font-size: 40px;"">devour</p>
          <p style=""font-size: 16px;"">F = YES &nbsp;&nbsp;&nbsp; J = NO</p>
        ","j","html-keyboard-response","177","2.1.0","696033","F=YES, J=NO","l4euv7ao43","2","75","75","75","","","","","","","","","devour","novel","metaphor","experimental","f","false","",""
"null","<p style=""font-size: 50px;"">+</p>","null","html-keyboard-response","178","2.1.0","696348","F=YES, J=NO","l4euv7ao43","2","75","75","75","","","","","","","","","","","","","","","",""
"null","audio/beep-329314.mp3","null","audio-keyboard-response","179","2.1.0","697879","F=YES, J=NO","l4euv7ao43","2","75","75","75","","","","","","","","","","","","","","","",""
"null","audio/mood1.wav","null","audio-keyboard-response","180","2.1.0","698369","F=YES, J=NO","l4euv7ao43","2","75","75","75","","","","","","","","","","","","","","","",""
"734","
          <p id=""word"" style=""font-size: 40px;"">give</p>
          <p style=""font-size: 16px;"">F = YES &nbsp;&nbsp;&nbsp; J = NO</p>
        ","f","html-keyboard-response","181","2.1.0","699104","F=YES, J=NO","l4euv7ao43","2","75","75","75","","","","","","","","","give","mood1","unrelated","experimental","f","true","",""
"null","<p style=""font-size: 50px;"">+</p>","null","html-keyboard-response","182","2.1.0","699408","F=YES, J=NO","l4euv7ao43","2","75","75","75","","","","","","","","","","","","","","","",""
"null","audio/beep-329314.mp3","null","audio-keyboard-response","183","2.1.0","700939","F=YES, J=NO","l4euv7ao43","2","75","75","75","","","","","","","","","","","","","","","",""
"null","audio/neck.wav","null","audio-keyboard-response","184","2.1.0","701489","F=YES, J=NO","l4euv7ao43","2","75","75","75","","","","","","","","","","","","","","","",""
"944","
          <p id=""word"" style=""font-size: 40px;"">werling</p>
          <p style=""font-size: 16px;"">F = YES &nbsp;&nbsp;&nbsp; J = NO</p>
        ","f","html-keyboard-response","185","2.1.0","702434","F=YES, J=NO","l4euv7ao43","2","75","75","75","","","","","","","","","werling","neck","pseudoword","pseudoword","j","false","",""
"null","<p style=""font-size: 50px;"">+</p>","null","html-keyboard-response","186","2.1.0","702738","F=YES, J=NO","l4euv7ao43","2","75","75","75","","","","","","","","","","","","","","","",""
"null","audio/beep-329314.mp3","null","audio-keyboard-response","187","2.1.0","704279","F=YES, J=NO","l4euv7ao43","2","75","75","75","","","","","","","","","","","","","","","",""
"null","audio/pig.wav","null","audio-keyboard-response","188","2.1.0","704689","F=YES, J=NO","l4euv7ao43","2","75","75","75","","","","","","","","","","","","","","","",""
"671","
          <p id=""word"" style=""font-size: 40px;"">tirlike</p>
          <p style=""font-size: 16px;"">F = YES &nbsp;&nbsp;&nbsp; J = NO</p>
        ","j","html-keyboard-response","189","2.1.0","705361","F=YES, J=NO","l4euv7ao43","2","75","75","75","","","","","","","","","tirlike","pig","pseudoword","pseudoword","j","true","",""
"null","<p style=""font-size: 50px;"">+</p>","null","html-keyboard-response","190","2.1.0","705668","F=YES, J=NO","l4euv7ao43","2","75","75","75","","","","","","","","","","","","","","","",""
"null","audio/beep-329314.mp3","null","audio-keyboard-response","191","2.1.0","707199","F=YES, J=NO","l4euv7ao43","2","75","75","75","","","","","","","","","","","","","","","",""
"null","audio/handle.wav","null","audio-keyboard-response","192","2.1.0","707849","F=YES, J=NO","l4euv7ao43","2","75","75","75","","","","","","","","","","","","","","","",""
"919","
          <p id=""word"" style=""font-size: 40px;"">moutes</p>
          <p style=""font-size: 16px;"">F = YES &nbsp;&nbsp;&nbsp; J = NO</p>
        ","j","html-keyboard-response","193","2.1.0","708769","F=YES, J=NO","l4euv7ao43","2","75","75","75","","","","","","","","","moutes","handle","pseudoword","pseudoword","j","true","",""
"null","<p style=""font-size: 50px;"">+</p>","null","html-keyboard-response","194","2.1.0","709078","F=YES, J=NO","l4euv7ao43","2","75","75","75","","","","","","","","","","","","","","","",""
"null","audio/beep-329314.mp3","null","audio-keyboard-response","195","2.1.0","710619","F=YES, J=NO","l4euv7ao43","2","75","75","75","","","","","","","","","","","","","","","",""
"null","audio/bush1.wav","null","audio-keyboard-response","196","2.1.0","711109","F=YES, J=NO","l4euv7ao43","2","75","75","75","","","","","","","","","","","","","","","",""
"846","
          <p id=""word"" style=""font-size: 40px;"">platined</p>
          <p style=""font-size: 16px;"">F = YES &nbsp;&nbsp;&nbsp; J = NO</p>
        ","f","html-keyboard-response","197","2.1.0","711956","F=YES, J=NO","l4euv7ao43","2","75","75","75","","","","","","","","","platined","bush1","pseudoword","pseudoword","j","false","",""
"null","<p style=""font-size: 50px;"">+</p>","null","html-keyboard-response","198","2.1.0","712268","F=YES, J=NO","l4euv7ao43","2","75","75","75","","","","","","","","","","","","","","","",""
"null","audio/beep-329314.mp3","null","audio-keyboard-response","199","2.1.0","713799","F=YES, J=NO","l4euv7ao43","2","75","75","75","","","","","","","","","","","","","","","",""
"null","audio/essence1.wav","null","audio-keyboard-response","200","2.1.0","714489","F=YES, J=NO","l4euv7ao43","2","75","75","75","","","","","","","","","","","","","","","",""
"832","
          <p id=""word"" style=""font-size: 40px;"">grasp</p>
          <p style=""font-size: 16px;"">F = YES &nbsp;&nbsp;&nbsp; J = NO</p>
        ","f","html-keyboard-response","201","2.1.0","715322","F=YES, J=NO","l4euv7ao43","2","75","75","75","","","","","","","","","grasp","essence1","metaphor","experimental","f","true","",""
"null","<p style=""font-size: 50px;"">+</p>","null","html-keyboard-response","202","2.1.0","715628","F=YES, J=NO","l4euv7ao43","2","75","75","75","","","","","","","","","","","","","","","",""
"null","audio/beep-329314.mp3","null","audio-keyboard-response","203","2.1.0","717159","F=YES, J=NO","l4euv7ao43","2","75","75","75","","","","","","","","","","","","","","","",""
"null","audio/cancer1.wav","null","audio-keyboard-response","204","2.1.0","717729","F=YES, J=NO","l4euv7ao43","2","75","75","75","","","","","","","","","","","","","","","",""
"885","
          <p id=""word"" style=""font-size: 40px;"">draw</p>
          <p style=""font-size: 16px;"">F = YES &nbsp;&nbsp;&nbsp; J = NO</p>
        ","f","html-keyboard-response","205","2.1.0","718615","F=YES, J=NO","l4euv7ao43","2","75","75","75","","","","","","","","","draw","cancer1","filler","filler","f","true","",""
"null","<p style=""font-size: 50px;"">+</p>","null","html-keyboard-response","206","2.1.0","718918","F=YES, J=NO","l4euv7ao43","2","75","75","75","","","","","","","","","","","","","","","",""
"null","audio/beep-329314.mp3","null","audio-keyboard-response","207","2.1.0","720439","F=YES, J=NO","l4euv7ao43","2","75","75","75","","","","","","","","","","","","","","","",""
"null","audio/pig.wav","null","audio-keyboard-response","208","2.1.0","720829","F=YES, J=NO","l4euv7ao43","2","75","75","75","","","","","","","","","","","","","","","",""
"709","
          <p id=""word"" style=""font-size: 40px;"">feed</p>
          <p style=""font-size: 16px;"">F = YES &nbsp;&nbsp;&nbsp; J = NO</p>
        ","f","html-keyboard-response","209","2.1.0","721539","F=YES, J=NO","l4euv7ao43","2","75","75","75","","","","","","","","","feed","pig","literal","experimental","f","true","",""
"null","<p style=""font-size: 50px;"">+</p>","null","html-keyboard-response","210","2.1.0","721847","F=YES, J=NO","l4euv7ao43","2","75","75","75","","","","","","","","","","","","","","","",""
"null","audio/beep-329314.mp3","null","audio-keyboard-response","211","2.1.0","723379","F=YES, J=NO","l4euv7ao43","2","75","75","75","","","","","","","","","","","","","","","",""
"null","audio/hawk1.wav","null","audio-keyboard-response","212","2.1.0","723989","F=YES, J=NO","l4euv7ao43","2","75","75","75","","","","","","","","","","","","","","","",""
"1000","
          <p id=""word"" style=""font-size: 40px;"">wipe</p>
          <p style=""font-size: 16px;"">F = YES &nbsp;&nbsp;&nbsp; J = NO</p>
        ","f","html-keyboard-response","213","2.1.0","724990","F=YES, J=NO","l4euv7ao43","2","75","75","75","","","","","","","","","wipe","hawk1","unrelated","experimental","f","true","",""
"null","<p style=""font-size: 50px;"">+</p>","null","html-keyboard-response","214","2.1.0","725298","F=YES, J=NO","l4euv7ao43","2","75","75","75","","","","","","","","","","","","","","","",""
"null","audio/beep-329314.mp3","null","audio-keyboard-response","215","2.1.0","726819","F=YES, J=NO","l4euv7ao43","2","75","75","75","","","","","","","","","","","","","","","",""
"null","audio/bomb1.wav","null","audio-keyboard-response","216","2.1.0","727229","F=YES, J=NO","l4euv7ao43","2","75","75","75","","","","","","","","","","","","","","","",""
"777","
          <p id=""word"" style=""font-size: 40px;"">clean</p>
          <p style=""font-size: 16px;"">F = YES &nbsp;&nbsp;&nbsp; J = NO</p>
        ","f","html-keyboard-response","217","2.1.0","728007","F=YES, J=NO","l4euv7ao43","2","75","75","75","","","","","","","","","clean","bomb1","filler","filler","f","true","",""
"null","<p style=""font-size: 50px;"">+</p>","null","html-keyboard-response","218","2.1.0","728318","F=YES, J=NO","l4euv7ao43","2","75","75","75","","","","","","","","","","","","","","","",""
"null","audio/beep-329314.mp3","null","audio-keyboard-response","219","2.1.0","729859","F=YES, J=NO","l4euv7ao43","2","75","75","75","","","","","","","","","","","","","","","",""
"null","audio/ship.wav","null","audio-keyboard-response","220","2.1.0","730409","F=YES, J=NO","l4euv7ao43","2","75","75","75","","","","","","","","","","","","","","","",""
"933","
          <p id=""word"" style=""font-size: 40px;"">scrap</p>
          <p style=""font-size: 16px;"">F = YES &nbsp;&nbsp;&nbsp; J = NO</p>
        ","f","html-keyboard-response","221","2.1.0","731343","F=YES, J=NO","l4euv7ao43","2","75","75","75","","","","","","","","","scrap","ship","literal","experimental","f","true","",""
"null","<p style=""font-size: 50px;"">+</p>","null","html-keyboard-response","222","2.1.0","731647","F=YES, J=NO","l4euv7ao43","2","75","75","75","","","","","","","","","","","","","","","",""
"null","audio/beep-329314.mp3","null","audio-keyboard-response","223","2.1.0","733179","F=YES, J=NO","l4euv7ao43","2","75","75","75","","","","","","","","","","","","","","","",""
"null","audio/strength.wav","null","audio-keyboard-response","224","2.1.0","733929","F=YES, J=NO","l4euv7ao43","2","75","75","75","","","","","","","","","","","","","","","",""
"1056","
          <p id=""word"" style=""font-size: 40px;"">plabet</p>
          <p style=""font-size: 16px;"">F = YES &nbsp;&nbsp;&nbsp; J = NO</p>
        ","j","html-keyboard-response","225","2.1.0","734986","F=YES, J=NO","l4euv7ao43","2","75","75","75","","","","","","","","","plabet","strength","pseudoword","pseudoword","j","true","",""
"null","<p style=""font-size: 50px;"">+</p>","null","html-keyboard-response","226","2.1.0","735298","F=YES, J=NO","l4euv7ao43","2","75","75","75","","","","","","","","","","","","","","","",""
"null","audio/beep-329314.mp3","null","audio-keyboard-response","227","2.1.0","736819","F=YES, J=NO","l4euv7ao43","2","75","75","75","","","","","","","","","","","","","","","",""
"null","audio/purpose.wav","null","audio-keyboard-response","228","2.1.0","737509","F=YES, J=NO","l4euv7ao43","2","75","75","75","","","","","","","","","","","","","","","",""
"798","
          <p id=""word"" style=""font-size: 40px;"">whigm</p>
          <p style=""font-size: 16px;"">F = YES &nbsp;&nbsp;&nbsp; J = NO</p>
        ","j","html-keyboard-response","229","2.1.0","738309","F=YES, J=NO","l4euv7ao43","2","75","75","75","","","","","","","","","whigm","purpose","pseudoword","pseudoword","j","true","",""
"11886","<p>Excellent! You have finished block 1 of 8.</p>
                     <p>Feel free to take a 30 second break.</p>
                     <p>Press any key when you're ready to continue.</p>"," ","html-keyboard-response","230","2.1.0","750195","F=YES, J=NO","l4euv7ao43","2","75","75","75","","","","","","","","","","","","","","","",""
"3867","<p>Starting main block 2 of 8. Press any key to continue.</p>"," ","html-keyboard-response","231","2.1.0","754062","F=YES, J=NO","l4euv7ao43","2","75","75","75","","","","","","","","","","","","","","","",""
"null","<p style=""font-size: 50px;"">+</p>","null","html-keyboard-response","232","2.1.0","754375","F=YES, J=NO","l4euv7ao43","2","75","75","75","","","","","","","","","","","","","","","",""
"null","audio/beep-329314.mp3","null","audio-keyboard-response","233","2.1.0","755934","F=YES, J=NO","l4euv7ao43","2","75","75","75","","","","","","","","","","","","","","","",""
"null","audio/grass.wav","null","audio-keyboard-response","234","2.1.0","756594","F=YES, J=NO","l4euv7ao43","2","75","75","75","","","","","","","","","","","","","","","",""
"890","
          <p id=""word"" style=""font-size: 40px;"">cut</p>
          <p style=""font-size: 16px;"">F = YES &nbsp;&nbsp;&nbsp; J = NO</p>
        ","f","html-keyboard-response","235","2.1.0","757484","F=YES, J=NO","l4euv7ao43","2","75","75","75","","","","","","","","","cut","grass","literal","experimental","f","true","",""
"null","<p style=""font-size: 50px;"">+</p>","null","html-keyboard-response","236","2.1.0","757802","F=YES, J=NO","l4euv7ao43","2","75","75","75","","","","","","","","","","","","","","","",""
"null","audio/beep-329314.mp3","null","audio-keyboard-response","237","2.1.0","759334","F=YES, J=NO","l4euv7ao43","2","75","75","75","","","","","","","","","","","","","","","",""
"null","audio/arm.wav","null","audio-keyboard-response","238","2.1.0","759873","F=YES, J=NO","l4euv7ao43","2","75","75","75","","","","","","","","","","","","","","","",""
"702","
          <p id=""word"" style=""font-size: 40px;"">pigne</p>
          <p style=""font-size: 16px;"">F = YES &nbsp;&nbsp;&nbsp; J = NO</p>
        ","j","html-keyboard-response","239","2.1.0","760577","F=YES, J=NO","l4euv7ao43","2","75","75","75","","","","","","","","","pigne","arm","pseudoword","pseudoword","j","true","",""
"null","<p style=""font-size: 50px;"">+</p>","null","html-keyboard-response","240","2.1.0","760881","F=YES, J=NO","l4euv7ao43","2","75","75","75","","","","","","","","","","","","","","","",""
"null","audio/beep-329314.mp3","null","audio-keyboard-response","241","2.1.0","762414","F=YES, J=NO","l4euv7ao43","2","75","75","75","","","","","","","","","","","","","","","",""
"null","audio/pride1.wav","null","audio-keyboard-response","242","2.1.0","762981","F=YES, J=NO","l4euv7ao43","2","75","75","75","","","","","","","","","","","","","","","",""
"572","
          <p id=""word"" style=""font-size: 40px;"">hurt</p>
          <p style=""font-size: 16px;"">F = YES &nbsp;&nbsp;&nbsp; J = NO</p>
        ","f","html-keyboard-response","243","2.1.0","763555","F=YES, J=NO","l4euv7ao43","2","75","75","75","","","","","","","","","hurt","pride1","metaphor","experimental","f","true","",""
"null","<p style=""font-size: 50px;"">+</p>","null","html-keyboard-response","244","2.1.0","763863","F=YES, J=NO","l4euv7ao43","2","75","75","75","","","","","","","","","","","","","","","",""
"null","audio/beep-329314.mp3","null","audio-keyboard-response","245","2.1.0","765394","F=YES, J=NO","l4euv7ao43","2","75","75","75","","","","","","","","","","","","","","","",""
"null","audio/dollar.wav","null","audio-keyboard-response","246","2.1.0","765795","F=YES, J=NO","l4euv7ao43","2","75","75","75","","","","","","","","","","","","","","","",""
"518","
          <p id=""word"" style=""font-size: 40px;"">save</p>
          <p style=""font-size: 16px;"">F = YES &nbsp;&nbsp;&nbsp; J = NO</p>
        ","f","html-keyboard-response","247","2.1.0","766314","F=YES, J=NO","l4euv7ao43","2","75","75","75","","","","","","","","","save","dollar","literal","experimental","f","true","",""
"null","<p style=""font-size: 50px;"">+</p>","null","html-keyboard-response","248","2.1.0","766623","F=YES, J=NO","l4euv7ao43","2","75","75","75","","","","","","","","","","","","","","","",""
"null","audio/beep-329314.mp3","null","audio-keyboard-response","249","2.1.0","768154","F=YES, J=NO","l4euv7ao43","2","75","75","75","","","","","","","","","","","","","","","",""
"null","audio/test1.wav","null","audio-keyboard-response","250","2.1.0","768741","F=YES, J=NO","l4euv7ao43","2","75","75","75","","","","","","","","","","","","","","","",""
"615","
          <p id=""word"" style=""font-size: 40px;"">run</p>
          <p style=""font-size: 16px;"">F = YES &nbsp;&nbsp;&nbsp; J = NO</p>
        ","f","html-keyboard-response","251","2.1.0","769358","F=YES, J=NO","l4euv7ao43","2","75","75","75","","","","","","","","","run","test1","metaphor","experimental","f","true","",""
"null","<p style=""font-size: 50px;"">+</p>","null","html-keyboard-response","252","2.1.0","769663","F=YES, J=NO","l4euv7ao43","2","75","75","75","","","","","","","","","","","","","","","",""
"null","audio/beep-329314.mp3","null","audio-keyboard-response","253","2.1.0","771194","F=YES, J=NO","l4euv7ao43","2","75","75","75","","","","","","","","","","","","","","","",""
"null","audio/golf1.wav","null","audio-keyboard-response","254","2.1.0","771754","F=YES, J=NO","l4euv7ao43","2","75","75","75","","","","","","","","","","","","","","","",""
"1001","
          <p id=""word"" style=""font-size: 40px;"">bury</p>
          <p style=""font-size: 16px;"">F = YES &nbsp;&nbsp;&nbsp; J = NO</p>
        ","f","html-keyboard-response","255","2.1.0","772756","F=YES, J=NO","l4euv7ao43","2","75","75","75","","","","","","","","","bury","golf1","unrelated","experimental","f","true","",""
"null","<p style=""font-size: 50px;"">+</p>","null","html-keyboard-response","256","2.1.0","773074","F=YES, J=NO","l4euv7ao43","2","75","75","75","","","","","","","","","","","","","","","",""
"null","audio/beep-329314.mp3","null","audio-keyboard-response","257","2.1.0","774614","F=YES, J=NO","l4euv7ao43","2","75","75","75","","","","","","","","","","","","","","","",""
"null","audio/gossip1.wav","null","audio-keyboard-response","258","2.1.0","775254","F=YES, J=NO","l4euv7ao43","2","75","75","75","","","","","","","","","","","","","","","",""
"747","
          <p id=""word"" style=""font-size: 40px;"">camerish</p>
          <p style=""font-size: 16px;"">F = YES &nbsp;&nbsp;&nbsp; J = NO</p>
        ","j","html-keyboard-response","259","2.1.0","776002","F=YES, J=NO","l4euv7ao43","2","75","75","75","","","","","","","","","camerish","gossip1","pseudoword","pseudoword","j","true","",""
"null","<p style=""font-size: 50px;"">+</p>","null","html-keyboard-response","260","2.1.0","776313","F=YES, J=NO","l4euv7ao43","2","75","75","75","","","","","","","","","","","","","","","",""
"null","audio/beep-329314.mp3","null","audio-keyboard-response","261","2.1.0","777854","F=YES, J=NO","l4euv7ao43","2","75","75","75","","","","","","","","","","","","","","","",""
"null","audio/age1.wav","null","audio-keyboard-response","262","2.1.0","778434","F=YES, J=NO","l4euv7ao43","2","75","75","75","","","","","","","","","","","","","","","",""
"696","
          <p id=""word"" style=""font-size: 40px;"">lachry</p>
          <p style=""font-size: 16px;"">F = YES &nbsp;&nbsp;&nbsp; J = NO</p>
        ","j","html-keyboard-response","263","2.1.0","779131","F=YES, J=NO","l4euv7ao43","2","75","75","75","","","","","","","","","lachry","age1","pseudoword","pseudoword","j","true","",""
"null","<p style=""font-size: 50px;"">+</p>","null","html-keyboard-response","264","2.1.0","779433","F=YES, J=NO","l4euv7ao43","2","75","75","75","","","","","","","","","","","","","","","",""
"null","audio/beep-329314.mp3","null","audio-keyboard-response","265","2.1.0","780974","F=YES, J=NO","l4euv7ao43","2","75","75","75","","","","","","","","","","","","","","","",""
"null","audio/van1.wav","null","audio-keyboard-response","266","2.1.0","781501","F=YES, J=NO","l4euv7ao43","2","75","75","75","","","","","","","","","","","","","","","",""
"605","
          <p id=""word"" style=""font-size: 40px;"">push</p>
          <p style=""font-size: 16px;"">F = YES &nbsp;&nbsp;&nbsp; J = NO</p>
        ","f","html-keyboard-response","267","2.1.0","782107","F=YES, J=NO","l4euv7ao43","2","75","75","75","","","","","","","","","push","van1","filler","filler","f","true","",""
"null","<p style=""font-size: 50px;"">+</p>","null","html-keyboard-response","268","2.1.0","782421","F=YES, J=NO","l4euv7ao43","2","75","75","75","","","","","","","","","","","","","","","",""
"null","audio/beep-329314.mp3","null","audio-keyboard-response","269","2.1.0","783962","F=YES, J=NO","l4euv7ao43","2","75","75","75","","","","","","","","","","","","","","","",""
"null","audio/cloud1.wav","null","audio-keyboard-response","270","2.1.0","784534","F=YES, J=NO","l4euv7ao43","2","75","75","75","","","","","","","","","","","","","","","",""
"701","
          <p id=""word"" style=""font-size: 40px;"">brotant</p>
          <p style=""font-size: 16px;"">F = YES &nbsp;&nbsp;&nbsp; J = NO</p>
        ","j","html-keyboard-response","271","2.1.0","785236","F=YES, J=NO","l4euv7ao43","2","75","75","75","","","","","","","","","brotant","cloud1","pseudoword","pseudoword","j","true","",""
"null","<p style=""font-size: 50px;"">+</p>","null","html-keyboard-response","272","2.1.0","785543","F=YES, J=NO","l4euv7ao43","2","75","75","75","","","","","","","","","","","","","","","",""
"null","audio/beep-329314.mp3","null","audio-keyboard-response","273","2.1.0","787082","F=YES, J=NO","l4euv7ao43","2","75","75","75","","","","","","","","","","","","","","","",""
"null","audio/tomato.wav","null","audio-keyboard-response","274","2.1.0","787773","F=YES, J=NO","l4euv7ao43","2","75","75","75","","","","","","","","","","","","","","","",""
"742","
          <p id=""word"" style=""font-size: 40px;"">grow</p>
          <p style=""font-size: 16px;"">F = YES &nbsp;&nbsp;&nbsp; J = NO</p>
        ","f","html-keyboard-response","275","2.1.0","788516","F=YES, J=NO","l4euv7ao43","2","75","75","75","","","","","","","","","grow","tomato","literal","experimental","f","true","",""
"null","<p style=""font-size: 50px;"">+</p>","null","html-keyboard-response","276","2.1.0","788823","F=YES, J=NO","l4euv7ao43","2","75","75","75","","","","","","","","","","","","","","","",""
"null","audio/beep-329314.mp3","null","audio-keyboard-response","277","2.1.0","790354","F=YES, J=NO","l4euv7ao43","2","75","75","75","","","","","","","","","","","","","","","",""
"null","audio/show.wav","null","audio-keyboard-response","278","2.1.0","790901","F=YES, J=NO","l4euv7ao43","2","75","75","75","","","","","","","","","","","","","","","",""
"658","
          <p id=""word"" style=""font-size: 40px;"">smark</p>
          <p style=""font-size: 16px;"">F = YES &nbsp;&nbsp;&nbsp; J = NO</p>
        ","j","html-keyboard-response","279","2.1.0","791560","F=YES, J=NO","l4euv7ao43","2","75","75","75","","","","","","","","","smark","show","pseudoword","pseudoword","j","true","",""
"null","<p style=""font-size: 50px;"">+</p>","null","html-keyboard-response","280","2.1.0","791863","F=YES, J=NO","l4euv7ao43","2","75","75","75","","","","","","","","","","","","","","","",""
"null","audio/beep-329314.mp3","null","audio-keyboard-response","281","2.1.0","793394","F=YES, J=NO","l4euv7ao43","2","75","75","75","","","","","","","","","","","","","","","",""
"null","audio/foot1.wav","null","audio-keyboard-response","282","2.1.0","793954","F=YES, J=NO","l4euv7ao43","2","75","75","75","","","","","","","","","","","","","","","",""
"747","
          <p id=""word"" style=""font-size: 40px;"">thrutt</p>
          <p style=""font-size: 16px;"">F = YES &nbsp;&nbsp;&nbsp; J = NO</p>
        ","j","html-keyboard-response","283","2.1.0","794701","F=YES, J=NO","l4euv7ao43","2","75","75","75","","","","","","","","","thrutt","foot1","pseudoword","pseudoword","j","true","",""
"null","<p style=""font-size: 50px;"">+</p>","null","html-keyboard-response","284","2.1.0","795003","F=YES, J=NO","l4euv7ao43","2","75","75","75","","","","","","","","","","","","","","","",""
"null","audio/beep-329314.mp3","null","audio-keyboard-response","285","2.1.0","796534","F=YES, J=NO","l4euv7ao43","2","75","75","75","","","","","","","","","","","","","","","",""
"null","audio/truth1.wav","null","audio-keyboard-response","286","2.1.0","797121","F=YES, J=NO","l4euv7ao43","2","75","75","75","","","","","","","","","","","","","","","",""
"718","
          <p id=""word"" style=""font-size: 40px;"">expose</p>
          <p style=""font-size: 16px;"">F = YES &nbsp;&nbsp;&nbsp; J = NO</p>
        ","f","html-keyboard-response","287","2.1.0","797840","F=YES, J=NO","l4euv7ao43","2","75","75","75","","","","","","","","","expose","truth1","metaphor","experimental","f","true","",""
"null","<p style=""font-size: 50px;"">+</p>","null","html-keyboard-response","288","2.1.0","798143","F=YES, J=NO","l4euv7ao43","2","75","75","75","","","","","","","","","","","","","","","",""
"null","audio/beep-329314.mp3","null","audio-keyboard-response","289","2.1.0","799674","F=YES, J=NO","l4euv7ao43","2","75","75","75","","","","","","","","","","","","","","","",""
"null","audio/pine.wav","null","audio-keyboard-response","290","2.1.0","800174","F=YES, J=NO","l4euv7ao43","2","75","75","75","","","","","","","","","","","","","","","",""
"858","
          <p id=""word"" style=""font-size: 40px;"">crebble</p>
          <p style=""font-size: 16px;"">F = YES &nbsp;&nbsp;&nbsp; J = NO</p>
        ","f","html-keyboard-response","291","2.1.0","801034","F=YES, J=NO","l4euv7ao43","2","75","75","75","","","","","","","","","crebble","pine","pseudoword","pseudoword","j","false","",""
"null","<p style=""font-size: 50px;"">+</p>","null","html-keyboard-response","292","2.1.0","801353","F=YES, J=NO","l4euv7ao43","2","75","75","75","","","","","","","","","","","","","","","",""
"null","audio/beep-329314.mp3","null","audio-keyboard-response","293","2.1.0","802894","F=YES, J=NO","l4euv7ao43","2","75","75","75","","","","","","","","","","","","","","","",""
"null","audio/scar.wav","null","audio-keyboard-response","294","2.1.0","803494","F=YES, J=NO","l4euv7ao43","2","75","75","75","","","","","","","","","","","","","","","",""
"833","
          <p id=""word"" style=""font-size: 40px;"">adelineate</p>
          <p style=""font-size: 16px;"">F = YES &nbsp;&nbsp;&nbsp; J = NO</p>
        ","j","html-keyboard-response","295","2.1.0","804328","F=YES, J=NO","l4euv7ao43","2","75","75","75","","","","","","","","","adelineate","scar","pseudoword","pseudoword","j","true","",""
"5546","<p>Excellent! You have finished block 2 of 8.</p>
                     <p>Feel free to take a 30 second break.</p>
                     <p>Press any key when you're ready to continue.</p>"," ","html-keyboard-response","296","2.1.0","809874","F=YES, J=NO","l4euv7ao43","2","75","75","75","","","","","","","","","","","","","","","",""
"1819","<p>Starting main block 3 of 8. Press any key to continue.</p>"," ","html-keyboard-response","297","2.1.0","811693","F=YES, J=NO","l4euv7ao43","2","75","75","75","","","","","","","","","","","","","","","",""
"null","<p style=""font-size: 50px;"">+</p>","null","html-keyboard-response","298","2.1.0","812003","F=YES, J=NO","l4euv7ao43","2","75","75","75","","","","","","","","","","","","","","","",""
"null","audio/beep-329314.mp3","null","audio-keyboard-response","299","2.1.0","813534","F=YES, J=NO","l4euv7ao43","2","75","75","75","","","","","","","","","","","","","","","",""
"null","audio/emotion.wav","null","audio-keyboard-response","300","2.1.0","814184","F=YES, J=NO","l4euv7ao43","2","75","75","75","","","","","","","","","","","","","","","",""
"733","
          <p id=""word"" style=""font-size: 40px;"">devering</p>
          <p style=""font-size: 16px;"">F = YES &nbsp;&nbsp;&nbsp; J = NO</p>
        ","j","html-keyboard-response","301","2.1.0","814917","F=YES, J=NO","l4euv7ao43","2","75","75","75","","","","","","","","","devering","emotion","pseudoword","pseudoword","j","true","",""
"null","<p style=""font-size: 50px;"">+</p>","null","html-keyboard-response","302","2.1.0","815223","F=YES, J=NO","l4euv7ao43","2","75","75","75","","","","","","","","","","","","","","","",""
"null","audio/beep-329314.mp3","null","audio-keyboard-response","303","2.1.0","816754","F=YES, J=NO","l4euv7ao43","2","75","75","75","","","","","","","","","","","","","","","",""
"null","audio/fear.wav","null","audio-keyboard-response","304","2.1.0","817304","F=YES, J=NO","l4euv7ao43","2","75","75","75","","","","","","","","","","","","","","","",""
"716","
          <p id=""word"" style=""font-size: 40px;"">spread</p>
          <p style=""font-size: 16px;"">F = YES &nbsp;&nbsp;&nbsp; J = NO</p>
        ","f","html-keyboard-response","305","2.1.0","818021","F=YES, J=NO","l4euv7ao43","2","75","75","75","","","","","","","","","spread","fear","metaphor","experimental","f","true","",""
"null","<p style=""font-size: 50px;"">+</p>","null","html-keyboard-response","306","2.1.0","818322","F=YES, J=NO","l4euv7ao43","2","75","75","75","","","","","","","","","","","","","","","",""
"null","audio/beep-329314.mp3","null","audio-keyboard-response","307","2.1.0","819854","F=YES, J=NO","l4euv7ao43","2","75","75","75","","","","","","","","","","","","","","","",""
"null","audio/pattern.wav","null","audio-keyboard-response","308","2.1.0","820384","F=YES, J=NO","l4euv7ao43","2","75","75","75","","","","","","","","","","","","","","","",""
"782","
          <p id=""word"" style=""font-size: 40px;"">tug</p>
          <p style=""font-size: 16px;"">F = YES &nbsp;&nbsp;&nbsp; J = NO</p>
        ","j","html-keyboard-response","309","2.1.0","821167","F=YES, J=NO","l4euv7ao43","2","75","75","75","","","","","","","","","tug","pattern","filler","filler","f","false","",""
"null","<p style=""font-size: 50px;"">+</p>","null","html-keyboard-response","310","2.1.0","821472","F=YES, J=NO","l4euv7ao43","2","75","75","75","","","","","","","","","","","","","","","",""
"null","audio/beep-329314.mp3","null","audio-keyboard-response","311","2.1.0","822994","F=YES, J=NO","l4euv7ao43","2","75","75","75","","","","","","","","","","","","","","","",""
"null","audio/burden.wav","null","audio-keyboard-response","312","2.1.0","823523","F=YES, J=NO","l4euv7ao43","2","75","75","75","","","","","","","","","","","","","","","",""
"797","
          <p id=""word"" style=""font-size: 40px;"">whotth</p>
          <p style=""font-size: 16px;"">F = YES &nbsp;&nbsp;&nbsp; J = NO</p>
        ","j","html-keyboard-response","313","2.1.0","824322","F=YES, J=NO","l4euv7ao43","2","75","75","75","","","","","","","","","whotth","burden","pseudoword","pseudoword","j","true","",""
"null","<p style=""font-size: 50px;"">+</p>","null","html-keyboard-response","314","2.1.0","824631","F=YES, J=NO","l4euv7ao43","2","75","75","75","","","","","","","","","","","","","","","",""
"null","audio/beep-329314.mp3","null","audio-keyboard-response","315","2.1.0","826154","F=YES, J=NO","l4euv7ao43","2","75","75","75","","","","","","","","","","","","","","","",""
"null","audio/bridge.wav","null","audio-keyboard-response","316","2.1.0","826704","F=YES, J=NO","l4euv7ao43","2","75","75","75","","","","","","","","","","","","","","","",""
"576","
          <p id=""word"" style=""font-size: 40px;"">crack</p>
          <p style=""font-size: 16px;"">F = YES &nbsp;&nbsp;&nbsp; J = NO</p>
        ","f","html-keyboard-response","317","2.1.0","827281","F=YES, J=NO","l4euv7ao43","2","75","75","75","","","","","","","","","crack","bridge","filler","filler","f","true","",""
"null","<p style=""font-size: 50px;"">+</p>","null","html-keyboard-response","318","2.1.0","827584","F=YES, J=NO","l4euv7ao43","2","75","75","75","","","","","","","","","","","","","","","",""
"null","audio/beep-329314.mp3","null","audio-keyboard-response","319","2.1.0","829114","F=YES, J=NO","l4euv7ao43","2","75","75","75","","","","","","","","","","","","","","","",""
"null","audio/corpse1.wav","null","audio-keyboard-response","320","2.1.0","829771","F=YES, J=NO","l4euv7ao43","2","75","75","75","","","","","","","","","","","","","","","",""
"863","
          <p id=""word"" style=""font-size: 40px;"">glonet</p>
          <p style=""font-size: 16px;"">F = YES &nbsp;&nbsp;&nbsp; J = NO</p>
        ","j","html-keyboard-response","321","2.1.0","830636","F=YES, J=NO","l4euv7ao43","2","75","75","75","","","","","","","","","glonet","corpse1","pseudoword","pseudoword","j","true","",""
"null","<p style=""font-size: 50px;"">+</p>","null","html-keyboard-response","322","2.1.0","830942","F=YES, J=NO","l4euv7ao43","2","75","75","75","","","","","","","","","","","","","","","",""
"null","audio/beep-329314.mp3","null","audio-keyboard-response","323","2.1.0","832474","F=YES, J=NO","l4euv7ao43","2","75","75","75","","","","","","","","","","","","","","","",""
"null","audio/account1.wav","null","audio-keyboard-response","324","2.1.0","833164","F=YES, J=NO","l4euv7ao43","2","75","75","75","","","","","","","","","","","","","","","",""
"520","
          <p id=""word"" style=""font-size: 40px;"">paint</p>
          <p style=""font-size: 16px;"">F = YES &nbsp;&nbsp;&nbsp; J = NO</p>
        ","f","html-keyboard-response","325","2.1.0","833685","F=YES, J=NO","l4euv7ao43","2","75","75","75","","","","","","","","","paint","account1","filler","filler","f","true","",""
"null","<p style=""font-size: 50px;"">+</p>","null","html-keyboard-response","326","2.1.0","834003","F=YES, J=NO","l4euv7ao43","2","75","75","75","","","","","","","","","","","","","","","",""
"null","audio/beep-329314.mp3","null","audio-keyboard-response","327","2.1.0","835534","F=YES, J=NO","l4euv7ao43","2","75","75","75","","","","","","","","","","","","","","","",""
"null","audio/tunnel.wav","null","audio-keyboard-response","328","2.1.0","835984","F=YES, J=NO","l4euv7ao43","2","75","75","75","","","","","","","","","","","","","","","",""
"1136","
          <p id=""word"" style=""font-size: 40px;"">gred</p>
          <p style=""font-size: 16px;"">F = YES &nbsp;&nbsp;&nbsp; J = NO</p>
        ","j","html-keyboard-response","329","2.1.0","837121","F=YES, J=NO","l4euv7ao43","2","75","75","75","","","","","","","","","gred","tunnel","pseudoword","pseudoword","j","true","",""
"null","<p style=""font-size: 50px;"">+</p>","null","html-keyboard-response","330","2.1.0","837423","F=YES, J=NO","l4euv7ao43","2","75","75","75","","","","","","","","","","","","","","","",""
"null","audio/beep-329314.mp3","null","audio-keyboard-response","331","2.1.0","838954","F=YES, J=NO","l4euv7ao43","2","75","75","75","","","","","","","","","","","","","","","",""
"null","audio/budget1.wav","null","audio-keyboard-response","332","2.1.0","839585","F=YES, J=NO","l4euv7ao43","2","75","75","75","","","","","","","","","","","","","","","",""
"1059","
          <p id=""word"" style=""font-size: 40px;"">sulist</p>
          <p style=""font-size: 16px;"">F = YES &nbsp;&nbsp;&nbsp; J = NO</p>
        ","j","html-keyboard-response","333","2.1.0","840645","F=YES, J=NO","l4euv7ao43","2","75","75","75","","","","","","","","","sulist","budget1","pseudoword","pseudoword","j","true","",""
"null","<p style=""font-size: 50px;"">+</p>","null","html-keyboard-response","334","2.1.0","840952","F=YES, J=NO","l4euv7ao43","2","75","75","75","","","","","","","","","","","","","","","",""
"null","audio/beep-329314.mp3","null","audio-keyboard-response","335","2.1.0","842474","F=YES, J=NO","l4euv7ao43","2","75","75","75","","","","","","","","","","","","","","","",""
"null","audio/haste1.wav","null","audio-keyboard-response","336","2.1.0","843044","F=YES, J=NO","l4euv7ao43","2","75","75","75","","","","","","","","","","","","","","","",""
"1226","
          <p id=""word"" style=""font-size: 40px;"">coraconate</p>
          <p style=""font-size: 16px;"">F = YES &nbsp;&nbsp;&nbsp; J = NO</p>
        ","j","html-keyboard-response","337","2.1.0","844271","F=YES, J=NO","l4euv7ao43","2","75","75","75","","","","","","","","","coraconate","haste1","pseudoword","pseudoword","j","true","",""
"null","<p style=""font-size: 50px;"">+</p>","null","html-keyboard-response","338","2.1.0","844573","F=YES, J=NO","l4euv7ao43","2","75","75","75","","","","","","","","","","","","","","","",""
"null","audio/beep-329314.mp3","null","audio-keyboard-response","339","2.1.0","846114","F=YES, J=NO","l4euv7ao43","2","75","75","75","","","","","","","","","","","","","","","",""
"null","audio/seat.wav","null","audio-keyboard-response","340","2.1.0","846764","F=YES, J=NO","l4euv7ao43","2","75","75","75","","","","","","","","","","","","","","","",""
"561","
          <p id=""word"" style=""font-size: 40px;"">digest</p>
          <p style=""font-size: 16px;"">F = YES &nbsp;&nbsp;&nbsp; J = NO</p>
        ","f","html-keyboard-response","341","2.1.0","847325","F=YES, J=NO","l4euv7ao43","2","75","75","75","","","","","","","","","digest","seat","unrelated","experimental","f","true","",""
"null","<p style=""font-size: 50px;"">+</p>","null","html-keyboard-response","342","2.1.0","847632","F=YES, J=NO","l4euv7ao43","2","75","75","75","","","","","","","","","","","","","","","",""
"null","audio/beep-329314.mp3","null","audio-keyboard-response","343","2.1.0","849154","F=YES, J=NO","l4euv7ao43","2","75","75","75","","","","","","","","","","","","","","","",""
"null","audio/fence.wav","null","audio-keyboard-response","344","2.1.0","849824","F=YES, J=NO","l4euv7ao43","2","75","75","75","","","","","","","","","","","","","","","",""
"570","
          <p id=""word"" style=""font-size: 40px;"">trim</p>
          <p style=""font-size: 16px;"">F = YES &nbsp;&nbsp;&nbsp; J = NO</p>
        ","f","html-keyboard-response","345","2.1.0","850396","F=YES, J=NO","l4euv7ao43","2","75","75","75","","","","","","","","","trim","fence","filler","filler","f","true","",""
"null","<p style=""font-size: 50px;"">+</p>","null","html-keyboard-response","346","2.1.0","850703","F=YES, J=NO","l4euv7ao43","2","75","75","75","","","","","","","","","","","","","","","",""
"null","audio/beep-329314.mp3","null","audio-keyboard-response","347","2.1.0","852234","F=YES, J=NO","l4euv7ao43","2","75","75","75","","","","","","","","","","","","","","","",""
"null","audio/baby.wav","null","audio-keyboard-response","348","2.1.0","852723","F=YES, J=NO","l4euv7ao43","2","75","75","75","","","","","","","","","","","","","","","",""
"466","
          <p id=""word"" style=""font-size: 40px;"">lift</p>
          <p style=""font-size: 16px;"">F = YES &nbsp;&nbsp;&nbsp; J = NO</p>
        ","f","html-keyboard-response","349","2.1.0","853190","F=YES, J=NO","l4euv7ao43","2","75","75","75","","","","","","","","","lift","baby","filler","filler","f","true","",""
"null","<p style=""font-size: 50px;"">+</p>","null","html-keyboard-response","350","2.1.0","853502","F=YES, J=NO","l4euv7ao43","2","75","75","75","","","","","","","","","","","","","","","",""
"null","audio/beep-329314.mp3","null","audio-keyboard-response","351","2.1.0","855034","F=YES, J=NO","l4euv7ao43","2","75","75","75","","","","","","","","","","","","","","","",""
"null","audio/roof1.wav","null","audio-keyboard-response","352","2.1.0","855584","F=YES, J=NO","l4euv7ao43","2","75","75","75","","","","","","","","","","","","","","","",""
"511","
          <p id=""word"" style=""font-size: 40px;"">wronb</p>
          <p style=""font-size: 16px;"">F = YES &nbsp;&nbsp;&nbsp; J = NO</p>
        ","f","html-keyboard-response","353","2.1.0","856097","F=YES, J=NO","l4euv7ao43","2","75","75","75","","","","","","","","","wronb","roof1","pseudoword","pseudoword","j","false","",""
"null","<p style=""font-size: 50px;"">+</p>","null","html-keyboard-response","354","2.1.0","856402","F=YES, J=NO","l4euv7ao43","2","75","75","75","","","","","","","","","","","","","","","",""
"null","audio/beep-329314.mp3","null","audio-keyboard-response","355","2.1.0","857934","F=YES, J=NO","l4euv7ao43","2","75","75","75","","","","","","","","","","","","","","","",""
"null","audio/breath.wav","null","audio-keyboard-response","356","2.1.0","858504","F=YES, J=NO","l4euv7ao43","2","75","75","75","","","","","","","","","","","","","","","",""
"615","
          <p id=""word"" style=""font-size: 40px;"">pack</p>
          <p style=""font-size: 16px;"">F = YES &nbsp;&nbsp;&nbsp; J = NO</p>
        ","f","html-keyboard-response","357","2.1.0","859120","F=YES, J=NO","l4euv7ao43","2","75","75","75","","","","","","","","","pack","breath","filler","filler","f","true","",""
"null","<p style=""font-size: 50px;"">+</p>","null","html-keyboard-response","358","2.1.0","859423","F=YES, J=NO","l4euv7ao43","2","75","75","75","","","","","","","","","","","","","","","",""
"null","audio/beep-329314.mp3","null","audio-keyboard-response","359","2.1.0","860953","F=YES, J=NO","l4euv7ao43","2","75","75","75","","","","","","","","","","","","","","","",""
"null","audio/prisoner.wav","null","audio-keyboard-response","360","2.1.0","861484","F=YES, J=NO","l4euv7ao43","2","75","75","75","","","","","","","","","","","","","","","",""
"819","
          <p id=""word"" style=""font-size: 40px;"">egotian</p>
          <p style=""font-size: 16px;"">F = YES &nbsp;&nbsp;&nbsp; J = NO</p>
        ","j","html-keyboard-response","361","2.1.0","862303","F=YES, J=NO","l4euv7ao43","2","75","75","75","","","","","","","","","egotian","prisoner","pseudoword","pseudoword","j","true","",""
"15561","<p>Excellent! You have finished block 3 of 8.</p>
                     <p>Feel free to take a 30 second break.</p>
                     <p>Press any key when you're ready to continue.</p>"," ","html-keyboard-response","362","2.1.0","877865","F=YES, J=NO","l4euv7ao43","2","75","75","75","","","","","","","","","","","","","","","",""
"2082","<p>Starting main block 4 of 8. Press any key to continue.</p>"," ","html-keyboard-response","363","2.1.0","879948","F=YES, J=NO","l4euv7ao43","2","75","75","75","","","","","","","","","","","","","","","",""
"null","<p style=""font-size: 50px;"">+</p>","null","html-keyboard-response","364","2.1.0","880252","F=YES, J=NO","l4euv7ao43","2","75","75","75","","","","","","","","","","","","","","","",""
"null","audio/beep-329314.mp3","null","audio-keyboard-response","365","2.1.0","881807","F=YES, J=NO","l4euv7ao43","2","75","75","75","","","","","","","","","","","","","","","",""
"null","audio/street.wav","null","audio-keyboard-response","366","2.1.0","882507","F=YES, J=NO","l4euv7ao43","2","75","75","75","","","","","","","","","","","","","","","",""
"1164","
          <p id=""word"" style=""font-size: 40px;"">hold</p>
          <p style=""font-size: 16px;"">F = YES &nbsp;&nbsp;&nbsp; J = NO</p>
        ","f","html-keyboard-response","367","2.1.0","883671","F=YES, J=NO","l4euv7ao43","2","75","75","75","","","","","","","","","hold","street","unrelated","experimental","f","true","",""
"null","<p style=""font-size: 50px;"">+</p>","null","html-keyboard-response","368","2.1.0","883975","F=YES, J=NO","l4euv7ao43","2","75","75","75","","","","","","","","","","","","","","","",""
"null","audio/beep-329314.mp3","null","audio-keyboard-response","369","2.1.0","885507","F=YES, J=NO","l4euv7ao43","2","75","75","75","","","","","","","","","","","","","","","",""
"null","audio/empire.wav","null","audio-keyboard-response","370","2.1.0","886147","F=YES, J=NO","l4euv7ao43","2","75","75","75","","","","","","","","","","","","","","","",""
"817","
          <p id=""word"" style=""font-size: 40px;"">slorby</p>
          <p style=""font-size: 16px;"">F = YES &nbsp;&nbsp;&nbsp; J = NO</p>
        ","j","html-keyboard-response","371","2.1.0","886965","F=YES, J=NO","l4euv7ao43","2","75","75","75","","","","","","","","","slorby","empire","pseudoword","pseudoword","j","true","",""
"null","<p style=""font-size: 50px;"">+</p>","null","html-keyboard-response","372","2.1.0","887275","F=YES, J=NO","l4euv7ao43","2","75","75","75","","","","","","","","","","","","","","","",""
"null","audio/beep-329314.mp3","null","audio-keyboard-response","373","2.1.0","888807","F=YES, J=NO","l4euv7ao43","2","75","75","75","","","","","","","","","","","","","","","",""
"null","audio/hawk1.wav","null","audio-keyboard-response","374","2.1.0","889408","F=YES, J=NO","l4euv7ao43","2","75","75","75","","","","","","","","","","","","","","","",""
"1097","
          <p id=""word"" style=""font-size: 40px;"">ostach</p>
          <p style=""font-size: 16px;"">F = YES &nbsp;&nbsp;&nbsp; J = NO</p>
        ","j","html-keyboard-response","375","2.1.0","890507","F=YES, J=NO","l4euv7ao43","2","75","75","75","","","","","","","","","ostach","hawk1","pseudoword","pseudoword","j","true","",""
"null","<p style=""font-size: 50px;"">+</p>","null","html-keyboard-response","376","2.1.0","890816","F=YES, J=NO","l4euv7ao43","2","75","75","75","","","","","","","","","","","","","","","",""
"null","audio/beep-329314.mp3","null","audio-keyboard-response","377","2.1.0","892348","F=YES, J=NO","l4euv7ao43","2","75","75","75","","","","","","","","","","","","","","","",""
"null","audio/cancer1.wav","null","audio-keyboard-response","378","2.1.0","892907","F=YES, J=NO","l4euv7ao43","2","75","75","75","","","","","","","","","","","","","","","",""
"654","
          <p id=""word"" style=""font-size: 40px;"">fight</p>
          <p style=""font-size: 16px;"">F = YES &nbsp;&nbsp;&nbsp; J = NO</p>
        ","f","html-keyboard-response","379","2.1.0","893562","F=YES, J=NO","l4euv7ao43","2","75","75","75","","","","","","","","","fight","cancer1","metaphor","experimental","f","true","",""
"null","<p style=""font-size: 50px;"">+</p>","null","html-keyboard-response","380","2.1.0","893866","F=YES, J=NO","l4euv7ao43","2","75","75","75","","","","","","","","","","","","","","","",""
"null","audio/beep-329314.mp3","null","audio-keyboard-response","381","2.1.0","895387","F=YES, J=NO","l4euv7ao43","2","75","75","75","","","","","","","","","","","","","","","",""
"null","audio/brain.wav","null","audio-keyboard-response","382","2.1.0","895887","F=YES, J=NO","l4euv7ao43","2","75","75","75","","","","","","","","","","","","","","","",""
"699","
          <p id=""word"" style=""font-size: 40px;"">throw</p>
          <p style=""font-size: 16px;"">F = YES &nbsp;&nbsp;&nbsp; J = NO</p>
        ","f","html-keyboard-response","383","2.1.0","896587","F=YES, J=NO","l4euv7ao43","2","75","75","75","","","","","","","","","throw","brain","filler","filler","f","true","",""
"null","<p style=""font-size: 50px;"">+</p>","null","html-keyboard-response","384","2.1.0","896895","F=YES, J=NO","l4euv7ao43","2","75","75","75","","","","","","","","","","","","","","","",""
"null","audio/beep-329314.mp3","null","audio-keyboard-response","385","2.1.0","898427","F=YES, J=NO","l4euv7ao43","2","75","75","75","","","","","","","","","","","","","","","",""
"null","audio/voice.wav","null","audio-keyboard-response","386","2.1.0","899047","F=YES, J=NO","l4euv7ao43","2","75","75","75","","","","","","","","","","","","","","","",""
"521","
          <p id=""word"" style=""font-size: 40px;"">flood</p>
          <p style=""font-size: 16px;"">F = YES &nbsp;&nbsp;&nbsp; J = NO</p>
        ","f","html-keyboard-response","387","2.1.0","899569","F=YES, J=NO","l4euv7ao43","2","75","75","75","","","","","","","","","flood","voice","unrelated","experimental","f","true","",""
"null","<p style=""font-size: 50px;"">+</p>","null","html-keyboard-response","388","2.1.0","899876","F=YES, J=NO","l4euv7ao43","2","75","75","75","","","","","","","","","","","","","","","",""
"null","audio/beep-329314.mp3","null","audio-keyboard-response","389","2.1.0","901407","F=YES, J=NO","l4euv7ao43","2","75","75","75","","","","","","","","","","","","","","","",""
"null","audio/sand.wav","null","audio-keyboard-response","390","2.1.0","902067","F=YES, J=NO","l4euv7ao43","2","75","75","75","","","","","","","","","","","","","","","",""
"1080","
          <p id=""word"" style=""font-size: 40px;"">proted</p>
          <p style=""font-size: 16px;"">F = YES &nbsp;&nbsp;&nbsp; J = NO</p>
        ","j","html-keyboard-response","391","2.1.0","903149","F=YES, J=NO","l4euv7ao43","2","75","75","75","","","","","","","","","proted","sand","pseudoword","pseudoword","j","true","",""
