"rt","stimulus","response","trial_type","trial_index","plugin_version","time_elapsed","response_mapping","subject_id","list_index","lextale_score","lextale_word_score","lextale_nonword_score","success","timeout","failed_images","failed_audio","failed_video","task","isWord","isDummy","target","prime","prime_type","stimulus_type","correct_response","correct","section","question_order"
"21547","
    <div style=""max-width: 800px; margin: auto; text-align: left;"">
      <h2>STANFORD UNIVERSITY</h2>
      <h3>Research Information Sheet</h3>
      <p><strong>Protocol Director:</strong> Robert Hawkins<br>
      <strong>Protocol Title:</strong> Communication and social cognition in natural audiovisual contexts<br>
      <strong>IRB#:</strong> 77226</p>

      <p><strong>DESCRIPTION:</strong> You are invited to participate in a research study about language and communication. The purpose of the research is to understand how you interact and communicate with other people in naturalistic settings as a fluent English speaker. This research will be conducted through the Prolific platform, including participants from the US, UK, and Canada. If you decide to participate in this research, you will play a communication game in a group with one or more partners.</p>

      <p><strong>TIME INVOLVEMENT:</strong> The task will last the amount of time advertised on Prolific. You are free to withdraw from the study at any time.</p>

      <p><strong>RISKS AND BENEFITS:</strong> You may become frustrated if your partner gets distracted, or experience discomfort if other participants in your group send text that is inappropriate for the task. We ask you to please be respectful of other participants you might be interacting with to mitigate these risks. You may also experience discomfort when being asked to discuss or challenge emotionally salient political beliefs. Study data will be stored securely, in compliance with Stanford University standards, minimizing the risk of confidentiality breach. This study advances our scientific understanding of how people communicate and collaborate in naturalistic settings. This study may lead to further insights about what can go wrong in teamwork, suggest potential interventions to overcome these barriers, and help to develop assistive technologies that collaborate with human partners. We cannot and do not guarantee or promise that you will receive any benefits from this study.</p>

      <p><strong>PAYMENTS:</strong> You will receive payment in the amount advertised on Prolific. If you do not complete this study, you will receive prorated payment based on the time that you have spent. Additionally, you may be eligible for bonus payments as described in the instructions.</p>

      <p><strong>PARTICIPANT’S RIGHTS:</strong> If you have read this form and have decided to participate in this project, please understand your participation is voluntary and you have the right to withdraw your consent or discontinue participation at any time without penalty or loss of benefits to which you are otherwise entitled. The alternative is not to participate. You have the right to refuse to answer particular questions. The results of this research study may be presented at scientific or professional meetings or published in scientific journals. Your individual privacy will be maintained in all published and written data resulting from the study. In accordance with scientific norms, the data from this study may be used or shared with other researchers for future research (after removing personally identifying information) without additional consent from you.</p>

      <p><strong>CONTACT INFORMATION:</strong><br>
      Questions: If you have any questions, concerns or complaints about this research, its procedures, risks and benefits, contact the Protocol Director, Robert Hawkins (<a href=""mailto:rdhawkins@stanford.edu"">rdhawkins@stanford.edu</a>, 217-549-6923).<br>
      Independent Contact: If you are not satisfied with how this study is being conducted, or if you have any concerns, complaints, or general questions about the research or your rights as a participant, please contact the Stanford Institutional Review Board (IRB) to speak to someone independent of the research team at 650-723-2480 or toll free at 1-866-680-2906, or email at <a href=""mailto:irbnon-med@stanford.edu"">irbnon-med@stanford.edu</a>. You can also write to the Stanford IRB, Stanford University, 1705 El Camino Real, Palo Alto, CA 94306.</p>

      <p><strong>Please save or print a copy of this page for your records.</strong></p>
      <p>If you agree to participate in this research, click ""Continue"" below.</p>
    </div>
  ","0","html-button-response","0","2.1.0","21558","J=YES, F=NO","lv3hjbmt63","2","71","78","65","","","","","","","","","","","","","","","",""
"8883","
    <div style=""max-width: 800px; margin: auto; text-align: left;"">
      <h2>Welcome!</h2>
      <p>Thank you for participating in this study. The experiment consists of three parts:</p>
      <ol>
        <li>An English vocabulary test</li>
        <li>A main task in which you will hear and see words, and decide whether the written word is a real English word</li>
        <li>A brief survey about your background</li>
      </ol>
      <p>Each part will be introduced before it begins.</p>
      <p>Please make sure you are in a quiet environment and can hear audio clearly for the final task.</p>
      <p style=""margin-top: 2em;"">Press any key to begin.</p>
    </div>
  ","l","html-keyboard-response","1","2.1.0","30443","J=YES, F=NO","lv3hjbmt63","2","71","78","65","","","","","","","","","","","","","","","",""
"","","","preload","2","2.1.0","33226","J=YES, F=NO","lv3hjbmt63","2","71","78","65","true","false","[]","[]","[]","","","","","","","","","","",""
"4520","
    <div style=""max-width: 800px; margin: auto; text-align: left;"">
      <h2>Part 1: Vocabulary Test</h2>
      <p>You will now complete the first part of the study: a short English vocabulary test.</p>
      <p>This test is called <strong>LexTALE</strong> and helps us get a general sense of your English proficiency.</p>
      <p style=""margin-top: 2em;"">Press any key to continue.</p>
    </div>
  ","l","html-keyboard-response","3","2.1.0","37747","J=YES, F=NO","lv3hjbmt63","2","71","78","65","","","","","","","","","","","","","","","",""
"10318","
    <div style=""max-width: 800px; margin: auto; text-align: left;"">
      <h2>LexTALE Vocabulary Test</h2>
      <p>In this test, you will see a series of letter strings—one at a time.</p>
      <p>Your task is to decide whether each string is a real English word.</p>
      <p><strong>Key responses:</strong></p>
      <ul>
        <li><strong>J</strong> = YES (real English word)</li>
        <li><strong>F</strong> = NO (not a real English word)</li>
      </ul>
      <p>There is no time limit, but please try to be accurate.</p>
      <p style=""margin-top: 2em;"">Press any key to begin.</p>
    </div>
  ","j","html-keyboard-response","4","2.1.0","48066","J=YES, F=NO","lv3hjbmt63","2","71","78","65","","","","","","","","","","","","","","","",""
"4802","
  <p style=""font-size: 40px;"">platery</p>
  <p style=""font-size: 16px;"">J = YES &nbsp;&nbsp;&nbsp; F = NO</p>
","f","html-keyboard-response","5","2.1.0","52869","J=YES, F=NO","lv3hjbmt63","2","71","78","65","","","","","","lextale","false","true","","","","","","","",""
"937","
  <p style=""font-size: 40px;"">denial</p>
  <p style=""font-size: 16px;"">J = YES &nbsp;&nbsp;&nbsp; F = NO</p>
","j","html-keyboard-response","6","2.1.0","53806","J=YES, F=NO","lv3hjbmt63","2","71","78","65","","","","","","lextale","true","true","","","","","","","",""
"1212","
  <p style=""font-size: 40px;"">marrit</p>
  <p style=""font-size: 16px;"">J = YES &nbsp;&nbsp;&nbsp; F = NO</p>
","f","html-keyboard-response","7","2.1.0","55019","J=YES, F=NO","lv3hjbmt63","2","71","78","65","","","","","","lextale","false","true","","","","","","","",""
"1526","
  <p style=""font-size: 40px;"">bottle</p>
  <p style=""font-size: 16px;"">J = YES &nbsp;&nbsp;&nbsp; F = NO</p>
","j","html-keyboard-response","8","2.1.0","56545","J=YES, F=NO","lv3hjbmt63","2","71","78","65","","","","","","lextale","true","false","","","","","","","",""
"996","
  <p style=""font-size: 40px;"">birst</p>
  <p style=""font-size: 16px;"">J = YES &nbsp;&nbsp;&nbsp; F = NO</p>
","f","html-keyboard-response","9","2.1.0","57543","J=YES, F=NO","lv3hjbmt63","2","71","78","65","","","","","","lextale","false","false","","","","","","","",""
"751","
  <p style=""font-size: 40px;"">envy</p>
  <p style=""font-size: 16px;"">J = YES &nbsp;&nbsp;&nbsp; F = NO</p>
","j","html-keyboard-response","10","2.1.0","58294","J=YES, F=NO","lv3hjbmt63","2","71","78","65","","","","","","lextale","true","false","","","","","","","",""
"1101","
  <p style=""font-size: 40px;"">brang</p>
  <p style=""font-size: 16px;"">J = YES &nbsp;&nbsp;&nbsp; F = NO</p>
","f","html-keyboard-response","11","2.1.0","59396","J=YES, F=NO","lv3hjbmt63","2","71","78","65","","","","","","lextale","false","false","","","","","","","",""
"637","
  <p style=""font-size: 40px;"">huge</p>
  <p style=""font-size: 16px;"">J = YES &nbsp;&nbsp;&nbsp; F = NO</p>
","j","html-keyboard-response","12","2.1.0","60033","J=YES, F=NO","lv3hjbmt63","2","71","78","65","","","","","","lextale","true","false","","","","","","","",""
"1252","
  <p style=""font-size: 40px;"">plove</p>
  <p style=""font-size: 16px;"">J = YES &nbsp;&nbsp;&nbsp; F = NO</p>
","f","html-keyboard-response","13","2.1.0","61284","J=YES, F=NO","lv3hjbmt63","2","71","78","65","","","","","","lextale","false","false","","","","","","","",""
"613","
  <p style=""font-size: 40px;"">border</p>
  <p style=""font-size: 16px;"">J = YES &nbsp;&nbsp;&nbsp; F = NO</p>
","j","html-keyboard-response","14","2.1.0","61897","J=YES, F=NO","lv3hjbmt63","2","71","78","65","","","","","","lextale","true","false","","","","","","","",""
"8594","
  <p style=""font-size: 40px;"">flimsy</p>
  <p style=""font-size: 16px;"">J = YES &nbsp;&nbsp;&nbsp; F = NO</p>
","j","html-keyboard-response","15","2.1.0","70493","J=YES, F=NO","lv3hjbmt63","2","71","78","65","","","","","","lextale","true","false","","","","","","","",""
"926","
  <p style=""font-size: 40px;"">drain</p>
  <p style=""font-size: 16px;"">J = YES &nbsp;&nbsp;&nbsp; F = NO</p>
","j","html-keyboard-response","16","2.1.0","71418","J=YES, F=NO","lv3hjbmt63","2","71","78","65","","","","","","lextale","true","false","","","","","","","",""
"18829","
  <p style=""font-size: 40px;"">twindle</p>
  <p style=""font-size: 16px;"">J = YES &nbsp;&nbsp;&nbsp; F = NO</p>
","j","html-keyboard-response","17","2.1.0","90250","J=YES, F=NO","lv3hjbmt63","2","71","78","65","","","","","","lextale","false","false","","","","","","","",""
"1251","
  <p style=""font-size: 40px;"">propose</p>
  <p style=""font-size: 16px;"">J = YES &nbsp;&nbsp;&nbsp; F = NO</p>
","j","html-keyboard-response","18","2.1.0","91501","J=YES, F=NO","lv3hjbmt63","2","71","78","65","","","","","","lextale","true","false","","","","","","","",""
"12367","
  <p style=""font-size: 40px;"">forlay</p>
  <p style=""font-size: 16px;"">J = YES &nbsp;&nbsp;&nbsp; F = NO</p>
","j","html-keyboard-response","19","2.1.0","103868","J=YES, F=NO","lv3hjbmt63","2","71","78","65","","","","","","lextale","false","false","","","","","","","",""
"1322","
  <p style=""font-size: 40px;"">tenant</p>
  <p style=""font-size: 16px;"">J = YES &nbsp;&nbsp;&nbsp; F = NO</p>
","j","html-keyboard-response","20","2.1.0","105191","J=YES, F=NO","lv3hjbmt63","2","71","78","65","","","","","","lextale","true","false","","","","","","","",""
"1031","
  <p style=""font-size: 40px;"">strain</p>
  <p style=""font-size: 16px;"">J = YES &nbsp;&nbsp;&nbsp; F = NO</p>
","j","html-keyboard-response","21","2.1.0","106223","J=YES, F=NO","lv3hjbmt63","2","71","78","65","","","","","","lextale","true","false","","","","","","","",""
"2765","
  <p style=""font-size: 40px;"">holster</p>
  <p style=""font-size: 16px;"">J = YES &nbsp;&nbsp;&nbsp; F = NO</p>
","f","html-keyboard-response","22","2.1.0","108988","J=YES, F=NO","lv3hjbmt63","2","71","78","65","","","","","","lextale","true","false","","","","","","","",""
"1021","
  <p style=""font-size: 40px;"">hinder</p>
  <p style=""font-size: 16px;"">J = YES &nbsp;&nbsp;&nbsp; F = NO</p>
","j","html-keyboard-response","23","2.1.0","110010","J=YES, F=NO","lv3hjbmt63","2","71","78","65","","","","","","lextale","true","false","","","","","","","",""
"2294","
  <p style=""font-size: 40px;"">swindle</p>
  <p style=""font-size: 16px;"">J = YES &nbsp;&nbsp;&nbsp; F = NO</p>
","f","html-keyboard-response","24","2.1.0","112304","J=YES, F=NO","lv3hjbmt63","2","71","78","65","","","","","","lextale","true","false","","","","","","","",""
"2276","
  <p style=""font-size: 40px;"">nuder</p>
  <p style=""font-size: 16px;"">J = YES &nbsp;&nbsp;&nbsp; F = NO</p>
","f","html-keyboard-response","25","2.1.0","114582","J=YES, F=NO","lv3hjbmt63","2","71","78","65","","","","","","lextale","false","false","","","","","","","",""
"543","
  <p style=""font-size: 40px;"">pillow</p>
  <p style=""font-size: 16px;"">J = YES &nbsp;&nbsp;&nbsp; F = NO</p>
","j","html-keyboard-response","26","2.1.0","115125","J=YES, F=NO","lv3hjbmt63","2","71","78","65","","","","","","lextale","true","false","","","","","","","",""
"1289","
  <p style=""font-size: 40px;"">shumble</p>
  <p style=""font-size: 16px;"">J = YES &nbsp;&nbsp;&nbsp; F = NO</p>
","j","html-keyboard-response","27","2.1.0","116416","J=YES, F=NO","lv3hjbmt63","2","71","78","65","","","","","","lextale","false","false","","","","","","","",""
"1414","
  <p style=""font-size: 40px;"">thirst</p>
  <p style=""font-size: 16px;"">J = YES &nbsp;&nbsp;&nbsp; F = NO</p>
","j","html-keyboard-response","28","2.1.0","117829","J=YES, F=NO","lv3hjbmt63","2","71","78","65","","","","","","lextale","true","false","","","","","","","",""
"656","
  <p style=""font-size: 40px;"">unsail</p>
  <p style=""font-size: 16px;"">J = YES &nbsp;&nbsp;&nbsp; F = NO</p>
","j","html-keyboard-response","29","2.1.0","118486","J=YES, F=NO","lv3hjbmt63","2","71","78","65","","","","","","lextale","false","false","","","","","","","",""
"1011","
  <p style=""font-size: 40px;"">rifle</p>
  <p style=""font-size: 16px;"">J = YES &nbsp;&nbsp;&nbsp; F = NO</p>
","j","html-keyboard-response","30","2.1.0","119496","J=YES, F=NO","lv3hjbmt63","2","71","78","65","","","","","","lextale","true","false","","","","","","","",""
"526","
  <p style=""font-size: 40px;"">mush</p>
  <p style=""font-size: 16px;"">J = YES &nbsp;&nbsp;&nbsp; F = NO</p>
","j","html-keyboard-response","31","2.1.0","120023","J=YES, F=NO","lv3hjbmt63","2","71","78","65","","","","","","lextale","false","false","","","","","","","",""
"701","
  <p style=""font-size: 40px;"">drench</p>
  <p style=""font-size: 16px;"">J = YES &nbsp;&nbsp;&nbsp; F = NO</p>
","j","html-keyboard-response","32","2.1.0","120724","J=YES, F=NO","lv3hjbmt63","2","71","78","65","","","","","","lextale","true","false","","","","","","","",""
"1026","
  <p style=""font-size: 40px;"">snirt</p>
  <p style=""font-size: 16px;"">J = YES &nbsp;&nbsp;&nbsp; F = NO</p>
","f","html-keyboard-response","33","2.1.0","121751","J=YES, F=NO","lv3hjbmt63","2","71","78","65","","","","","","lextale","false","false","","","","","","","",""
"1281","
  <p style=""font-size: 40px;"">bitter</p>
  <p style=""font-size: 16px;"">J = YES &nbsp;&nbsp;&nbsp; F = NO</p>
","j","html-keyboard-response","34","2.1.0","123032","J=YES, F=NO","lv3hjbmt63","2","71","78","65","","","","","","lextale","true","false","","","","","","","",""
"5601","
  <p style=""font-size: 40px;"">pliff</p>
  <p style=""font-size: 16px;"">J = YES &nbsp;&nbsp;&nbsp; F = NO</p>
","f","html-keyboard-response","35","2.1.0","128634","J=YES, F=NO","lv3hjbmt63","2","71","78","65","","","","","","lextale","false","false","","","","","","","",""
"499","
  <p style=""font-size: 40px;"">tablet</p>
  <p style=""font-size: 16px;"">J = YES &nbsp;&nbsp;&nbsp; F = NO</p>
","j","html-keyboard-response","36","2.1.0","129133","J=YES, F=NO","lv3hjbmt63","2","71","78","65","","","","","","lextale","true","false","","","","","","","",""
"1119","
  <p style=""font-size: 40px;"">glimmer</p>
  <p style=""font-size: 16px;"">J = YES &nbsp;&nbsp;&nbsp; F = NO</p>
","j","html-keyboard-response","37","2.1.0","130252","J=YES, F=NO","lv3hjbmt63","2","71","78","65","","","","","","lextale","true","false","","","","","","","",""
"1577","
  <p style=""font-size: 40px;"">slink</p>
  <p style=""font-size: 16px;"">J = YES &nbsp;&nbsp;&nbsp; F = NO</p>
","f","html-keyboard-response","38","2.1.0","131828","J=YES, F=NO","lv3hjbmt63","2","71","78","65","","","","","","lextale","true","false","","","","","","","",""
"781","
  <p style=""font-size: 40px;"">clever</p>
  <p style=""font-size: 16px;"">J = YES &nbsp;&nbsp;&nbsp; F = NO</p>
","j","html-keyboard-response","39","2.1.0","132609","J=YES, F=NO","lv3hjbmt63","2","71","78","65","","","","","","lextale","true","false","","","","","","","",""
"981","
  <p style=""font-size: 40px;"">grum</p>
  <p style=""font-size: 16px;"">J = YES &nbsp;&nbsp;&nbsp; F = NO</p>
","f","html-keyboard-response","40","2.1.0","133591","J=YES, F=NO","lv3hjbmt63","2","71","78","65","","","","","","lextale","false","false","","","","","","","",""
"561","
  <p style=""font-size: 40px;"">string</p>
  <p style=""font-size: 16px;"">J = YES &nbsp;&nbsp;&nbsp; F = NO</p>
","j","html-keyboard-response","41","2.1.0","134152","J=YES, F=NO","lv3hjbmt63","2","71","78","65","","","","","","lextale","true","false","","","","","","","",""
"736","
  <p style=""font-size: 40px;"">plim</p>
  <p style=""font-size: 16px;"">J = YES &nbsp;&nbsp;&nbsp; F = NO</p>
","f","html-keyboard-response","42","2.1.0","134889","J=YES, F=NO","lv3hjbmt63","2","71","78","65","","","","","","lextale","false","false","","","","","","","",""
"537","
  <p style=""font-size: 40px;"">cable</p>
  <p style=""font-size: 16px;"">J = YES &nbsp;&nbsp;&nbsp; F = NO</p>
","j","html-keyboard-response","43","2.1.0","135426","J=YES, F=NO","lv3hjbmt63","2","71","78","65","","","","","","lextale","true","false","","","","","","","",""
"1269","
  <p style=""font-size: 40px;"">shrivel</p>
  <p style=""font-size: 16px;"">J = YES &nbsp;&nbsp;&nbsp; F = NO</p>
","j","html-keyboard-response","44","2.1.0","136696","J=YES, F=NO","lv3hjbmt63","2","71","78","65","","","","","","lextale","true","false","","","","","","","",""
"691","
  <p style=""font-size: 40px;"">tarnish</p>
  <p style=""font-size: 16px;"">J = YES &nbsp;&nbsp;&nbsp; F = NO</p>
","j","html-keyboard-response","45","2.1.0","137387","J=YES, F=NO","lv3hjbmt63","2","71","78","65","","","","","","lextale","true","false","","","","","","","",""
"1176","
  <p style=""font-size: 40px;"">blim</p>
  <p style=""font-size: 16px;"">J = YES &nbsp;&nbsp;&nbsp; F = NO</p>
","j","html-keyboard-response","46","2.1.0","138564","J=YES, F=NO","lv3hjbmt63","2","71","78","65","","","","","","lextale","false","false","","","","","","","",""
"936","
  <p style=""font-size: 40px;"">stifle</p>
  <p style=""font-size: 16px;"">J = YES &nbsp;&nbsp;&nbsp; F = NO</p>
","j","html-keyboard-response","47","2.1.0","139501","J=YES, F=NO","lv3hjbmt63","2","71","78","65","","","","","","lextale","true","false","","","","","","","",""
"747","
  <p style=""font-size: 40px;"">bint</p>
  <p style=""font-size: 16px;"">J = YES &nbsp;&nbsp;&nbsp; F = NO</p>
","f","html-keyboard-response","48","2.1.0","140248","J=YES, F=NO","lv3hjbmt63","2","71","78","65","","","","","","lextale","false","false","","","","","","","",""
"607","
  <p style=""font-size: 40px;"">purple</p>
  <p style=""font-size: 16px;"">J = YES &nbsp;&nbsp;&nbsp; F = NO</p>
","j","html-keyboard-response","49","2.1.0","140856","J=YES, F=NO","lv3hjbmt63","2","71","78","65","","","","","","lextale","true","false","","","","","","","",""
"686","
  <p style=""font-size: 40px;"">wriggle</p>
  <p style=""font-size: 16px;"">J = YES &nbsp;&nbsp;&nbsp; F = NO</p>
","j","html-keyboard-response","50","2.1.0","141542","J=YES, F=NO","lv3hjbmt63","2","71","78","65","","","","","","lextale","true","false","","","","","","","",""
"668","
  <p style=""font-size: 40px;"">mangle</p>
  <p style=""font-size: 16px;"">J = YES &nbsp;&nbsp;&nbsp; F = NO</p>
","j","html-keyboard-response","51","2.1.0","142212","J=YES, F=NO","lv3hjbmt63","2","71","78","65","","","","","","lextale","true","false","","","","","","","",""
"1574","
  <p style=""font-size: 40px;"">shramp</p>
  <p style=""font-size: 16px;"">J = YES &nbsp;&nbsp;&nbsp; F = NO</p>
","f","html-keyboard-response","52","2.1.0","143786","J=YES, F=NO","lv3hjbmt63","2","71","78","65","","","","","","lextale","false","false","","","","","","","",""
"934","
  <p style=""font-size: 40px;"">flirt</p>
  <p style=""font-size: 16px;"">J = YES &nbsp;&nbsp;&nbsp; F = NO</p>
","j","html-keyboard-response","53","2.1.0","144721","J=YES, F=NO","lv3hjbmt63","2","71","78","65","","","","","","lextale","true","false","","","","","","","",""
"2391","
  <p style=""font-size: 40px;"">frip</p>
  <p style=""font-size: 16px;"">J = YES &nbsp;&nbsp;&nbsp; F = NO</p>
","f","html-keyboard-response","54","2.1.0","147111","J=YES, F=NO","lv3hjbmt63","2","71","78","65","","","","","","lextale","false","false","","","","","","","",""
"1201","
  <p style=""font-size: 40px;"">tangle</p>
  <p style=""font-size: 16px;"">J = YES &nbsp;&nbsp;&nbsp; F = NO</p>
","j","html-keyboard-response","55","2.1.0","148313","J=YES, F=NO","lv3hjbmt63","2","71","78","65","","","","","","lextale","true","false","","","","","","","",""
"4046","
  <p style=""font-size: 40px;"">crumble</p>
  <p style=""font-size: 16px;"">J = YES &nbsp;&nbsp;&nbsp; F = NO</p>
","j","html-keyboard-response","56","2.1.0","152359","J=YES, F=NO","lv3hjbmt63","2","71","78","65","","","","","","lextale","true","false","","","","","","","",""
"658","
  <p style=""font-size: 40px;"">wrinkle</p>
  <p style=""font-size: 16px;"">J = YES &nbsp;&nbsp;&nbsp; F = NO</p>
","j","html-keyboard-response","57","2.1.0","153019","J=YES, F=NO","lv3hjbmt63","2","71","78","65","","","","","","lextale","true","false","","","","","","","",""
"847","
  <p style=""font-size: 40px;"">slumb</p>
  <p style=""font-size: 16px;"">J = YES &nbsp;&nbsp;&nbsp; F = NO</p>
","f","html-keyboard-response","58","2.1.0","153865","J=YES, F=NO","lv3hjbmt63","2","71","78","65","","","","","","lextale","false","false","","","","","","","",""
"523","
  <p style=""font-size: 40px;"">jungle</p>
  <p style=""font-size: 16px;"">J = YES &nbsp;&nbsp;&nbsp; F = NO</p>
","j","html-keyboard-response","59","2.1.0","154388","J=YES, F=NO","lv3hjbmt63","2","71","78","65","","","","","","lextale","true","false","","","","","","","",""
"1234","
  <p style=""font-size: 40px;"">frolick</p>
  <p style=""font-size: 16px;"">J = YES &nbsp;&nbsp;&nbsp; F = NO</p>
","f","html-keyboard-response","60","2.1.0","155624","J=YES, F=NO","lv3hjbmt63","2","71","78","65","","","","","","lextale","false","false","","","","","","","",""
"1601","
      <h2>LexTALE Test Completed</h2>
      <p>Your LexTALE vocabulary score is: <strong>71%</strong></p>
      <p>Press any key to continue.</p>
    ","j","html-keyboard-response","61","2.1.0","157225","J=YES, F=NO","lv3hjbmt63","2","71","78","65","","","","","","","","","","","","","","","",""
"4228","
    <div style=""max-width: 800px; margin: auto; text-align: left;"">
      <h2>Break Time</h2>
      <p>You have completed the first part of the study.</p>
      <p>You may take a short <strong>30-second break</strong> before continuing.</p>
      <p>When you’re ready, press any key to continue to the final task.</p>
    </div>
  ","j","html-keyboard-response","62","2.1.0","161454","J=YES, F=NO","lv3hjbmt63","2","71","78","65","","","","","","","","","","","","","","","",""
"13350","
    <div style=""max-width: 800px; margin: auto; text-align: left;"">
      <h2>Part 2: Lexical Decision Task</h2>
      <p>You will now begin the second part of the study.</p>
      <p>Each trial will follow this sequence:</p>
      <ul>
        <li>A fixation cross (+) appears at the center of the screen.</li>
        <li>You will hear a short beep followed by a spoken word.</li>
        <li>A written word will appear briefly on the screen.</li>
      </ul>
      <p>Your task is to judge whether the <strong>written word</strong> is a real English word.</p>
      <p style=""margin-top: 1em;""><strong>Key responses:</strong></p>
      <ul>
        <li><strong>J</strong> = YES (real English word)</li>
        <li><strong>F</strong> = NO (not a real English word)</li>
      </ul>
      <p>Please respond as quickly and accurately as you can.</p>
      <p style=""margin-top: 2em;"">Press any key to continue.</p>
    </div>
  ","j","html-keyboard-response","63","2.1.0","174805","J=YES, F=NO","lv3hjbmt63","2","71","78","65","","","","","","","","","","","","","","","",""
"6379","
    <div style=""max-width: 800px; margin: auto; text-align: left;"">
      <h2>Before You Begin</h2>
      <p>Make sure your sound is turned on.</p>
      <p>You will hear audio during each trial, but your decision should be based only on the <strong>written word</strong> you see on the screen.</p>
      <p><strong>Reminder:</strong></p>
      <ul>
        <li><strong>J</strong> = YES (real English word)</li>
        <li><strong>F</strong> = NO (not a real English word)</li>
      </ul>
      <p style=""margin-top: 2em;"">Press any key when you are ready to begin.</p>
    </div>
  ","j","html-keyboard-response","64","2.1.0","181184","J=YES, F=NO","lv3hjbmt63","2","71","78","65","","","","","","","","","","","","","","","",""
"3699","
    <div style=""max-width: 800px; margin: auto; text-align: left;"">
      <h2>Part 2: Practice Trials</h2>
      <p>You will now complete a few <strong>practice trials</strong> to get familiar with the task.</p>
      <p>These trials are <strong>not scored</strong> and are only to help you get used to the format.</p>
      <p style=""margin-top: 2em;"">Press any key to begin.</p>
    </div>
  ","j","html-keyboard-response","65","2.1.0","184883","J=YES, F=NO","lv3hjbmt63","2","71","78","65","","","","","","","","","","","","","","","",""
"1833","<p>Starting practice block 1 of 2. Press any key to continue.</p>","j","html-keyboard-response","66","2.1.0","186716","J=YES, F=NO","lv3hjbmt63","2","71","78","65","","","","","","","","","","","","","","","",""
"null","<p style=""font-size: 50px;"">+</p>","null","html-keyboard-response","67","2.1.0","187024","J=YES, F=NO","lv3hjbmt63","2","71","78","65","","","","","","","","","","","","","","","",""
"null","audio/beep-329314.mp3","null","audio-keyboard-response","68","2.1.0","188511","J=YES, F=NO","lv3hjbmt63","2","71","78","65","","","","","","","","","","","","","","","",""
"null","audio/tomato.wav","null","audio-keyboard-response","69","2.1.0","189152","J=YES, F=NO","lv3hjbmt63","2","71","78","65","","","","","","","","","","","","","","","",""
"null","
          <p id=""word"" style=""font-size: 40px;"">gladies</p>
          <p style=""font-size: 16px;"">J = YES &nbsp;&nbsp;&nbsp; F = NO</p>
        ","null","html-keyboard-response","70","2.1.0","190665","J=YES, F=NO","lv3hjbmt63","2","71","78","65","","","","","","","","","gladies","tomato","pseudoword","pseudoword","f","false","",""
"null","<p style=""font-size: 50px;"">+</p>","null","html-keyboard-response","71","2.1.0","190966","J=YES, F=NO","lv3hjbmt63","2","71","78","65","","","","","","","","","","","","","","","",""
"null","audio/beep-329314.mp3","null","audio-keyboard-response","72","2.1.0","192452","J=YES, F=NO","lv3hjbmt63","2","71","78","65","","","","","","","","","","","","","","","",""
"null","audio/bridge.wav","null","audio-keyboard-response","73","2.1.0","193042","J=YES, F=NO","lv3hjbmt63","2","71","78","65","","","","","","","","","","","","","","","",""
"377","
          <p id=""word"" style=""font-size: 40px;"">crack</p>
          <p style=""font-size: 16px;"">J = YES &nbsp;&nbsp;&nbsp; F = NO</p>
        ","f","html-keyboard-response","74","2.1.0","193418","J=YES, F=NO","lv3hjbmt63","2","71","78","65","","","","","","","","","crack","bridge","filler","filler","j","false","",""
"null","<p style=""font-size: 50px;"">+</p>","null","html-keyboard-response","75","2.1.0","193719","J=YES, F=NO","lv3hjbmt63","2","71","78","65","","","","","","","","","","","","","","","",""
"null","audio/beep-329314.mp3","null","audio-keyboard-response","76","2.1.0","195201","J=YES, F=NO","lv3hjbmt63","2","71","78","65","","","","","","","","","","","","","","","",""
"null","audio/empire.wav","null","audio-keyboard-response","77","2.1.0","196022","J=YES, F=NO","lv3hjbmt63","2","71","78","65","","","","","","","","","","","","","","","",""
"708","
          <p id=""word"" style=""font-size: 40px;"">slorby</p>
          <p style=""font-size: 16px;"">J = YES &nbsp;&nbsp;&nbsp; F = NO</p>
        ","f","html-keyboard-response","78","2.1.0","196729","J=YES, F=NO","lv3hjbmt63","2","71","78","65","","","","","","","","","slorby","empire","pseudoword","pseudoword","f","true","",""
"null","<p style=""font-size: 50px;"">+</p>","null","html-keyboard-response","79","2.1.0","197039","J=YES, F=NO","lv3hjbmt63","2","71","78","65","","","","","","","","","","","","","","","",""
"null","audio/beep-329314.mp3","null","audio-keyboard-response","80","2.1.0","198531","J=YES, F=NO","lv3hjbmt63","2","71","78","65","","","","","","","","","","","","","","","",""
"null","audio/novel.wav","null","audio-keyboard-response","81","2.1.0","199091","J=YES, F=NO","lv3hjbmt63","2","71","78","65","","","","","","","","","","","","","","","",""
"1098","
          <p id=""word"" style=""font-size: 40px;"">type</p>
          <p style=""font-size: 16px;"">J = YES &nbsp;&nbsp;&nbsp; F = NO</p>
        ","j","html-keyboard-response","82","2.1.0","200190","J=YES, F=NO","lv3hjbmt63","2","71","78","65","","","","","","","","","type","novel","filler","filler","j","true","",""
"null","<p style=""font-size: 50px;"">+</p>","null","html-keyboard-response","83","2.1.0","200513","J=YES, F=NO","lv3hjbmt63","2","71","78","65","","","","","","","","","","","","","","","",""
"null","audio/beep-329314.mp3","null","audio-keyboard-response","84","2.1.0","202002","J=YES, F=NO","lv3hjbmt63","2","71","78","65","","","","","","","","","","","","","","","",""
"null","audio/test1.wav","null","audio-keyboard-response","85","2.1.0","202632","J=YES, F=NO","lv3hjbmt63","2","71","78","65","","","","","","","","","","","","","","","",""
"864","
          <p id=""word"" style=""font-size: 40px;"">twopch</p>
          <p style=""font-size: 16px;"">J = YES &nbsp;&nbsp;&nbsp; F = NO</p>
        ","f","html-keyboard-response","86","2.1.0","203496","J=YES, F=NO","lv3hjbmt63","2","71","78","65","","","","","","","","","twopch","test1","pseudoword","pseudoword","f","true","",""
"null","<p style=""font-size: 50px;"">+</p>","null","html-keyboard-response","87","2.1.0","203800","J=YES, F=NO","lv3hjbmt63","2","71","78","65","","","","","","","","","","","","","","","",""
"null","audio/beep-329314.mp3","null","audio-keyboard-response","88","2.1.0","205292","J=YES, F=NO","lv3hjbmt63","2","71","78","65","","","","","","","","","","","","","","","",""
"null","audio/floor.wav","null","audio-keyboard-response","89","2.1.0","205801","J=YES, F=NO","lv3hjbmt63","2","71","78","65","","","","","","","","","","","","","","","",""
"919","
          <p id=""word"" style=""font-size: 40px;"">mop</p>
          <p style=""font-size: 16px;"">J = YES &nbsp;&nbsp;&nbsp; F = NO</p>
        ","j","html-keyboard-response","90","2.1.0","206721","J=YES, F=NO","lv3hjbmt63","2","71","78","65","","","","","","","","","mop","floor","filler","filler","j","true","",""
"null","<p style=""font-size: 50px;"">+</p>","null","html-keyboard-response","91","2.1.0","207026","J=YES, F=NO","lv3hjbmt63","2","71","78","65","","","","","","","","","","","","","","","",""
"null","audio/beep-329314.mp3","null","audio-keyboard-response","92","2.1.0","208522","J=YES, F=NO","lv3hjbmt63","2","71","78","65","","","","","","","","","","","","","","","",""
"null","audio/plot1.wav","null","audio-keyboard-response","93","2.1.0","209011","J=YES, F=NO","lv3hjbmt63","2","71","78","65","","","","","","","","","","","","","","","",""
"816","
          <p id=""word"" style=""font-size: 40px;"">glenter</p>
          <p style=""font-size: 16px;"">J = YES &nbsp;&nbsp;&nbsp; F = NO</p>
        ","f","html-keyboard-response","94","2.1.0","209828","J=YES, F=NO","lv3hjbmt63","2","71","78","65","","","","","","","","","glenter","plot1","pseudoword","pseudoword","f","true","",""
"null","<p style=""font-size: 50px;"">+</p>","null","html-keyboard-response","95","2.1.0","210142","J=YES, F=NO","lv3hjbmt63","2","71","78","65","","","","","","","","","","","","","","","",""
"null","audio/beep-329314.mp3","null","audio-keyboard-response","96","2.1.0","211631","J=YES, F=NO","lv3hjbmt63","2","71","78","65","","","","","","","","","","","","","","","",""
"null","audio/bottle.wav","null","audio-keyboard-response","97","2.1.0","212051","J=YES, F=NO","lv3hjbmt63","2","71","78","65","","","","","","","","","","","","","","","",""
"642","
          <p id=""word"" style=""font-size: 40px;"">watch</p>
          <p style=""font-size: 16px;"">J = YES &nbsp;&nbsp;&nbsp; F = NO</p>
        ","j","html-keyboard-response","98","2.1.0","212694","J=YES, F=NO","lv3hjbmt63","2","71","78","65","","","","","","","","","watch","bottle","filler","filler","j","true","",""
"null","<p style=""font-size: 50px;"">+</p>","null","html-keyboard-response","99","2.1.0","212995","J=YES, F=NO","lv3hjbmt63","2","71","78","65","","","","","","","","","","","","","","","",""
"null","audio/beep-329314.mp3","null","audio-keyboard-response","100","2.1.0","214481","J=YES, F=NO","lv3hjbmt63","2","71","78","65","","","","","","","","","","","","","","","",""
"null","audio/ankle1.wav","null","audio-keyboard-response","101","2.1.0","214962","J=YES, F=NO","lv3hjbmt63","2","71","78","65","","","","","","","","","","","","","","","",""
"848","
          <p id=""word"" style=""font-size: 40px;"">switm</p>
          <p style=""font-size: 16px;"">J = YES &nbsp;&nbsp;&nbsp; F = NO</p>
        ","f","html-keyboard-response","102","2.1.0","215809","J=YES, F=NO","lv3hjbmt63","2","71","78","65","","","","","","","","","switm","ankle1","pseudoword","pseudoword","f","true","",""
"null","<p style=""font-size: 50px;"">+</p>","null","html-keyboard-response","103","2.1.0","216113","J=YES, F=NO","lv3hjbmt63","2","71","78","65","","","","","","","","","","","","","","","",""
"null","audio/beep-329314.mp3","null","audio-keyboard-response","104","2.1.0","217602","J=YES, F=NO","lv3hjbmt63","2","71","78","65","","","","","","","","","","","","","","","",""
"null","audio/alarm1.wav","null","audio-keyboard-response","105","2.1.0","218132","J=YES, F=NO","lv3hjbmt63","2","71","78","65","","","","","","","","","","","","","","","",""
"503","
          <p id=""word"" style=""font-size: 40px;"">lock</p>
          <p style=""font-size: 16px;"">J = YES &nbsp;&nbsp;&nbsp; F = NO</p>
        ","j","html-keyboard-response","106","2.1.0","218636","J=YES, F=NO","lv3hjbmt63","2","71","78","65","","","","","","","","","lock","alarm1","filler","filler","j","true","",""
"null","<p style=""font-size: 50px;"">+</p>","null","html-keyboard-response","107","2.1.0","218939","J=YES, F=NO","lv3hjbmt63","2","71","78","65","","","","","","","","","","","","","","","",""
"null","audio/beep-329314.mp3","null","audio-keyboard-response","108","2.1.0","220421","J=YES, F=NO","lv3hjbmt63","2","71","78","65","","","","","","","","","","","","","","","",""
"null","audio/pattern.wav","null","audio-keyboard-response","109","2.1.0","221000","J=YES, F=NO","lv3hjbmt63","2","71","78","65","","","","","","","","","","","","","","","",""
"508","
          <p id=""word"" style=""font-size: 40px;"">tug</p>
          <p style=""font-size: 16px;"">J = YES &nbsp;&nbsp;&nbsp; F = NO</p>
        ","f","html-keyboard-response","110","2.1.0","221510","J=YES, F=NO","lv3hjbmt63","2","71","78","65","","","","","","","","","tug","pattern","filler","filler","j","false","",""
"null","<p style=""font-size: 50px;"">+</p>","null","html-keyboard-response","111","2.1.0","221810","J=YES, F=NO","lv3hjbmt63","2","71","78","65","","","","","","","","","","","","","","","",""
"null","audio/beep-329314.mp3","null","audio-keyboard-response","112","2.1.0","223302","J=YES, F=NO","lv3hjbmt63","2","71","78","65","","","","","","","","","","","","","","","",""
"null","audio/age1.wav","null","audio-keyboard-response","113","2.1.0","223801","J=YES, F=NO","lv3hjbmt63","2","71","78","65","","","","","","","","","","","","","","","",""
"756","
          <p id=""word"" style=""font-size: 40px;"">bake</p>
          <p style=""font-size: 16px;"">J = YES &nbsp;&nbsp;&nbsp; F = NO</p>
        ","j","html-keyboard-response","114","2.1.0","224558","J=YES, F=NO","lv3hjbmt63","2","71","78","65","","","","","","","","","bake","age1","filler","filler","j","true","",""
"969","<p>Starting practice block 2 of 2. Press any key to continue.</p>","j","html-keyboard-response","115","2.1.0","225527","J=YES, F=NO","lv3hjbmt63","2","71","78","65","","","","","","","","","","","","","","","",""
"null","<p style=""font-size: 50px;"">+</p>","null","html-keyboard-response","116","2.1.0","225834","J=YES, F=NO","lv3hjbmt63","2","71","78","65","","","","","","","","","","","","","","","",""
"null","audio/beep-329314.mp3","null","audio-keyboard-response","117","2.1.0","227321","J=YES, F=NO","lv3hjbmt63","2","71","78","65","","","","","","","","","","","","","","","",""
"null","audio/gossip1.wav","null","audio-keyboard-response","118","2.1.0","228012","J=YES, F=NO","lv3hjbmt63","2","71","78","65","","","","","","","","","","","","","","","",""
"901","
          <p id=""word"" style=""font-size: 40px;"">camerish</p>
          <p style=""font-size: 16px;"">J = YES &nbsp;&nbsp;&nbsp; F = NO</p>
        ","j","html-keyboard-response","119","2.1.0","228914","J=YES, F=NO","lv3hjbmt63","2","71","78","65","","","","","","","","","camerish","gossip1","pseudoword","pseudoword","f","false","",""
"null","<p style=""font-size: 50px;"">+</p>","null","html-keyboard-response","120","2.1.0","229219","J=YES, F=NO","lv3hjbmt63","2","71","78","65","","","","","","","","","","","","","","","",""
"null","audio/beep-329314.mp3","null","audio-keyboard-response","121","2.1.0","230712","J=YES, F=NO","lv3hjbmt63","2","71","78","65","","","","","","","","","","","","","","","",""
"null","audio/battle1.wav","null","audio-keyboard-response","122","2.1.0","231382","J=YES, F=NO","lv3hjbmt63","2","71","78","65","","","","","","","","","","","","","","","",""
"730","
          <p id=""word"" style=""font-size: 40px;"">boil</p>
          <p style=""font-size: 16px;"">J = YES &nbsp;&nbsp;&nbsp; F = NO</p>
        ","j","html-keyboard-response","123","2.1.0","232112","J=YES, F=NO","lv3hjbmt63","2","71","78","65","","","","","","","","","boil","battle1","filler","filler","j","true","",""
"null","<p style=""font-size: 50px;"">+</p>","null","html-keyboard-response","124","2.1.0","232424","J=YES, F=NO","lv3hjbmt63","2","71","78","65","","","","","","","","","","","","","","","",""
"null","audio/beep-329314.mp3","null","audio-keyboard-response","125","2.1.0","233912","J=YES, F=NO","lv3hjbmt63","2","71","78","65","","","","","","","","","","","","","","","",""
"null","audio/stain.wav","null","audio-keyboard-response","126","2.1.0","234511","J=YES, F=NO","lv3hjbmt63","2","71","78","65","","","","","","","","","","","","","","","",""
"654","
          <p id=""word"" style=""font-size: 40px;"">rumpsied</p>
          <p style=""font-size: 16px;"">J = YES &nbsp;&nbsp;&nbsp; F = NO</p>
        ","f","html-keyboard-response","127","2.1.0","235166","J=YES, F=NO","lv3hjbmt63","2","71","78","65","","","","","","","","","rumpsied","stain","pseudoword","pseudoword","f","true","",""
"null","<p style=""font-size: 50px;"">+</p>","null","html-keyboard-response","128","2.1.0","235479","J=YES, F=NO","lv3hjbmt63","2","71","78","65","","","","","","","","","","","","","","","",""
"null","audio/beep-329314.mp3","null","audio-keyboard-response","129","2.1.0","236971","J=YES, F=NO","lv3hjbmt63","2","71","78","65","","","","","","","","","","","","","","","",""
"null","audio/camera1.wav","null","audio-keyboard-response","130","2.1.0","237531","J=YES, F=NO","lv3hjbmt63","2","71","78","65","","","","","","","","","","","","","","","",""
"722","
          <p id=""word"" style=""font-size: 40px;"">stir</p>
          <p style=""font-size: 16px;"">J = YES &nbsp;&nbsp;&nbsp; F = NO</p>
        ","j","html-keyboard-response","131","2.1.0","238254","J=YES, F=NO","lv3hjbmt63","2","71","78","65","","","","","","","","","stir","camera1","filler","filler","j","true","",""
"null","<p style=""font-size: 50px;"">+</p>","null","html-keyboard-response","132","2.1.0","238561","J=YES, F=NO","lv3hjbmt63","2","71","78","65","","","","","","","","","","","","","","","",""
"null","audio/beep-329314.mp3","null","audio-keyboard-response","133","2.1.0","240052","J=YES, F=NO","lv3hjbmt63","2","71","78","65","","","","","","","","","","","","","","","",""
"null","audio/life1.wav","null","audio-keyboard-response","134","2.1.0","240562","J=YES, F=NO","lv3hjbmt63","2","71","78","65","","","","","","","","","","","","","","","",""
"1036","
          <p id=""word"" style=""font-size: 40px;"">flimch</p>
          <p style=""font-size: 16px;"">J = YES &nbsp;&nbsp;&nbsp; F = NO</p>
        ","f","html-keyboard-response","135","2.1.0","241598","J=YES, F=NO","lv3hjbmt63","2","71","78","65","","","","","","","","","flimch","life1","pseudoword","pseudoword","f","true","",""
"null","<p style=""font-size: 50px;"">+</p>","null","html-keyboard-response","136","2.1.0","241899","J=YES, F=NO","lv3hjbmt63","2","71","78","65","","","","","","","","","","","","","","","",""
"null","audio/beep-329314.mp3","null","audio-keyboard-response","137","2.1.0","243392","J=YES, F=NO","lv3hjbmt63","2","71","78","65","","","","","","","","","","","","","","","",""
"null","audio/van1.wav","null","audio-keyboard-response","138","2.1.0","243942","J=YES, F=NO","lv3hjbmt63","2","71","78","65","","","","","","","","","","","","","","","",""
"723","
          <p id=""word"" style=""font-size: 40px;"">push</p>
          <p style=""font-size: 16px;"">J = YES &nbsp;&nbsp;&nbsp; F = NO</p>
        ","j","html-keyboard-response","139","2.1.0","244665","J=YES, F=NO","lv3hjbmt63","2","71","78","65","","","","","","","","","push","van1","filler","filler","j","true","",""
"null","<p style=""font-size: 50px;"">+</p>","null","html-keyboard-response","140","2.1.0","244967","J=YES, F=NO","lv3hjbmt63","2","71","78","65","","","","","","","","","","","","","","","",""
"null","audio/beep-329314.mp3","null","audio-keyboard-response","141","2.1.0","246451","J=YES, F=NO","lv3hjbmt63","2","71","78","65","","","","","","","","","","","","","","","",""
"null","audio/golf1.wav","null","audio-keyboard-response","142","2.1.0","246962","J=YES, F=NO","lv3hjbmt63","2","71","78","65","","","","","","","","","","","","","","","",""
"1319","
          <p id=""word"" style=""font-size: 40px;"">drabble</p>
          <p style=""font-size: 16px;"">J = YES &nbsp;&nbsp;&nbsp; F = NO</p>
        ","f","html-keyboard-response","143","2.1.0","248281","J=YES, F=NO","lv3hjbmt63","2","71","78","65","","","","","","","","","drabble","golf1","pseudoword","pseudoword","f","true","",""
"null","<p style=""font-size: 50px;"">+</p>","null","html-keyboard-response","144","2.1.0","248611","J=YES, F=NO","lv3hjbmt63","2","71","78","65","","","","","","","","","","","","","","","",""
"null","audio/beep-329314.mp3","null","audio-keyboard-response","145","2.1.0","250101","J=YES, F=NO","lv3hjbmt63","2","71","78","65","","","","","","","","","","","","","","","",""
"null","audio/beach1.wav","null","audio-keyboard-response","146","2.1.0","250652","J=YES, F=NO","lv3hjbmt63","2","71","78","65","","","","","","","","","","","","","","","",""
"1161","
          <p id=""word"" style=""font-size: 40px;"">drive</p>
          <p style=""font-size: 16px;"">J = YES &nbsp;&nbsp;&nbsp; F = NO</p>
        ","j","html-keyboard-response","147","2.1.0","251814","J=YES, F=NO","lv3hjbmt63","2","71","78","65","","","","","","","","","drive","beach1","filler","filler","j","true","",""
"null","<p style=""font-size: 50px;"">+</p>","null","html-keyboard-response","148","2.1.0","252118","J=YES, F=NO","lv3hjbmt63","2","71","78","65","","","","","","","","","","","","","","","",""
"null","audio/beep-329314.mp3","null","audio-keyboard-response","149","2.1.0","253612","J=YES, F=NO","lv3hjbmt63","2","71","78","65","","","","","","","","","","","","","","","",""
"null","audio/cinema1.wav","null","audio-keyboard-response","150","2.1.0","254282","J=YES, F=NO","lv3hjbmt63","2","71","78","65","","","","","","","","","","","","","","","",""
"null","
          <p id=""word"" style=""font-size: 40px;"">murple</p>
          <p style=""font-size: 16px;"">J = YES &nbsp;&nbsp;&nbsp; F = NO</p>
        ","null","html-keyboard-response","151","2.1.0","255787","J=YES, F=NO","lv3hjbmt63","2","71","78","65","","","","","","","","","murple","cinema1","pseudoword","pseudoword","f","false","",""
"null","<p style=""font-size: 50px;"">+</p>","null","html-keyboard-response","152","2.1.0","256099","J=YES, F=NO","lv3hjbmt63","2","71","78","65","","","","","","","","","","","","","","","",""
"null","audio/beep-329314.mp3","null","audio-keyboard-response","153","2.1.0","257592","J=YES, F=NO","lv3hjbmt63","2","71","78","65","","","","","","","","","","","","","","","",""
"null","audio/desire.wav","null","audio-keyboard-response","154","2.1.0","258392","J=YES, F=NO","lv3hjbmt63","2","71","78","65","","","","","","","","","","","","","","","",""
"881","
          <p id=""word"" style=""font-size: 40px;"">nophed</p>
          <p style=""font-size: 16px;"">J = YES &nbsp;&nbsp;&nbsp; F = NO</p>
        ","f","html-keyboard-response","155","2.1.0","259273","J=YES, F=NO","lv3hjbmt63","2","71","78","65","","","","","","","","","nophed","desire","pseudoword","pseudoword","f","true","",""
"null","<p style=""font-size: 50px;"">+</p>","null","html-keyboard-response","156","2.1.0","259584","J=YES, F=NO","lv3hjbmt63","2","71","78","65","","","","","","","","","","","","","","","",""
"null","audio/beep-329314.mp3","null","audio-keyboard-response","157","2.1.0","261071","J=YES, F=NO","lv3hjbmt63","2","71","78","65","","","","","","","","","","","","","","","",""
"null","audio/weight1.wav","null","audio-keyboard-response","158","2.1.0","261791","J=YES, F=NO","lv3hjbmt63","2","71","78","65","","","","","","","","","","","","","","","",""
"null","
          <p id=""word"" style=""font-size: 40px;"">crimsh</p>
          <p style=""font-size: 16px;"">J = YES &nbsp;&nbsp;&nbsp; F = NO</p>
        ","null","html-keyboard-response","159","2.1.0","263342","J=YES, F=NO","lv3hjbmt63","2","71","78","65","","","","","","","","","crimsh","weight1","pseudoword","pseudoword","f","false","",""
"null","<p style=""font-size: 50px;"">+</p>","null","html-keyboard-response","160","2.1.0","263658","J=YES, F=NO","lv3hjbmt63","2","71","78","65","","","","","","","","","","","","","","","",""
"null","audio/beep-329314.mp3","null","audio-keyboard-response","161","2.1.0","265151","J=YES, F=NO","lv3hjbmt63","2","71","78","65","","","","","","","","","","","","","","","",""
"null","audio/cancer1.wav","null","audio-keyboard-response","162","2.1.0","265661","J=YES, F=NO","lv3hjbmt63","2","71","78","65","","","","","","","","","","","","","","","",""
"425","
          <p id=""word"" style=""font-size: 40px;"">draw</p>
          <p style=""font-size: 16px;"">J = YES &nbsp;&nbsp;&nbsp; F = NO</p>
        ","j","html-keyboard-response","163","2.1.0","266087","J=YES, F=NO","lv3hjbmt63","2","71","78","65","","","","","","","","","draw","cancer1","filler","filler","j","true","",""
"4388","
    <div style=""max-width: 800px; margin: auto; text-align: left;"">
      <h2>Part 2: Main Trials</h2>
      <p>Great job on the practice trials!</p>
      <p>You will now begin the <strong>main set of trials</strong>.</p>
      <p>Remember your key assignments:</p>
      <ul>
        <li><strong>J</strong> = YES (real English word)</li>
        <li><strong>F</strong> = NO (not a real English word)</li>
      </ul>
      <p>Try to respond as <strong>quickly and accurately</strong> as possible.</p>
      <p style=""margin-top: 2em;"">Press any key to begin the main trials.</p>
    </div>
  ","Enter","html-keyboard-response","164","2.1.0","270474","J=YES, F=NO","lv3hjbmt63","2","71","78","65","","","","","","","","","","","","","","","",""
"1678","<p>Starting main block 1 of 8. Press any key to continue.</p>","j","html-keyboard-response","165","2.1.0","272153","J=YES, F=NO","lv3hjbmt63","2","71","78","65","","","","","","","","","","","","","","","",""
"null","<p style=""font-size: 50px;"">+</p>","null","html-keyboard-response","166","2.1.0","272454","J=YES, F=NO","lv3hjbmt63","2","71","78","65","","","","","","","","","","","","","","","",""
"null","audio/beep-329314.mp3","null","audio-keyboard-response","167","2.1.0","273941","J=YES, F=NO","lv3hjbmt63","2","71","78","65","","","","","","","","","","","","","","","",""
"null","audio/wealth1.wav","null","audio-keyboard-response","168","2.1.0","274451","J=YES, F=NO","lv3hjbmt63","2","71","78","65","","","","","","","","","","","","","","","",""
"709","
          <p id=""word"" style=""font-size: 40px;"">possess</p>
          <p style=""font-size: 16px;"">J = YES &nbsp;&nbsp;&nbsp; F = NO</p>
        ","j","html-keyboard-response","169","2.1.0","275161","J=YES, F=NO","lv3hjbmt63","2","71","78","65","","","","","","","","","possess","wealth1","literal","experimental","j","true","",""
"null","<p style=""font-size: 50px;"">+</p>","null","html-keyboard-response","170","2.1.0","275471","J=YES, F=NO","lv3hjbmt63","2","71","78","65","","","","","","","","","","","","","","","",""
"null","audio/beep-329314.mp3","null","audio-keyboard-response","171","2.1.0","276961","J=YES, F=NO","lv3hjbmt63","2","71","78","65","","","","","","","","","","","","","","","",""
"null","audio/effort.wav","null","audio-keyboard-response","172","2.1.0","277502","J=YES, F=NO","lv3hjbmt63","2","71","78","65","","","","","","","","","","","","","","","",""
"859","
          <p id=""word"" style=""font-size: 40px;"">whonk</p>
          <p style=""font-size: 16px;"">J = YES &nbsp;&nbsp;&nbsp; F = NO</p>
        ","j","html-keyboard-response","173","2.1.0","278362","J=YES, F=NO","lv3hjbmt63","2","71","78","65","","","","","","","","","whonk","effort","pseudoword","pseudoword","f","false","",""
"null","<p style=""font-size: 50px;"">+</p>","null","html-keyboard-response","174","2.1.0","278670","J=YES, F=NO","lv3hjbmt63","2","71","78","65","","","","","","","","","","","","","","","",""
"null","audio/beep-329314.mp3","null","audio-keyboard-response","175","2.1.0","280161","J=YES, F=NO","lv3hjbmt63","2","71","78","65","","","","","","","","","","","","","","","",""
"null","audio/relief.wav","null","audio-keyboard-response","176","2.1.0","280762","J=YES, F=NO","lv3hjbmt63","2","71","78","65","","","","","","","","","","","","","","","",""
"427","
          <p id=""word"" style=""font-size: 40px;"">bring</p>
          <p style=""font-size: 16px;"">J = YES &nbsp;&nbsp;&nbsp; F = NO</p>
        ","j","html-keyboard-response","177","2.1.0","281189","J=YES, F=NO","lv3hjbmt63","2","71","78","65","","","","","","","","","bring","relief","metaphor","experimental","j","true","",""
"null","<p style=""font-size: 50px;"">+</p>","null","html-keyboard-response","178","2.1.0","281493","J=YES, F=NO","lv3hjbmt63","2","71","78","65","","","","","","","","","","","","","","","",""
"null","audio/beep-329314.mp3","null","audio-keyboard-response","179","2.1.0","282982","J=YES, F=NO","lv3hjbmt63","2","71","78","65","","","","","","","","","","","","","","","",""
"null","audio/key1.wav","null","audio-keyboard-response","180","2.1.0","283312","J=YES, F=NO","lv3hjbmt63","2","71","78","65","","","","","","","","","","","","","","","",""
"550","
          <p id=""word"" style=""font-size: 40px;"">sminsh</p>
          <p style=""font-size: 16px;"">J = YES &nbsp;&nbsp;&nbsp; F = NO</p>
        ","f","html-keyboard-response","181","2.1.0","283862","J=YES, F=NO","lv3hjbmt63","2","71","78","65","","","","","","","","","sminsh","key1","pseudoword","pseudoword","f","true","",""
"null","<p style=""font-size: 50px;"">+</p>","null","html-keyboard-response","182","2.1.0","284166","J=YES, F=NO","lv3hjbmt63","2","71","78","65","","","","","","","","","","","","","","","",""
"null","audio/beep-329314.mp3","null","audio-keyboard-response","183","2.1.0","285652","J=YES, F=NO","lv3hjbmt63","2","71","78","65","","","","","","","","","","","","","","","",""
"null","audio/table1.wav","null","audio-keyboard-response","184","2.1.0","286101","J=YES, F=NO","lv3hjbmt63","2","71","78","65","","","","","","","","","","","","","","","",""
"909","
          <p id=""word"" style=""font-size: 40px;"">stimb</p>
          <p style=""font-size: 16px;"">J = YES &nbsp;&nbsp;&nbsp; F = NO</p>
        ","f","html-keyboard-response","185","2.1.0","287009","J=YES, F=NO","lv3hjbmt63","2","71","78","65","","","","","","","","","stimb","table1","pseudoword","pseudoword","f","true","",""
"null","<p style=""font-size: 50px;"">+</p>","null","html-keyboard-response","186","2.1.0","287316","J=YES, F=NO","lv3hjbmt63","2","71","78","65","","","","","","","","","","","","","","","",""
"null","audio/beep-329314.mp3","null","audio-keyboard-response","187","2.1.0","288812","J=YES, F=NO","lv3hjbmt63","2","71","78","65","","","","","","","","","","","","","","","",""
"null","audio/foe1.wav","null","audio-keyboard-response","188","2.1.0","289272","J=YES, F=NO","lv3hjbmt63","2","71","78","65","","","","","","","","","","","","","","","",""
"563","
          <p id=""word"" style=""font-size: 40px;"">creth</p>
          <p style=""font-size: 16px;"">J = YES &nbsp;&nbsp;&nbsp; F = NO</p>
        ","f","html-keyboard-response","189","2.1.0","289834","J=YES, F=NO","lv3hjbmt63","2","71","78","65","","","","","","","","","creth","foe1","pseudoword","pseudoword","f","true","",""
"null","<p style=""font-size: 50px;"">+</p>","null","html-keyboard-response","190","2.1.0","290149","J=YES, F=NO","lv3hjbmt63","2","71","78","65","","","","","","","","","","","","","","","",""
"null","audio/beep-329314.mp3","null","audio-keyboard-response","191","2.1.0","291632","J=YES, F=NO","lv3hjbmt63","2","71","78","65","","","","","","","","","","","","","","","",""
"null","audio/cloud1.wav","null","audio-keyboard-response","192","2.1.0","292131","J=YES, F=NO","lv3hjbmt63","2","71","78","65","","","","","","","","","","","","","","","",""
"714","
          <p id=""word"" style=""font-size: 40px;"">scrap</p>
          <p style=""font-size: 16px;"">J = YES &nbsp;&nbsp;&nbsp; F = NO</p>
        ","j","html-keyboard-response","193","2.1.0","292846","J=YES, F=NO","lv3hjbmt63","2","71","78","65","","","","","","","","","scrap","cloud1","unrelated","experimental","j","true","",""
"null","<p style=""font-size: 50px;"">+</p>","null","html-keyboard-response","194","2.1.0","293157","J=YES, F=NO","lv3hjbmt63","2","71","78","65","","","","","","","","","","","","","","","",""
"null","audio/beep-329314.mp3","null","audio-keyboard-response","195","2.1.0","294651","J=YES, F=NO","lv3hjbmt63","2","71","78","65","","","","","","","","","","","","","","","",""
"null","audio/prisoner.wav","null","audio-keyboard-response","196","2.1.0","295111","J=YES, F=NO","lv3hjbmt63","2","71","78","65","","","","","","","","","","","","","","","",""
"1207","
          <p id=""word"" style=""font-size: 40px;"">egotian</p>
          <p style=""font-size: 16px;"">J = YES &nbsp;&nbsp;&nbsp; F = NO</p>
        ","f","html-keyboard-response","197","2.1.0","296319","J=YES, F=NO","lv3hjbmt63","2","71","78","65","","","","","","","","","egotian","prisoner","pseudoword","pseudoword","f","true","",""
"null","<p style=""font-size: 50px;"">+</p>","null","html-keyboard-response","198","2.1.0","296625","J=YES, F=NO","lv3hjbmt63","2","71","78","65","","","","","","","","","","","","","","","",""
"null","audio/beep-329314.mp3","null","audio-keyboard-response","199","2.1.0","298111","J=YES, F=NO","lv3hjbmt63","2","71","78","65","","","","","","","","","","","","","","","",""
"null","audio/trust.wav","null","audio-keyboard-response","200","2.1.0","298692","J=YES, F=NO","lv3hjbmt63","2","71","78","65","","","","","","","","","","","","","","","",""
"1360","
          <p id=""word"" style=""font-size: 40px;"">swint</p>
          <p style=""font-size: 16px;"">J = YES &nbsp;&nbsp;&nbsp; F = NO</p>
        ","f","html-keyboard-response","201","2.1.0","300053","J=YES, F=NO","lv3hjbmt63","2","71","78","65","","","","","","","","","swint","trust","pseudoword","pseudoword","f","true","",""
"null","<p style=""font-size: 50px;"">+</p>","null","html-keyboard-response","202","2.1.0","300357","J=YES, F=NO","lv3hjbmt63","2","71","78","65","","","","","","","","","","","","","","","",""
"null","audio/beep-329314.mp3","null","audio-keyboard-response","203","2.1.0","301842","J=YES, F=NO","lv3hjbmt63","2","71","78","65","","","","","","","","","","","","","","","",""
"null","audio/tomato.wav","null","audio-keyboard-response","204","2.1.0","302461","J=YES, F=NO","lv3hjbmt63","2","71","78","65","","","","","","","","","","","","","","","",""
"751","
          <p id=""word"" style=""font-size: 40px;"">grow</p>
          <p style=""font-size: 16px;"">J = YES &nbsp;&nbsp;&nbsp; F = NO</p>
        ","j","html-keyboard-response","205","2.1.0","303212","J=YES, F=NO","lv3hjbmt63","2","71","78","65","","","","","","","","","grow","tomato","literal","experimental","j","true","",""
"null","<p style=""font-size: 50px;"">+</p>","null","html-keyboard-response","206","2.1.0","303521","J=YES, F=NO","lv3hjbmt63","2","71","78","65","","","","","","","","","","","","","","","",""
"null","audio/beep-329314.mp3","null","audio-keyboard-response","207","2.1.0","305011","J=YES, F=NO","lv3hjbmt63","2","71","78","65","","","","","","","","","","","","","","","",""
"null","audio/theory1.wav","null","audio-keyboard-response","208","2.1.0","305601","J=YES, F=NO","lv3hjbmt63","2","71","78","65","","","","","","","","","","","","","","","",""
"1164","
          <p id=""word"" style=""font-size: 40px;"">scolve</p>
          <p style=""font-size: 16px;"">J = YES &nbsp;&nbsp;&nbsp; F = NO</p>
        ","f","html-keyboard-response","209","2.1.0","306767","J=YES, F=NO","lv3hjbmt63","2","71","78","65","","","","","","","","","scolve","theory1","pseudoword","pseudoword","f","true","",""
"null","<p style=""font-size: 50px;"">+</p>","null","html-keyboard-response","210","2.1.0","307072","J=YES, F=NO","lv3hjbmt63","2","71","78","65","","","","","","","","","","","","","","","",""
"null","audio/beep-329314.mp3","null","audio-keyboard-response","211","2.1.0","308561","J=YES, F=NO","lv3hjbmt63","2","71","78","65","","","","","","","","","","","","","","","",""
"null","audio/cash1.wav","null","audio-keyboard-response","212","2.1.0","309072","J=YES, F=NO","lv3hjbmt63","2","71","78","65","","","","","","","","","","","","","","","",""
"808","
          <p id=""word"" style=""font-size: 40px;"">splear</p>
          <p style=""font-size: 16px;"">J = YES &nbsp;&nbsp;&nbsp; F = NO</p>
        ","f","html-keyboard-response","213","2.1.0","309882","J=YES, F=NO","lv3hjbmt63","2","71","78","65","","","","","","","","","splear","cash1","pseudoword","pseudoword","f","true","",""
"null","<p style=""font-size: 50px;"">+</p>","null","html-keyboard-response","214","2.1.0","310192","J=YES, F=NO","lv3hjbmt63","2","71","78","65","","","","","","","","","","","","","","","",""
"null","audio/beep-329314.mp3","null","audio-keyboard-response","215","2.1.0","311682","J=YES, F=NO","lv3hjbmt63","2","71","78","65","","","","","","","","","","","","","","","",""
"null","audio/haste1.wav","null","audio-keyboard-response","216","2.1.0","312192","J=YES, F=NO","lv3hjbmt63","2","71","78","65","","","","","","","","","","","","","","","",""
"795","
          <p id=""word"" style=""font-size: 40px;"">coraconate</p>
          <p style=""font-size: 16px;"">J = YES &nbsp;&nbsp;&nbsp; F = NO</p>
        ","f","html-keyboard-response","217","2.1.0","312987","J=YES, F=NO","lv3hjbmt63","2","71","78","65","","","","","","","","","coraconate","haste1","pseudoword","pseudoword","f","true","",""
"null","<p style=""font-size: 50px;"">+</p>","null","html-keyboard-response","218","2.1.0","313290","J=YES, F=NO","lv3hjbmt63","2","71","78","65","","","","","","","","","","","","","","","",""
"null","audio/beep-329314.mp3","null","audio-keyboard-response","219","2.1.0","314781","J=YES, F=NO","lv3hjbmt63","2","71","78","65","","","","","","","","","","","","","","","",""
"null","audio/dollar.wav","null","audio-keyboard-response","220","2.1.0","315131","J=YES, F=NO","lv3hjbmt63","2","71","78","65","","","","","","","","","","","","","","","",""
"742","
          <p id=""word"" style=""font-size: 40px;"">save</p>
          <p style=""font-size: 16px;"">J = YES &nbsp;&nbsp;&nbsp; F = NO</p>
        ","j","html-keyboard-response","221","2.1.0","315874","J=YES, F=NO","lv3hjbmt63","2","71","78","65","","","","","","","","","save","dollar","literal","experimental","j","true","",""
"null","<p style=""font-size: 50px;"">+</p>","null","html-keyboard-response","222","2.1.0","316176","J=YES, F=NO","lv3hjbmt63","2","71","78","65","","","","","","","","","","","","","","","",""
"null","audio/beep-329314.mp3","null","audio-keyboard-response","223","2.1.0","317662","J=YES, F=NO","lv3hjbmt63","2","71","78","65","","","","","","","","","","","","","","","",""
"null","audio/winter.wav","null","audio-keyboard-response","224","2.1.0","318181","J=YES, F=NO","lv3hjbmt63","2","71","78","65","","","","","","","","","","","","","","","",""
"524","
          <p id=""word"" style=""font-size: 40px;"">expose</p>
          <p style=""font-size: 16px;"">J = YES &nbsp;&nbsp;&nbsp; F = NO</p>
        ","j","html-keyboard-response","225","2.1.0","318707","J=YES, F=NO","lv3hjbmt63","2","71","78","65","","","","","","","","","expose","winter","unrelated","experimental","j","true","",""
"null","<p style=""font-size: 50px;"">+</p>","null","html-keyboard-response","226","2.1.0","319011","J=YES, F=NO","lv3hjbmt63","2","71","78","65","","","","","","","","","","","","","","","",""
"null","audio/beep-329314.mp3","null","audio-keyboard-response","227","2.1.0","320501","J=YES, F=NO","lv3hjbmt63","2","71","78","65","","","","","","","","","","","","","","","",""
"null","audio/floor.wav","null","audio-keyboard-response","228","2.1.0","321012","J=YES, F=NO","lv3hjbmt63","2","71","78","65","","","","","","","","","","","","","","","",""
"918","
          <p id=""word"" style=""font-size: 40px;"">cover</p>
          <p style=""font-size: 16px;"">J = YES &nbsp;&nbsp;&nbsp; F = NO</p>
        ","j","html-keyboard-response","229","2.1.0","321931","J=YES, F=NO","lv3hjbmt63","2","71","78","65","","","","","","","","","cover","floor","literal","experimental","j","true","",""
"25252","<p>Excellent! You have finished block 1 of 8.</p>
                     <p>Feel free to take a 30 second break.</p>
                     <p>Press any key when you're ready to continue.</p>"," ","html-keyboard-response","230","2.1.0","347183","J=YES, F=NO","lv3hjbmt63","2","71","78","65","","","","","","","","","","","","","","","",""
"855","<p>Starting main block 2 of 8. Press any key to continue.</p>"," ","html-keyboard-response","231","2.1.0","348040","J=YES, F=NO","lv3hjbmt63","2","71","78","65","","","","","","","","","","","","","","","",""
"null","<p style=""font-size: 50px;"">+</p>","null","html-keyboard-response","232","2.1.0","348342","J=YES, F=NO","lv3hjbmt63","2","71","78","65","","","","","","","","","","","","","","","",""
"null","audio/beep-329314.mp3","null","audio-keyboard-response","233","2.1.0","349832","J=YES, F=NO","lv3hjbmt63","2","71","78","65","","","","","","","","","","","","","","","",""
"null","audio/gold1.wav","null","audio-keyboard-response","234","2.1.0","350322","J=YES, F=NO","lv3hjbmt63","2","71","78","65","","","","","","","","","","","","","","","",""
"595","
          <p id=""word"" style=""font-size: 40px;"">sell</p>
          <p style=""font-size: 16px;"">J = YES &nbsp;&nbsp;&nbsp; F = NO</p>
        ","j","html-keyboard-response","235","2.1.0","350916","J=YES, F=NO","lv3hjbmt63","2","71","78","65","","","","","","","","","sell","gold1","literal","experimental","j","true","",""
"null","<p style=""font-size: 50px;"">+</p>","null","html-keyboard-response","236","2.1.0","351225","J=YES, F=NO","lv3hjbmt63","2","71","78","65","","","","","","","","","","","","","","","",""
"null","audio/beep-329314.mp3","null","audio-keyboard-response","237","2.1.0","352712","J=YES, F=NO","lv3hjbmt63","2","71","78","65","","","","","","","","","","","","","","","",""
"null","audio/prisoner.wav","null","audio-keyboard-response","238","2.1.0","353171","J=YES, F=NO","lv3hjbmt63","2","71","78","65","","","","","","","","","","","","","","","",""
"464","
          <p id=""word"" style=""font-size: 40px;"">release</p>
          <p style=""font-size: 16px;"">J = YES &nbsp;&nbsp;&nbsp; F = NO</p>
        ","j","html-keyboard-response","239","2.1.0","353636","J=YES, F=NO","lv3hjbmt63","2","71","78","65","","","","","","","","","release","prisoner","literal","experimental","j","true","",""
"null","<p style=""font-size: 50px;"">+</p>","null","html-keyboard-response","240","2.1.0","353943","J=YES, F=NO","lv3hjbmt63","2","71","78","65","","","","","","","","","","","","","","","",""
"null","audio/beep-329314.mp3","null","audio-keyboard-response","241","2.1.0","355432","J=YES, F=NO","lv3hjbmt63","2","71","78","65","","","","","","","","","","","","","","","",""
"null","audio/account1.wav","null","audio-keyboard-response","242","2.1.0","356071","J=YES, F=NO","lv3hjbmt63","2","71","78","65","","","","","","","","","","","","","","","",""
"555","
          <p id=""word"" style=""font-size: 40px;"">paint</p>
          <p style=""font-size: 16px;"">J = YES &nbsp;&nbsp;&nbsp; F = NO</p>
        ","j","html-keyboard-response","243","2.1.0","356628","J=YES, F=NO","lv3hjbmt63","2","71","78","65","","","","","","","","","paint","account1","filler","filler","j","true","",""
"null","<p style=""font-size: 50px;"">+</p>","null","html-keyboard-response","244","2.1.0","356929","J=YES, F=NO","lv3hjbmt63","2","71","78","65","","","","","","","","","","","","","","","",""
"null","audio/beep-329314.mp3","null","audio-keyboard-response","245","2.1.0","358412","J=YES, F=NO","lv3hjbmt63","2","71","78","65","","","","","","","","","","","","","","","",""
"null","audio/pig.wav","null","audio-keyboard-response","246","2.1.0","358741","J=YES, F=NO","lv3hjbmt63","2","71","78","65","","","","","","","","","","","","","","","",""
"644","
          <p id=""word"" style=""font-size: 40px;"">tirlike</p>
          <p style=""font-size: 16px;"">J = YES &nbsp;&nbsp;&nbsp; F = NO</p>
        ","f","html-keyboard-response","247","2.1.0","359385","J=YES, F=NO","lv3hjbmt63","2","71","78","65","","","","","","","","","tirlike","pig","pseudoword","pseudoword","f","true","",""
"null","<p style=""font-size: 50px;"">+</p>","null","html-keyboard-response","248","2.1.0","359698","J=YES, F=NO","lv3hjbmt63","2","71","78","65","","","","","","","","","","","","","","","",""
"null","audio/beep-329314.mp3","null","audio-keyboard-response","249","2.1.0","361182","J=YES, F=NO","lv3hjbmt63","2","71","78","65","","","","","","","","","","","","","","","",""
"null","audio/price.wav","null","audio-keyboard-response","250","2.1.0","361761","J=YES, F=NO","lv3hjbmt63","2","71","78","65","","","","","","","","","","","","","","","",""
"483","
          <p id=""word"" style=""font-size: 40px;"">drop</p>
          <p style=""font-size: 16px;"">J = YES &nbsp;&nbsp;&nbsp; F = NO</p>
        ","j","html-keyboard-response","251","2.1.0","362245","J=YES, F=NO","lv3hjbmt63","2","71","78","65","","","","","","","","","drop","price","metaphor","experimental","j","true","",""
"null","<p style=""font-size: 50px;"">+</p>","null","html-keyboard-response","252","2.1.0","362557","J=YES, F=NO","lv3hjbmt63","2","71","78","65","","","","","","","","","","","","","","","",""
"null","audio/beep-329314.mp3","null","audio-keyboard-response","253","2.1.0","364041","J=YES, F=NO","lv3hjbmt63","2","71","78","65","","","","","","","","","","","","","","","",""
"null","audio/road.wav","null","audio-keyboard-response","254","2.1.0","364421","J=YES, F=NO","lv3hjbmt63","2","71","78","65","","","","","","","","","","","","","","","",""
"628","
          <p id=""word"" style=""font-size: 40px;"">wappings</p>
          <p style=""font-size: 16px;"">J = YES &nbsp;&nbsp;&nbsp; F = NO</p>
        ","f","html-keyboard-response","255","2.1.0","365050","J=YES, F=NO","lv3hjbmt63","2","71","78","65","","","","","","","","","wappings","road","pseudoword","pseudoword","f","true","",""
"null","<p style=""font-size: 50px;"">+</p>","null","html-keyboard-response","256","2.1.0","365352","J=YES, F=NO","lv3hjbmt63","2","71","78","65","","","","","","","","","","","","","","","",""
"null","audio/beep-329314.mp3","null","audio-keyboard-response","257","2.1.0","366842","J=YES, F=NO","lv3hjbmt63","2","71","78","65","","","","","","","","","","","","","","","",""
"null","audio/budget1.wav","null","audio-keyboard-response","258","2.1.0","367402","J=YES, F=NO","lv3hjbmt63","2","71","78","65","","","","","","","","","","","","","","","",""
"581","
          <p id=""word"" style=""font-size: 40px;"">sulist</p>
          <p style=""font-size: 16px;"">J = YES &nbsp;&nbsp;&nbsp; F = NO</p>
        ","f","html-keyboard-response","259","2.1.0","367982","J=YES, F=NO","lv3hjbmt63","2","71","78","65","","","","","","","","","sulist","budget1","pseudoword","pseudoword","f","true","",""
"null","<p style=""font-size: 50px;"">+</p>","null","html-keyboard-response","260","2.1.0","368296","J=YES, F=NO","lv3hjbmt63","2","71","78","65","","","","","","","","","","","","","","","",""
"null","audio/beep-329314.mp3","null","audio-keyboard-response","261","2.1.0","369781","J=YES, F=NO","lv3hjbmt63","2","71","78","65","","","","","","","","","","","","","","","",""
"null","audio/trout1.wav","null","audio-keyboard-response","262","2.1.0","370321","J=YES, F=NO","lv3hjbmt63","2","71","78","65","","","","","","","","","","","","","","","",""
"546","
          <p id=""word"" style=""font-size: 40px;"">spimt</p>
          <p style=""font-size: 16px;"">J = YES &nbsp;&nbsp;&nbsp; F = NO</p>
        ","f","html-keyboard-response","263","2.1.0","370867","J=YES, F=NO","lv3hjbmt63","2","71","78","65","","","","","","","","","spimt","trout1","pseudoword","pseudoword","f","true","",""
"null","<p style=""font-size: 50px;"">+</p>","null","html-keyboard-response","264","2.1.0","371181","J=YES, F=NO","lv3hjbmt63","2","71","78","65","","","","","","","","","","","","","","","",""
"null","audio/beep-329314.mp3","null","audio-keyboard-response","265","2.1.0","372672","J=YES, F=NO","lv3hjbmt63","2","71","78","65","","","","","","","","","","","","","","","",""
"null","audio/card1.wav","null","audio-keyboard-response","266","2.1.0","373161","J=YES, F=NO","lv3hjbmt63","2","71","78","65","","","","","","","","","","","","","","","",""
"506","
          <p id=""word"" style=""font-size: 40px;"">land</p>
          <p style=""font-size: 16px;"">J = YES &nbsp;&nbsp;&nbsp; F = NO</p>
        ","j","html-keyboard-response","267","2.1.0","373668","J=YES, F=NO","lv3hjbmt63","2","71","78","65","","","","","","","","","land","card1","unrelated","experimental","j","true","",""
"null","<p style=""font-size: 50px;"">+</p>","null","html-keyboard-response","268","2.1.0","373970","J=YES, F=NO","lv3hjbmt63","2","71","78","65","","","","","","","","","","","","","","","",""
"null","audio/beep-329314.mp3","null","audio-keyboard-response","269","2.1.0","375461","J=YES, F=NO","lv3hjbmt63","2","71","78","65","","","","","","","","","","","","","","","",""
"null","audio/garden1.wav","null","audio-keyboard-response","270","2.1.0","375941","J=YES, F=NO","lv3hjbmt63","2","71","78","65","","","","","","","","","","","","","","","",""
"500","
          <p id=""word"" style=""font-size: 40px;"">invest</p>
          <p style=""font-size: 16px;"">J = YES &nbsp;&nbsp;&nbsp; F = NO</p>
        ","j","html-keyboard-response","271","2.1.0","376441","J=YES, F=NO","lv3hjbmt63","2","71","78","65","","","","","","","","","invest","garden1","unrelated","experimental","j","true","",""
"null","<p style=""font-size: 50px;"">+</p>","null","html-keyboard-response","272","2.1.0","376754","J=YES, F=NO","lv3hjbmt63","2","71","78","65","","","","","","","","","","","","","","","",""
"null","audio/beep-329314.mp3","null","audio-keyboard-response","273","2.1.0","378242","J=YES, F=NO","lv3hjbmt63","2","71","78","65","","","","","","","","","","","","","","","",""
"null","audio/sand.wav","null","audio-keyboard-response","274","2.1.0","378841","J=YES, F=NO","lv3hjbmt63","2","71","78","65","","","","","","","","","","","","","","","",""
"729","
          <p id=""word"" style=""font-size: 40px;"">proted</p>
          <p style=""font-size: 16px;"">J = YES &nbsp;&nbsp;&nbsp; F = NO</p>
        ","f","html-keyboard-response","275","2.1.0","379572","J=YES, F=NO","lv3hjbmt63","2","71","78","65","","","","","","","","","proted","sand","pseudoword","pseudoword","f","true","",""
"null","<p style=""font-size: 50px;"">+</p>","null","html-keyboard-response","276","2.1.0","379875","J=YES, F=NO","lv3hjbmt63","2","71","78","65","","","","","","","","","","","","","","","",""
"null","audio/beep-329314.mp3","null","audio-keyboard-response","277","2.1.0","381361","J=YES, F=NO","lv3hjbmt63","2","71","78","65","","","","","","","","","","","","","","","",""
"null","audio/window1.wav","null","audio-keyboard-response","278","2.1.0","381921","J=YES, F=NO","lv3hjbmt63","2","71","78","65","","","","","","","","","","","","","","","",""
"524","
          <p id=""word"" style=""font-size: 40px;"">toss</p>
          <p style=""font-size: 16px;"">J = YES &nbsp;&nbsp;&nbsp; F = NO</p>
        ","j","html-keyboard-response","279","2.1.0","382447","J=YES, F=NO","lv3hjbmt63","2","71","78","65","","","","","","","","","toss","window1","filler","filler","j","true","",""
"null","<p style=""font-size: 50px;"">+</p>","null","html-keyboard-response","280","2.1.0","382760","J=YES, F=NO","lv3hjbmt63","2","71","78","65","","","","","","","","","","","","","","","",""
"null","audio/beep-329314.mp3","null","audio-keyboard-response","281","2.1.0","384252","J=YES, F=NO","lv3hjbmt63","2","71","78","65","","","","","","","","","","","","","","","",""
"null","audio/hawk1.wav","null","audio-keyboard-response","282","2.1.0","384792","J=YES, F=NO","lv3hjbmt63","2","71","78","65","","","","","","","","","","","","","","","",""
"792","
          <p id=""word"" style=""font-size: 40px;"">ostach</p>
          <p style=""font-size: 16px;"">J = YES &nbsp;&nbsp;&nbsp; F = NO</p>
        ","f","html-keyboard-response","283","2.1.0","385584","J=YES, F=NO","lv3hjbmt63","2","71","78","65","","","","","","","","","ostach","hawk1","pseudoword","pseudoword","f","true","",""
"null","<p style=""font-size: 50px;"">+</p>","null","html-keyboard-response","284","2.1.0","385891","J=YES, F=NO","lv3hjbmt63","2","71","78","65","","","","","","","","","","","","","","","",""
"null","audio/beep-329314.mp3","null","audio-keyboard-response","285","2.1.0","387381","J=YES, F=NO","lv3hjbmt63","2","71","78","65","","","","","","","","","","","","","","","",""
"null","audio/truth1.wav","null","audio-keyboard-response","286","2.1.0","387881","J=YES, F=NO","lv3hjbmt63","2","71","78","65","","","","","","","","","","","","","","","",""
"573","
          <p id=""word"" style=""font-size: 40px;"">calitom</p>
          <p style=""font-size: 16px;"">J = YES &nbsp;&nbsp;&nbsp; F = NO</p>
        ","f","html-keyboard-response","287","2.1.0","388455","J=YES, F=NO","lv3hjbmt63","2","71","78","65","","","","","","","","","calitom","truth1","pseudoword","pseudoword","f","true","",""
"null","<p style=""font-size: 50px;"">+</p>","null","html-keyboard-response","288","2.1.0","388767","J=YES, F=NO","lv3hjbmt63","2","71","78","65","","","","","","","","","","","","","","","",""
"null","audio/beep-329314.mp3","null","audio-keyboard-response","289","2.1.0","390252","J=YES, F=NO","lv3hjbmt63","2","71","78","65","","","","","","","","","","","","","","","",""
"null","audio/topic.wav","null","audio-keyboard-response","290","2.1.0","390782","J=YES, F=NO","lv3hjbmt63","2","71","78","65","","","","","","","","","","","","","","","",""
"573","
          <p id=""word"" style=""font-size: 40px;"">approach</p>
          <p style=""font-size: 16px;"">J = YES &nbsp;&nbsp;&nbsp; F = NO</p>
        ","j","html-keyboard-response","291","2.1.0","391356","J=YES, F=NO","lv3hjbmt63","2","71","78","65","","","","","","","","","approach","topic","metaphor","experimental","j","true","",""
"null","<p style=""font-size: 50px;"">+</p>","null","html-keyboard-response","292","2.1.0","391671","J=YES, F=NO","lv3hjbmt63","2","71","78","65","","","","","","","","","","","","","","","",""
"null","audio/beep-329314.mp3","null","audio-keyboard-response","293","2.1.0","393162","J=YES, F=NO","lv3hjbmt63","2","71","78","65","","","","","","","","","","","","","","","",""
"null","audio/birth1.wav","null","audio-keyboard-response","294","2.1.0","393652","J=YES, F=NO","lv3hjbmt63","2","71","78","65","","","","","","","","","","","","","","","",""
"624","
          <p id=""word"" style=""font-size: 40px;"">peel</p>
          <p style=""font-size: 16px;"">J = YES &nbsp;&nbsp;&nbsp; F = NO</p>
        ","j","html-keyboard-response","295","2.1.0","394277","J=YES, F=NO","lv3hjbmt63","2","71","78","65","","","","","","","","","peel","birth1","filler","filler","j","true","",""
"1604","<p>Excellent! You have finished block 2 of 8.</p>
                     <p>Feel free to take a 30 second break.</p>
                     <p>Press any key when you're ready to continue.</p>","j","html-keyboard-response","296","2.1.0","395880","J=YES, F=NO","lv3hjbmt63","2","71","78","65","","","","","","","","","","","","","","","",""
"495","<p>Starting main block 3 of 8. Press any key to continue.</p>","j","html-keyboard-response","297","2.1.0","396376","J=YES, F=NO","lv3hjbmt63","2","71","78","65","","","","","","","","","","","","","","","",""
"null","<p style=""font-size: 50px;"">+</p>","null","html-keyboard-response","298","2.1.0","396685","J=YES, F=NO","lv3hjbmt63","2","71","78","65","","","","","","","","","","","","","","","",""
"null","audio/beep-329314.mp3","null","audio-keyboard-response","299","2.1.0","398172","J=YES, F=NO","lv3hjbmt63","2","71","78","65","","","","","","","","","","","","","","","",""
"null","audio/mouth1.wav","null","audio-keyboard-response","300","2.1.0","398692","J=YES, F=NO","lv3hjbmt63","2","71","78","65","","","","","","","","","","","","","","","",""
"530","
          <p id=""word"" style=""font-size: 40px;"">spolial</p>
          <p style=""font-size: 16px;"">J = YES &nbsp;&nbsp;&nbsp; F = NO</p>
        ","f","html-keyboard-response","301","2.1.0","399223","J=YES, F=NO","lv3hjbmt63","2","71","78","65","","","","","","","","","spolial","mouth1","pseudoword","pseudoword","f","true","",""
"null","<p style=""font-size: 50px;"">+</p>","null","html-keyboard-response","302","2.1.0","399526","J=YES, F=NO","lv3hjbmt63","2","71","78","65","","","","","","","","","","","","","","","",""
"null","audio/beep-329314.mp3","null","audio-keyboard-response","303","2.1.0","401012","J=YES, F=NO","lv3hjbmt63","2","71","78","65","","","","","","","","","","","","","","","",""
"null","audio/butter1.wav","null","audio-keyboard-response","304","2.1.0","401411","J=YES, F=NO","lv3hjbmt63","2","71","78","65","","","","","","","","","","","","","","","",""
"642","
          <p id=""word"" style=""font-size: 40px;"">chew</p>
          <p style=""font-size: 16px;"">J = YES &nbsp;&nbsp;&nbsp; F = NO</p>
        ","j","html-keyboard-response","305","2.1.0","402054","J=YES, F=NO","lv3hjbmt63","2","71","78","65","","","","","","","","","chew","butter1","filler","filler","j","true","",""
"null","<p style=""font-size: 50px;"">+</p>","null","html-keyboard-response","306","2.1.0","402366","J=YES, F=NO","lv3hjbmt63","2","71","78","65","","","","","","","","","","","","","","","",""
"null","audio/beep-329314.mp3","null","audio-keyboard-response","307","2.1.0","403852","J=YES, F=NO","lv3hjbmt63","2","71","78","65","","","","","","","","","","","","","","","",""
"null","audio/flaw.wav","null","audio-keyboard-response","308","2.1.0","404441","J=YES, F=NO","lv3hjbmt63","2","71","78","65","","","","","","","","","","","","","","","",""
"703","
          <p id=""word"" style=""font-size: 40px;"">thwool</p>
          <p style=""font-size: 16px;"">J = YES &nbsp;&nbsp;&nbsp; F = NO</p>
        ","f","html-keyboard-response","309","2.1.0","405145","J=YES, F=NO","lv3hjbmt63","2","71","78","65","","","","","","","","","thwool","flaw","pseudoword","pseudoword","f","true","",""
"null","<p style=""font-size: 50px;"">+</p>","null","html-keyboard-response","310","2.1.0","405449","J=YES, F=NO","lv3hjbmt63","2","71","78","65","","","","","","","","","","","","","","","",""
"null","audio/beep-329314.mp3","null","audio-keyboard-response","311","2.1.0","406942","J=YES, F=NO","lv3hjbmt63","2","71","78","65","","","","","","","","","","","","","","","",""
"null","audio/belief.wav","null","audio-keyboard-response","312","2.1.0","407531","J=YES, F=NO","lv3hjbmt63","2","71","78","65","","","","","","","","","","","","","","","",""
"371","
          <p id=""word"" style=""font-size: 40px;"">read</p>
          <p style=""font-size: 16px;"">J = YES &nbsp;&nbsp;&nbsp; F = NO</p>
        ","j","html-keyboard-response","313","2.1.0","407903","J=YES, F=NO","lv3hjbmt63","2","71","78","65","","","","","","","","","read","belief","filler","filler","j","true","",""
"null","<p style=""font-size: 50px;"">+</p>","null","html-keyboard-response","314","2.1.0","408209","J=YES, F=NO","lv3hjbmt63","2","71","78","65","","","","","","","","","","","","","","","",""
"null","audio/beep-329314.mp3","null","audio-keyboard-response","315","2.1.0","409691","J=YES, F=NO","lv3hjbmt63","2","71","78","65","","","","","","","","","","","","","","","",""
"null","audio/tax1.wav","null","audio-keyboard-response","316","2.1.0","410251","J=YES, F=NO","lv3hjbmt63","2","71","78","65","","","","","","","","","","","","","","","",""
"546","
          <p id=""word"" style=""font-size: 40px;"">snate</p>
          <p style=""font-size: 16px;"">J = YES &nbsp;&nbsp;&nbsp; F = NO</p>
        ","f","html-keyboard-response","317","2.1.0","410798","J=YES, F=NO","lv3hjbmt63","2","71","78","65","","","","","","","","","snate","tax1","pseudoword","pseudoword","f","true","",""
"null","<p style=""font-size: 50px;"">+</p>","null","html-keyboard-response","318","2.1.0","411112","J=YES, F=NO","lv3hjbmt63","2","71","78","65","","","","","","","","","","","","","","","",""
"null","audio/beep-329314.mp3","null","audio-keyboard-response","319","2.1.0","412601","J=YES, F=NO","lv3hjbmt63","2","71","78","65","","","","","","","","","","","","","","","",""
"null","audio/mouth1.wav","null","audio-keyboard-response","320","2.1.0","413122","J=YES, F=NO","lv3hjbmt63","2","71","78","65","","","","","","","","","","","","","","","",""
"725","
          <p id=""word"" style=""font-size: 40px;"">close</p>
          <p style=""font-size: 16px;"">J = YES &nbsp;&nbsp;&nbsp; F = NO</p>
        ","j","html-keyboard-response","321","2.1.0","413848","J=YES, F=NO","lv3hjbmt63","2","71","78","65","","","","","","","","","close","mouth1","literal","experimental","j","true","",""
"null","<p style=""font-size: 50px;"">+</p>","null","html-keyboard-response","322","2.1.0","414162","J=YES, F=NO","lv3hjbmt63","2","71","78","65","","","","","","","","","","","","","","","",""
"null","audio/beep-329314.mp3","null","audio-keyboard-response","323","2.1.0","415651","J=YES, F=NO","lv3hjbmt63","2","71","78","65","","","","","","","","","","","","","","","",""
"null","audio/foot1.wav","null","audio-keyboard-response","324","2.1.0","416162","J=YES, F=NO","lv3hjbmt63","2","71","78","65","","","","","","","","","","","","","","","",""
"698","
          <p id=""word"" style=""font-size: 40px;"">thrutt</p>
          <p style=""font-size: 16px;"">J = YES &nbsp;&nbsp;&nbsp; F = NO</p>
        ","f","html-keyboard-response","325","2.1.0","416861","J=YES, F=NO","lv3hjbmt63","2","71","78","65","","","","","","","","","thrutt","foot1","pseudoword","pseudoword","f","true","",""
"null","<p style=""font-size: 50px;"">+</p>","null","html-keyboard-response","326","2.1.0","417164","J=YES, F=NO","lv3hjbmt63","2","71","78","65","","","","","","","","","","","","","","","",""
"null","audio/beep-329314.mp3","null","audio-keyboard-response","327","2.1.0","418651","J=YES, F=NO","lv3hjbmt63","2","71","78","65","","","","","","","","","","","","","","","",""
"null","audio/age1.wav","null","audio-keyboard-response","328","2.1.0","419152","J=YES, F=NO","lv3hjbmt63","2","71","78","65","","","","","","","","","","","","","","","",""
"742","
          <p id=""word"" style=""font-size: 40px;"">lachry</p>
          <p style=""font-size: 16px;"">J = YES &nbsp;&nbsp;&nbsp; F = NO</p>
        ","f","html-keyboard-response","329","2.1.0","419893","J=YES, F=NO","lv3hjbmt63","2","71","78","65","","","","","","","","","lachry","age1","pseudoword","pseudoword","f","true","",""
"null","<p style=""font-size: 50px;"">+</p>","null","html-keyboard-response","330","2.1.0","420202","J=YES, F=NO","lv3hjbmt63","2","71","78","65","","","","","","","","","","","","","","","",""
"null","audio/beep-329314.mp3","null","audio-keyboard-response","331","2.1.0","421692","J=YES, F=NO","lv3hjbmt63","2","71","78","65","","","","","","","","","","","","","","","",""
"null","audio/dome.wav","null","audio-keyboard-response","332","2.1.0","422081","J=YES, F=NO","lv3hjbmt63","2","71","78","65","","","","","","","","","","","","","","","",""
"1334","
          <p id=""word"" style=""font-size: 40px;"">scrupliness</p>
          <p style=""font-size: 16px;"">J = YES &nbsp;&nbsp;&nbsp; F = NO</p>
        ","f","html-keyboard-response","333","2.1.0","423416","J=YES, F=NO","lv3hjbmt63","2","71","78","65","","","","","","","","","scrupliness","dome","pseudoword","pseudoword","f","true","",""
"null","<p style=""font-size: 50px;"">+</p>","null","html-keyboard-response","334","2.1.0","423723","J=YES, F=NO","lv3hjbmt63","2","71","78","65","","","","","","","","","","","","","","","",""
"null","audio/beep-329314.mp3","null","audio-keyboard-response","335","2.1.0","425212","J=YES, F=NO","lv3hjbmt63","2","71","78","65","","","","","","","","","","","","","","","",""
"null","audio/goal.wav","null","audio-keyboard-response","336","2.1.0","425571","J=YES, F=NO","lv3hjbmt63","2","71","78","65","","","","","","","","","","","","","","","",""
"603","
          <p id=""word"" style=""font-size: 40px;"">support</p>
          <p style=""font-size: 16px;"">J = YES &nbsp;&nbsp;&nbsp; F = NO</p>
        ","j","html-keyboard-response","337","2.1.0","426175","J=YES, F=NO","lv3hjbmt63","2","71","78","65","","","","","","","","","support","goal","metaphor","experimental","j","true","",""
"null","<p style=""font-size: 50px;"">+</p>","null","html-keyboard-response","338","2.1.0","426485","J=YES, F=NO","lv3hjbmt63","2","71","78","65","","","","","","","","","","","","","","","",""
"null","audio/beep-329314.mp3","null","audio-keyboard-response","339","2.1.0","427972","J=YES, F=NO","lv3hjbmt63","2","71","78","65","","","","","","","","","","","","","","","",""
"null","audio/breath.wav","null","audio-keyboard-response","340","2.1.0","428481","J=YES, F=NO","lv3hjbmt63","2","71","78","65","","","","","","","","","","","","","","","",""
"1068","
          <p id=""word"" style=""font-size: 40px;"">pack</p>
          <p style=""font-size: 16px;"">J = YES &nbsp;&nbsp;&nbsp; F = NO</p>
        ","f","html-keyboard-response","341","2.1.0","429552","J=YES, F=NO","lv3hjbmt63","2","71","78","65","","","","","","","","","pack","breath","filler","filler","j","false","",""
"null","<p style=""font-size: 50px;"">+</p>","null","html-keyboard-response","342","2.1.0","429866","J=YES, F=NO","lv3hjbmt63","2","71","78","65","","","","","","","","","","","","","","","",""
"null","audio/beep-329314.mp3","null","audio-keyboard-response","343","2.1.0","431352","J=YES, F=NO","lv3hjbmt63","2","71","78","65","","","","","","","","","","","","","","","",""
"null","audio/dollar.wav","null","audio-keyboard-response","344","2.1.0","431692","J=YES, F=NO","lv3hjbmt63","2","71","78","65","","","","","","","","","","","","","","","",""
"540","
          <p id=""word"" style=""font-size: 40px;"">gliptism</p>
          <p style=""font-size: 16px;"">J = YES &nbsp;&nbsp;&nbsp; F = NO</p>
        ","f","html-keyboard-response","345","2.1.0","432232","J=YES, F=NO","lv3hjbmt63","2","71","78","65","","","","","","","","","gliptism","dollar","pseudoword","pseudoword","f","true","",""
"null","<p style=""font-size: 50px;"">+</p>","null","html-keyboard-response","346","2.1.0","432548","J=YES, F=NO","lv3hjbmt63","2","71","78","65","","","","","","","","","","","","","","","",""
"null","audio/beep-329314.mp3","null","audio-keyboard-response","347","2.1.0","434031","J=YES, F=NO","lv3hjbmt63","2","71","78","65","","","","","","","","","","","","","","","",""
"null","audio/bush1.wav","null","audio-keyboard-response","348","2.1.0","434462","J=YES, F=NO","lv3hjbmt63","2","71","78","65","","","","","","","","","","","","","","","",""
"676","
          <p id=""word"" style=""font-size: 40px;"">platined</p>
          <p style=""font-size: 16px;"">J = YES &nbsp;&nbsp;&nbsp; F = NO</p>
        ","f","html-keyboard-response","349","2.1.0","435139","J=YES, F=NO","lv3hjbmt63","2","71","78","65","","","","","","","","","platined","bush1","pseudoword","pseudoword","f","true","",""
"null","<p style=""font-size: 50px;"">+</p>","null","html-keyboard-response","350","2.1.0","435444","J=YES, F=NO","lv3hjbmt63","2","71","78","65","","","","","","","","","","","","","","","",""
"null","audio/beep-329314.mp3","null","audio-keyboard-response","351","2.1.0","436932","J=YES, F=NO","lv3hjbmt63","2","71","78","65","","","","","","","","","","","","","","","",""
"null","audio/gift1.wav","null","audio-keyboard-response","352","2.1.0","437342","J=YES, F=NO","lv3hjbmt63","2","71","78","65","","","","","","","","","","","","","","","",""
"629","
          <p id=""word"" style=""font-size: 40px;"">protsh</p>
          <p style=""font-size: 16px;"">J = YES &nbsp;&nbsp;&nbsp; F = NO</p>
        ","f","html-keyboard-response","353","2.1.0","437970","J=YES, F=NO","lv3hjbmt63","2","71","78","65","","","","","","","","","protsh","gift1","pseudoword","pseudoword","f","true","",""
"null","<p style=""font-size: 50px;"">+</p>","null","html-keyboard-response","354","2.1.0","438274","J=YES, F=NO","lv3hjbmt63","2","71","78","65","","","","","","","","","","","","","","","",""
"null","audio/beep-329314.mp3","null","audio-keyboard-response","355","2.1.0","439761","J=YES, F=NO","lv3hjbmt63","2","71","78","65","","","","","","","","","","","","","","","",""
"null","audio/baby.wav","null","audio-keyboard-response","356","2.1.0","440171","J=YES, F=NO","lv3hjbmt63","2","71","78","65","","","","","","","","","","","","","","","",""
"543","
          <p id=""word"" style=""font-size: 40px;"">lift</p>
          <p style=""font-size: 16px;"">J = YES &nbsp;&nbsp;&nbsp; F = NO</p>
        ","j","html-keyboard-response","357","2.1.0","440715","J=YES, F=NO","lv3hjbmt63","2","71","78","65","","","","","","","","","lift","baby","filler","filler","j","true","",""
"null","<p style=""font-size: 50px;"">+</p>","null","html-keyboard-response","358","2.1.0","441020","J=YES, F=NO","lv3hjbmt63","2","71","78","65","","","","","","","","","","","","","","","",""
"null","audio/beep-329314.mp3","null","audio-keyboard-response","359","2.1.0","442512","J=YES, F=NO","lv3hjbmt63","2","71","78","65","","","","","","","","","","","","","","","",""
"null","audio/radio1.wav","null","audio-keyboard-response","360","2.1.0","443071","J=YES, F=NO","lv3hjbmt63","2","71","78","65","","","","","","","","","","","","","","","",""
"null","
          <p id=""word"" style=""font-size: 40px;"">blanter</p>
          <p style=""font-size: 16px;"">J = YES &nbsp;&nbsp;&nbsp; F = NO</p>
        ","null","html-keyboard-response","361","2.1.0","444574","J=YES, F=NO","lv3hjbmt63","2","71","78","65","","","","","","","","","blanter","radio1","pseudoword","pseudoword","f","false","",""
"111","<p>Excellent! You have finished block 3 of 8.</p>
                     <p>Feel free to take a 30 second break.</p>
                     <p>Press any key when you're ready to continue.</p>","j","html-keyboard-response","362","2.1.0","444686","J=YES, F=NO","lv3hjbmt63","2","71","78","65","","","","","","","","","","","","","","","",""
"1354","<p>Starting main block 4 of 8. Press any key to continue.</p>","j","html-keyboard-response","363","2.1.0","446040","J=YES, F=NO","lv3hjbmt63","2","71","78","65","","","","","","","","","","","","","","","",""
"null","<p style=""font-size: 50px;"">+</p>","null","html-keyboard-response","364","2.1.0","446343","J=YES, F=NO","lv3hjbmt63","2","71","78","65","","","","","","","","","","","","","","","",""
"null","audio/beep-329314.mp3","null","audio-keyboard-response","365","2.1.0","447831","J=YES, F=NO","lv3hjbmt63","2","71","78","65","","","","","","","","","","","","","","","",""
"null","audio/arm.wav","null","audio-keyboard-response","366","2.1.0","448322","J=YES, F=NO","lv3hjbmt63","2","71","78","65","","","","","","","","","","","","","","","",""
"866","
          <p id=""word"" style=""font-size: 40px;"">pigne</p>
          <p style=""font-size: 16px;"">J = YES &nbsp;&nbsp;&nbsp; F = NO</p>
        ","f","html-keyboard-response","367","2.1.0","449188","J=YES, F=NO","lv3hjbmt63","2","71","78","65","","","","","","","","","pigne","arm","pseudoword","pseudoword","f","true","",""
"null","<p style=""font-size: 50px;"">+</p>","null","html-keyboard-response","368","2.1.0","449500","J=YES, F=NO","lv3hjbmt63","2","71","78","65","","","","","","","","","","","","","","","",""
"null","audio/beep-329314.mp3","null","audio-keyboard-response","369","2.1.0","450991","J=YES, F=NO","lv3hjbmt63","2","71","78","65","","","","","","","","","","","","","","","",""
"null","audio/scar.wav","null","audio-keyboard-response","370","2.1.0","451543","J=YES, F=NO","lv3hjbmt63","2","71","78","65","","","","","","","","","","","","","","","",""
"987","
          <p id=""word"" style=""font-size: 40px;"">adelineate</p>
          <p style=""font-size: 16px;"">J = YES &nbsp;&nbsp;&nbsp; F = NO</p>
        ","f","html-keyboard-response","371","2.1.0","452531","J=YES, F=NO","lv3hjbmt63","2","71","78","65","","","","","","","","","adelineate","scar","pseudoword","pseudoword","f","true","",""
"null","<p style=""font-size: 50px;"">+</p>","null","html-keyboard-response","372","2.1.0","452835","J=YES, F=NO","lv3hjbmt63","2","71","78","65","","","","","","","","","","","","","","","",""
"null","audio/beep-329314.mp3","null","audio-keyboard-response","373","2.1.0","454321","J=YES, F=NO","lv3hjbmt63","2","71","78","65","","","","","","","","","","","","","","","",""
"null","audio/cancer1.wav","null","audio-keyboard-response","374","2.1.0","454832","J=YES, F=NO","lv3hjbmt63","2","71","78","65","","","","","","","","","","","","","","","",""
"399","
          <p id=""word"" style=""font-size: 40px;"">fight</p>
          <p style=""font-size: 16px;"">J = YES &nbsp;&nbsp;&nbsp; F = NO</p>
        ","j","html-keyboard-response","375","2.1.0","455231","J=YES, F=NO","lv3hjbmt63","2","71","78","65","","","","","","","","","fight","cancer1","metaphor","experimental","j","true","",""
"null","<p style=""font-size: 50px;"">+</p>","null","html-keyboard-response","376","2.1.0","455546","J=YES, F=NO","lv3hjbmt63","2","71","78","65","","","","","","","","","","","","","","","",""
"null","audio/beep-329314.mp3","null","audio-keyboard-response","377","2.1.0","457033","J=YES, F=NO","lv3hjbmt63","2","71","78","65","","","","","","","","","","","","","","","",""
"null","audio/age1.wav","null","audio-keyboard-response","378","2.1.0","457531","J=YES, F=NO","lv3hjbmt63","2","71","78","65","","","","","","","","","","","","","","","",""
"703","
          <p id=""word"" style=""font-size: 40px;"">seize</p>
          <p style=""font-size: 16px;"">J = YES &nbsp;&nbsp;&nbsp; F = NO</p>
        ","j","html-keyboard-response","379","2.1.0","458235","J=YES, F=NO","lv3hjbmt63","2","71","78","65","","","","","","","","","seize","age1","unrelated","experimental","j","true","",""
"null","<p style=""font-size: 50px;"">+</p>","null","html-keyboard-response","380","2.1.0","458549","J=YES, F=NO","lv3hjbmt63","2","71","78","65","","","","","","","","","","","","","","","",""
"null","audio/beep-329314.mp3","null","audio-keyboard-response","381","2.1.0","460041","J=YES, F=NO","lv3hjbmt63","2","71","78","65","","","","","","","","","","","","","","","",""
"null","audio/strength.wav","null","audio-keyboard-response","382","2.1.0","460731","J=YES, F=NO","lv3hjbmt63","2","71","78","65","","","","","","","","","","","","","","","",""
"693","
          <p id=""word"" style=""font-size: 40px;"">plabet</p>
          <p style=""font-size: 16px;"">J = YES &nbsp;&nbsp;&nbsp; F = NO</p>
        ","f","html-keyboard-response","383","2.1.0","461425","J=YES, F=NO","lv3hjbmt63","2","71","78","65","","","","","","","","","plabet","strength","pseudoword","pseudoword","f","true","",""
"null","<p style=""font-size: 50px;"">+</p>","null","html-keyboard-response","384","2.1.0","461728","J=YES, F=NO","lv3hjbmt63","2","71","78","65","","","","","","","","","","","","","","","",""
"null","audio/beep-329314.mp3","null","audio-keyboard-response","385","2.1.0","463222","J=YES, F=NO","lv3hjbmt63","2","71","78","65","","","","","","","","","","","","","","","",""
"null","audio/arm.wav","null","audio-keyboard-response","386","2.1.0","463712","J=YES, F=NO","lv3hjbmt63","2","71","78","65","","","","","","","","","","","","","","","",""
"784","
          <p id=""word"" style=""font-size: 40px;"">fold</p>
          <p style=""font-size: 16px;"">J = YES &nbsp;&nbsp;&nbsp; F = NO</p>
        ","j","html-keyboard-response","387","2.1.0","464496","J=YES, F=NO","lv3hjbmt63","2","71","78","65","","","","","","","","","fold","arm","filler","filler","j","true","",""
"null","<p style=""font-size: 50px;"">+</p>","null","html-keyboard-response","388","2.1.0","464841","J=YES, F=NO","lv3hjbmt63","2","71","78","65","","","","","","","","","","","","","","","",""
"null","audio/beep-329314.mp3","null","audio-keyboard-response","389","2.1.0","466331","J=YES, F=NO","lv3hjbmt63","2","71","78","65","","","","","","","","","","","","","","","",""
"null","audio/cloud1.wav","null","audio-keyboard-response","390","2.1.0","466831","J=YES, F=NO","lv3hjbmt63","2","71","78","65","","","","","","","","","","","","","","","",""
"505","
          <p id=""word"" style=""font-size: 40px;"">brotant</p>
          <p style=""font-size: 16px;"">J = YES &nbsp;&nbsp;&nbsp; F = NO</p>
