"rt","stimulus","response","trial_type","trial_index","plugin_version","time_elapsed","response_mapping","subject_id","list_index","lextale_score","lextale_word_score","lextale_nonword_score","success","timeout","failed_images","failed_audio","failed_video","task","isWord","isDummy","target","prime","prime_type","stimulus_type","correct_response","correct","section","question_order"
"35445","
    <div style=""max-width: 800px; margin: auto; text-align: left;"">
      <h2>STANFORD UNIVERSITY</h2>
      <h3>Research Information Sheet</h3>
      <p><strong>Protocol Director:</strong> Robert Hawkins<br>
      <strong>Protocol Title:</strong> Communication and social cognition in natural audiovisual contexts<br>
      <strong>IRB#:</strong> 77226</p>

      <p><strong>DESCRIPTION:</strong> You are invited to participate in a research study about language and communication. The purpose of the research is to understand how you interact and communicate with other people in naturalistic settings as a fluent English speaker. This research will be conducted through the Prolific platform, including participants from the US, UK, and Canada. If you decide to participate in this research, you will play a communication game in a group with one or more partners.</p>

      <p><strong>TIME INVOLVEMENT:</strong> The task will last the amount of time advertised on Prolific. You are free to withdraw from the study at any time.</p>

      <p><strong>RISKS AND BENEFITS:</strong> You may become frustrated if your partner gets distracted, or experience discomfort if other participants in your group send text that is inappropriate for the task. We ask you to please be respectful of other participants you might be interacting with to mitigate these risks. You may also experience discomfort when being asked to discuss or challenge emotionally salient political beliefs. Study data will be stored securely, in compliance with Stanford University standards, minimizing the risk of confidentiality breach. This study advances our scientific understanding of how people communicate and collaborate in naturalistic settings. This study may lead to further insights about what can go wrong in teamwork, suggest potential interventions to overcome these barriers, and help to develop assistive technologies that collaborate with human partners. We cannot and do not guarantee or promise that you will receive any benefits from this study.</p>

      <p><strong>PAYMENTS:</strong> You will receive payment in the amount advertised on Prolific. If you do not complete this study, you will receive prorated payment based on the time that you have spent. Additionally, you may be eligible for bonus payments as described in the instructions.</p>

      <p><strong>PARTICIPANT’S RIGHTS:</strong> If you have read this form and have decided to participate in this project, please understand your participation is voluntary and you have the right to withdraw your consent or discontinue participation at any time without penalty or loss of benefits to which you are otherwise entitled. The alternative is not to participate. You have the right to refuse to answer particular questions. The results of this research study may be presented at scientific or professional meetings or published in scientific journals. Your individual privacy will be maintained in all published and written data resulting from the study. In accordance with scientific norms, the data from this study may be used or shared with other researchers for future research (after removing personally identifying information) without additional consent from you.</p>

      <p><strong>CONTACT INFORMATION:</strong><br>
      Questions: If you have any questions, concerns or complaints about this research, its procedures, risks and benefits, contact the Protocol Director, Robert Hawkins (<a href=""mailto:rdhawkins@stanford.edu"">rdhawkins@stanford.edu</a>, 217-549-6923).<br>
      Independent Contact: If you are not satisfied with how this study is being conducted, or if you have any concerns, complaints, or general questions about the research or your rights as a participant, please contact the Stanford Institutional Review Board (IRB) to speak to someone independent of the research team at 650-723-2480 or toll free at 1-866-680-2906, or email at <a href=""mailto:irbnon-med@stanford.edu"">irbnon-med@stanford.edu</a>. You can also write to the Stanford IRB, Stanford University, 1705 El Camino Real, Palo Alto, CA 94306.</p>

      <p><strong>Please save or print a copy of this page for your records.</strong></p>
      <p>If you agree to participate in this research, click ""Continue"" below.</p>
    </div>
  ","0","html-button-response","0","2.1.0","35451","F=YES, J=NO","lwg8nyuwhs","1","63","70","55","","","","","","","","","","","","","","","",""
"10381","
    <div style=""max-width: 800px; margin: auto; text-align: left;"">
      <h2>Welcome!</h2>
      <p>Thank you for participating in this study. The experiment consists of three parts:</p>
      <ol>
        <li>An English vocabulary test</li>
        <li>A main task in which you will hear and see words, and decide whether the written word is a real English word</li>
        <li>A brief survey about your background</li>
      </ol>
      <p>Each part will be introduced before it begins.</p>
      <p>Please make sure you are in a quiet environment and can hear audio clearly for the final task.</p>
      <p style=""margin-top: 2em;"">Press any key to begin.</p>
    </div>
  ","0","html-keyboard-response","1","2.1.0","45835","F=YES, J=NO","lwg8nyuwhs","1","63","70","55","","","","","","","","","","","","","","","",""
"","","","preload","2","2.1.0","46279","F=YES, J=NO","lwg8nyuwhs","1","63","70","55","true","false","[]","[]","[]","","","","","","","","","","",""
"6403","
    <div style=""max-width: 800px; margin: auto; text-align: left;"">
      <h2>Part 1: Vocabulary Test</h2>
      <p>You will now complete the first part of the study: a short English vocabulary test.</p>
      <p>This test is called <strong>LexTALE</strong> and helps us get a general sense of your English proficiency.</p>
      <p style=""margin-top: 2em;"">Press any key to continue.</p>
    </div>
  ","0","html-keyboard-response","3","2.1.0","52683","F=YES, J=NO","lwg8nyuwhs","1","63","70","55","","","","","","","","","","","","","","","",""
"20350","
    <div style=""max-width: 800px; margin: auto; text-align: left;"">
      <h2>LexTALE Vocabulary Test</h2>
      <p>In this test, you will see a series of letter strings—one at a time.</p>
      <p>Your task is to decide whether each string is a real English word.</p>
      <p><strong>Key responses:</strong></p>
      <ul>
        <li><strong>F</strong> = YES (real English word)</li>
        <li><strong>J</strong> = NO (not a real English word)</li>
      </ul>
      <p>There is no time limit, but please try to be accurate.</p>
      <p style=""margin-top: 2em;"">Press any key to begin.</p>
    </div>
  ","f","html-keyboard-response","4","2.1.0","73035","F=YES, J=NO","lwg8nyuwhs","1","63","70","55","","","","","","","","","","","","","","","",""
"2191","
  <p style=""font-size: 40px;"">platery</p>
  <p style=""font-size: 16px;"">F = YES &nbsp;&nbsp;&nbsp; J = NO</p>
","f","html-keyboard-response","5","2.1.0","75227","F=YES, J=NO","lwg8nyuwhs","1","63","70","55","","","","","","lextale","false","true","","","","","","","",""
"910","
  <p style=""font-size: 40px;"">denial</p>
  <p style=""font-size: 16px;"">F = YES &nbsp;&nbsp;&nbsp; J = NO</p>
","f","html-keyboard-response","6","2.1.0","76139","F=YES, J=NO","lwg8nyuwhs","1","63","70","55","","","","","","lextale","true","true","","","","","","","",""
"3326","
  <p style=""font-size: 40px;"">marrit</p>
  <p style=""font-size: 16px;"">F = YES &nbsp;&nbsp;&nbsp; J = NO</p>
","f","html-keyboard-response","7","2.1.0","79467","F=YES, J=NO","lwg8nyuwhs","1","63","70","55","","","","","","lextale","false","true","","","","","","","",""
"702","
  <p style=""font-size: 40px;"">bottle</p>
  <p style=""font-size: 16px;"">F = YES &nbsp;&nbsp;&nbsp; J = NO</p>
","f","html-keyboard-response","8","2.1.0","80171","F=YES, J=NO","lwg8nyuwhs","1","63","70","55","","","","","","lextale","true","false","","","","","","","",""
"11821","
  <p style=""font-size: 40px;"">birst</p>
  <p style=""font-size: 16px;"">F = YES &nbsp;&nbsp;&nbsp; J = NO</p>
","j","html-keyboard-response","9","2.1.0","91993","F=YES, J=NO","lwg8nyuwhs","1","63","70","55","","","","","","lextale","false","false","","","","","","","",""
"1344","
  <p style=""font-size: 40px;"">envy</p>
  <p style=""font-size: 16px;"">F = YES &nbsp;&nbsp;&nbsp; J = NO</p>
","f","html-keyboard-response","10","2.1.0","93339","F=YES, J=NO","lwg8nyuwhs","1","63","70","55","","","","","","lextale","true","false","","","","","","","",""
"1806","
  <p style=""font-size: 40px;"">brang</p>
  <p style=""font-size: 16px;"">F = YES &nbsp;&nbsp;&nbsp; J = NO</p>
","j","html-keyboard-response","11","2.1.0","95147","F=YES, J=NO","lwg8nyuwhs","1","63","70","55","","","","","","lextale","false","false","","","","","","","",""
"846","
  <p style=""font-size: 40px;"">huge</p>
  <p style=""font-size: 16px;"">F = YES &nbsp;&nbsp;&nbsp; J = NO</p>
","f","html-keyboard-response","12","2.1.0","95995","F=YES, J=NO","lwg8nyuwhs","1","63","70","55","","","","","","lextale","true","false","","","","","","","",""
"1116","
  <p style=""font-size: 40px;"">plove</p>
  <p style=""font-size: 16px;"">F = YES &nbsp;&nbsp;&nbsp; J = NO</p>
","f","html-keyboard-response","13","2.1.0","97113","F=YES, J=NO","lwg8nyuwhs","1","63","70","55","","","","","","lextale","false","false","","","","","","","",""
"657","
  <p style=""font-size: 40px;"">border</p>
  <p style=""font-size: 16px;"">F = YES &nbsp;&nbsp;&nbsp; J = NO</p>
","f","html-keyboard-response","14","2.1.0","97771","F=YES, J=NO","lwg8nyuwhs","1","63","70","55","","","","","","lextale","true","false","","","","","","","",""
"1294","
  <p style=""font-size: 40px;"">flimsy</p>
  <p style=""font-size: 16px;"">F = YES &nbsp;&nbsp;&nbsp; J = NO</p>
","f","html-keyboard-response","15","2.1.0","99067","F=YES, J=NO","lwg8nyuwhs","1","63","70","55","","","","","","lextale","true","false","","","","","","","",""
"878","
  <p style=""font-size: 40px;"">drain</p>
  <p style=""font-size: 16px;"">F = YES &nbsp;&nbsp;&nbsp; J = NO</p>
","f","html-keyboard-response","16","2.1.0","99947","F=YES, J=NO","lwg8nyuwhs","1","63","70","55","","","","","","lextale","true","false","","","","","","","",""
"1262","
  <p style=""font-size: 40px;"">twindle</p>
  <p style=""font-size: 16px;"">F = YES &nbsp;&nbsp;&nbsp; J = NO</p>
","j","html-keyboard-response","17","2.1.0","101211","F=YES, J=NO","lwg8nyuwhs","1","63","70","55","","","","","","lextale","false","false","","","","","","","",""
"751","
  <p style=""font-size: 40px;"">propose</p>
  <p style=""font-size: 16px;"">F = YES &nbsp;&nbsp;&nbsp; J = NO</p>
","f","html-keyboard-response","18","2.1.0","101963","F=YES, J=NO","lwg8nyuwhs","1","63","70","55","","","","","","lextale","true","false","","","","","","","",""
"1261","
  <p style=""font-size: 40px;"">forlay</p>
  <p style=""font-size: 16px;"">F = YES &nbsp;&nbsp;&nbsp; J = NO</p>
","f","html-keyboard-response","19","2.1.0","103226","F=YES, J=NO","lwg8nyuwhs","1","63","70","55","","","","","","lextale","false","false","","","","","","","",""
"1072","
  <p style=""font-size: 40px;"">tenant</p>
  <p style=""font-size: 16px;"">F = YES &nbsp;&nbsp;&nbsp; J = NO</p>
","f","html-keyboard-response","20","2.1.0","104298","F=YES, J=NO","lwg8nyuwhs","1","63","70","55","","","","","","lextale","true","false","","","","","","","",""
"751","
  <p style=""font-size: 40px;"">strain</p>
  <p style=""font-size: 16px;"">F = YES &nbsp;&nbsp;&nbsp; J = NO</p>
","f","html-keyboard-response","21","2.1.0","105051","F=YES, J=NO","lwg8nyuwhs","1","63","70","55","","","","","","lextale","true","false","","","","","","","",""
"1214","
  <p style=""font-size: 40px;"">holster</p>
  <p style=""font-size: 16px;"">F = YES &nbsp;&nbsp;&nbsp; J = NO</p>
","j","html-keyboard-response","22","2.1.0","106267","F=YES, J=NO","lwg8nyuwhs","1","63","70","55","","","","","","lextale","true","false","","","","","","","",""
"1135","
  <p style=""font-size: 40px;"">hinder</p>
  <p style=""font-size: 16px;"">F = YES &nbsp;&nbsp;&nbsp; J = NO</p>
","j","html-keyboard-response","23","2.1.0","107403","F=YES, J=NO","lwg8nyuwhs","1","63","70","55","","","","","","lextale","true","false","","","","","","","",""
"1647","
  <p style=""font-size: 40px;"">swindle</p>
  <p style=""font-size: 16px;"">F = YES &nbsp;&nbsp;&nbsp; J = NO</p>
","j","html-keyboard-response","24","2.1.0","109051","F=YES, J=NO","lwg8nyuwhs","1","63","70","55","","","","","","lextale","true","false","","","","","","","",""
"1006","
  <p style=""font-size: 40px;"">nuder</p>
  <p style=""font-size: 16px;"">F = YES &nbsp;&nbsp;&nbsp; J = NO</p>
","j","html-keyboard-response","25","2.1.0","110058","F=YES, J=NO","lwg8nyuwhs","1","63","70","55","","","","","","lextale","false","false","","","","","","","",""
"687","
  <p style=""font-size: 40px;"">pillow</p>
  <p style=""font-size: 16px;"">F = YES &nbsp;&nbsp;&nbsp; J = NO</p>
","f","html-keyboard-response","26","2.1.0","110747","F=YES, J=NO","lwg8nyuwhs","1","63","70","55","","","","","","lextale","true","false","","","","","","","",""
"1086","
  <p style=""font-size: 40px;"">shumble</p>
  <p style=""font-size: 16px;"">F = YES &nbsp;&nbsp;&nbsp; J = NO</p>
","f","html-keyboard-response","27","2.1.0","111834","F=YES, J=NO","lwg8nyuwhs","1","63","70","55","","","","","","lextale","false","false","","","","","","","",""
"750","
  <p style=""font-size: 40px;"">thirst</p>
  <p style=""font-size: 16px;"">F = YES &nbsp;&nbsp;&nbsp; J = NO</p>
","f","html-keyboard-response","28","2.1.0","112585","F=YES, J=NO","lwg8nyuwhs","1","63","70","55","","","","","","lextale","true","false","","","","","","","",""
"2289","
  <p style=""font-size: 40px;"">unsail</p>
  <p style=""font-size: 16px;"">F = YES &nbsp;&nbsp;&nbsp; J = NO</p>
","f","html-keyboard-response","29","2.1.0","114874","F=YES, J=NO","lwg8nyuwhs","1","63","70","55","","","","","","lextale","false","false","","","","","","","",""
"927","
  <p style=""font-size: 40px;"">rifle</p>
  <p style=""font-size: 16px;"">F = YES &nbsp;&nbsp;&nbsp; J = NO</p>
","f","html-keyboard-response","30","2.1.0","115802","F=YES, J=NO","lwg8nyuwhs","1","63","70","55","","","","","","lextale","true","false","","","","","","","",""
"2271","
  <p style=""font-size: 40px;"">mush</p>
  <p style=""font-size: 16px;"">F = YES &nbsp;&nbsp;&nbsp; J = NO</p>
","f","html-keyboard-response","31","2.1.0","118075","F=YES, J=NO","lwg8nyuwhs","1","63","70","55","","","","","","lextale","false","false","","","","","","","",""
"3277","
  <p style=""font-size: 40px;"">drench</p>
  <p style=""font-size: 16px;"">F = YES &nbsp;&nbsp;&nbsp; J = NO</p>
","f","html-keyboard-response","32","2.1.0","121354","F=YES, J=NO","lwg8nyuwhs","1","63","70","55","","","","","","lextale","true","false","","","","","","","",""
"1357","
  <p style=""font-size: 40px;"">snirt</p>
  <p style=""font-size: 16px;"">F = YES &nbsp;&nbsp;&nbsp; J = NO</p>
","j","html-keyboard-response","33","2.1.0","122713","F=YES, J=NO","lwg8nyuwhs","1","63","70","55","","","","","","lextale","false","false","","","","","","","",""
"880","
  <p style=""font-size: 40px;"">bitter</p>
  <p style=""font-size: 16px;"">F = YES &nbsp;&nbsp;&nbsp; J = NO</p>
","f","html-keyboard-response","34","2.1.0","123593","F=YES, J=NO","lwg8nyuwhs","1","63","70","55","","","","","","lextale","true","false","","","","","","","",""
"800","
  <p style=""font-size: 40px;"">pliff</p>
  <p style=""font-size: 16px;"">F = YES &nbsp;&nbsp;&nbsp; J = NO</p>
","j","html-keyboard-response","35","2.1.0","124394","F=YES, J=NO","lwg8nyuwhs","1","63","70","55","","","","","","lextale","false","false","","","","","","","",""
"942","
  <p style=""font-size: 40px;"">tablet</p>
  <p style=""font-size: 16px;"">F = YES &nbsp;&nbsp;&nbsp; J = NO</p>
","f","html-keyboard-response","36","2.1.0","125337","F=YES, J=NO","lwg8nyuwhs","1","63","70","55","","","","","","lextale","true","false","","","","","","","",""
"5841","
  <p style=""font-size: 40px;"">glimmer</p>
  <p style=""font-size: 16px;"">F = YES &nbsp;&nbsp;&nbsp; J = NO</p>
","j","html-keyboard-response","37","2.1.0","131179","F=YES, J=NO","lwg8nyuwhs","1","63","70","55","","","","","","lextale","true","false","","","","","","","",""
"12415","
  <p style=""font-size: 40px;"">slink</p>
  <p style=""font-size: 16px;"">F = YES &nbsp;&nbsp;&nbsp; J = NO</p>
","j","html-keyboard-response","38","2.1.0","143595","F=YES, J=NO","lwg8nyuwhs","1","63","70","55","","","","","","lextale","true","false","","","","","","","",""
"558","
  <p style=""font-size: 40px;"">clever</p>
  <p style=""font-size: 16px;"">F = YES &nbsp;&nbsp;&nbsp; J = NO</p>
","f","html-keyboard-response","39","2.1.0","144155","F=YES, J=NO","lwg8nyuwhs","1","63","70","55","","","","","","lextale","true","false","","","","","","","",""
"1230","
  <p style=""font-size: 40px;"">grum</p>
  <p style=""font-size: 16px;"">F = YES &nbsp;&nbsp;&nbsp; J = NO</p>
","j","html-keyboard-response","40","2.1.0","145386","F=YES, J=NO","lwg8nyuwhs","1","63","70","55","","","","","","lextale","false","false","","","","","","","",""
"718","
  <p style=""font-size: 40px;"">string</p>
  <p style=""font-size: 16px;"">F = YES &nbsp;&nbsp;&nbsp; J = NO</p>
","f","html-keyboard-response","41","2.1.0","146106","F=YES, J=NO","lwg8nyuwhs","1","63","70","55","","","","","","lextale","true","false","","","","","","","",""
"1742","
  <p style=""font-size: 40px;"">plim</p>
  <p style=""font-size: 16px;"">F = YES &nbsp;&nbsp;&nbsp; J = NO</p>
","j","html-keyboard-response","42","2.1.0","147849","F=YES, J=NO","lwg8nyuwhs","1","63","70","55","","","","","","lextale","false","false","","","","","","","",""
"640","
  <p style=""font-size: 40px;"">cable</p>
  <p style=""font-size: 16px;"">F = YES &nbsp;&nbsp;&nbsp; J = NO</p>
","f","html-keyboard-response","43","2.1.0","148489","F=YES, J=NO","lwg8nyuwhs","1","63","70","55","","","","","","lextale","true","false","","","","","","","",""
"1024","
  <p style=""font-size: 40px;"">shrivel</p>
  <p style=""font-size: 16px;"">F = YES &nbsp;&nbsp;&nbsp; J = NO</p>
","f","html-keyboard-response","44","2.1.0","149514","F=YES, J=NO","lwg8nyuwhs","1","63","70","55","","","","","","lextale","true","false","","","","","","","",""
"1134","
  <p style=""font-size: 40px;"">tarnish</p>
  <p style=""font-size: 16px;"">F = YES &nbsp;&nbsp;&nbsp; J = NO</p>
","f","html-keyboard-response","45","2.1.0","150650","F=YES, J=NO","lwg8nyuwhs","1","63","70","55","","","","","","lextale","true","false","","","","","","","",""
"686","
  <p style=""font-size: 40px;"">blim</p>
  <p style=""font-size: 16px;"">F = YES &nbsp;&nbsp;&nbsp; J = NO</p>
","j","html-keyboard-response","46","2.1.0","151338","F=YES, J=NO","lwg8nyuwhs","1","63","70","55","","","","","","lextale","false","false","","","","","","","",""
"735","
  <p style=""font-size: 40px;"">stifle</p>
  <p style=""font-size: 16px;"">F = YES &nbsp;&nbsp;&nbsp; J = NO</p>
","f","html-keyboard-response","47","2.1.0","152074","F=YES, J=NO","lwg8nyuwhs","1","63","70","55","","","","","","lextale","true","false","","","","","","","",""
"734","
  <p style=""font-size: 40px;"">bint</p>
  <p style=""font-size: 16px;"">F = YES &nbsp;&nbsp;&nbsp; J = NO</p>
","f","html-keyboard-response","48","2.1.0","152810","F=YES, J=NO","lwg8nyuwhs","1","63","70","55","","","","","","lextale","false","false","","","","","","","",""
"622","
  <p style=""font-size: 40px;"">purple</p>
  <p style=""font-size: 16px;"">F = YES &nbsp;&nbsp;&nbsp; J = NO</p>
","f","html-keyboard-response","49","2.1.0","153433","F=YES, J=NO","lwg8nyuwhs","1","63","70","55","","","","","","lextale","true","false","","","","","","","",""
"721","
  <p style=""font-size: 40px;"">wriggle</p>
  <p style=""font-size: 16px;"">F = YES &nbsp;&nbsp;&nbsp; J = NO</p>
","f","html-keyboard-response","50","2.1.0","154155","F=YES, J=NO","lwg8nyuwhs","1","63","70","55","","","","","","lextale","true","false","","","","","","","",""
"1422","
  <p style=""font-size: 40px;"">mangle</p>
  <p style=""font-size: 16px;"">F = YES &nbsp;&nbsp;&nbsp; J = NO</p>
","j","html-keyboard-response","51","2.1.0","155578","F=YES, J=NO","lwg8nyuwhs","1","63","70","55","","","","","","lextale","true","false","","","","","","","",""
"766","
  <p style=""font-size: 40px;"">shramp</p>
  <p style=""font-size: 16px;"">F = YES &nbsp;&nbsp;&nbsp; J = NO</p>
","f","html-keyboard-response","52","2.1.0","156346","F=YES, J=NO","lwg8nyuwhs","1","63","70","55","","","","","","lextale","false","false","","","","","","","",""
"799","
  <p style=""font-size: 40px;"">flirt</p>
  <p style=""font-size: 16px;"">F = YES &nbsp;&nbsp;&nbsp; J = NO</p>
","f","html-keyboard-response","53","2.1.0","157147","F=YES, J=NO","lwg8nyuwhs","1","63","70","55","","","","","","lextale","true","false","","","","","","","",""
"974","
  <p style=""font-size: 40px;"">frip</p>
  <p style=""font-size: 16px;"">F = YES &nbsp;&nbsp;&nbsp; J = NO</p>
","j","html-keyboard-response","54","2.1.0","158122","F=YES, J=NO","lwg8nyuwhs","1","63","70","55","","","","","","lextale","false","false","","","","","","","",""
"655","
  <p style=""font-size: 40px;"">tangle</p>
  <p style=""font-size: 16px;"">F = YES &nbsp;&nbsp;&nbsp; J = NO</p>
","f","html-keyboard-response","55","2.1.0","158778","F=YES, J=NO","lwg8nyuwhs","1","63","70","55","","","","","","lextale","true","false","","","","","","","",""
"719","
  <p style=""font-size: 40px;"">crumble</p>
  <p style=""font-size: 16px;"">F = YES &nbsp;&nbsp;&nbsp; J = NO</p>
","f","html-keyboard-response","56","2.1.0","159498","F=YES, J=NO","lwg8nyuwhs","1","63","70","55","","","","","","lextale","true","false","","","","","","","",""
"830","
  <p style=""font-size: 40px;"">wrinkle</p>
  <p style=""font-size: 16px;"">F = YES &nbsp;&nbsp;&nbsp; J = NO</p>
","f","html-keyboard-response","57","2.1.0","160330","F=YES, J=NO","lwg8nyuwhs","1","63","70","55","","","","","","lextale","true","false","","","","","","","",""
"2207","
  <p style=""font-size: 40px;"">slumb</p>
  <p style=""font-size: 16px;"">F = YES &nbsp;&nbsp;&nbsp; J = NO</p>
","f","html-keyboard-response","58","2.1.0","162538","F=YES, J=NO","lwg8nyuwhs","1","63","70","55","","","","","","lextale","false","false","","","","","","","",""
"655","
  <p style=""font-size: 40px;"">jungle</p>
  <p style=""font-size: 16px;"">F = YES &nbsp;&nbsp;&nbsp; J = NO</p>
","f","html-keyboard-response","59","2.1.0","163194","F=YES, J=NO","lwg8nyuwhs","1","63","70","55","","","","","","lextale","true","false","","","","","","","",""
"1119","
  <p style=""font-size: 40px;"">frolick</p>
  <p style=""font-size: 16px;"">F = YES &nbsp;&nbsp;&nbsp; J = NO</p>
","j","html-keyboard-response","60","2.1.0","164315","F=YES, J=NO","lwg8nyuwhs","1","63","70","55","","","","","","lextale","false","false","","","","","","","",""
"3294","
      <h2>LexTALE Test Completed</h2>
      <p>Your LexTALE vocabulary score is: <strong>63%</strong></p>
      <p>Press any key to continue.</p>
    ","j","html-keyboard-response","61","2.1.0","167611","F=YES, J=NO","lwg8nyuwhs","1","63","70","55","","","","","","","","","","","","","","","",""
"6062","
    <div style=""max-width: 800px; margin: auto; text-align: left;"">
      <h2>Break Time</h2>
      <p>You have completed the first part of the study.</p>
      <p>You may take a short <strong>30-second break</strong> before continuing.</p>
      <p>When you’re ready, press any key to continue to the final task.</p>
    </div>
  ","f","html-keyboard-response","62","2.1.0","173674","F=YES, J=NO","lwg8nyuwhs","1","63","70","55","","","","","","","","","","","","","","","",""
"7679","
    <div style=""max-width: 800px; margin: auto; text-align: left;"">
      <h2>Part 2: Lexical Decision Task</h2>
      <p>You will now begin the second part of the study.</p>
      <p>Each trial will follow this sequence:</p>
      <ul>
        <li>A fixation cross (+) appears at the center of the screen.</li>
        <li>You will hear a short beep followed by a spoken word.</li>
        <li>A written word will appear briefly on the screen.</li>
      </ul>
      <p>Your task is to judge whether the <strong>written word</strong> is a real English word.</p>
      <p style=""margin-top: 1em;""><strong>Key responses:</strong></p>
      <ul>
        <li><strong>F</strong> = YES (real English word)</li>
        <li><strong>J</strong> = NO (not a real English word)</li>
      </ul>
      <p>Please respond as quickly and accurately as you can.</p>
      <p style=""margin-top: 2em;"">Press any key to continue.</p>
    </div>
  ","f","html-keyboard-response","63","2.1.0","181355","F=YES, J=NO","lwg8nyuwhs","1","63","70","55","","","","","","","","","","","","","","","",""
"12301","
    <div style=""max-width: 800px; margin: auto; text-align: left;"">
      <h2>Before You Begin</h2>
      <p>Make sure your sound is turned on.</p>
      <p>You will hear audio during each trial, but your decision should be based only on the <strong>written word</strong> you see on the screen.</p>
      <p><strong>Reminder:</strong></p>
      <ul>
        <li><strong>F</strong> = YES (real English word)</li>
        <li><strong>J</strong> = NO (not a real English word)</li>
      </ul>
      <p style=""margin-top: 2em;"">Press any key when you are ready to begin.</p>
    </div>
  ","f","html-keyboard-response","64","2.1.0","193658","F=YES, J=NO","lwg8nyuwhs","1","63","70","55","","","","","","","","","","","","","","","",""
"3696","
    <div style=""max-width: 800px; margin: auto; text-align: left;"">
      <h2>Part 2: Practice Trials</h2>
      <p>You will now complete a few <strong>practice trials</strong> to get familiar with the task.</p>
      <p>These trials are <strong>not scored</strong> and are only to help you get used to the format.</p>
      <p style=""margin-top: 2em;"">Press any key to begin.</p>
    </div>
  ","f","html-keyboard-response","65","2.1.0","197355","F=YES, J=NO","lwg8nyuwhs","1","63","70","55","","","","","","","","","","","","","","","",""
"3196","<p>Starting practice block 1 of 2. Press any key to continue.</p>","f","html-keyboard-response","66","2.1.0","200553","F=YES, J=NO","lwg8nyuwhs","1","63","70","55","","","","","","","","","","","","","","","",""
"null","<p style=""font-size: 50px;"">+</p>","null","html-keyboard-response","67","2.1.0","200863","F=YES, J=NO","lwg8nyuwhs","1","63","70","55","","","","","","","","","","","","","","","",""
"null","audio/beep-329314.mp3","null","audio-keyboard-response","68","2.1.0","202398","F=YES, J=NO","lwg8nyuwhs","1","63","70","55","","","","","","","","","","","","","","","",""
"null","audio/tunnel.wav","null","audio-keyboard-response","69","2.1.0","202888","F=YES, J=NO","lwg8nyuwhs","1","63","70","55","","","","","","","","","","","","","","","",""
"null","
          <p id=""word"" style=""font-size: 40px;"">gred</p>
          <p style=""font-size: 16px;"">F = YES &nbsp;&nbsp;&nbsp; J = NO</p>
        ","null","html-keyboard-response","70","2.1.0","204390","F=YES, J=NO","lwg8nyuwhs","1","63","70","55","","","","","","","","","gred","tunnel","pseudoword","pseudoword","j","false","",""
"null","<p style=""font-size: 50px;"">+</p>","null","html-keyboard-response","71","2.1.0","204702","F=YES, J=NO","lwg8nyuwhs","1","63","70","55","","","","","","","","","","","","","","","",""
"null","audio/beep-329314.mp3","null","audio-keyboard-response","72","2.1.0","206238","F=YES, J=NO","lwg8nyuwhs","1","63","70","55","","","","","","","","","","","","","","","",""
"null","audio/golf1.wav","null","audio-keyboard-response","73","2.1.0","206848","F=YES, J=NO","lwg8nyuwhs","1","63","70","55","","","","","","","","","","","","","","","",""
"null","
          <p id=""word"" style=""font-size: 40px;"">drabble</p>
          <p style=""font-size: 16px;"">F = YES &nbsp;&nbsp;&nbsp; J = NO</p>
        ","null","html-keyboard-response","74","2.1.0","208355","F=YES, J=NO","lwg8nyuwhs","1","63","70","55","","","","","","","","","drabble","golf1","pseudoword","pseudoword","j","false","",""
"null","<p style=""font-size: 50px;"">+</p>","null","html-keyboard-response","75","2.1.0","208657","F=YES, J=NO","lwg8nyuwhs","1","63","70","55","","","","","","","","","","","","","","","",""
"null","audio/beep-329314.mp3","null","audio-keyboard-response","76","2.1.0","210198","F=YES, J=NO","lwg8nyuwhs","1","63","70","55","","","","","","","","","","","","","","","",""
"null","audio/arm.wav","null","audio-keyboard-response","77","2.1.0","210768","F=YES, J=NO","lwg8nyuwhs","1","63","70","55","","","","","","","","","","","","","","","",""
"1065","
          <p id=""word"" style=""font-size: 40px;"">fold</p>
          <p style=""font-size: 16px;"">F = YES &nbsp;&nbsp;&nbsp; J = NO</p>
        ","j","html-keyboard-response","78","2.1.0","211834","F=YES, J=NO","lwg8nyuwhs","1","63","70","55","","","","","","","","","fold","arm","filler","filler","f","false","",""
"null","<p style=""font-size: 50px;"">+</p>","null","html-keyboard-response","79","2.1.0","212139","F=YES, J=NO","lwg8nyuwhs","1","63","70","55","","","","","","","","","","","","","","","",""
"null","audio/beep-329314.mp3","null","audio-keyboard-response","80","2.1.0","213678","F=YES, J=NO","lwg8nyuwhs","1","63","70","55","","","","","","","","","","","","","","","",""
"null","audio/kettle1.wav","null","audio-keyboard-response","81","2.1.0","214208","F=YES, J=NO","lwg8nyuwhs","1","63","70","55","","","","","","","","","","","","","","","",""
"null","
          <p id=""word"" style=""font-size: 40px;"">wrap</p>
          <p style=""font-size: 16px;"">F = YES &nbsp;&nbsp;&nbsp; J = NO</p>
        ","null","html-keyboard-response","82","2.1.0","215722","F=YES, J=NO","lwg8nyuwhs","1","63","70","55","","","","","","","","","wrap","kettle1","filler","filler","f","false","",""
"null","<p style=""font-size: 50px;"">+</p>","null","html-keyboard-response","83","2.1.0","216026","F=YES, J=NO","lwg8nyuwhs","1","63","70","55","","","","","","","","","","","","","","","",""
"null","audio/beep-329314.mp3","null","audio-keyboard-response","84","2.1.0","217558","F=YES, J=NO","lwg8nyuwhs","1","63","70","55","","","","","","","","","","","","","","","",""
"null","audio/holiday1.wav","null","audio-keyboard-response","85","2.1.0","218348","F=YES, J=NO","lwg8nyuwhs","1","63","70","55","","","","","","","","","","","","","","","",""
"620","
          <p id=""word"" style=""font-size: 40px;"">drivets</p>
          <p style=""font-size: 16px;"">F = YES &nbsp;&nbsp;&nbsp; J = NO</p>
        ","j","html-keyboard-response","86","2.1.0","218970","F=YES, J=NO","lwg8nyuwhs","1","63","70","55","","","","","","","","","drivets","holiday1","pseudoword","pseudoword","j","true","",""
"null","<p style=""font-size: 50px;"">+</p>","null","html-keyboard-response","87","2.1.0","219279","F=YES, J=NO","lwg8nyuwhs","1","63","70","55","","","","","","","","","","","","","","","",""
"null","audio/beep-329314.mp3","null","audio-keyboard-response","88","2.1.0","220817","F=YES, J=NO","lwg8nyuwhs","1","63","70","55","","","","","","","","","","","","","","","",""
"null","audio/window1.wav","null","audio-keyboard-response","89","2.1.0","221507","F=YES, J=NO","lwg8nyuwhs","1","63","70","55","","","","","","","","","","","","","","","",""
"1174","
          <p id=""word"" style=""font-size: 40px;"">toss</p>
          <p style=""font-size: 16px;"">F = YES &nbsp;&nbsp;&nbsp; J = NO</p>
        ","f","html-keyboard-response","90","2.1.0","222682","F=YES, J=NO","lwg8nyuwhs","1","63","70","55","","","","","","","","","toss","window1","filler","filler","f","true","",""
"null","<p style=""font-size: 50px;"">+</p>","null","html-keyboard-response","91","2.1.0","222997","F=YES, J=NO","lwg8nyuwhs","1","63","70","55","","","","","","","","","","","","","","","",""
"null","audio/beep-329314.mp3","null","audio-keyboard-response","92","2.1.0","224537","F=YES, J=NO","lwg8nyuwhs","1","63","70","55","","","","","","","","","","","","","","","",""
"null","audio/tax1.wav","null","audio-keyboard-response","93","2.1.0","225207","F=YES, J=NO","lwg8nyuwhs","1","63","70","55","","","","","","","","","","","","","","","",""
"849","
          <p id=""word"" style=""font-size: 40px;"">snate</p>
          <p style=""font-size: 16px;"">F = YES &nbsp;&nbsp;&nbsp; J = NO</p>
        ","f","html-keyboard-response","94","2.1.0","226058","F=YES, J=NO","lwg8nyuwhs","1","63","70","55","","","","","","","","","snate","tax1","pseudoword","pseudoword","j","false","",""
"null","<p style=""font-size: 50px;"">+</p>","null","html-keyboard-response","95","2.1.0","226366","F=YES, J=NO","lwg8nyuwhs","1","63","70","55","","","","","","","","","","","","","","","",""
"null","audio/beep-329314.mp3","null","audio-keyboard-response","96","2.1.0","227898","F=YES, J=NO","lwg8nyuwhs","1","63","70","55","","","","","","","","","","","","","","","",""
"null","audio/belief.wav","null","audio-keyboard-response","97","2.1.0","228707","F=YES, J=NO","lwg8nyuwhs","1","63","70","55","","","","","","","","","","","","","","","",""
"693","
          <p id=""word"" style=""font-size: 40px;"">read</p>
          <p style=""font-size: 16px;"">F = YES &nbsp;&nbsp;&nbsp; J = NO</p>
        ","f","html-keyboard-response","98","2.1.0","229401","F=YES, J=NO","lwg8nyuwhs","1","63","70","55","","","","","","","","","read","belief","filler","filler","f","true","",""
"null","<p style=""font-size: 50px;"">+</p>","null","html-keyboard-response","99","2.1.0","229706","F=YES, J=NO","lwg8nyuwhs","1","63","70","55","","","","","","","","","","","","","","","",""
"null","audio/beep-329314.mp3","null","audio-keyboard-response","100","2.1.0","231238","F=YES, J=NO","lwg8nyuwhs","1","63","70","55","","","","","","","","","","","","","","","",""
"null","audio/cancer1.wav","null","audio-keyboard-response","101","2.1.0","231848","F=YES, J=NO","lwg8nyuwhs","1","63","70","55","","","","","","","","","","","","","","","",""
"624","
          <p id=""word"" style=""font-size: 40px;"">draw</p>
          <p style=""font-size: 16px;"">F = YES &nbsp;&nbsp;&nbsp; J = NO</p>
        ","f","html-keyboard-response","102","2.1.0","232473","F=YES, J=NO","lwg8nyuwhs","1","63","70","55","","","","","","","","","draw","cancer1","filler","filler","f","true","",""
"null","<p style=""font-size: 50px;"">+</p>","null","html-keyboard-response","103","2.1.0","232777","F=YES, J=NO","lwg8nyuwhs","1","63","70","55","","","","","","","","","","","","","","","",""
"null","audio/beep-329314.mp3","null","audio-keyboard-response","104","2.1.0","234318","F=YES, J=NO","lwg8nyuwhs","1","63","70","55","","","","","","","","","","","","","","","",""
"null","audio/terrain.wav","null","audio-keyboard-response","105","2.1.0","235089","F=YES, J=NO","lwg8nyuwhs","1","63","70","55","","","","","","","","","","","","","","","",""
"552","
          <p id=""word"" style=""font-size: 40px;"">twist</p>
          <p style=""font-size: 16px;"">F = YES &nbsp;&nbsp;&nbsp; J = NO</p>
        ","f","html-keyboard-response","106","2.1.0","235643","F=YES, J=NO","lwg8nyuwhs","1","63","70","55","","","","","","","","","twist","terrain","filler","filler","f","true","",""
"null","<p style=""font-size: 50px;"">+</p>","null","html-keyboard-response","107","2.1.0","235947","F=YES, J=NO","lwg8nyuwhs","1","63","70","55","","","","","","","","","","","","","","","",""
"null","audio/beep-329314.mp3","null","audio-keyboard-response","108","2.1.0","237478","F=YES, J=NO","lwg8nyuwhs","1","63","70","55","","","","","","","","","","","","","","","",""
"null","audio/road.wav","null","audio-keyboard-response","109","2.1.0","238088","F=YES, J=NO","lwg8nyuwhs","1","63","70","55","","","","","","","","","","","","","","","",""
"288","
          <p id=""word"" style=""font-size: 40px;"">wappings</p>
          <p style=""font-size: 16px;"">F = YES &nbsp;&nbsp;&nbsp; J = NO</p>
        ","f","html-keyboard-response","110","2.1.0","238377","F=YES, J=NO","lwg8nyuwhs","1","63","70","55","","","","","","","","","wappings","road","pseudoword","pseudoword","j","false","",""
"null","<p style=""font-size: 50px;"">+</p>","null","html-keyboard-response","111","2.1.0","238687","F=YES, J=NO","lwg8nyuwhs","1","63","70","55","","","","","","","","","","","","","","","",""
"null","audio/beep-329314.mp3","null","audio-keyboard-response","112","2.1.0","240217","F=YES, J=NO","lwg8nyuwhs","1","63","70","55","","","","","","","","","","","","","","","",""
"null","audio/relief.wav","null","audio-keyboard-response","113","2.1.0","241048","F=YES, J=NO","lwg8nyuwhs","1","63","70","55","","","","","","","","","","","","","","","",""
"1488","
          <p id=""word"" style=""font-size: 40px;"">grigg</p>
          <p style=""font-size: 16px;"">F = YES &nbsp;&nbsp;&nbsp; J = NO</p>
        ","f","html-keyboard-response","114","2.1.0","242538","F=YES, J=NO","lwg8nyuwhs","1","63","70","55","","","","","","","","","grigg","relief","pseudoword","pseudoword","j","false","",""
"2079","<p>Starting practice block 2 of 2. Press any key to continue.</p>","f","html-keyboard-response","115","2.1.0","244618","F=YES, J=NO","lwg8nyuwhs","1","63","70","55","","","","","","","","","","","","","","","",""
"null","<p style=""font-size: 50px;"">+</p>","null","html-keyboard-response","116","2.1.0","244937","F=YES, J=NO","lwg8nyuwhs","1","63","70","55","","","","","","","","","","","","","","","",""
"null","audio/beep-329314.mp3","null","audio-keyboard-response","117","2.1.0","246478","F=YES, J=NO","lwg8nyuwhs","1","63","70","55","","","","","","","","","","","","","","","",""
"null","audio/cash1.wav","null","audio-keyboard-response","118","2.1.0","247188","F=YES, J=NO","lwg8nyuwhs","1","63","70","55","","","","","","","","","","","","","","","",""
"901","
          <p id=""word"" style=""font-size: 40px;"">splear</p>
          <p style=""font-size: 16px;"">F = YES &nbsp;&nbsp;&nbsp; J = NO</p>
        ","j","html-keyboard-response","119","2.1.0","248091","F=YES, J=NO","lwg8nyuwhs","1","63","70","55","","","","","","","","","splear","cash1","pseudoword","pseudoword","j","true","",""
"null","<p style=""font-size: 50px;"">+</p>","null","html-keyboard-response","120","2.1.0","248406","F=YES, J=NO","lwg8nyuwhs","1","63","70","55","","","","","","","","","","","","","","","",""
"null","audio/beep-329314.mp3","null","audio-keyboard-response","121","2.1.0","249938","F=YES, J=NO","lwg8nyuwhs","1","63","70","55","","","","","","","","","","","","","","","",""
"null","audio/weight1.wav","null","audio-keyboard-response","122","2.1.0","250528","F=YES, J=NO","lwg8nyuwhs","1","63","70","55","","","","","","","","","","","","","","","",""
"808","
          <p id=""word"" style=""font-size: 40px;"">crimsh</p>
          <p style=""font-size: 16px;"">F = YES &nbsp;&nbsp;&nbsp; J = NO</p>
        ","j","html-keyboard-response","123","2.1.0","251338","F=YES, J=NO","lwg8nyuwhs","1","63","70","55","","","","","","","","","crimsh","weight1","pseudoword","pseudoword","j","true","",""
"null","<p style=""font-size: 50px;"">+</p>","null","html-keyboard-response","124","2.1.0","251647","F=YES, J=NO","lwg8nyuwhs","1","63","70","55","","","","","","","","","","","","","","","",""
"null","audio/beep-329314.mp3","null","audio-keyboard-response","125","2.1.0","253178","F=YES, J=NO","lwg8nyuwhs","1","63","70","55","","","","","","","","","","","","","","","",""
"null","audio/baby.wav","null","audio-keyboard-response","126","2.1.0","253708","F=YES, J=NO","lwg8nyuwhs","1","63","70","55","","","","","","","","","","","","","","","",""
"557","
          <p id=""word"" style=""font-size: 40px;"">lift</p>
          <p style=""font-size: 16px;"">F = YES &nbsp;&nbsp;&nbsp; J = NO</p>
        ","f","html-keyboard-response","127","2.1.0","254267","F=YES, J=NO","lwg8nyuwhs","1","63","70","55","","","","","","","","","lift","baby","filler","filler","f","true","",""
"null","<p style=""font-size: 50px;"">+</p>","null","html-keyboard-response","128","2.1.0","254576","F=YES, J=NO","lwg8nyuwhs","1","63","70","55","","","","","","","","","","","","","","","",""
"null","audio/beep-329314.mp3","null","audio-keyboard-response","129","2.1.0","256118","F=YES, J=NO","lwg8nyuwhs","1","63","70","55","","","","","","","","","","","","","","","",""
"null","audio/breath.wav","null","audio-keyboard-response","130","2.1.0","256828","F=YES, J=NO","lwg8nyuwhs","1","63","70","55","","","","","","","","","","","","","","","",""
"589","
          <p id=""word"" style=""font-size: 40px;"">pack</p>
          <p style=""font-size: 16px;"">F = YES &nbsp;&nbsp;&nbsp; J = NO</p>
        ","f","html-keyboard-response","131","2.1.0","257418","F=YES, J=NO","lwg8nyuwhs","1","63","70","55","","","","","","","","","pack","breath","filler","filler","f","true","",""
"null","<p style=""font-size: 50px;"">+</p>","null","html-keyboard-response","132","2.1.0","257726","F=YES, J=NO","lwg8nyuwhs","1","63","70","55","","","","","","","","","","","","","","","",""
"null","audio/beep-329314.mp3","null","audio-keyboard-response","133","2.1.0","259258","F=YES, J=NO","lwg8nyuwhs","1","63","70","55","","","","","","","","","","","","","","","",""
"null","audio/alarm1.wav","null","audio-keyboard-response","134","2.1.0","259888","F=YES, J=NO","lwg8nyuwhs","1","63","70","55","","","","","","","","","","","","","","","",""
"1017","
          <p id=""word"" style=""font-size: 40px;"">lock</p>
          <p style=""font-size: 16px;"">F = YES &nbsp;&nbsp;&nbsp; J = NO</p>
        ","f","html-keyboard-response","135","2.1.0","260907","F=YES, J=NO","lwg8nyuwhs","1","63","70","55","","","","","","","","","lock","alarm1","filler","filler","f","true","",""
"null","<p style=""font-size: 50px;"">+</p>","null","html-keyboard-response","136","2.1.0","261216","F=YES, J=NO","lwg8nyuwhs","1","63","70","55","","","","","","","","","","","","","","","",""
"null","audio/beep-329314.mp3","null","audio-keyboard-response","137","2.1.0","262758","F=YES, J=NO","lwg8nyuwhs","1","63","70","55","","","","","","","","","","","","","","","",""
"null","audio/gift1.wav","null","audio-keyboard-response","138","2.1.0","263288","F=YES, J=NO","lwg8nyuwhs","1","63","70","55","","","","","","","","","","","","","","","",""
"896","
          <p id=""word"" style=""font-size: 40px;"">protsh</p>
          <p style=""font-size: 16px;"">F = YES &nbsp;&nbsp;&nbsp; J = NO</p>
        ","j","html-keyboard-response","139","2.1.0","264186","F=YES, J=NO","lwg8nyuwhs","1","63","70","55","","","","","","","","","protsh","gift1","pseudoword","pseudoword","j","true","",""
"null","<p style=""font-size: 50px;"">+</p>","null","html-keyboard-response","140","2.1.0","264497","F=YES, J=NO","lwg8nyuwhs","1","63","70","55","","","","","","","","","","","","","","","",""
"null","audio/beep-329314.mp3","null","audio-keyboard-response","141","2.1.0","266038","F=YES, J=NO","lwg8nyuwhs","1","63","70","55","","","","","","","","","","","","","","","",""
"null","audio/beach1.wav","null","audio-keyboard-response","142","2.1.0","266688","F=YES, J=NO","lwg8nyuwhs","1","63","70","55","","","","","","","","","","","","","","","",""
"569","
          <p id=""word"" style=""font-size: 40px;"">drive</p>
          <p style=""font-size: 16px;"">F = YES &nbsp;&nbsp;&nbsp; J = NO</p>
        ","f","html-keyboard-response","143","2.1.0","267259","F=YES, J=NO","lwg8nyuwhs","1","63","70","55","","","","","","","","","drive","beach1","filler","filler","f","true","",""
"null","<p style=""font-size: 50px;"">+</p>","null","html-keyboard-response","144","2.1.0","267576","F=YES, J=NO","lwg8nyuwhs","1","63","70","55","","","","","","","","","","","","","","","",""
"null","audio/beep-329314.mp3","null","audio-keyboard-response","145","2.1.0","269118","F=YES, J=NO","lwg8nyuwhs","1","63","70","55","","","","","","","","","","","","","","","",""
"null","audio/novel.wav","null","audio-keyboard-response","146","2.1.0","269668","F=YES, J=NO","lwg8nyuwhs","1","63","70","55","","","","","","","","","","","","","","","",""
"661","
          <p id=""word"" style=""font-size: 40px;"">type</p>
          <p style=""font-size: 16px;"">F = YES &nbsp;&nbsp;&nbsp; J = NO</p>
        ","f","html-keyboard-response","147","2.1.0","270330","F=YES, J=NO","lwg8nyuwhs","1","63","70","55","","","","","","","","","type","novel","filler","filler","f","true","",""
"null","<p style=""font-size: 50px;"">+</p>","null","html-keyboard-response","148","2.1.0","270637","F=YES, J=NO","lwg8nyuwhs","1","63","70","55","","","","","","","","","","","","","","","",""
"null","audio/beep-329314.mp3","null","audio-keyboard-response","149","2.1.0","272177","F=YES, J=NO","lwg8nyuwhs","1","63","70","55","","","","","","","","","","","","","","","",""
"null","audio/corpse1.wav","null","audio-keyboard-response","150","2.1.0","272867","F=YES, J=NO","lwg8nyuwhs","1","63","70","55","","","","","","","","","","","","","","","",""
"486","
          <p id=""word"" style=""font-size: 40px;"">glonet</p>
          <p style=""font-size: 16px;"">F = YES &nbsp;&nbsp;&nbsp; J = NO</p>
        ","f","html-keyboard-response","151","2.1.0","273355","F=YES, J=NO","lwg8nyuwhs","1","63","70","55","","","","","","","","","glonet","corpse1","pseudoword","pseudoword","j","false","",""
"null","<p style=""font-size: 50px;"">+</p>","null","html-keyboard-response","152","2.1.0","273666","F=YES, J=NO","lwg8nyuwhs","1","63","70","55","","","","","","","","","","","","","","","",""
"null","audio/beep-329314.mp3","null","audio-keyboard-response","153","2.1.0","275198","F=YES, J=NO","lwg8nyuwhs","1","63","70","55","","","","","","","","","","","","","","","",""
"null","audio/voice.wav","null","audio-keyboard-response","154","2.1.0","275967","F=YES, J=NO","lwg8nyuwhs","1","63","70","55","","","","","","","","","","","","","","","",""
"696","
          <p id=""word"" style=""font-size: 40px;"">grintle</p>
          <p style=""font-size: 16px;"">F = YES &nbsp;&nbsp;&nbsp; J = NO</p>
        ","f","html-keyboard-response","155","2.1.0","276664","F=YES, J=NO","lwg8nyuwhs","1","63","70","55","","","","","","","","","grintle","voice","pseudoword","pseudoword","j","false","",""
"null","<p style=""font-size: 50px;"">+</p>","null","html-keyboard-response","156","2.1.0","276967","F=YES, J=NO","lwg8nyuwhs","1","63","70","55","","","","","","","","","","","","","","","",""
"null","audio/beep-329314.mp3","null","audio-keyboard-response","157","2.1.0","278498","F=YES, J=NO","lwg8nyuwhs","1","63","70","55","","","","","","","","","","","","","","","",""
"null","audio/ankle1.wav","null","audio-keyboard-response","158","2.1.0","279067","F=YES, J=NO","lwg8nyuwhs","1","63","70","55","","","","","","","","","","","","","","","",""
"1325","
          <p id=""word"" style=""font-size: 40px;"">kick</p>
          <p style=""font-size: 16px;"">F = YES &nbsp;&nbsp;&nbsp; J = NO</p>
        ","f","html-keyboard-response","159","2.1.0","280393","F=YES, J=NO","lwg8nyuwhs","1","63","70","55","","","","","","","","","kick","ankle1","filler","filler","f","true","",""
"null","<p style=""font-size: 50px;"">+</p>","null","html-keyboard-response","160","2.1.0","280696","F=YES, J=NO","lwg8nyuwhs","1","63","70","55","","","","","","","","","","","","","","","",""
"null","audio/beep-329314.mp3","null","audio-keyboard-response","161","2.1.0","282239","F=YES, J=NO","lwg8nyuwhs","1","63","70","55","","","","","","","","","","","","","","","",""
"null","audio/pine.wav","null","audio-keyboard-response","162","2.1.0","282907","F=YES, J=NO","lwg8nyuwhs","1","63","70","55","","","","","","","","","","","","","","","",""
"null","
          <p id=""word"" style=""font-size: 40px;"">crebble</p>
          <p style=""font-size: 16px;"">F = YES &nbsp;&nbsp;&nbsp; J = NO</p>
        ","null","html-keyboard-response","163","2.1.0","284411","F=YES, J=NO","lwg8nyuwhs","1","63","70","55","","","","","","","","","crebble","pine","pseudoword","pseudoword","j","false","",""
"10446","
    <div style=""max-width: 800px; margin: auto; text-align: left;"">
      <h2>Part 2: Main Trials</h2>
      <p>Great job on the practice trials!</p>
      <p>You will now begin the <strong>main set of trials</strong>.</p>
      <p>Remember your key assignments:</p>
      <ul>
        <li><strong>F</strong> = YES (real English word)</li>
        <li><strong>J</strong> = NO (not a real English word)</li>
      </ul>
      <p>Try to respond as <strong>quickly and accurately</strong> as possible.</p>
      <p style=""margin-top: 2em;"">Press any key to begin the main trials.</p>
    </div>
  ","f","html-keyboard-response","164","2.1.0","294859","F=YES, J=NO","lwg8nyuwhs","1","63","70","55","","","","","","","","","","","","","","","",""
"1886","<p>Starting main block 1 of 8. Press any key to continue.</p>","f","html-keyboard-response","165","2.1.0","296746","F=YES, J=NO","lwg8nyuwhs","1","63","70","55","","","","","","","","","","","","","","","",""
"null","<p style=""font-size: 50px;"">+</p>","null","html-keyboard-response","166","2.1.0","297051","F=YES, J=NO","lwg8nyuwhs","1","63","70","55","","","","","","","","","","","","","","","",""
"null","audio/beep-329314.mp3","null","audio-keyboard-response","167","2.1.0","298558","F=YES, J=NO","lwg8nyuwhs","1","63","70","55","","","","","","","","","","","","","","","",""
"null","audio/fear.wav","null","audio-keyboard-response","168","2.1.0","299077","F=YES, J=NO","lwg8nyuwhs","1","63","70","55","","","","","","","","","","","","","","","",""
"772","
          <p id=""word"" style=""font-size: 40px;"">spread</p>
          <p style=""font-size: 16px;"">F = YES &nbsp;&nbsp;&nbsp; J = NO</p>
        ","f","html-keyboard-response","169","2.1.0","299850","F=YES, J=NO","lwg8nyuwhs","1","63","70","55","","","","","","","","","spread","fear","metaphor","experimental","f","true","",""
"null","<p style=""font-size: 50px;"">+</p>","null","html-keyboard-response","170","2.1.0","300167","F=YES, J=NO","lwg8nyuwhs","1","63","70","55","","","","","","","","","","","","","","","",""
"null","audio/beep-329314.mp3","null","audio-keyboard-response","171","2.1.0","301697","F=YES, J=NO","lwg8nyuwhs","1","63","70","55","","","","","","","","","","","","","","","",""
"null","audio/bottle.wav","null","audio-keyboard-response","172","2.1.0","302158","F=YES, J=NO","lwg8nyuwhs","1","63","70","55","","","","","","","","","","","","","","","",""
"586","
          <p id=""word"" style=""font-size: 40px;"">watch</p>
          <p style=""font-size: 16px;"">F = YES &nbsp;&nbsp;&nbsp; J = NO</p>
        ","f","html-keyboard-response","173","2.1.0","302745","F=YES, J=NO","lwg8nyuwhs","1","63","70","55","","","","","","","","","watch","bottle","filler","filler","f","true","",""
"null","<p style=""font-size: 50px;"">+</p>","null","html-keyboard-response","174","2.1.0","303047","F=YES, J=NO","lwg8nyuwhs","1","63","70","55","","","","","","","","","","","","","","","",""
"null","audio/beep-329314.mp3","null","audio-keyboard-response","175","2.1.0","304578","F=YES, J=NO","lwg8nyuwhs","1","63","70","55","","","","","","","","","","","","","","","",""
"null","audio/foe1.wav","null","audio-keyboard-response","176","2.1.0","305238","F=YES, J=NO","lwg8nyuwhs","1","63","70","55","","","","","","","","","","","","","","","",""
"819","
          <p id=""word"" style=""font-size: 40px;"">conquer</p>
          <p style=""font-size: 16px;"">F = YES &nbsp;&nbsp;&nbsp; J = NO</p>
        ","f","html-keyboard-response","177","2.1.0","306058","F=YES, J=NO","lwg8nyuwhs","1","63","70","55","","","","","","","","","conquer","foe1","literal","experimental","f","true","",""
"null","<p style=""font-size: 50px;"">+</p>","null","html-keyboard-response","178","2.1.0","306376","F=YES, J=NO","lwg8nyuwhs","1","63","70","55","","","","","","","","","","","","","","","",""
"null","audio/beep-329314.mp3","null","audio-keyboard-response","179","2.1.0","307918","F=YES, J=NO","lwg8nyuwhs","1","63","70","55","","","","","","","","","","","","","","","",""
"null","audio/menu.wav","null","audio-keyboard-response","180","2.1.0","308498","F=YES, J=NO","lwg8nyuwhs","1","63","70","55","","","","","","","","","","","","","","","",""
"727","
          <p id=""word"" style=""font-size: 40px;"">navigate</p>
          <p style=""font-size: 16px;"">F = YES &nbsp;&nbsp;&nbsp; J = NO</p>
        ","f","html-keyboard-response","181","2.1.0","309226","F=YES, J=NO","lwg8nyuwhs","1","63","70","55","","","","","","","","","navigate","menu","metaphor","experimental","f","true","",""
"null","<p style=""font-size: 50px;"">+</p>","null","html-keyboard-response","182","2.1.0","309546","F=YES, J=NO","lwg8nyuwhs","1","63","70","55","","","","","","","","","","","","","","","",""
"null","audio/beep-329314.mp3","null","audio-keyboard-response","183","2.1.0","311078","F=YES, J=NO","lwg8nyuwhs","1","63","70","55","","","","","","","","","","","","","","","",""
"null","audio/camp.wav","null","audio-keyboard-response","184","2.1.0","311618","F=YES, J=NO","lwg8nyuwhs","1","63","70","55","","","","","","","","","","","","","","","",""
"871","
          <p id=""word"" style=""font-size: 40px;"">touch</p>
          <p style=""font-size: 16px;"">F = YES &nbsp;&nbsp;&nbsp; J = NO</p>
        ","f","html-keyboard-response","185","2.1.0","312491","F=YES, J=NO","lwg8nyuwhs","1","63","70","55","","","","","","","","","touch","camp","unrelated","experimental","f","true","",""
"null","<p style=""font-size: 50px;"">+</p>","null","html-keyboard-response","186","2.1.0","312797","F=YES, J=NO","lwg8nyuwhs","1","63","70","55","","","","","","","","","","","","","","","",""
"null","audio/beep-329314.mp3","null","audio-keyboard-response","187","2.1.0","314338","F=YES, J=NO","lwg8nyuwhs","1","63","70","55","","","","","","","","","","","","","","","",""
"null","audio/table1.wav","null","audio-keyboard-response","188","2.1.0","314978","F=YES, J=NO","lwg8nyuwhs","1","63","70","55","","","","","","","","","","","","","","","",""
"808","
          <p id=""word"" style=""font-size: 40px;"">clear</p>
          <p style=""font-size: 16px;"">F = YES &nbsp;&nbsp;&nbsp; J = NO</p>
        ","f","html-keyboard-response","189","2.1.0","315786","F=YES, J=NO","lwg8nyuwhs","1","63","70","55","","","","","","","","","clear","table1","literal","experimental","f","true","",""
"null","<p style=""font-size: 50px;"">+</p>","null","html-keyboard-response","190","2.1.0","316107","F=YES, J=NO","lwg8nyuwhs","1","63","70","55","","","","","","","","","","","","","","","",""
"null","audio/beep-329314.mp3","null","audio-keyboard-response","191","2.1.0","317639","F=YES, J=NO","lwg8nyuwhs","1","63","70","55","","","","","","","","","","","","","","","",""
"null","audio/wool1.wav","null","audio-keyboard-response","192","2.1.0","318018","F=YES, J=NO","lwg8nyuwhs","1","63","70","55","","","","","","","","","","","","","","","",""
"887","
          <p id=""word"" style=""font-size: 40px;"">weave</p>
          <p style=""font-size: 16px;"">F = YES &nbsp;&nbsp;&nbsp; J = NO</p>
        ","j","html-keyboard-response","193","2.1.0","318906","F=YES, J=NO","lwg8nyuwhs","1","63","70","55","","","","","","","","","weave","wool1","literal","experimental","f","false","",""
"null","<p style=""font-size: 50px;"">+</p>","null","html-keyboard-response","194","2.1.0","319215","F=YES, J=NO","lwg8nyuwhs","1","63","70","55","","","","","","","","","","","","","","","",""
"null","audio/beep-329314.mp3","null","audio-keyboard-response","195","2.1.0","320738","F=YES, J=NO","lwg8nyuwhs","1","63","70","55","","","","","","","","","","","","","","","",""
"null","audio/ego.wav","null","audio-keyboard-response","196","2.1.0","321338","F=YES, J=NO","lwg8nyuwhs","1","63","70","55","","","","","","","","","","","","","","","",""
"1151","
          <p id=""word"" style=""font-size: 40px;"">bruite</p>
          <p style=""font-size: 16px;"">F = YES &nbsp;&nbsp;&nbsp; J = NO</p>
        ","f","html-keyboard-response","197","2.1.0","322491","F=YES, J=NO","lwg8nyuwhs","1","63","70","55","","","","","","","","","bruite","ego","pseudoword","pseudoword","j","false","",""
"null","<p style=""font-size: 50px;"">+</p>","null","html-keyboard-response","198","2.1.0","322797","F=YES, J=NO","lwg8nyuwhs","1","63","70","55","","","","","","","","","","","","","","","",""
"null","audio/beep-329314.mp3","null","audio-keyboard-response","199","2.1.0","324338","F=YES, J=NO","lwg8nyuwhs","1","63","70","55","","","","","","","","","","","","","","","",""
"null","audio/mouth1.wav","null","audio-keyboard-response","200","2.1.0","324958","F=YES, J=NO","lwg8nyuwhs","1","63","70","55","","","","","","","","","","","","","","","",""
"842","
          <p id=""word"" style=""font-size: 40px;"">close</p>
          <p style=""font-size: 16px;"">F = YES &nbsp;&nbsp;&nbsp; J = NO</p>
        ","f","html-keyboard-response","201","2.1.0","325802","F=YES, J=NO","lwg8nyuwhs","1","63","70","55","","","","","","","","","close","mouth1","literal","experimental","f","true","",""
"null","<p style=""font-size: 50px;"">+</p>","null","html-keyboard-response","202","2.1.0","326106","F=YES, J=NO","lwg8nyuwhs","1","63","70","55","","","","","","","","","","","","","","","",""
"null","audio/beep-329314.mp3","null","audio-keyboard-response","203","2.1.0","327639","F=YES, J=NO","lwg8nyuwhs","1","63","70","55","","","","","","","","","","","","","","","",""
"null","audio/bomb1.wav","null","audio-keyboard-response","204","2.1.0","328038","F=YES, J=NO","lwg8nyuwhs","1","63","70","55","","","","","","","","","","","","","","","",""
"626","
          <p id=""word"" style=""font-size: 40px;"">clean</p>
          <p style=""font-size: 16px;"">F = YES &nbsp;&nbsp;&nbsp; J = NO</p>
        ","f","html-keyboard-response","205","2.1.0","328666","F=YES, J=NO","lwg8nyuwhs","1","63","70","55","","","","","","","","","clean","bomb1","filler","filler","f","true","",""
"null","<p style=""font-size: 50px;"">+</p>","null","html-keyboard-response","206","2.1.0","328976","F=YES, J=NO","lwg8nyuwhs","1","63","70","55","","","","","","","","","","","","","","","",""
"null","audio/beep-329314.mp3","null","audio-keyboard-response","207","2.1.0","330518","F=YES, J=NO","lwg8nyuwhs","1","63","70","55","","","","","","","","","","","","","","","",""
"null","audio/grass.wav","null","audio-keyboard-response","208","2.1.0","331318","F=YES, J=NO","lwg8nyuwhs","1","63","70","55","","","","","","","","","","","","","","","",""
"1106","
          <p id=""word"" style=""font-size: 40px;"">milames</p>
          <p style=""font-size: 16px;"">F = YES &nbsp;&nbsp;&nbsp; J = NO</p>
        ","j","html-keyboard-response","209","2.1.0","332424","F=YES, J=NO","lwg8nyuwhs","1","63","70","55","","","","","","","","","milames","grass","pseudoword","pseudoword","j","true","",""
"null","<p style=""font-size: 50px;"">+</p>","null","html-keyboard-response","210","2.1.0","332727","F=YES, J=NO","lwg8nyuwhs","1","63","70","55","","","","","","","","","","","","","","","",""
"null","audio/beep-329314.mp3","null","audio-keyboard-response","211","2.1.0","334258","F=YES, J=NO","lwg8nyuwhs","1","63","70","55","","","","","","","","","","","","","","","",""
"null","audio/gossip1.wav","null","audio-keyboard-response","212","2.1.0","334898","F=YES, J=NO","lwg8nyuwhs","1","63","70","55","","","","","","","","","","","","","","","",""
"663","
          <p id=""word"" style=""font-size: 40px;"">wrestle</p>
          <p style=""font-size: 16px;"">F = YES &nbsp;&nbsp;&nbsp; J = NO</p>
        ","f","html-keyboard-response","213","2.1.0","335563","F=YES, J=NO","lwg8nyuwhs","1","63","70","55","","","","","","","","","wrestle","gossip1","unrelated","experimental","f","true","",""
"null","<p style=""font-size: 50px;"">+</p>","null","html-keyboard-response","214","2.1.0","335866","F=YES, J=NO","lwg8nyuwhs","1","63","70","55","","","","","","","","","","","","","","","",""
"null","audio/beep-329314.mp3","null","audio-keyboard-response","215","2.1.0","337398","F=YES, J=NO","lwg8nyuwhs","1","63","70","55","","","","","","","","","","","","","","","",""
"null","audio/trout1.wav","null","audio-keyboard-response","216","2.1.0","337998","F=YES, J=NO","lwg8nyuwhs","1","63","70","55","","","","","","","","","","","","","","","",""
"827","
          <p id=""word"" style=""font-size: 40px;"">spimt</p>
          <p style=""font-size: 16px;"">F = YES &nbsp;&nbsp;&nbsp; J = NO</p>
        ","j","html-keyboard-response","217","2.1.0","338826","F=YES, J=NO","lwg8nyuwhs","1","63","70","55","","","","","","","","","spimt","trout1","pseudoword","pseudoword","j","true","",""
"null","<p style=""font-size: 50px;"">+</p>","null","html-keyboard-response","218","2.1.0","339136","F=YES, J=NO","lwg8nyuwhs","1","63","70","55","","","","","","","","","","","","","","","",""
"null","audio/beep-329314.mp3","null","audio-keyboard-response","219","2.1.0","340677","F=YES, J=NO","lwg8nyuwhs","1","63","70","55","","","","","","","","","","","","","","","",""
"null","audio/floor.wav","null","audio-keyboard-response","220","2.1.0","341238","F=YES, J=NO","lwg8nyuwhs","1","63","70","55","","","","","","","","","","","","","","","",""
"611","
          <p id=""word"" style=""font-size: 40px;"">cover</p>
          <p style=""font-size: 16px;"">F = YES &nbsp;&nbsp;&nbsp; J = NO</p>
        ","f","html-keyboard-response","221","2.1.0","341850","F=YES, J=NO","lwg8nyuwhs","1","63","70","55","","","","","","","","","cover","floor","literal","experimental","f","true","",""
"null","<p style=""font-size: 50px;"">+</p>","null","html-keyboard-response","222","2.1.0","342157","F=YES, J=NO","lwg8nyuwhs","1","63","70","55","","","","","","","","","","","","","","","",""
"null","audio/beep-329314.mp3","null","audio-keyboard-response","223","2.1.0","343698","F=YES, J=NO","lwg8nyuwhs","1","63","70","55","","","","","","","","","","","","","","","",""
"null","audio/dollar.wav","null","audio-keyboard-response","224","2.1.0","344098","F=YES, J=NO","lwg8nyuwhs","1","63","70","55","","","","","","","","","","","","","","","",""
"1206","
          <p id=""word"" style=""font-size: 40px;"">gliptism</p>
          <p style=""font-size: 16px;"">F = YES &nbsp;&nbsp;&nbsp; J = NO</p>
        ","j","html-keyboard-response","225","2.1.0","345306","F=YES, J=NO","lwg8nyuwhs","1","63","70","55","","","","","","","","","gliptism","dollar","pseudoword","pseudoword","j","true","",""
"null","<p style=""font-size: 50px;"">+</p>","null","html-keyboard-response","226","2.1.0","345617","F=YES, J=NO","lwg8nyuwhs","1","63","70","55","","","","","","","","","","","","","","","",""
"null","audio/beep-329314.mp3","null","audio-keyboard-response","227","2.1.0","347158","F=YES, J=NO","lwg8nyuwhs","1","63","70","55","","","","","","","","","","","","","","","",""
"null","audio/cloud1.wav","null","audio-keyboard-response","228","2.1.0","347717","F=YES, J=NO","lwg8nyuwhs","1","63","70","55","","","","","","","","","","","","","","","",""
"null","
          <p id=""word"" style=""font-size: 40px;"">brotant</p>
          <p style=""font-size: 16px;"">F = YES &nbsp;&nbsp;&nbsp; J = NO</p>
        ","null","html-keyboard-response","229","2.1.0","349227","F=YES, J=NO","lwg8nyuwhs","1","63","70","55","","","","","","","","","brotant","cloud1","pseudoword","pseudoword","j","false","",""
"62","<p>Excellent! You have finished block 1 of 8.</p>
                     <p>Feel free to take a 30 second break.</p>
                     <p>Press any key when you're ready to continue.</p>","j","html-keyboard-response","230","2.1.0","349290","F=YES, J=NO","lwg8nyuwhs","1","63","70","55","","","","","","","","","","","","","","","",""
"2991","<p>Starting main block 2 of 8. Press any key to continue.</p>","f","html-keyboard-response","231","2.1.0","352282","F=YES, J=NO","lwg8nyuwhs","1","63","70","55","","","","","","","","","","","","","","","",""
"null","<p style=""font-size: 50px;"">+</p>","null","html-keyboard-response","232","2.1.0","352587","F=YES, J=NO","lwg8nyuwhs","1","63","70","55","","","","","","","","","","","","","","","",""
"null","audio/beep-329314.mp3","null","audio-keyboard-response","233","2.1.0","354117","F=YES, J=NO","lwg8nyuwhs","1","63","70","55","","","","","","","","","","","","","","","",""
"null","audio/goal.wav","null","audio-keyboard-response","234","2.1.0","354538","F=YES, J=NO","lwg8nyuwhs","1","63","70","55","","","","","","","","","","","","","","","",""
"703","
          <p id=""word"" style=""font-size: 40px;"">support</p>
          <p style=""font-size: 16px;"">F = YES &nbsp;&nbsp;&nbsp; J = NO</p>
        ","f","html-keyboard-response","235","2.1.0","355242","F=YES, J=NO","lwg8nyuwhs","1","63","70","55","","","","","","","","","support","goal","metaphor","experimental","f","true","",""
"null","<p style=""font-size: 50px;"">+</p>","null","html-keyboard-response","236","2.1.0","355546","F=YES, J=NO","lwg8nyuwhs","1","63","70","55","","","","","","","","","","","","","","","",""
"null","audio/beep-329314.mp3","null","audio-keyboard-response","237","2.1.0","357078","F=YES, J=NO","lwg8nyuwhs","1","63","70","55","","","","","","","","","","","","","","","",""
"null","audio/meal.wav","null","audio-keyboard-response","238","2.1.0","357558","F=YES, J=NO","lwg8nyuwhs","1","63","70","55","","","","","","","","","","","","","","","",""
"771","
          <p id=""word"" style=""font-size: 40px;"">gallite</p>
          <p style=""font-size: 16px;"">F = YES &nbsp;&nbsp;&nbsp; J = NO</p>
        ","j","html-keyboard-response","239","2.1.0","358330","F=YES, J=NO","lwg8nyuwhs","1","63","70","55","","","","","","","","","gallite","meal","pseudoword","pseudoword","j","true","",""
"null","<p style=""font-size: 50px;"">+</p>","null","html-keyboard-response","240","2.1.0","358637","F=YES, J=NO","lwg8nyuwhs","1","63","70","55","","","","","","","","","","","","","","","",""
"null","audio/beep-329314.mp3","null","audio-keyboard-response","241","2.1.0","360178","F=YES, J=NO","lwg8nyuwhs","1","63","70","55","","","","","","","","","","","","","","","",""
"null","audio/noise1.wav","null","audio-keyboard-response","242","2.1.0","360938","F=YES, J=NO","lwg8nyuwhs","1","63","70","55","","","","","","","","","","","","","","","",""
"1277","
          <p id=""word"" style=""font-size: 40px;"">slintered</p>
          <p style=""font-size: 16px;"">F = YES &nbsp;&nbsp;&nbsp; J = NO</p>
        ","j","html-keyboard-response","243","2.1.0","362217","F=YES, J=NO","lwg8nyuwhs","1","63","70","55","","","","","","","","","slintered","noise1","pseudoword","pseudoword","j","true","",""
"null","<p style=""font-size: 50px;"">+</p>","null","html-keyboard-response","244","2.1.0","362537","F=YES, J=NO","lwg8nyuwhs","1","63","70","55","","","","","","","","","","","","","","","",""
"null","audio/beep-329314.mp3","null","audio-keyboard-response","245","2.1.0","364077","F=YES, J=NO","lwg8nyuwhs","1","63","70","55","","","","","","","","","","","","","","","",""
"null","audio/ankle1.wav","null","audio-keyboard-response","246","2.1.0","364618","F=YES, J=NO","lwg8nyuwhs","1","63","70","55","","","","","","","","","","","","","","","",""
"null","
          <p id=""word"" style=""font-size: 40px;"">hurt</p>
          <p style=""font-size: 16px;"">F = YES &nbsp;&nbsp;&nbsp; J = NO</p>
        ","null","html-keyboard-response","247","2.1.0","366126","F=YES, J=NO","lwg8nyuwhs","1","63","70","55","","","","","","","","","hurt","ankle1","literal","experimental","f","false","",""
"null","<p style=""font-size: 50px;"">+</p>","null","html-keyboard-response","248","2.1.0","366437","F=YES, J=NO","lwg8nyuwhs","1","63","70","55","","","","","","","","","","","","","","","",""
"null","audio/beep-329314.mp3","null","audio-keyboard-response","249","2.1.0","367977","F=YES, J=NO","lwg8nyuwhs","1","63","70","55","","","","","","","","","","","","","","","",""
"null","audio/topic.wav","null","audio-keyboard-response","250","2.1.0","368558","F=YES, J=NO","lwg8nyuwhs","1","63","70","55","","","","","","","","","","","","","","","",""
"1434","
          <p id=""word"" style=""font-size: 40px;"">infortuitist</p>
          <p style=""font-size: 16px;"">F = YES &nbsp;&nbsp;&nbsp; J = NO</p>
        ","f","html-keyboard-response","251","2.1.0","369994","F=YES, J=NO","lwg8nyuwhs","1","63","70","55","","","","","","","","","infortuitist","topic","pseudoword","pseudoword","j","false","",""
"null","<p style=""font-size: 50px;"">+</p>","null","html-keyboard-response","252","2.1.0","370297","F=YES, J=NO","lwg8nyuwhs","1","63","70","55","","","","","","","","","","","","","","","",""
"null","audio/beep-329314.mp3","null","audio-keyboard-response","253","2.1.0","371838","F=YES, J=NO","lwg8nyuwhs","1","63","70","55","","","","","","","","","","","","","","","",""
"null","audio/desire.wav","null","audio-keyboard-response","254","2.1.0","372618","F=YES, J=NO","lwg8nyuwhs","1","63","70","55","","","","","","","","","","","","","","","",""
"1087","
          <p id=""word"" style=""font-size: 40px;"">nophed</p>
          <p style=""font-size: 16px;"">F = YES &nbsp;&nbsp;&nbsp; J = NO</p>
        ","j","html-keyboard-response","255","2.1.0","373707","F=YES, J=NO","lwg8nyuwhs","1","63","70","55","","","","","","","","","nophed","desire","pseudoword","pseudoword","j","true","",""
"null","<p style=""font-size: 50px;"">+</p>","null","html-keyboard-response","256","2.1.0","374017","F=YES, J=NO","lwg8nyuwhs","1","63","70","55","","","","","","","","","","","","","","","",""
"null","audio/beep-329314.mp3","null","audio-keyboard-response","257","2.1.0","375558","F=YES, J=NO","lwg8nyuwhs","1","63","70","55","","","","","","","","","","","","","","","",""
"null","audio/client1.wav","null","audio-keyboard-response","258","2.1.0","376278","F=YES, J=NO","lwg8nyuwhs","1","63","70","55","","","","","","","","","","","","","","","",""
"705","
          <p id=""word"" style=""font-size: 40px;"">droothe</p>
          <p style=""font-size: 16px;"">F = YES &nbsp;&nbsp;&nbsp; J = NO</p>
        ","f","html-keyboard-response","259","2.1.0","376984","F=YES, J=NO","lwg8nyuwhs","1","63","70","55","","","","","","","","","droothe","client1","pseudoword","pseudoword","j","false","",""
"null","<p style=""font-size: 50px;"">+</p>","null","html-keyboard-response","260","2.1.0","377287","F=YES, J=NO","lwg8nyuwhs","1","63","70","55","","","","","","","","","","","","","","","",""
"null","audio/beep-329314.mp3","null","audio-keyboard-response","261","2.1.0","378818","F=YES, J=NO","lwg8nyuwhs","1","63","70","55","","","","","","","","","","","","","","","",""
"null","audio/uncle1.wav","null","audio-keyboard-response","262","2.1.0","379298","F=YES, J=NO","lwg8nyuwhs","1","63","70","55","","","","","","","","","","","","","","","",""
"870","
          <p id=""word"" style=""font-size: 40px;"">dramble</p>
          <p style=""font-size: 16px;"">F = YES &nbsp;&nbsp;&nbsp; J = NO</p>
        ","f","html-keyboard-response","263","2.1.0","380170","F=YES, J=NO","lwg8nyuwhs","1","63","70","55","","","","","","","","","dramble","uncle1","pseudoword","pseudoword","j","false","",""
"null","<p style=""font-size: 50px;"">+</p>","null","html-keyboard-response","264","2.1.0","380487","F=YES, J=NO","lwg8nyuwhs","1","63","70","55","","","","","","","","","","","","","","","",""
"null","audio/beep-329314.mp3","null","audio-keyboard-response","265","2.1.0","382018","F=YES, J=NO","lwg8nyuwhs","1","63","70","55","","","","","","","","","","","","","","","",""
"null","audio/bridge.wav","null","audio-keyboard-response","266","2.1.0","382598","F=YES, J=NO","lwg8nyuwhs","1","63","70","55","","","","","","","","","","","","","","","",""
"690","
          <p id=""word"" style=""font-size: 40px;"">crack</p>
          <p style=""font-size: 16px;"">F = YES &nbsp;&nbsp;&nbsp; J = NO</p>
        ","f","html-keyboard-response","267","2.1.0","383290","F=YES, J=NO","lwg8nyuwhs","1","63","70","55","","","","","","","","","crack","bridge","filler","filler","f","true","",""
"null","<p style=""font-size: 50px;"">+</p>","null","html-keyboard-response","268","2.1.0","383597","F=YES, J=NO","lwg8nyuwhs","1","63","70","55","","","","","","","","","","","","","","","",""
"null","audio/beep-329314.mp3","null","audio-keyboard-response","269","2.1.0","385137","F=YES, J=NO","lwg8nyuwhs","1","63","70","55","","","","","","","","","","","","","","","",""
"null","audio/sand.wav","null","audio-keyboard-response","270","2.1.0","385797","F=YES, J=NO","lwg8nyuwhs","1","63","70","55","","","","","","","","","","","","","","","",""
"1140","
          <p id=""word"" style=""font-size: 40px;"">possess</p>
          <p style=""font-size: 16px;"">F = YES &nbsp;&nbsp;&nbsp; J = NO</p>
        ","f","html-keyboard-response","271","2.1.0","386938","F=YES, J=NO","lwg8nyuwhs","1","63","70","55","","","","","","","","","possess","sand","unrelated","experimental","f","true","",""
"null","<p style=""font-size: 50px;"">+</p>","null","html-keyboard-response","272","2.1.0","387257","F=YES, J=NO","lwg8nyuwhs","1","63","70","55","","","","","","","","","","","","","","","",""
"null","audio/beep-329314.mp3","null","audio-keyboard-response","273","2.1.0","388798","F=YES, J=NO","lwg8nyuwhs","1","63","70","55","","","","","","","","","","","","","","","",""
"null","audio/bottle.wav","null","audio-keyboard-response","274","2.1.0","389258","F=YES, J=NO","lwg8nyuwhs","1","63","70","55","","","","","","","","","","","","","","","",""
"607","
          <p id=""word"" style=""font-size: 40px;"">open</p>
          <p style=""font-size: 16px;"">F = YES &nbsp;&nbsp;&nbsp; J = NO</p>
        ","f","html-keyboard-response","275","2.1.0","389866","F=YES, J=NO","lwg8nyuwhs","1","63","70","55","","","","","","","","","open","bottle","literal","experimental","f","true","",""
"null","<p style=""font-size: 50px;"">+</p>","null","html-keyboard-response","276","2.1.0","390177","F=YES, J=NO","lwg8nyuwhs","1","63","70","55","","","","","","","","","","","","","","","",""
"null","audio/beep-329314.mp3","null","audio-keyboard-response","277","2.1.0","391718","F=YES, J=NO","lwg8nyuwhs","1","63","70","55","","","","","","","","","","","","","","","",""
"null","audio/test1.wav","null","audio-keyboard-response","278","2.1.0","392337","F=YES, J=NO","lwg8nyuwhs","1","63","70","55","","","","","","","","","","","","","","","",""
"583","
          <p id=""word"" style=""font-size: 40px;"">run</p>
          <p style=""font-size: 16px;"">F = YES &nbsp;&nbsp;&nbsp; J = NO</p>
        ","f","html-keyboard-response","279","2.1.0","392922","F=YES, J=NO","lwg8nyuwhs","1","63","70","55","","","","","","","","","run","test1","metaphor","experimental","f","true","",""
"null","<p style=""font-size: 50px;"">+</p>","null","html-keyboard-response","280","2.1.0","393226","F=YES, J=NO","lwg8nyuwhs","1","63","70","55","","","","","","","","","","","","","","","",""
"null","audio/beep-329314.mp3","null","audio-keyboard-response","281","2.1.0","394758","F=YES, J=NO","lwg8nyuwhs","1","63","70","55","","","","","","","","","","","","","","","",""
"null","audio/devil1.wav","null","audio-keyboard-response","282","2.1.0","395177","F=YES, J=NO","lwg8nyuwhs","1","63","70","55","","","","","","","","","","","","","","","",""
"800","
          <p id=""word"" style=""font-size: 40px;"">carry</p>
          <p style=""font-size: 16px;"">F = YES &nbsp;&nbsp;&nbsp; J = NO</p>
        ","f","html-keyboard-response","283","2.1.0","395978","F=YES, J=NO","lwg8nyuwhs","1","63","70","55","","","","","","","","","carry","devil1","unrelated","experimental","f","true","",""
"null","<p style=""font-size: 50px;"">+</p>","null","html-keyboard-response","284","2.1.0","396296","F=YES, J=NO","lwg8nyuwhs","1","63","70","55","","","","","","","","","","","","","","","",""
"null","audio/beep-329314.mp3","null","audio-keyboard-response","285","2.1.0","397838","F=YES, J=NO","lwg8nyuwhs","1","63","70","55","","","","","","","","","","","","","","","",""
"null","audio/brain.wav","null","audio-keyboard-response","286","2.1.0","398378","F=YES, J=NO","lwg8nyuwhs","1","63","70","55","","","","","","","","","","","","","","","",""
"766","
          <p id=""word"" style=""font-size: 40px;"">throw</p>
          <p style=""font-size: 16px;"">F = YES &nbsp;&nbsp;&nbsp; J = NO</p>
        ","f","html-keyboard-response","287","2.1.0","399144","F=YES, J=NO","lwg8nyuwhs","1","63","70","55","","","","","","","","","throw","brain","filler","filler","f","true","",""
"null","<p style=""font-size: 50px;"">+</p>","null","html-keyboard-response","288","2.1.0","399456","F=YES, J=NO","lwg8nyuwhs","1","63","70","55","","","","","","","","","","","","","","","",""
"null","audio/beep-329314.mp3","null","audio-keyboard-response","289","2.1.0","400998","F=YES, J=NO","lwg8nyuwhs","1","63","70","55","","","","","","","","","","","","","","","",""
"null","audio/empire.wav","null","audio-keyboard-response","290","2.1.0","401678","F=YES, J=NO","lwg8nyuwhs","1","63","70","55","","","","","","","","","","","","","","","",""
"490","
          <p id=""word"" style=""font-size: 40px;"">bring</p>
          <p style=""font-size: 16px;"">F = YES &nbsp;&nbsp;&nbsp; J = NO</p>
        ","f","html-keyboard-response","291","2.1.0","402169","F=YES, J=NO","lwg8nyuwhs","1","63","70","55","","","","","","","","","bring","empire","unrelated","experimental","f","true","",""
"null","<p style=""font-size: 50px;"">+</p>","null","html-keyboard-response","292","2.1.0","402487","F=YES, J=NO","lwg8nyuwhs","1","63","70","55","","","","","","","","","","","","","","","",""
"null","audio/beep-329314.mp3","null","audio-keyboard-response","293","2.1.0","404017","F=YES, J=NO","lwg8nyuwhs","1","63","70","55","","","","","","","","","","","","","","","",""
"null","audio/grass.wav","null","audio-keyboard-response","294","2.1.0","404678","F=YES, J=NO","lwg8nyuwhs","1","63","70","55","","","","","","","","","","","","","","","",""
"739","
          <p id=""word"" style=""font-size: 40px;"">cut</p>
          <p style=""font-size: 16px;"">F = YES &nbsp;&nbsp;&nbsp; J = NO</p>
        ","f","html-keyboard-response","295","2.1.0","405418","F=YES, J=NO","lwg8nyuwhs","1","63","70","55","","","","","","","","","cut","grass","literal","experimental","f","true","",""
"58638","<p>Excellent! You have finished block 2 of 8.</p>
                     <p>Feel free to take a 30 second break.</p>
                     <p>Press any key when you're ready to continue.</p>","j","html-keyboard-response","296","2.1.0","464057","F=YES, J=NO","lwg8nyuwhs","1","63","70","55","","","","","","","","","","","","","","","",""
"1024","<p>Starting main block 3 of 8. Press any key to continue.</p>","j","html-keyboard-response","297","2.1.0","465082","F=YES, J=NO","lwg8nyuwhs","1","63","70","55","","","","","","","","","","","","","","","",""
"null","<p style=""font-size: 50px;"">+</p>","null","html-keyboard-response","298","2.1.0","465400","F=YES, J=NO","lwg8nyuwhs","1","63","70","55","","","","","","","","","","","","","","","",""
"null","audio/beep-329314.mp3","null","audio-keyboard-response","299","2.1.0","467014","F=YES, J=NO","lwg8nyuwhs","1","63","70","55","","","","","","","","","","","","","","","",""
"null","audio/key1.wav","null","audio-keyboard-response","300","2.1.0","467384","F=YES, J=NO","lwg8nyuwhs","1","63","70","55","","","","","","","","","","","","","","","",""
"null","
          <p id=""word"" style=""font-size: 40px;"">sminsh</p>
          <p style=""font-size: 16px;"">F = YES &nbsp;&nbsp;&nbsp; J = NO</p>
        ","null","html-keyboard-response","301","2.1.0","468902","F=YES, J=NO","lwg8nyuwhs","1","63","70","55","","","","","","","","","sminsh","key1","pseudoword","pseudoword","j","false","",""
"null","<p style=""font-size: 50px;"">+</p>","null","html-keyboard-response","302","2.1.0","469222","F=YES, J=NO","lwg8nyuwhs","1","63","70","55","","","","","","","","","","","","","","","",""
"null","audio/beep-329314.mp3","null","audio-keyboard-response","303","2.1.0","470754","F=YES, J=NO","lwg8nyuwhs","1","63","70","55","","","","","","","","","","","","","","","",""
"null","audio/radio1.wav","null","audio-keyboard-response","304","2.1.0","471364","F=YES, J=NO","lwg8nyuwhs","1","63","70","55","","","","","","","","","","","","","","","",""
"1252","
          <p id=""word"" style=""font-size: 40px;"">blanter</p>
          <p style=""font-size: 16px;"">F = YES &nbsp;&nbsp;&nbsp; J = NO</p>
        ","f","html-keyboard-response","305","2.1.0","472618","F=YES, J=NO","lwg8nyuwhs","1","63","70","55","","","","","","","","","blanter","radio1","pseudoword","pseudoword","j","false","",""
"null","<p style=""font-size: 50px;"">+</p>","null","html-keyboard-response","306","2.1.0","472933","F=YES, J=NO","lwg8nyuwhs","1","63","70","55","","","","","","","","","","","","","","","",""
"null","audio/beep-329314.mp3","null","audio-keyboard-response","307","2.1.0","474474","F=YES, J=NO","lwg8nyuwhs","1","63","70","55","","","","","","","","","","","","","","","",""
"null","audio/strength.wav","null","audio-keyboard-response","308","2.1.0","475224","F=YES, J=NO","lwg8nyuwhs","1","63","70","55","","","","","","","","","","","","","","","",""
"751","
          <p id=""word"" style=""font-size: 40px;"">plabet</p>
          <p style=""font-size: 16px;"">F = YES &nbsp;&nbsp;&nbsp; J = NO</p>
        ","j","html-keyboard-response","309","2.1.0","475977","F=YES, J=NO","lwg8nyuwhs","1","63","70","55","","","","","","","","","plabet","strength","pseudoword","pseudoword","j","true","",""
"null","<p style=""font-size: 50px;"">+</p>","null","html-keyboard-response","310","2.1.0","476282","F=YES, J=NO","lwg8nyuwhs","1","63","70","55","","","","","","","","","","","","","","","",""
"null","audio/beep-329314.mp3","null","audio-keyboard-response","311","2.1.0","477814","F=YES, J=NO","lwg8nyuwhs","1","63","70","55","","","","","","","","","","","","","","","",""
"null","audio/effort.wav","null","audio-keyboard-response","312","2.1.0","478423","F=YES, J=NO","lwg8nyuwhs","1","63","70","55","","","","","","","","","","","","","","","",""
"721","
          <p id=""word"" style=""font-size: 40px;"">whonk</p>
          <p style=""font-size: 16px;"">F = YES &nbsp;&nbsp;&nbsp; J = NO</p>
        ","j","html-keyboard-response","313","2.1.0","479146","F=YES, J=NO","lwg8nyuwhs","1","63","70","55","","","","","","","","","whonk","effort","pseudoword","pseudoword","j","true","",""
"null","<p style=""font-size: 50px;"">+</p>","null","html-keyboard-response","314","2.1.0","479453","F=YES, J=NO","lwg8nyuwhs","1","63","70","55","","","","","","","","","","","","","","","",""
"null","audio/beep-329314.mp3","null","audio-keyboard-response","315","2.1.0","480993","F=YES, J=NO","lwg8nyuwhs","1","63","70","55","","","","","","","","","","","","","","","",""
"null","audio/voice.wav","null","audio-keyboard-response","316","2.1.0","481605","F=YES, J=NO","lwg8nyuwhs","1","63","70","55","","","","","","","","","","","","","","","",""
"420","
          <p id=""word"" style=""font-size: 40px;"">flood</p>
          <p style=""font-size: 16px;"">F = YES &nbsp;&nbsp;&nbsp; J = NO</p>
        ","f","html-keyboard-response","317","2.1.0","482026","F=YES, J=NO","lwg8nyuwhs","1","63","70","55","","","","","","","","","flood","voice","unrelated","experimental","f","true","",""
"null","<p style=""font-size: 50px;"">+</p>","null","html-keyboard-response","318","2.1.0","482333","F=YES, J=NO","lwg8nyuwhs","1","63","70","55","","","","","","","","","","","","","","","",""
"null","audio/beep-329314.mp3","null","audio-keyboard-response","319","2.1.0","483874","F=YES, J=NO","lwg8nyuwhs","1","63","70","55","","","","","","","","","","","","","","","",""
"null","audio/foot1.wav","null","audio-keyboard-response","320","2.1.0","484444","F=YES, J=NO","lwg8nyuwhs","1","63","70","55","","","","","","","","","","","","","","","",""
"796","
          <p id=""word"" style=""font-size: 40px;"">thrutt</p>
          <p style=""font-size: 16px;"">F = YES &nbsp;&nbsp;&nbsp; J = NO</p>
        ","j","html-keyboard-response","321","2.1.0","485242","F=YES, J=NO","lwg8nyuwhs","1","63","70","55","","","","","","","","","thrutt","foot1","pseudoword","pseudoword","j","true","",""
"null","<p style=""font-size: 50px;"">+</p>","null","html-keyboard-response","322","2.1.0","485553","F=YES, J=NO","lwg8nyuwhs","1","63","70","55","","","","","","","","","","","","","","","",""
"null","audio/beep-329314.mp3","null","audio-keyboard-response","323","2.1.0","487093","F=YES, J=NO","lwg8nyuwhs","1","63","70","55","","","","","","","","","","","","","","","",""
"null","audio/pattern.wav","null","audio-keyboard-response","324","2.1.0","487603","F=YES, J=NO","lwg8nyuwhs","1","63","70","55","","","","","","","","","","","","","","","",""
"773","
          <p id=""word"" style=""font-size: 40px;"">tug</p>
          <p style=""font-size: 16px;"">F = YES &nbsp;&nbsp;&nbsp; J = NO</p>
        ","f","html-keyboard-response","325","2.1.0","488378","F=YES, J=NO","lwg8nyuwhs","1","63","70","55","","","","","","","","","tug","pattern","filler","filler","f","true","",""
"null","<p style=""font-size: 50px;"">+</p>","null","html-keyboard-response","326","2.1.0","488683","F=YES, J=NO","lwg8nyuwhs","1","63","70","55","","","","","","","","","","","","","","","",""
"null","audio/beep-329314.mp3","null","audio-keyboard-response","327","2.1.0","490214","F=YES, J=NO","lwg8nyuwhs","1","63","70","55","","","","","","","","","","","","","","","",""
"null","audio/emotion.wav","null","audio-keyboard-response","328","2.1.0","490884","F=YES, J=NO","lwg8nyuwhs","1","63","70","55","","","","","","","","","","","","","","","",""
"691","
          <p id=""word"" style=""font-size: 40px;"">bury</p>
          <p style=""font-size: 16px;"">F = YES &nbsp;&nbsp;&nbsp; J = NO</p>
        ","f","html-keyboard-response","329","2.1.0","491577","F=YES, J=NO","lwg8nyuwhs","1","63","70","55","","","","","","","","","bury","emotion","metaphor","experimental","f","true","",""
"null","<p style=""font-size: 50px;"">+</p>","null","html-keyboard-response","330","2.1.0","491893","F=YES, J=NO","lwg8nyuwhs","1","63","70","55","","","","","","","","","","","","","","","",""
"null","audio/beep-329314.mp3","null","audio-keyboard-response","331","2.1.0","493434","F=YES, J=NO","lwg8nyuwhs","1","63","70","55","","","","","","","","","","","","","","","",""
"null","audio/cave1.wav","null","audio-keyboard-response","332","2.1.0","494003","F=YES, J=NO","lwg8nyuwhs","1","63","70","55","","","","","","","","","","","","","","","",""
"725","
          <p id=""word"" style=""font-size: 40px;"">blacket</p>
          <p style=""font-size: 16px;"">F = YES &nbsp;&nbsp;&nbsp; J = NO</p>
        ","f","html-keyboard-response","333","2.1.0","494730","F=YES, J=NO","lwg8nyuwhs","1","63","70","55","","","","","","","","","blacket","cave1","pseudoword","pseudoword","j","false","",""
"null","<p style=""font-size: 50px;"">+</p>","null","html-keyboard-response","334","2.1.0","495042","F=YES, J=NO","lwg8nyuwhs","1","63","70","55","","","","","","","","","","","","","","","",""
"null","audio/beep-329314.mp3","null","audio-keyboard-response","335","2.1.0","496574","F=YES, J=NO","lwg8nyuwhs","1","63","70","55","","","","","","","","","","","","","","","",""
"null","audio/street.wav","null","audio-keyboard-response","336","2.1.0","497284","F=YES, J=NO","lwg8nyuwhs","1","63","70","55","","","","","","","","","","","","","","","",""
"756","
          <p id=""word"" style=""font-size: 40px;"">hold</p>
          <p style=""font-size: 16px;"">F = YES &nbsp;&nbsp;&nbsp; J = NO</p>
        ","f","html-keyboard-response","337","2.1.0","498042","F=YES, J=NO","lwg8nyuwhs","1","63","70","55","","","","","","","","","hold","street","unrelated","experimental","f","true","",""
"null","<p style=""font-size: 50px;"">+</p>","null","html-keyboard-response","338","2.1.0","498353","F=YES, J=NO","lwg8nyuwhs","1","63","70","55","","","","","","","","","","","","","","","",""
"null","audio/beep-329314.mp3","null","audio-keyboard-response","339","2.1.0","499893","F=YES, J=NO","lwg8nyuwhs","1","63","70","55","","","","","","","","","","","","","","","",""
"null","audio/budget1.wav","null","audio-keyboard-response","340","2.1.0","500504","F=YES, J=NO","lwg8nyuwhs","1","63","70","55","","","","","","","","","","","","","","","",""
"736","
          <p id=""word"" style=""font-size: 40px;"">sulist</p>
          <p style=""font-size: 16px;"">F = YES &nbsp;&nbsp;&nbsp; J = NO</p>
        ","j","html-keyboard-response","341","2.1.0","501242","F=YES, J=NO","lwg8nyuwhs","1","63","70","55","","","","","","","","","sulist","budget1","pseudoword","pseudoword","j","true","",""
"null","<p style=""font-size: 50px;"">+</p>","null","html-keyboard-response","342","2.1.0","501553","F=YES, J=NO","lwg8nyuwhs","1","63","70","55","","","","","","","","","","","","","","","",""
"null","audio/beep-329314.mp3","null","audio-keyboard-response","343","2.1.0","503094","F=YES, J=NO","lwg8nyuwhs","1","63","70","55","","","","","","","","","","","","","","","",""
"null","audio/plot1.wav","null","audio-keyboard-response","344","2.1.0","503644","F=YES, J=NO","lwg8nyuwhs","1","63","70","55","","","","","","","","","","","","","","","",""
"1051","
          <p id=""word"" style=""font-size: 40px;"">glenter</p>
          <p style=""font-size: 16px;"">F = YES &nbsp;&nbsp;&nbsp; J = NO</p>
        ","j","html-keyboard-response","345","2.1.0","504697","F=YES, J=NO","lwg8nyuwhs","1","63","70","55","","","","","","","","","glenter","plot1","pseudoword","pseudoword","j","true","",""
"null","<p style=""font-size: 50px;"">+</p>","null","html-keyboard-response","346","2.1.0","505002","F=YES, J=NO","lwg8nyuwhs","1","63","70","55","","","","","","","","","","","","","","","",""
"null","audio/beep-329314.mp3","null","audio-keyboard-response","347","2.1.0","506534","F=YES, J=NO","lwg8nyuwhs","1","63","70","55","","","","","","","","","","","","","","","",""
"null","audio/sugar1.wav","null","audio-keyboard-response","348","2.1.0","507044","F=YES, J=NO","lwg8nyuwhs","1","63","70","55","","","","","","","","","","","","","","","",""
"789","
          <p id=""word"" style=""font-size: 40px;"">glung</p>
          <p style=""font-size: 16px;"">F = YES &nbsp;&nbsp;&nbsp; J = NO</p>
        ","j","html-keyboard-response","349","2.1.0","507835","F=YES, J=NO","lwg8nyuwhs","1","63","70","55","","","","","","","","","glung","sugar1","pseudoword","pseudoword","j","true","",""
"null","<p style=""font-size: 50px;"">+</p>","null","html-keyboard-response","350","2.1.0","508152","F=YES, J=NO","lwg8nyuwhs","1","63","70","55","","","","","","","","","","","","","","","",""
"null","audio/beep-329314.mp3","null","audio-keyboard-response","351","2.1.0","509693","F=YES, J=NO","lwg8nyuwhs","1","63","70","55","","","","","","","","","","","","","","","",""
"null","audio/ego.wav","null","audio-keyboard-response","352","2.1.0","510244","F=YES, J=NO","lwg8nyuwhs","1","63","70","55","","","","","","","","","","","","","","","",""
"691","
          <p id=""word"" style=""font-size: 40px;"">feed</p>
          <p style=""font-size: 16px;"">F = YES &nbsp;&nbsp;&nbsp; J = NO</p>
        ","f","html-keyboard-response","353","2.1.0","510937","F=YES, J=NO","lwg8nyuwhs","1","63","70","55","","","","","","","","","feed","ego","metaphor","experimental","f","true","",""
"null","<p style=""font-size: 50px;"">+</p>","null","html-keyboard-response","354","2.1.0","511243","F=YES, J=NO","lwg8nyuwhs","1","63","70","55","","","","","","","","","","","","","","","",""
"null","audio/beep-329314.mp3","null","audio-keyboard-response","355","2.1.0","512773","F=YES, J=NO","lwg8nyuwhs","1","63","70","55","","","","","","","","","","","","","","","",""
"null","audio/cloud1.wav","null","audio-keyboard-response","356","2.1.0","513324","F=YES, J=NO","lwg8nyuwhs","1","63","70","55","","","","","","","","","","","","","","","",""
"780","
          <p id=""word"" style=""font-size: 40px;"">scrap</p>
          <p style=""font-size: 16px;"">F = YES &nbsp;&nbsp;&nbsp; J = NO</p>
        ","f","html-keyboard-response","357","2.1.0","514105","F=YES, J=NO","lwg8nyuwhs","1","63","70","55","","","","","","","","","scrap","cloud1","unrelated","experimental","f","true","",""
"null","<p style=""font-size: 50px;"">+</p>","null","html-keyboard-response","358","2.1.0","514413","F=YES, J=NO","lwg8nyuwhs","1","63","70","55","","","","","","","","","","","","","","","",""
"null","audio/beep-329314.mp3","null","audio-keyboard-response","359","2.1.0","515954","F=YES, J=NO","lwg8nyuwhs","1","63","70","55","","","","","","","","","","","","","","","",""
"null","audio/scar.wav","null","audio-keyboard-response","360","2.1.0","516564","F=YES, J=NO","lwg8nyuwhs","1","63","70","55","","","","","","","","","","","","","","","",""
"965","
          <p id=""word"" style=""font-size: 40px;"">adelineate</p>
          <p style=""font-size: 16px;"">F = YES &nbsp;&nbsp;&nbsp; J = NO</p>
        ","f","html-keyboard-response","361","2.1.0","517530","F=YES, J=NO","lwg8nyuwhs","1","63","70","55","","","","","","","","","adelineate","scar","pseudoword","pseudoword","j","false","",""
"5630","<p>Excellent! You have finished block 3 of 8.</p>
                     <p>Feel free to take a 30 second break.</p>
                     <p>Press any key when you're ready to continue.</p>","f","html-keyboard-response","362","2.1.0","523161","F=YES, J=NO","lwg8nyuwhs","1","63","70","55","","","","","","","","","","","","","","","",""
"735","<p>Starting main block 4 of 8. Press any key to continue.</p>","f","html-keyboard-response","363","2.1.0","523898","F=YES, J=NO","lwg8nyuwhs","1","63","70","55","","","","","","","","","","","","","","","",""
"null","<p style=""font-size: 50px;"">+</p>","null","html-keyboard-response","364","2.1.0","524213","F=YES, J=NO","lwg8nyuwhs","1","63","70","55","","","","","","","","","","","","","","","",""
"null","audio/beep-329314.mp3","null","audio-keyboard-response","365","2.1.0","525754","F=YES, J=NO","lwg8nyuwhs","1","63","70","55","","","","","","","","","","","","","","","",""
"null","audio/fence.wav","null","audio-keyboard-response","366","2.1.0","526444","F=YES, J=NO","lwg8nyuwhs","1","63","70","55","","","","","","","","","","","","","","","",""
"764","
          <p id=""word"" style=""font-size: 40px;"">trim</p>
          <p style=""font-size: 16px;"">F = YES &nbsp;&nbsp;&nbsp; J = NO</p>
        ","f","html-keyboard-response","367","2.1.0","527210","F=YES, J=NO","lwg8nyuwhs","1","63","70","55","","","","","","","","","trim","fence","filler","filler","f","true","",""
"null","<p style=""font-size: 50px;"">+</p>","null","html-keyboard-response","368","2.1.0","527512","F=YES, J=NO","lwg8nyuwhs","1","63","70","55","","","","","","","","","","","","","","","",""
"null","audio/beep-329314.mp3","null","audio-keyboard-response","369","2.1.0","529054","F=YES, J=NO","lwg8nyuwhs","1","63","70","55","","","","","","","","","","","","","","","",""
"null","audio/truth1.wav","null","audio-keyboard-response","370","2.1.0","529644","F=YES, J=NO","lwg8nyuwhs","1","63","70","55","","","","","","","","","","","","","","","",""
"714","
          <p id=""word"" style=""font-size: 40px;"">expose</p>
          <p style=""font-size: 16px;"">F = YES &nbsp;&nbsp;&nbsp; J = NO</p>
        ","f","html-keyboard-response","371","2.1.0","530359","F=YES, J=NO","lwg8nyuwhs","1","63","70","55","","","","","","","","","expose","truth1","metaphor","experimental","f","true","",""
"null","<p style=""font-size: 50px;"">+</p>","null","html-keyboard-response","372","2.1.0","530663","F=YES, J=NO","lwg8nyuwhs","1","63","70","55","","","","","","","","","","","","","","","",""
"null","audio/beep-329314.mp3","null","audio-keyboard-response","373","2.1.0","532193","F=YES, J=NO","lwg8nyuwhs","1","63","70","55","","","","","","","","","","","","","","","",""
"null","audio/topic.wav","null","audio-keyboard-response","374","2.1.0","532764","F=YES, J=NO","lwg8nyuwhs","1","63","70","55","","","","","","","","","","","","","","","",""
"683","
          <p id=""word"" style=""font-size: 40px;"">approach</p>
          <p style=""font-size: 16px;"">F = YES &nbsp;&nbsp;&nbsp; J = NO</p>
        ","f","html-keyboard-response","375","2.1.0","533448","F=YES, J=NO","lwg8nyuwhs","1","63","70","55","","","","","","","","","approach","topic","metaphor","experimental","f","true","",""
"null","<p style=""font-size: 50px;"">+</p>","null","html-keyboard-response","376","2.1.0","533770","F=YES, J=NO","lwg8nyuwhs","1","63","70","55","","","","","","","","","","","","","","","",""
"null","audio/beep-329314.mp3","null","audio-keyboard-response","377","2.1.0","535294","F=YES, J=NO","lwg8nyuwhs","1","63","70","55","","","","","","","","","","","","","","","",""
"null","audio/theory1.wav","null","audio-keyboard-response","378","2.1.0","535944","F=YES, J=NO","lwg8nyuwhs","1","63","70","55","","","","","","","","","","","","","","","",""
"800","
          <p id=""word"" style=""font-size: 40px;"">scolve</p>
          <p style=""font-size: 16px;"">F = YES &nbsp;&nbsp;&nbsp; J = NO</p>
        ","j","html-keyboard-response","379","2.1.0","536746","F=YES, J=NO","lwg8nyuwhs","1","63","70","55","","","","","","","","","scolve","theory1","pseudoword","pseudoword","j","true","",""
"null","<p style=""font-size: 50px;"">+</p>","null","html-keyboard-response","380","2.1.0","537063","F=YES, J=NO","lwg8nyuwhs","1","63","70","55","","","","","","","","","","","","","","","",""
"null","audio/beep-329314.mp3","null","audio-keyboard-response","381","2.1.0","538594","F=YES, J=NO","lwg8nyuwhs","1","63","70","55","","","","","","","","","","","","","","","",""
"null","audio/flaw.wav","null","audio-keyboard-response","382","2.1.0","539244","F=YES, J=NO","lwg8nyuwhs","1","63","70","55","","","","","","","","","","","","","","","",""
"828","
          <p id=""word"" style=""font-size: 40px;"">thwool</p>
          <p style=""font-size: 16px;"">F = YES &nbsp;&nbsp;&nbsp; J = NO</p>
        ","j","html-keyboard-response","383","2.1.0","540074","F=YES, J=NO","lwg8nyuwhs","1","63","70","55","","","","","","","","","thwool","flaw","pseudoword","pseudoword","j","true","",""
"null","<p style=""font-size: 50px;"">+</p>","null","html-keyboard-response","384","2.1.0","540382","F=YES, J=NO","lwg8nyuwhs","1","63","70","55","","","","","","","","","","","","","","","",""
"null","audio/beep-329314.mp3","null","audio-keyboard-response","385","2.1.0","541914","F=YES, J=NO","lwg8nyuwhs","1","63","70","55","","","","","","","","","","","","","","","",""
"null","audio/bush1.wav","null","audio-keyboard-response","386","2.1.0","542404","F=YES, J=NO","lwg8nyuwhs","1","63","70","55","","","","","","","","","","","","","","","",""
"596","
          <p id=""word"" style=""font-size: 40px;"">platined</p>
          <p style=""font-size: 16px;"">F = YES &nbsp;&nbsp;&nbsp; J = NO</p>
        ","f","html-keyboard-response","387","2.1.0","543001","F=YES, J=NO","lwg8nyuwhs","1","63","70","55","","","","","","","","","platined","bush1","pseudoword","pseudoword","j","false","",""
"null","<p style=""font-size: 50px;"">+</p>","null","html-keyboard-response","388","2.1.0","543323","F=YES, J=NO","lwg8nyuwhs","1","63","70","55","","","","","","","","","","","","","","","",""
"null","audio/beep-329314.mp3","null","audio-keyboard-response","389","2.1.0","544854","F=YES, J=NO","lwg8nyuwhs","1","63","70","55","","","","","","","","","","","","","","","",""
"null","audio/survey1.wav","null","audio-keyboard-response","390","2.1.0","545603","F=YES, J=NO","lwg8nyuwhs","1","63","70","55","","","","","","","","","","","","","","","",""
"886","
          <p id=""word"" style=""font-size: 40px;"">imploth</p>
          <p style=""font-size: 16px;"">F = YES &nbsp;&nbsp;&nbsp; J = NO</p>
