"rt","stimulus","response","trial_type","trial_index","plugin_version","time_elapsed","response_mapping","subject_id","list_index","lextale_score","lextale_word_score","lextale_nonword_score","success","timeout","failed_images","failed_audio","failed_video","task","isWord","isDummy","target","prime","prime_type","stimulus_type","correct_response","correct","section","question_order"
"7774","
    <div style=""max-width: 800px; margin: auto; text-align: left;"">
      <h2>STANFORD UNIVERSITY</h2>
      <h3>Research Information Sheet</h3>
      <p><strong>Protocol Director:</strong> Robert Hawkins<br>
      <strong>Protocol Title:</strong> Communication and social cognition in natural audiovisual contexts<br>
      <strong>IRB#:</strong> 77226</p>

      <p><strong>DESCRIPTION:</strong> You are invited to participate in a research study about language and communication. The purpose of the research is to understand how you interact and communicate with other people in naturalistic settings as a fluent English speaker. This research will be conducted through the Prolific platform, including participants from the US, UK, and Canada. If you decide to participate in this research, you will play a communication game in a group with one or more partners.</p>

      <p><strong>TIME INVOLVEMENT:</strong> The task will last the amount of time advertised on Prolific. You are free to withdraw from the study at any time.</p>

      <p><strong>RISKS AND BENEFITS:</strong> You may become frustrated if your partner gets distracted, or experience discomfort if other participants in your group send text that is inappropriate for the task. We ask you to please be respectful of other participants you might be interacting with to mitigate these risks. You may also experience discomfort when being asked to discuss or challenge emotionally salient political beliefs. Study data will be stored securely, in compliance with Stanford University standards, minimizing the risk of confidentiality breach. This study advances our scientific understanding of how people communicate and collaborate in naturalistic settings. This study may lead to further insights about what can go wrong in teamwork, suggest potential interventions to overcome these barriers, and help to develop assistive technologies that collaborate with human partners. We cannot and do not guarantee or promise that you will receive any benefits from this study.</p>

      <p><strong>PAYMENTS:</strong> You will receive payment in the amount advertised on Prolific. If you do not complete this study, you will receive prorated payment based on the time that you have spent. Additionally, you may be eligible for bonus payments as described in the instructions.</p>

      <p><strong>PARTICIPANT’S RIGHTS:</strong> If you have read this form and have decided to participate in this project, please understand your participation is voluntary and you have the right to withdraw your consent or discontinue participation at any time without penalty or loss of benefits to which you are otherwise entitled. The alternative is not to participate. You have the right to refuse to answer particular questions. The results of this research study may be presented at scientific or professional meetings or published in scientific journals. Your individual privacy will be maintained in all published and written data resulting from the study. In accordance with scientific norms, the data from this study may be used or shared with other researchers for future research (after removing personally identifying information) without additional consent from you.</p>

      <p><strong>CONTACT INFORMATION:</strong><br>
      Questions: If you have any questions, concerns or complaints about this research, its procedures, risks and benefits, contact the Protocol Director, Robert Hawkins (<a href=""mailto:rdhawkins@stanford.edu"">rdhawkins@stanford.edu</a>, 217-549-6923).<br>
      Independent Contact: If you are not satisfied with how this study is being conducted, or if you have any concerns, complaints, or general questions about the research or your rights as a participant, please contact the Stanford Institutional Review Board (IRB) to speak to someone independent of the research team at 650-723-2480 or toll free at 1-866-680-2906, or email at <a href=""mailto:irbnon-med@stanford.edu"">irbnon-med@stanford.edu</a>. You can also write to the Stanford IRB, Stanford University, 1705 El Camino Real, Palo Alto, CA 94306.</p>

      <p><strong>Please save or print a copy of this page for your records.</strong></p>
      <p>If you agree to participate in this research, click ""Continue"" below.</p>
    </div>
  ","0","html-button-response","0","2.1.0","7781","J=YES, F=NO","mgkwho8k39","1","60","70","50","","","","","","","","","","","","","","","",""
"16552","
    <div style=""max-width: 800px; margin: auto; text-align: left;"">
      <h2>Welcome!</h2>
      <p>Thank you for participating in this study. The experiment consists of three parts:</p>
      <ol>
        <li>An English vocabulary test</li>
        <li>A main task in which you will hear and see words, and decide whether the written word is a real English word</li>
        <li>A brief survey about your background</li>
      </ol>
      <p>Each part will be introduced before it begins.</p>
      <p>Please make sure you are in a quiet environment and can hear audio clearly for the final task.</p>
      <p style=""margin-top: 2em;"">Press any key to begin.</p>
    </div>
  ","m","html-keyboard-response","1","2.1.0","24335","J=YES, F=NO","mgkwho8k39","1","60","70","50","","","","","","","","","","","","","","","",""
"","","","preload","2","2.1.0","25329","J=YES, F=NO","mgkwho8k39","1","60","70","50","true","false","[]","[]","[]","","","","","","","","","","",""
"2058","
    <div style=""max-width: 800px; margin: auto; text-align: left;"">
      <h2>Part 1: Vocabulary Test</h2>
      <p>You will now complete the first part of the study: a short English vocabulary test.</p>
      <p>This test is called <strong>LexTALE</strong> and helps us get a general sense of your English proficiency.</p>
      <p style=""margin-top: 2em;"">Press any key to continue.</p>
    </div>
  ","m","html-keyboard-response","3","2.1.0","27388","J=YES, F=NO","mgkwho8k39","1","60","70","50","","","","","","","","","","","","","","","",""
"10119","
    <div style=""max-width: 800px; margin: auto; text-align: left;"">
      <h2>LexTALE Vocabulary Test</h2>
      <p>In this test, you will see a series of letter strings—one at a time.</p>
      <p>Your task is to decide whether each string is a real English word.</p>
      <p><strong>Key responses:</strong></p>
      <ul>
        <li><strong>J</strong> = YES (real English word)</li>
        <li><strong>F</strong> = NO (not a real English word)</li>
      </ul>
      <p>There is no time limit, but please try to be accurate.</p>
      <p style=""margin-top: 2em;"">Press any key to begin.</p>
    </div>
  ","j","html-keyboard-response","4","2.1.0","37508","J=YES, F=NO","mgkwho8k39","1","60","70","50","","","","","","","","","","","","","","","",""
"2082","
  <p style=""font-size: 40px;"">platery</p>
  <p style=""font-size: 16px;"">J = YES &nbsp;&nbsp;&nbsp; F = NO</p>
","j","html-keyboard-response","5","2.1.0","39591","J=YES, F=NO","mgkwho8k39","1","60","70","50","","","","","","lextale","false","true","","","","","","","",""
"764","
  <p style=""font-size: 40px;"">denial</p>
  <p style=""font-size: 16px;"">J = YES &nbsp;&nbsp;&nbsp; F = NO</p>
","j","html-keyboard-response","6","2.1.0","40356","J=YES, F=NO","mgkwho8k39","1","60","70","50","","","","","","lextale","true","true","","","","","","","",""
"1111","
  <p style=""font-size: 40px;"">marrit</p>
  <p style=""font-size: 16px;"">J = YES &nbsp;&nbsp;&nbsp; F = NO</p>
","j","html-keyboard-response","7","2.1.0","41468","J=YES, F=NO","mgkwho8k39","1","60","70","50","","","","","","lextale","false","true","","","","","","","",""
"710","
  <p style=""font-size: 40px;"">bottle</p>
  <p style=""font-size: 16px;"">J = YES &nbsp;&nbsp;&nbsp; F = NO</p>
","j","html-keyboard-response","8","2.1.0","42180","J=YES, F=NO","mgkwho8k39","1","60","70","50","","","","","","lextale","true","false","","","","","","","",""
"1054","
  <p style=""font-size: 40px;"">birst</p>
  <p style=""font-size: 16px;"">J = YES &nbsp;&nbsp;&nbsp; F = NO</p>
","f","html-keyboard-response","9","2.1.0","43236","J=YES, F=NO","mgkwho8k39","1","60","70","50","","","","","","lextale","false","false","","","","","","","",""
"807","
  <p style=""font-size: 40px;"">envy</p>
  <p style=""font-size: 16px;"">J = YES &nbsp;&nbsp;&nbsp; F = NO</p>
","f","html-keyboard-response","10","2.1.0","44044","J=YES, F=NO","mgkwho8k39","1","60","70","50","","","","","","lextale","true","false","","","","","","","",""
"1012","
  <p style=""font-size: 40px;"">brang</p>
  <p style=""font-size: 16px;"">J = YES &nbsp;&nbsp;&nbsp; F = NO</p>
","f","html-keyboard-response","11","2.1.0","45057","J=YES, F=NO","mgkwho8k39","1","60","70","50","","","","","","lextale","false","false","","","","","","","",""
"759","
  <p style=""font-size: 40px;"">huge</p>
  <p style=""font-size: 16px;"">J = YES &nbsp;&nbsp;&nbsp; F = NO</p>
","j","html-keyboard-response","12","2.1.0","45817","J=YES, F=NO","mgkwho8k39","1","60","70","50","","","","","","lextale","true","false","","","","","","","",""
"878","
  <p style=""font-size: 40px;"">plove</p>
  <p style=""font-size: 16px;"">J = YES &nbsp;&nbsp;&nbsp; F = NO</p>
","f","html-keyboard-response","13","2.1.0","46695","J=YES, F=NO","mgkwho8k39","1","60","70","50","","","","","","lextale","false","false","","","","","","","",""
"2334","
  <p style=""font-size: 40px;"">border</p>
  <p style=""font-size: 16px;"">J = YES &nbsp;&nbsp;&nbsp; F = NO</p>
","j","html-keyboard-response","14","2.1.0","49030","J=YES, F=NO","mgkwho8k39","1","60","70","50","","","","","","lextale","true","false","","","","","","","",""
"777","
  <p style=""font-size: 40px;"">flimsy</p>
  <p style=""font-size: 16px;"">J = YES &nbsp;&nbsp;&nbsp; F = NO</p>
","f","html-keyboard-response","15","2.1.0","49809","J=YES, F=NO","mgkwho8k39","1","60","70","50","","","","","","lextale","true","false","","","","","","","",""
"636","
  <p style=""font-size: 40px;"">drain</p>
  <p style=""font-size: 16px;"">J = YES &nbsp;&nbsp;&nbsp; F = NO</p>
","j","html-keyboard-response","16","2.1.0","50445","J=YES, F=NO","mgkwho8k39","1","60","70","50","","","","","","lextale","true","false","","","","","","","",""
"785","
  <p style=""font-size: 40px;"">twindle</p>
  <p style=""font-size: 16px;"">J = YES &nbsp;&nbsp;&nbsp; F = NO</p>
","j","html-keyboard-response","17","2.1.0","51232","J=YES, F=NO","mgkwho8k39","1","60","70","50","","","","","","lextale","false","false","","","","","","","",""
"729","
  <p style=""font-size: 40px;"">propose</p>
  <p style=""font-size: 16px;"">J = YES &nbsp;&nbsp;&nbsp; F = NO</p>
","j","html-keyboard-response","18","2.1.0","51963","J=YES, F=NO","mgkwho8k39","1","60","70","50","","","","","","lextale","true","false","","","","","","","",""
"1190","
  <p style=""font-size: 40px;"">forlay</p>
  <p style=""font-size: 16px;"">J = YES &nbsp;&nbsp;&nbsp; F = NO</p>
","f","html-keyboard-response","19","2.1.0","53154","J=YES, F=NO","mgkwho8k39","1","60","70","50","","","","","","lextale","false","false","","","","","","","",""
"851","
  <p style=""font-size: 40px;"">tenant</p>
  <p style=""font-size: 16px;"">J = YES &nbsp;&nbsp;&nbsp; F = NO</p>
","j","html-keyboard-response","20","2.1.0","54006","J=YES, F=NO","mgkwho8k39","1","60","70","50","","","","","","lextale","true","false","","","","","","","",""
"852","
  <p style=""font-size: 40px;"">strain</p>
  <p style=""font-size: 16px;"">J = YES &nbsp;&nbsp;&nbsp; F = NO</p>
","j","html-keyboard-response","21","2.1.0","54859","J=YES, F=NO","mgkwho8k39","1","60","70","50","","","","","","lextale","true","false","","","","","","","",""
"903","
  <p style=""font-size: 40px;"">holster</p>
  <p style=""font-size: 16px;"">J = YES &nbsp;&nbsp;&nbsp; F = NO</p>
","j","html-keyboard-response","22","2.1.0","55763","J=YES, F=NO","mgkwho8k39","1","60","70","50","","","","","","lextale","true","false","","","","","","","",""
"814","
  <p style=""font-size: 40px;"">hinder</p>
  <p style=""font-size: 16px;"">J = YES &nbsp;&nbsp;&nbsp; F = NO</p>
","f","html-keyboard-response","23","2.1.0","56578","J=YES, F=NO","mgkwho8k39","1","60","70","50","","","","","","lextale","true","false","","","","","","","",""
"664","
  <p style=""font-size: 40px;"">swindle</p>
  <p style=""font-size: 16px;"">J = YES &nbsp;&nbsp;&nbsp; F = NO</p>
","j","html-keyboard-response","24","2.1.0","57243","J=YES, F=NO","mgkwho8k39","1","60","70","50","","","","","","lextale","true","false","","","","","","","",""
"939","
  <p style=""font-size: 40px;"">nuder</p>
  <p style=""font-size: 16px;"">J = YES &nbsp;&nbsp;&nbsp; F = NO</p>
","f","html-keyboard-response","25","2.1.0","58182","J=YES, F=NO","mgkwho8k39","1","60","70","50","","","","","","lextale","false","false","","","","","","","",""
"1459","
  <p style=""font-size: 40px;"">pillow</p>
  <p style=""font-size: 16px;"">J = YES &nbsp;&nbsp;&nbsp; F = NO</p>
","j","html-keyboard-response","26","2.1.0","59641","J=YES, F=NO","mgkwho8k39","1","60","70","50","","","","","","lextale","true","false","","","","","","","",""
"964","
  <p style=""font-size: 40px;"">shumble</p>
  <p style=""font-size: 16px;"">J = YES &nbsp;&nbsp;&nbsp; F = NO</p>
","f","html-keyboard-response","27","2.1.0","60606","J=YES, F=NO","mgkwho8k39","1","60","70","50","","","","","","lextale","false","false","","","","","","","",""
"550","
  <p style=""font-size: 40px;"">thirst</p>
  <p style=""font-size: 16px;"">J = YES &nbsp;&nbsp;&nbsp; F = NO</p>
","j","html-keyboard-response","28","2.1.0","61157","J=YES, F=NO","mgkwho8k39","1","60","70","50","","","","","","lextale","true","false","","","","","","","",""
"969","
  <p style=""font-size: 40px;"">unsail</p>
  <p style=""font-size: 16px;"">J = YES &nbsp;&nbsp;&nbsp; F = NO</p>
","j","html-keyboard-response","29","2.1.0","62127","J=YES, F=NO","mgkwho8k39","1","60","70","50","","","","","","lextale","false","false","","","","","","","",""
"738","
  <p style=""font-size: 40px;"">rifle</p>
  <p style=""font-size: 16px;"">J = YES &nbsp;&nbsp;&nbsp; F = NO</p>
","j","html-keyboard-response","30","2.1.0","62866","J=YES, F=NO","mgkwho8k39","1","60","70","50","","","","","","lextale","true","false","","","","","","","",""
"711","
  <p style=""font-size: 40px;"">mush</p>
  <p style=""font-size: 16px;"">J = YES &nbsp;&nbsp;&nbsp; F = NO</p>
","j","html-keyboard-response","31","2.1.0","63578","J=YES, F=NO","mgkwho8k39","1","60","70","50","","","","","","lextale","false","false","","","","","","","",""
"533","
  <p style=""font-size: 40px;"">drench</p>
  <p style=""font-size: 16px;"">J = YES &nbsp;&nbsp;&nbsp; F = NO</p>
","j","html-keyboard-response","32","2.1.0","64111","J=YES, F=NO","mgkwho8k39","1","60","70","50","","","","","","lextale","true","false","","","","","","","",""
"765","
  <p style=""font-size: 40px;"">snirt</p>
  <p style=""font-size: 16px;"">J = YES &nbsp;&nbsp;&nbsp; F = NO</p>
","f","html-keyboard-response","33","2.1.0","64878","J=YES, F=NO","mgkwho8k39","1","60","70","50","","","","","","lextale","false","false","","","","","","","",""
"639","
  <p style=""font-size: 40px;"">bitter</p>
  <p style=""font-size: 16px;"">J = YES &nbsp;&nbsp;&nbsp; F = NO</p>
","j","html-keyboard-response","34","2.1.0","65518","J=YES, F=NO","mgkwho8k39","1","60","70","50","","","","","","lextale","true","false","","","","","","","",""
"484","
  <p style=""font-size: 40px;"">pliff</p>
  <p style=""font-size: 16px;"">J = YES &nbsp;&nbsp;&nbsp; F = NO</p>
","j","html-keyboard-response","35","2.1.0","66003","J=YES, F=NO","mgkwho8k39","1","60","70","50","","","","","","lextale","false","false","","","","","","","",""
"659","
  <p style=""font-size: 40px;"">tablet</p>
  <p style=""font-size: 16px;"">J = YES &nbsp;&nbsp;&nbsp; F = NO</p>
","j","html-keyboard-response","36","2.1.0","66662","J=YES, F=NO","mgkwho8k39","1","60","70","50","","","","","","lextale","true","false","","","","","","","",""
"662","
  <p style=""font-size: 40px;"">glimmer</p>
  <p style=""font-size: 16px;"">J = YES &nbsp;&nbsp;&nbsp; F = NO</p>
","j","html-keyboard-response","37","2.1.0","67324","J=YES, F=NO","mgkwho8k39","1","60","70","50","","","","","","lextale","true","false","","","","","","","",""
"565","
  <p style=""font-size: 40px;"">slink</p>
  <p style=""font-size: 16px;"">J = YES &nbsp;&nbsp;&nbsp; F = NO</p>
","j","html-keyboard-response","38","2.1.0","67890","J=YES, F=NO","mgkwho8k39","1","60","70","50","","","","","","lextale","true","false","","","","","","","",""
"652","
  <p style=""font-size: 40px;"">clever</p>
  <p style=""font-size: 16px;"">J = YES &nbsp;&nbsp;&nbsp; F = NO</p>
","j","html-keyboard-response","39","2.1.0","68543","J=YES, F=NO","mgkwho8k39","1","60","70","50","","","","","","lextale","true","false","","","","","","","",""
"697","
  <p style=""font-size: 40px;"">grum</p>
  <p style=""font-size: 16px;"">J = YES &nbsp;&nbsp;&nbsp; F = NO</p>
","f","html-keyboard-response","40","2.1.0","69240","J=YES, F=NO","mgkwho8k39","1","60","70","50","","","","","","lextale","false","false","","","","","","","",""
"543","
  <p style=""font-size: 40px;"">string</p>
  <p style=""font-size: 16px;"">J = YES &nbsp;&nbsp;&nbsp; F = NO</p>
","j","html-keyboard-response","41","2.1.0","69784","J=YES, F=NO","mgkwho8k39","1","60","70","50","","","","","","lextale","true","false","","","","","","","",""
"563","
  <p style=""font-size: 40px;"">plim</p>
  <p style=""font-size: 16px;"">J = YES &nbsp;&nbsp;&nbsp; F = NO</p>
","j","html-keyboard-response","42","2.1.0","70349","J=YES, F=NO","mgkwho8k39","1","60","70","50","","","","","","lextale","false","false","","","","","","","",""
"606","
  <p style=""font-size: 40px;"">cable</p>
  <p style=""font-size: 16px;"">J = YES &nbsp;&nbsp;&nbsp; F = NO</p>
","f","html-keyboard-response","43","2.1.0","70956","J=YES, F=NO","mgkwho8k39","1","60","70","50","","","","","","lextale","true","false","","","","","","","",""
"1395","
  <p style=""font-size: 40px;"">shrivel</p>
  <p style=""font-size: 16px;"">J = YES &nbsp;&nbsp;&nbsp; F = NO</p>
","j","html-keyboard-response","44","2.1.0","72352","J=YES, F=NO","mgkwho8k39","1","60","70","50","","","","","","lextale","true","false","","","","","","","",""
"859","
  <p style=""font-size: 40px;"">tarnish</p>
  <p style=""font-size: 16px;"">J = YES &nbsp;&nbsp;&nbsp; F = NO</p>
","f","html-keyboard-response","45","2.1.0","73212","J=YES, F=NO","mgkwho8k39","1","60","70","50","","","","","","lextale","true","false","","","","","","","",""
"438","
  <p style=""font-size: 40px;"">blim</p>
  <p style=""font-size: 16px;"">J = YES &nbsp;&nbsp;&nbsp; F = NO</p>
","j","html-keyboard-response","46","2.1.0","73651","J=YES, F=NO","mgkwho8k39","1","60","70","50","","","","","","lextale","false","false","","","","","","","",""
"1648","
  <p style=""font-size: 40px;"">stifle</p>
  <p style=""font-size: 16px;"">J = YES &nbsp;&nbsp;&nbsp; F = NO</p>
","j","html-keyboard-response","47","2.1.0","75300","J=YES, F=NO","mgkwho8k39","1","60","70","50","","","","","","lextale","true","false","","","","","","","",""
"1620","
  <p style=""font-size: 40px;"">bint</p>
  <p style=""font-size: 16px;"">J = YES &nbsp;&nbsp;&nbsp; F = NO</p>
","j","html-keyboard-response","48","2.1.0","76920","J=YES, F=NO","mgkwho8k39","1","60","70","50","","","","","","lextale","false","false","","","","","","","",""
"551","
  <p style=""font-size: 40px;"">purple</p>
  <p style=""font-size: 16px;"">J = YES &nbsp;&nbsp;&nbsp; F = NO</p>
","j","html-keyboard-response","49","2.1.0","77473","J=YES, F=NO","mgkwho8k39","1","60","70","50","","","","","","lextale","true","false","","","","","","","",""
"564","
  <p style=""font-size: 40px;"">wriggle</p>
  <p style=""font-size: 16px;"">J = YES &nbsp;&nbsp;&nbsp; F = NO</p>
","j","html-keyboard-response","50","2.1.0","78037","J=YES, F=NO","mgkwho8k39","1","60","70","50","","","","","","lextale","true","false","","","","","","","",""
"703","
  <p style=""font-size: 40px;"">mangle</p>
  <p style=""font-size: 16px;"">J = YES &nbsp;&nbsp;&nbsp; F = NO</p>
","f","html-keyboard-response","51","2.1.0","78741","J=YES, F=NO","mgkwho8k39","1","60","70","50","","","","","","lextale","true","false","","","","","","","",""
"539","
  <p style=""font-size: 40px;"">shramp</p>
  <p style=""font-size: 16px;"">J = YES &nbsp;&nbsp;&nbsp; F = NO</p>
","j","html-keyboard-response","52","2.1.0","79281","J=YES, F=NO","mgkwho8k39","1","60","70","50","","","","","","lextale","false","false","","","","","","","",""
"612","
  <p style=""font-size: 40px;"">flirt</p>
  <p style=""font-size: 16px;"">J = YES &nbsp;&nbsp;&nbsp; F = NO</p>
","j","html-keyboard-response","53","2.1.0","79894","J=YES, F=NO","mgkwho8k39","1","60","70","50","","","","","","lextale","true","false","","","","","","","",""
"559","
  <p style=""font-size: 40px;"">frip</p>
  <p style=""font-size: 16px;"">J = YES &nbsp;&nbsp;&nbsp; F = NO</p>
","j","html-keyboard-response","54","2.1.0","80454","J=YES, F=NO","mgkwho8k39","1","60","70","50","","","","","","lextale","false","false","","","","","","","",""
"757","
  <p style=""font-size: 40px;"">tangle</p>
  <p style=""font-size: 16px;"">J = YES &nbsp;&nbsp;&nbsp; F = NO</p>
","j","html-keyboard-response","55","2.1.0","81213","J=YES, F=NO","mgkwho8k39","1","60","70","50","","","","","","lextale","true","false","","","","","","","",""
"680","
  <p style=""font-size: 40px;"">crumble</p>
  <p style=""font-size: 16px;"">J = YES &nbsp;&nbsp;&nbsp; F = NO</p>
","j","html-keyboard-response","56","2.1.0","81894","J=YES, F=NO","mgkwho8k39","1","60","70","50","","","","","","lextale","true","false","","","","","","","",""
"636","
  <p style=""font-size: 40px;"">wrinkle</p>
  <p style=""font-size: 16px;"">J = YES &nbsp;&nbsp;&nbsp; F = NO</p>
","j","html-keyboard-response","57","2.1.0","82530","J=YES, F=NO","mgkwho8k39","1","60","70","50","","","","","","lextale","true","false","","","","","","","",""
"659","
  <p style=""font-size: 40px;"">slumb</p>
  <p style=""font-size: 16px;"">J = YES &nbsp;&nbsp;&nbsp; F = NO</p>
","f","html-keyboard-response","58","2.1.0","83189","J=YES, F=NO","mgkwho8k39","1","60","70","50","","","","","","lextale","false","false","","","","","","","",""
"518","
  <p style=""font-size: 40px;"">jungle</p>
  <p style=""font-size: 16px;"">J = YES &nbsp;&nbsp;&nbsp; F = NO</p>
","j","html-keyboard-response","59","2.1.0","83708","J=YES, F=NO","mgkwho8k39","1","60","70","50","","","","","","lextale","true","false","","","","","","","",""
"677","
  <p style=""font-size: 40px;"">frolick</p>
  <p style=""font-size: 16px;"">J = YES &nbsp;&nbsp;&nbsp; F = NO</p>
","f","html-keyboard-response","60","2.1.0","84386","J=YES, F=NO","mgkwho8k39","1","60","70","50","","","","","","lextale","false","false","","","","","","","",""
"90474","
      <h2>LexTALE Test Completed</h2>
      <p>Your LexTALE vocabulary score is: <strong>60%</strong></p>
      <p>Press any key to continue.</p>
    ","j","html-keyboard-response","61","2.1.0","174861","J=YES, F=NO","mgkwho8k39","1","60","70","50","","","","","","","","","","","","","","","",""
"3475","
    <div style=""max-width: 800px; margin: auto; text-align: left;"">
      <h2>Break Time</h2>
      <p>You have completed the first part of the study.</p>
      <p>You may take a short <strong>30-second break</strong> before continuing.</p>
      <p>When you’re ready, press any key to continue to the final task.</p>
    </div>
  ","k","html-keyboard-response","62","2.1.0","178338","J=YES, F=NO","mgkwho8k39","1","60","70","50","","","","","","","","","","","","","","","",""
"8486","
    <div style=""max-width: 800px; margin: auto; text-align: left;"">
      <h2>Part 2: Lexical Decision Task</h2>
      <p>You will now begin the second part of the study.</p>
      <p>Each trial will follow this sequence:</p>
      <ul>
        <li>A fixation cross (+) appears at the center of the screen.</li>
        <li>You will hear a short beep followed by a spoken word.</li>
        <li>A written word will appear briefly on the screen.</li>
      </ul>
      <p>Your task is to judge whether the <strong>written word</strong> is a real English word.</p>
      <p style=""margin-top: 1em;""><strong>Key responses:</strong></p>
      <ul>
        <li><strong>J</strong> = YES (real English word)</li>
        <li><strong>F</strong> = NO (not a real English word)</li>
      </ul>
      <p>Please respond as quickly and accurately as you can.</p>
      <p style=""margin-top: 2em;"">Press any key to continue.</p>
    </div>
  ","j","html-keyboard-response","63","2.1.0","186825","J=YES, F=NO","mgkwho8k39","1","60","70","50","","","","","","","","","","","","","","","",""
"2500","
    <div style=""max-width: 800px; margin: auto; text-align: left;"">
      <h2>Before You Begin</h2>
      <p>Make sure your sound is turned on.</p>
      <p>You will hear audio during each trial, but your decision should be based only on the <strong>written word</strong> you see on the screen.</p>
      <p><strong>Reminder:</strong></p>
      <ul>
        <li><strong>J</strong> = YES (real English word)</li>
        <li><strong>F</strong> = NO (not a real English word)</li>
      </ul>
      <p style=""margin-top: 2em;"">Press any key when you are ready to begin.</p>
    </div>
  ","j","html-keyboard-response","64","2.1.0","189326","J=YES, F=NO","mgkwho8k39","1","60","70","50","","","","","","","","","","","","","","","",""
"1273","
    <div style=""max-width: 800px; margin: auto; text-align: left;"">
      <h2>Part 2: Practice Trials</h2>
      <p>You will now complete a few <strong>practice trials</strong> to get familiar with the task.</p>
      <p>These trials are <strong>not scored</strong> and are only to help you get used to the format.</p>
      <p style=""margin-top: 2em;"">Press any key to begin.</p>
    </div>
  ","j","html-keyboard-response","65","2.1.0","190600","J=YES, F=NO","mgkwho8k39","1","60","70","50","","","","","","","","","","","","","","","",""
"1690","<p>Starting practice block 1 of 2. Press any key to continue.</p>","j","html-keyboard-response","66","2.1.0","192291","J=YES, F=NO","mgkwho8k39","1","60","70","50","","","","","","","","","","","","","","","",""
"null","<p style=""font-size: 50px;"">+</p>","null","html-keyboard-response","67","2.1.0","192598","J=YES, F=NO","mgkwho8k39","1","60","70","50","","","","","","","","","","","","","","","",""
"null","audio/beep-329314.mp3","null","audio-keyboard-response","68","2.1.0","194581","J=YES, F=NO","mgkwho8k39","1","60","70","50","","","","","","","","","","","","","","","",""
"null","audio/effort.wav","null","audio-keyboard-response","69","2.1.0","195247","J=YES, F=NO","mgkwho8k39","1","60","70","50","","","","","","","","","","","","","","","",""
"1488","
          <p id=""word"" style=""font-size: 40px;"">whonk</p>
          <p style=""font-size: 16px;"">J = YES &nbsp;&nbsp;&nbsp; F = NO</p>
        ","f","html-keyboard-response","70","2.1.0","196736","J=YES, F=NO","mgkwho8k39","1","60","70","50","","","","","","","","","whonk","effort","pseudoword","pseudoword","f","true","",""
"null","<p style=""font-size: 50px;"">+</p>","null","html-keyboard-response","71","2.1.0","197042","J=YES, F=NO","mgkwho8k39","1","60","70","50","","","","","","","","","","","","","","","",""
"null","audio/beep-329314.mp3","null","audio-keyboard-response","72","2.1.0","198578","J=YES, F=NO","mgkwho8k39","1","60","70","50","","","","","","","","","","","","","","","",""
"null","audio/breath.wav","null","audio-keyboard-response","73","2.1.0","199148","J=YES, F=NO","mgkwho8k39","1","60","70","50","","","","","","","","","","","","","","","",""
"893","
          <p id=""word"" style=""font-size: 40px;"">pack</p>
          <p style=""font-size: 16px;"">J = YES &nbsp;&nbsp;&nbsp; F = NO</p>
        ","j","html-keyboard-response","74","2.1.0","200042","J=YES, F=NO","mgkwho8k39","1","60","70","50","","","","","","","","","pack","breath","filler","filler","j","true","",""
"null","<p style=""font-size: 50px;"">+</p>","null","html-keyboard-response","75","2.1.0","200356","J=YES, F=NO","mgkwho8k39","1","60","70","50","","","","","","","","","","","","","","","",""
"null","audio/beep-329314.mp3","null","audio-keyboard-response","76","2.1.0","201879","J=YES, F=NO","mgkwho8k39","1","60","70","50","","","","","","","","","","","","","","","",""
"null","audio/mile1.wav","null","audio-keyboard-response","77","2.1.0","202368","J=YES, F=NO","mgkwho8k39","1","60","70","50","","","","","","","","","","","","","","","",""
"833","
          <p id=""word"" style=""font-size: 40px;"">writch</p>
          <p style=""font-size: 16px;"">J = YES &nbsp;&nbsp;&nbsp; F = NO</p>
        ","f","html-keyboard-response","78","2.1.0","203202","J=YES, F=NO","mgkwho8k39","1","60","70","50","","","","","","","","","writch","mile1","pseudoword","pseudoword","f","true","",""
"null","<p style=""font-size: 50px;"">+</p>","null","html-keyboard-response","79","2.1.0","203506","J=YES, F=NO","mgkwho8k39","1","60","70","50","","","","","","","","","","","","","","","",""
"null","audio/beep-329314.mp3","null","audio-keyboard-response","80","2.1.0","205038","J=YES, F=NO","mgkwho8k39","1","60","70","50","","","","","","","","","","","","","","","",""
"null","audio/theory1.wav","null","audio-keyboard-response","81","2.1.0","205668","J=YES, F=NO","mgkwho8k39","1","60","70","50","","","","","","","","","","","","","","","",""
"1232","
          <p id=""word"" style=""font-size: 40px;"">scolve</p>
          <p style=""font-size: 16px;"">J = YES &nbsp;&nbsp;&nbsp; F = NO</p>
        ","j","html-keyboard-response","82","2.1.0","206901","J=YES, F=NO","mgkwho8k39","1","60","70","50","","","","","","","","","scolve","theory1","pseudoword","pseudoword","f","false","",""
"null","<p style=""font-size: 50px;"">+</p>","null","html-keyboard-response","83","2.1.0","207208","J=YES, F=NO","mgkwho8k39","1","60","70","50","","","","","","","","","","","","","","","",""
"null","audio/beep-329314.mp3","null","audio-keyboard-response","84","2.1.0","208741","J=YES, F=NO","mgkwho8k39","1","60","70","50","","","","","","","","","","","","","","","",""
"null","audio/topic.wav","null","audio-keyboard-response","85","2.1.0","209388","J=YES, F=NO","mgkwho8k39","1","60","70","50","","","","","","","","","","","","","","","",""
"1138","
          <p id=""word"" style=""font-size: 40px;"">infortuitist</p>
          <p style=""font-size: 16px;"">J = YES &nbsp;&nbsp;&nbsp; F = NO</p>
        ","f","html-keyboard-response","86","2.1.0","210527","J=YES, F=NO","mgkwho8k39","1","60","70","50","","","","","","","","","infortuitist","topic","pseudoword","pseudoword","f","true","",""
"null","<p style=""font-size: 50px;"">+</p>","null","html-keyboard-response","87","2.1.0","210834","J=YES, F=NO","mgkwho8k39","1","60","70","50","","","","","","","","","","","","","","","",""
"null","audio/beep-329314.mp3","null","audio-keyboard-response","88","2.1.0","212358","J=YES, F=NO","mgkwho8k39","1","60","70","50","","","","","","","","","","","","","","","",""
"null","audio/kettle1.wav","null","audio-keyboard-response","89","2.1.0","212908","J=YES, F=NO","mgkwho8k39","1","60","70","50","","","","","","","","","","","","","","","",""
"442","
          <p id=""word"" style=""font-size: 40px;"">wrap</p>
          <p style=""font-size: 16px;"">J = YES &nbsp;&nbsp;&nbsp; F = NO</p>
        ","j","html-keyboard-response","90","2.1.0","213352","J=YES, F=NO","mgkwho8k39","1","60","70","50","","","","","","","","","wrap","kettle1","filler","filler","j","true","",""
"null","<p style=""font-size: 50px;"">+</p>","null","html-keyboard-response","91","2.1.0","213654","J=YES, F=NO","mgkwho8k39","1","60","70","50","","","","","","","","","","","","","","","",""
"null","audio/beep-329314.mp3","null","audio-keyboard-response","92","2.1.0","215180","J=YES, F=NO","mgkwho8k39","1","60","70","50","","","","","","","","","","","","","","","",""
"null","audio/cash1.wav","null","audio-keyboard-response","93","2.1.0","215829","J=YES, F=NO","mgkwho8k39","1","60","70","50","","","","","","","","","","","","","","","",""
"691","
          <p id=""word"" style=""font-size: 40px;"">splear</p>
          <p style=""font-size: 16px;"">J = YES &nbsp;&nbsp;&nbsp; F = NO</p>
        ","f","html-keyboard-response","94","2.1.0","216521","J=YES, F=NO","mgkwho8k39","1","60","70","50","","","","","","","","","splear","cash1","pseudoword","pseudoword","f","true","",""
"null","<p style=""font-size: 50px;"">+</p>","null","html-keyboard-response","95","2.1.0","216823","J=YES, F=NO","mgkwho8k39","1","60","70","50","","","","","","","","","","","","","","","",""
"null","audio/beep-329314.mp3","null","audio-keyboard-response","96","2.1.0","218361","J=YES, F=NO","mgkwho8k39","1","60","70","50","","","","","","","","","","","","","","","",""
"null","audio/beach1.wav","null","audio-keyboard-response","97","2.1.0","218988","J=YES, F=NO","mgkwho8k39","1","60","70","50","","","","","","","","","","","","","","","",""
"732","
          <p id=""word"" style=""font-size: 40px;"">drive</p>
          <p style=""font-size: 16px;"">J = YES &nbsp;&nbsp;&nbsp; F = NO</p>
        ","j","html-keyboard-response","98","2.1.0","219722","J=YES, F=NO","mgkwho8k39","1","60","70","50","","","","","","","","","drive","beach1","filler","filler","j","true","",""
"null","<p style=""font-size: 50px;"">+</p>","null","html-keyboard-response","99","2.1.0","220031","J=YES, F=NO","mgkwho8k39","1","60","70","50","","","","","","","","","","","","","","","",""
"null","audio/beep-329314.mp3","null","audio-keyboard-response","100","2.1.0","221561","J=YES, F=NO","mgkwho8k39","1","60","70","50","","","","","","","","","","","","","","","",""
"null","audio/winter.wav","null","audio-keyboard-response","101","2.1.0","222128","J=YES, F=NO","mgkwho8k39","1","60","70","50","","","","","","","","","","","","","","","",""
"781","
          <p id=""word"" style=""font-size: 40px;"">straven</p>
          <p style=""font-size: 16px;"">J = YES &nbsp;&nbsp;&nbsp; F = NO</p>
        ","j","html-keyboard-response","102","2.1.0","222910","J=YES, F=NO","mgkwho8k39","1","60","70","50","","","","","","","","","straven","winter","pseudoword","pseudoword","f","false","",""
"null","<p style=""font-size: 50px;"">+</p>","null","html-keyboard-response","103","2.1.0","223223","J=YES, F=NO","mgkwho8k39","1","60","70","50","","","","","","","","","","","","","","","",""
"null","audio/beep-329314.mp3","null","audio-keyboard-response","104","2.1.0","224761","J=YES, F=NO","mgkwho8k39","1","60","70","50","","","","","","","","","","","","","","","",""
"null","audio/van1.wav","null","audio-keyboard-response","105","2.1.0","225308","J=YES, F=NO","mgkwho8k39","1","60","70","50","","","","","","","","","","","","","","","",""
"720","
          <p id=""word"" style=""font-size: 40px;"">push</p>
          <p style=""font-size: 16px;"">J = YES &nbsp;&nbsp;&nbsp; F = NO</p>
        ","j","html-keyboard-response","106","2.1.0","226029","J=YES, F=NO","mgkwho8k39","1","60","70","50","","","","","","","","","push","van1","filler","filler","j","true","",""
"null","<p style=""font-size: 50px;"">+</p>","null","html-keyboard-response","107","2.1.0","226331","J=YES, F=NO","mgkwho8k39","1","60","70","50","","","","","","","","","","","","","","","",""
"null","audio/beep-329314.mp3","null","audio-keyboard-response","108","2.1.0","227858","J=YES, F=NO","mgkwho8k39","1","60","70","50","","","","","","","","","","","","","","","",""
"null","audio/dome.wav","null","audio-keyboard-response","109","2.1.0","228329","J=YES, F=NO","mgkwho8k39","1","60","70","50","","","","","","","","","","","","","","","",""
"864","
          <p id=""word"" style=""font-size: 40px;"">scrupliness</p>
          <p style=""font-size: 16px;"">J = YES &nbsp;&nbsp;&nbsp; F = NO</p>
        ","f","html-keyboard-response","110","2.1.0","229194","J=YES, F=NO","mgkwho8k39","1","60","70","50","","","","","","","","","scrupliness","dome","pseudoword","pseudoword","f","true","",""
"null","<p style=""font-size: 50px;"">+</p>","null","html-keyboard-response","111","2.1.0","229509","J=YES, F=NO","mgkwho8k39","1","60","70","50","","","","","","","","","","","","","","","",""
"null","audio/beep-329314.mp3","null","audio-keyboard-response","112","2.1.0","231041","J=YES, F=NO","mgkwho8k39","1","60","70","50","","","","","","","","","","","","","","","",""
"null","audio/battle1.wav","null","audio-keyboard-response","113","2.1.0","231570","J=YES, F=NO","mgkwho8k39","1","60","70","50","","","","","","","","","","","","","","","",""
"699","
          <p id=""word"" style=""font-size: 40px;"">boil</p>
          <p style=""font-size: 16px;"">J = YES &nbsp;&nbsp;&nbsp; F = NO</p>
        ","j","html-keyboard-response","114","2.1.0","232271","J=YES, F=NO","mgkwho8k39","1","60","70","50","","","","","","","","","boil","battle1","filler","filler","j","true","",""
"240859","<p>Starting practice block 2 of 2. Press any key to continue.</p>","k","html-keyboard-response","115","2.1.0","473131","J=YES, F=NO","mgkwho8k39","1","60","70","50","","","","","","","","","","","","","","","",""
"null","<p style=""font-size: 50px;"">+</p>","null","html-keyboard-response","116","2.1.0","473437","J=YES, F=NO","mgkwho8k39","1","60","70","50","","","","","","","","","","","","","","","",""
"null","audio/beep-329314.mp3","null","audio-keyboard-response","117","2.1.0","475391","J=YES, F=NO","mgkwho8k39","1","60","70","50","","","","","","","","","","","","","","","",""
"null","audio/grass.wav","null","audio-keyboard-response","118","2.1.0","476160","J=YES, F=NO","mgkwho8k39","1","60","70","50","","","","","","","","","","","","","","","",""
"587","
          <p id=""word"" style=""font-size: 40px;"">milames</p>
          <p style=""font-size: 16px;"">J = YES &nbsp;&nbsp;&nbsp; F = NO</p>
        ","j","html-keyboard-response","119","2.1.0","476749","J=YES, F=NO","mgkwho8k39","1","60","70","50","","","","","","","","","milames","grass","pseudoword","pseudoword","f","false","",""
"null","<p style=""font-size: 50px;"">+</p>","null","html-keyboard-response","120","2.1.0","477056","J=YES, F=NO","mgkwho8k39","1","60","70","50","","","","","","","","","","","","","","","",""
"null","audio/beep-329314.mp3","null","audio-keyboard-response","121","2.1.0","478590","J=YES, F=NO","mgkwho8k39","1","60","70","50","","","","","","","","","","","","","","","",""
"null","audio/alarm1.wav","null","audio-keyboard-response","122","2.1.0","479320","J=YES, F=NO","mgkwho8k39","1","60","70","50","","","","","","","","","","","","","","","",""
"504","
          <p id=""word"" style=""font-size: 40px;"">lock</p>
          <p style=""font-size: 16px;"">J = YES &nbsp;&nbsp;&nbsp; F = NO</p>
        ","j","html-keyboard-response","123","2.1.0","479825","J=YES, F=NO","mgkwho8k39","1","60","70","50","","","","","","","","","lock","alarm1","filler","filler","j","true","",""
"null","<p style=""font-size: 50px;"">+</p>","null","html-keyboard-response","124","2.1.0","480131","J=YES, F=NO","mgkwho8k39","1","60","70","50","","","","","","","","","","","","","","","",""
"null","audio/beep-329314.mp3","null","audio-keyboard-response","125","2.1.0","481668","J=YES, F=NO","mgkwho8k39","1","60","70","50","","","","","","","","","","","","","","","",""
"null","audio/cancer1.wav","null","audio-keyboard-response","126","2.1.0","482260","J=YES, F=NO","mgkwho8k39","1","60","70","50","","","","","","","","","","","","","","","",""
"483","
          <p id=""word"" style=""font-size: 40px;"">draw</p>
          <p style=""font-size: 16px;"">J = YES &nbsp;&nbsp;&nbsp; F = NO</p>
        ","j","html-keyboard-response","127","2.1.0","482745","J=YES, F=NO","mgkwho8k39","1","60","70","50","","","","","","","","","draw","cancer1","filler","filler","j","true","",""
"null","<p style=""font-size: 50px;"">+</p>","null","html-keyboard-response","128","2.1.0","483055","J=YES, F=NO","mgkwho8k39","1","60","70","50","","","","","","","","","","","","","","","",""
"null","audio/beep-329314.mp3","null","audio-keyboard-response","129","2.1.0","484590","J=YES, F=NO","mgkwho8k39","1","60","70","50","","","","","","","","","","","","","","","",""
"null","audio/tax1.wav","null","audio-keyboard-response","130","2.1.0","485239","J=YES, F=NO","mgkwho8k39","1","60","70","50","","","","","","","","","","","","","","","",""
"467","
          <p id=""word"" style=""font-size: 40px;"">snate</p>
          <p style=""font-size: 16px;"">J = YES &nbsp;&nbsp;&nbsp; F = NO</p>
        ","j","html-keyboard-response","131","2.1.0","485707","J=YES, F=NO","mgkwho8k39","1","60","70","50","","","","","","","","","snate","tax1","pseudoword","pseudoword","f","false","",""
"null","<p style=""font-size: 50px;"">+</p>","null","html-keyboard-response","132","2.1.0","486017","J=YES, F=NO","mgkwho8k39","1","60","70","50","","","","","","","","","","","","","","","",""
"null","audio/beep-329314.mp3","null","audio-keyboard-response","133","2.1.0","487550","J=YES, F=NO","mgkwho8k39","1","60","70","50","","","","","","","","","","","","","","","",""
"null","audio/empire.wav","null","audio-keyboard-response","134","2.1.0","488317","J=YES, F=NO","mgkwho8k39","1","60","70","50","","","","","","","","","","","","","","","",""
"633","
          <p id=""word"" style=""font-size: 40px;"">slorby</p>
          <p style=""font-size: 16px;"">J = YES &nbsp;&nbsp;&nbsp; F = NO</p>
        ","f","html-keyboard-response","135","2.1.0","488951","J=YES, F=NO","mgkwho8k39","1","60","70","50","","","","","","","","","slorby","empire","pseudoword","pseudoword","f","true","",""
"null","<p style=""font-size: 50px;"">+</p>","null","html-keyboard-response","136","2.1.0","489261","J=YES, F=NO","mgkwho8k39","1","60","70","50","","","","","","","","","","","","","","","",""
"null","audio/beep-329314.mp3","null","audio-keyboard-response","137","2.1.0","490790","J=YES, F=NO","mgkwho8k39","1","60","70","50","","","","","","","","","","","","","","","",""
"null","audio/camera1.wav","null","audio-keyboard-response","138","2.1.0","491278","J=YES, F=NO","mgkwho8k39","1","60","70","50","","","","","","","","","","","","","","","",""
"866","
          <p id=""word"" style=""font-size: 40px;"">stir</p>
          <p style=""font-size: 16px;"">J = YES &nbsp;&nbsp;&nbsp; F = NO</p>
        ","f","html-keyboard-response","139","2.1.0","492146","J=YES, F=NO","mgkwho8k39","1","60","70","50","","","","","","","","","stir","camera1","filler","filler","j","false","",""
"null","<p style=""font-size: 50px;"">+</p>","null","html-keyboard-response","140","2.1.0","492459","J=YES, F=NO","mgkwho8k39","1","60","70","50","","","","","","","","","","","","","","","",""
"null","audio/beep-329314.mp3","null","audio-keyboard-response","141","2.1.0","493988","J=YES, F=NO","mgkwho8k39","1","60","70","50","","","","","","","","","","","","","","","",""
"null","audio/pig.wav","null","audio-keyboard-response","142","2.1.0","494360","J=YES, F=NO","mgkwho8k39","1","60","70","50","","","","","","","","","","","","","","","",""
"694","
          <p id=""word"" style=""font-size: 40px;"">tirlike</p>
          <p style=""font-size: 16px;"">J = YES &nbsp;&nbsp;&nbsp; F = NO</p>
        ","f","html-keyboard-response","143","2.1.0","495055","J=YES, F=NO","mgkwho8k39","1","60","70","50","","","","","","","","","tirlike","pig","pseudoword","pseudoword","f","true","",""
"null","<p style=""font-size: 50px;"">+</p>","null","html-keyboard-response","144","2.1.0","495364","J=YES, F=NO","mgkwho8k39","1","60","70","50","","","","","","","","","","","","","","","",""
"null","audio/beep-329314.mp3","null","audio-keyboard-response","145","2.1.0","496889","J=YES, F=NO","mgkwho8k39","1","60","70","50","","","","","","","","","","","","","","","",""
"null","audio/butter1.wav","null","audio-keyboard-response","146","2.1.0","497377","J=YES, F=NO","mgkwho8k39","1","60","70","50","","","","","","","","","","","","","","","",""
"572","
          <p id=""word"" style=""font-size: 40px;"">chew</p>
          <p style=""font-size: 16px;"">J = YES &nbsp;&nbsp;&nbsp; F = NO</p>
        ","j","html-keyboard-response","147","2.1.0","497950","J=YES, F=NO","mgkwho8k39","1","60","70","50","","","","","","","","","chew","butter1","filler","filler","j","true","",""
"null","<p style=""font-size: 50px;"">+</p>","null","html-keyboard-response","148","2.1.0","498257","J=YES, F=NO","mgkwho8k39","1","60","70","50","","","","","","","","","","","","","","","",""
"null","audio/beep-329314.mp3","null","audio-keyboard-response","149","2.1.0","499789","J=YES, F=NO","mgkwho8k39","1","60","70","50","","","","","","","","","","","","","","","",""
"null","audio/belief.wav","null","audio-keyboard-response","150","2.1.0","500558","J=YES, F=NO","mgkwho8k39","1","60","70","50","","","","","","","","","","","","","","","",""
"351","
          <p id=""word"" style=""font-size: 40px;"">read</p>
          <p style=""font-size: 16px;"">J = YES &nbsp;&nbsp;&nbsp; F = NO</p>
        ","j","html-keyboard-response","151","2.1.0","500910","J=YES, F=NO","mgkwho8k39","1","60","70","50","","","","","","","","","read","belief","filler","filler","j","true","",""
"null","<p style=""font-size: 50px;"">+</p>","null","html-keyboard-response","152","2.1.0","501217","J=YES, F=NO","mgkwho8k39","1","60","70","50","","","","","","","","","","","","","","","",""
"null","audio/beep-329314.mp3","null","audio-keyboard-response","153","2.1.0","502748","J=YES, F=NO","mgkwho8k39","1","60","70","50","","","","","","","","","","","","","","","",""
"null","audio/window1.wav","null","audio-keyboard-response","154","2.1.0","503400","J=YES, F=NO","mgkwho8k39","1","60","70","50","","","","","","","","","","","","","","","",""
"383","
          <p id=""word"" style=""font-size: 40px;"">toss</p>
          <p style=""font-size: 16px;"">J = YES &nbsp;&nbsp;&nbsp; F = NO</p>
        ","j","html-keyboard-response","155","2.1.0","503784","J=YES, F=NO","mgkwho8k39","1","60","70","50","","","","","","","","","toss","window1","filler","filler","j","true","",""
"null","<p style=""font-size: 50px;"">+</p>","null","html-keyboard-response","156","2.1.0","504099","J=YES, F=NO","mgkwho8k39","1","60","70","50","","","","","","","","","","","","","","","",""
"null","audio/beep-329314.mp3","null","audio-keyboard-response","157","2.1.0","505627","J=YES, F=NO","mgkwho8k39","1","60","70","50","","","","","","","","","","","","","","","",""
"null","audio/bottle.wav","null","audio-keyboard-response","158","2.1.0","506240","J=YES, F=NO","mgkwho8k39","1","60","70","50","","","","","","","","","","","","","","","",""
"555","
          <p id=""word"" style=""font-size: 40px;"">watch</p>
          <p style=""font-size: 16px;"">J = YES &nbsp;&nbsp;&nbsp; F = NO</p>
        ","j","html-keyboard-response","159","2.1.0","506797","J=YES, F=NO","mgkwho8k39","1","60","70","50","","","","","","","","","watch","bottle","filler","filler","j","true","",""
"null","<p style=""font-size: 50px;"">+</p>","null","html-keyboard-response","160","2.1.0","507104","J=YES, F=NO","mgkwho8k39","1","60","70","50","","","","","","","","","","","","","","","",""
"null","audio/beep-329314.mp3","null","audio-keyboard-response","161","2.1.0","508631","J=YES, F=NO","mgkwho8k39","1","60","70","50","","","","","","","","","","","","","","","",""
"null","audio/show.wav","null","audio-keyboard-response","162","2.1.0","509217","J=YES, F=NO","mgkwho8k39","1","60","70","50","","","","","","","","","","","","","","","",""
"532","
          <p id=""word"" style=""font-size: 40px;"">smark</p>
          <p style=""font-size: 16px;"">J = YES &nbsp;&nbsp;&nbsp; F = NO</p>
        ","j","html-keyboard-response","163","2.1.0","509750","J=YES, F=NO","mgkwho8k39","1","60","70","50","","","","","","","","","smark","show","pseudoword","pseudoword","f","false","",""
"384279","
    <div style=""max-width: 800px; margin: auto; text-align: left;"">
      <h2>Part 2: Main Trials</h2>
      <p>Great job on the practice trials!</p>
      <p>You will now begin the <strong>main set of trials</strong>.</p>
      <p>Remember your key assignments:</p>
      <ul>
        <li><strong>J</strong> = YES (real English word)</li>
        <li><strong>F</strong> = NO (not a real English word)</li>
      </ul>
      <p>Try to respond as <strong>quickly and accurately</strong> as possible.</p>
      <p style=""margin-top: 2em;"">Press any key to begin the main trials.</p>
    </div>
  ","f","html-keyboard-response","164","2.1.0","894030","J=YES, F=NO","mgkwho8k39","1","60","70","50","","","","","","","","","","","","","","","",""
"1726","<p>Starting main block 1 of 8. Press any key to continue.</p>","j","html-keyboard-response","165","2.1.0","895757","J=YES, F=NO","mgkwho8k39","1","60","70","50","","","","","","","","","","","","","","","",""
"null","<p style=""font-size: 50px;"">+</p>","null","html-keyboard-response","166","2.1.0","896068","J=YES, F=NO","mgkwho8k39","1","60","70","50","","","","","","","","","","","","","","","",""
"null","audio/beep-329314.mp3","null","audio-keyboard-response","167","2.1.0","898058","J=YES, F=NO","mgkwho8k39","1","60","70","50","","","","","","","","","","","","","","","",""
"null","audio/fence.wav","null","audio-keyboard-response","168","2.1.0","898815","J=YES, F=NO","mgkwho8k39","1","60","70","50","","","","","","","","","","","","","","","",""
"947","
          <p id=""word"" style=""font-size: 40px;"">trim</p>
          <p style=""font-size: 16px;"">J = YES &nbsp;&nbsp;&nbsp; F = NO</p>
        ","j","html-keyboard-response","169","2.1.0","899763","J=YES, F=NO","mgkwho8k39","1","60","70","50","","","","","","","","","trim","fence","filler","filler","j","true","",""
"null","<p style=""font-size: 50px;"">+</p>","null","html-keyboard-response","170","2.1.0","900068","J=YES, F=NO","mgkwho8k39","1","60","70","50","","","","","","","","","","","","","","","",""
"null","audio/beep-329314.mp3","null","audio-keyboard-response","171","2.1.0","901598","J=YES, F=NO","mgkwho8k39","1","60","70","50","","","","","","","","","","","","","","","",""
"null","audio/key1.wav","null","audio-keyboard-response","172","2.1.0","901955","J=YES, F=NO","mgkwho8k39","1","60","70","50","","","","","","","","","","","","","","","",""
"1236","
          <p id=""word"" style=""font-size: 40px;"">sminsh</p>
          <p style=""font-size: 16px;"">J = YES &nbsp;&nbsp;&nbsp; F = NO</p>
        ","f","html-keyboard-response","173","2.1.0","903192","J=YES, F=NO","mgkwho8k39","1","60","70","50","","","","","","","","","sminsh","key1","pseudoword","pseudoword","f","true","",""
"null","<p style=""font-size: 50px;"">+</p>","null","html-keyboard-response","174","2.1.0","903495","J=YES, F=NO","mgkwho8k39","1","60","70","50","","","","","","","","","","","","","","","",""
"null","audio/beep-329314.mp3","null","audio-keyboard-response","175","2.1.0","905015","J=YES, F=NO","mgkwho8k39","1","60","70","50","","","","","","","","","","","","","","","",""
"null","audio/uncle1.wav","null","audio-keyboard-response","176","2.1.0","905535","J=YES, F=NO","mgkwho8k39","1","60","70","50","","","","","","","","","","","","","","","",""
"1361","
          <p id=""word"" style=""font-size: 40px;"">break</p>
          <p style=""font-size: 16px;"">J = YES &nbsp;&nbsp;&nbsp; F = NO</p>
        ","j","html-keyboard-response","177","2.1.0","906898","J=YES, F=NO","mgkwho8k39","1","60","70","50","","","","","","","","","break","uncle1","unrelated","experimental","j","true","",""
"null","<p style=""font-size: 50px;"">+</p>","null","html-keyboard-response","178","2.1.0","907209","J=YES, F=NO","mgkwho8k39","1","60","70","50","","","","","","","","","","","","","","","",""
"null","audio/beep-329314.mp3","null","audio-keyboard-response","179","2.1.0","908736","J=YES, F=NO","mgkwho8k39","1","60","70","50","","","","","","","","","","","","","","","",""
"null","audio/age1.wav","null","audio-keyboard-response","180","2.1.0","909597","J=YES, F=NO","mgkwho8k39","1","60","70","50","","","","","","","","","","","","","","","",""
"955","
          <p id=""word"" style=""font-size: 40px;"">bake</p>
          <p style=""font-size: 16px;"">J = YES &nbsp;&nbsp;&nbsp; F = NO</p>
        ","j","html-keyboard-response","181","2.1.0","910553","J=YES, F=NO","mgkwho8k39","1","60","70","50","","","","","","","","","bake","age1","filler","filler","j","true","",""
"null","<p style=""font-size: 50px;"">+</p>","null","html-keyboard-response","182","2.1.0","910858","J=YES, F=NO","mgkwho8k39","1","60","70","50","","","","","","","","","","","","","","","",""
"null","audio/beep-329314.mp3","null","audio-keyboard-response","183","2.1.0","912397","J=YES, F=NO","mgkwho8k39","1","60","70","50","","","","","","","","","","","","","","","",""
"null","audio/hotel1.wav","null","audio-keyboard-response","184","2.1.0","913055","J=YES, F=NO","mgkwho8k39","1","60","70","50","","","","","","","","","","","","","","","",""
"701","
          <p id=""word"" style=""font-size: 40px;"">flanter</p>
          <p style=""font-size: 16px;"">J = YES &nbsp;&nbsp;&nbsp; F = NO</p>
        ","j","html-keyboard-response","185","2.1.0","913757","J=YES, F=NO","mgkwho8k39","1","60","70","50","","","","","","","","","flanter","hotel1","pseudoword","pseudoword","f","false","",""
"null","<p style=""font-size: 50px;"">+</p>","null","html-keyboard-response","186","2.1.0","914065","J=YES, F=NO","mgkwho8k39","1","60","70","50","","","","","","","","","","","","","","","",""
"null","audio/beep-329314.mp3","null","audio-keyboard-response","187","2.1.0","915597","J=YES, F=NO","mgkwho8k39","1","60","70","50","","","","","","","","","","","","","","","",""
"null","audio/alarm1.wav","null","audio-keyboard-response","188","2.1.0","916175","J=YES, F=NO","mgkwho8k39","1","60","70","50","","","","","","","","","","","","","","","",""
"593","
          <p id=""word"" style=""font-size: 40px;"">swetp</p>
          <p style=""font-size: 16px;"">J = YES &nbsp;&nbsp;&nbsp; F = NO</p>
        ","f","html-keyboard-response","189","2.1.0","916769","J=YES, F=NO","mgkwho8k39","1","60","70","50","","","","","","","","","swetp","alarm1","pseudoword","pseudoword","f","true","",""
"null","<p style=""font-size: 50px;"">+</p>","null","html-keyboard-response","190","2.1.0","917075","J=YES, F=NO","mgkwho8k39","1","60","70","50","","","","","","","","","","","","","","","",""
"null","audio/beep-329314.mp3","null","audio-keyboard-response","191","2.1.0","918616","J=YES, F=NO","mgkwho8k39","1","60","70","50","","","","","","","","","","","","","","","",""
"null","audio/bridge.wav","null","audio-keyboard-response","192","2.1.0","919194","J=YES, F=NO","mgkwho8k39","1","60","70","50","","","","","","","","","","","","","","","",""
"448","
          <p id=""word"" style=""font-size: 40px;"">crack</p>
          <p style=""font-size: 16px;"">J = YES &nbsp;&nbsp;&nbsp; F = NO</p>
        ","j","html-keyboard-response","193","2.1.0","919643","J=YES, F=NO","mgkwho8k39","1","60","70","50","","","","","","","","","crack","bridge","filler","filler","j","true","",""
"null","<p style=""font-size: 50px;"">+</p>","null","html-keyboard-response","194","2.1.0","919951","J=YES, F=NO","mgkwho8k39","1","60","70","50","","","","","","","","","","","","","","","",""
"null","audio/beep-329314.mp3","null","audio-keyboard-response","195","2.1.0","921474","J=YES, F=NO","mgkwho8k39","1","60","70","50","","","","","","","","","","","","","","","",""
"null","audio/floor.wav","null","audio-keyboard-response","196","2.1.0","922056","J=YES, F=NO","mgkwho8k39","1","60","70","50","","","","","","","","","","","","","","","",""
"978","
          <p id=""word"" style=""font-size: 40px;"">mop</p>
          <p style=""font-size: 16px;"">J = YES &nbsp;&nbsp;&nbsp; F = NO</p>
        ","j","html-keyboard-response","197","2.1.0","923036","J=YES, F=NO","mgkwho8k39","1","60","70","50","","","","","","","","","mop","floor","filler","filler","j","true","",""
"null","<p style=""font-size: 50px;"">+</p>","null","html-keyboard-response","198","2.1.0","923343","J=YES, F=NO","mgkwho8k39","1","60","70","50","","","","","","","","","","","","","","","",""
"null","audio/beep-329314.mp3","null","audio-keyboard-response","199","2.1.0","924877","J=YES, F=NO","mgkwho8k39","1","60","70","50","","","","","","","","","","","","","","","",""
"null","audio/bomb1.wav","null","audio-keyboard-response","200","2.1.0","925255","J=YES, F=NO","mgkwho8k39","1","60","70","50","","","","","","","","","","","","","","","",""
"980","
          <p id=""word"" style=""font-size: 40px;"">clean</p>
          <p style=""font-size: 16px;"">J = YES &nbsp;&nbsp;&nbsp; F = NO</p>
        ","f","html-keyboard-response","201","2.1.0","926236","J=YES, F=NO","mgkwho8k39","1","60","70","50","","","","","","","","","clean","bomb1","filler","filler","j","false","",""
"null","<p style=""font-size: 50px;"">+</p>","null","html-keyboard-response","202","2.1.0","926544","J=YES, F=NO","mgkwho8k39","1","60","70","50","","","","","","","","","","","","","","","",""
"null","audio/beep-329314.mp3","null","audio-keyboard-response","203","2.1.0","928077","J=YES, F=NO","mgkwho8k39","1","60","70","50","","","","","","","","","","","","","","","",""
"null","audio/pattern.wav","null","audio-keyboard-response","204","2.1.0","928616","J=YES, F=NO","mgkwho8k39","1","60","70","50","","","","","","","","","","","","","","","",""
"691","
          <p id=""word"" style=""font-size: 40px;"">defeat</p>
          <p style=""font-size: 16px;"">J = YES &nbsp;&nbsp;&nbsp; F = NO</p>
        ","f","html-keyboard-response","205","2.1.0","929308","J=YES, F=NO","mgkwho8k39","1","60","70","50","","","","","","","","","defeat","pattern","unrelated","experimental","j","false","",""
"null","<p style=""font-size: 50px;"">+</p>","null","html-keyboard-response","206","2.1.0","929620","J=YES, F=NO","mgkwho8k39","1","60","70","50","","","","","","","","","","","","","","","",""
"null","audio/beep-329314.mp3","null","audio-keyboard-response","207","2.1.0","931156","J=YES, F=NO","mgkwho8k39","1","60","70","50","","","","","","","","","","","","","","","",""
"null","audio/ankle1.wav","null","audio-keyboard-response","208","2.1.0","931736","J=YES, F=NO","mgkwho8k39","1","60","70","50","","","","","","","","","","","","","","","",""
"630","
          <p id=""word"" style=""font-size: 40px;"">switm</p>
          <p style=""font-size: 16px;"">J = YES &nbsp;&nbsp;&nbsp; F = NO</p>
        ","f","html-keyboard-response","209","2.1.0","932367","J=YES, F=NO","mgkwho8k39","1","60","70","50","","","","","","","","","switm","ankle1","pseudoword","pseudoword","f","true","",""
"null","<p style=""font-size: 50px;"">+</p>","null","html-keyboard-response","210","2.1.0","932679","J=YES, F=NO","mgkwho8k39","1","60","70","50","","","","","","","","","","","","","","","",""
"null","audio/beep-329314.mp3","null","audio-keyboard-response","211","2.1.0","934215","J=YES, F=NO","mgkwho8k39","1","60","70","50","","","","","","","","","","","","","","","",""
"null","audio/test1.wav","null","audio-keyboard-response","212","2.1.0","934834","J=YES, F=NO","mgkwho8k39","1","60","70","50","","","","","","","","","","","","","","","",""
"529","
          <p id=""word"" style=""font-size: 40px;"">twopch</p>
          <p style=""font-size: 16px;"">J = YES &nbsp;&nbsp;&nbsp; F = NO</p>
        ","j","html-keyboard-response","213","2.1.0","935364","J=YES, F=NO","mgkwho8k39","1","60","70","50","","","","","","","","","twopch","test1","pseudoword","pseudoword","f","false","",""
"null","<p style=""font-size: 50px;"">+</p>","null","html-keyboard-response","214","2.1.0","935672","J=YES, F=NO","mgkwho8k39","1","60","70","50","","","","","","","","","","","","","","","",""
"null","audio/beep-329314.mp3","null","audio-keyboard-response","215","2.1.0","937221","J=YES, F=NO","mgkwho8k39","1","60","70","50","","","","","","","","","","","","","","","",""
"null","audio/burden.wav","null","audio-keyboard-response","216","2.1.0","937777","J=YES, F=NO","mgkwho8k39","1","60","70","50","","","","","","","","","","","","","","","",""
"822","
          <p id=""word"" style=""font-size: 40px;"">whotth</p>
          <p style=""font-size: 16px;"">J = YES &nbsp;&nbsp;&nbsp; F = NO</p>
        ","j","html-keyboard-response","217","2.1.0","938601","J=YES, F=NO","mgkwho8k39","1","60","70","50","","","","","","","","","whotth","burden","pseudoword","pseudoword","f","false","",""
"null","<p style=""font-size: 50px;"">+</p>","null","html-keyboard-response","218","2.1.0","938908","J=YES, F=NO","mgkwho8k39","1","60","70","50","","","","","","","","","","","","","","","",""
"null","audio/beep-329314.mp3","null","audio-keyboard-response","219","2.1.0","940434","J=YES, F=NO","mgkwho8k39","1","60","70","50","","","","","","","","","","","","","","","",""
"null","audio/bishop1.wav","null","audio-keyboard-response","220","2.1.0","941055","J=YES, F=NO","mgkwho8k39","1","60","70","50","","","","","","","","","","","","","","","",""
"623","
          <p id=""word"" style=""font-size: 40px;"">devour</p>
          <p style=""font-size: 16px;"">J = YES &nbsp;&nbsp;&nbsp; F = NO</p>
        ","j","html-keyboard-response","221","2.1.0","941679","J=YES, F=NO","mgkwho8k39","1","60","70","50","","","","","","","","","devour","bishop1","unrelated","experimental","j","true","",""
"null","<p style=""font-size: 50px;"">+</p>","null","html-keyboard-response","222","2.1.0","941990","J=YES, F=NO","mgkwho8k39","1","60","70","50","","","","","","","","","","","","","","","",""
"null","audio/beep-329314.mp3","null","audio-keyboard-response","223","2.1.0","943518","J=YES, F=NO","mgkwho8k39","1","60","70","50","","","","","","","","","","","","","","","",""
"null","audio/golf1.wav","null","audio-keyboard-response","224","2.1.0","944097","J=YES, F=NO","mgkwho8k39","1","60","70","50","","","","","","","","","","","","","","","",""
"531","
          <p id=""word"" style=""font-size: 40px;"">drabble</p>
          <p style=""font-size: 16px;"">J = YES &nbsp;&nbsp;&nbsp; F = NO</p>
        ","j","html-keyboard-response","225","2.1.0","944629","J=YES, F=NO","mgkwho8k39","1","60","70","50","","","","","","","","","drabble","golf1","pseudoword","pseudoword","f","false","",""
"null","<p style=""font-size: 50px;"">+</p>","null","html-keyboard-response","226","2.1.0","944945","J=YES, F=NO","mgkwho8k39","1","60","70","50","","","","","","","","","","","","","","","",""
"null","audio/beep-329314.mp3","null","audio-keyboard-response","227","2.1.0","946474","J=YES, F=NO","mgkwho8k39","1","60","70","50","","","","","","","","","","","","","","","",""
"null","audio/plot1.wav","null","audio-keyboard-response","228","2.1.0","947075","J=YES, F=NO","mgkwho8k39","1","60","70","50","","","","","","","","","","","","","","","",""
"468","
          <p id=""word"" style=""font-size: 40px;"">glenter</p>
          <p style=""font-size: 16px;"">J = YES &nbsp;&nbsp;&nbsp; F = NO</p>
        ","j","html-keyboard-response","229","2.1.0","947544","J=YES, F=NO","mgkwho8k39","1","60","70","50","","","","","","","","","glenter","plot1","pseudoword","pseudoword","f","false","",""
"271096","<p>Excellent! You have finished block 1 of 8.</p>
                     <p>Feel free to take a 30 second break.</p>
                     <p>Press any key when you're ready to continue.</p>","d","html-keyboard-response","230","2.1.0","1218641","J=YES, F=NO","mgkwho8k39","1","60","70","50","","","","","","","","","","","","","","","",""
"91","<p>Starting main block 2 of 8. Press any key to continue.</p>","d","html-keyboard-response","231","2.1.0","1218732","J=YES, F=NO","mgkwho8k39","1","60","70","50","","","","","","","","","","","","","","","",""
"null","<p style=""font-size: 50px;"">+</p>","null","html-keyboard-response","232","2.1.0","1219041","J=YES, F=NO","mgkwho8k39","1","60","70","50","","","","","","","","","","","","","","","",""
"null","audio/beep-329314.mp3","null","audio-keyboard-response","233","2.1.0","1220949","J=YES, F=NO","mgkwho8k39","1","60","70","50","","","","","","","","","","","","","","","",""
"null","audio/arm.wav","null","audio-keyboard-response","234","2.1.0","1221620","J=YES, F=NO","mgkwho8k39","1","60","70","50","","","","","","","","","","","","","","","",""
"1039","
          <p id=""word"" style=""font-size: 40px;"">fold</p>
          <p style=""font-size: 16px;"">J = YES &nbsp;&nbsp;&nbsp; F = NO</p>
        ","j","html-keyboard-response","235","2.1.0","1222659","J=YES, F=NO","mgkwho8k39","1","60","70","50","","","","","","","","","fold","arm","filler","filler","j","true","",""
"null","<p style=""font-size: 50px;"">+</p>","null","html-keyboard-response","236","2.1.0","1222961","J=YES, F=NO","mgkwho8k39","1","60","70","50","","","","","","","","","","","","","","","",""
"null","audio/beep-329314.mp3","null","audio-keyboard-response","237","2.1.0","1224489","J=YES, F=NO","mgkwho8k39","1","60","70","50","","","","","","","","","","","","","","","",""
"null","audio/purpose.wav","null","audio-keyboard-response","238","2.1.0","1225199","J=YES, F=NO","mgkwho8k39","1","60","70","50","","","","","","","","","","","","","","","",""
"619","
          <p id=""word"" style=""font-size: 40px;"">whigm</p>
          <p style=""font-size: 16px;"">J = YES &nbsp;&nbsp;&nbsp; F = NO</p>
        ","f","html-keyboard-response","239","2.1.0","1225819","J=YES, F=NO","mgkwho8k39","1","60","70","50","","","","","","","","","whigm","purpose","pseudoword","pseudoword","f","true","",""
"null","<p style=""font-size: 50px;"">+</p>","null","html-keyboard-response","240","2.1.0","1226125","J=YES, F=NO","mgkwho8k39","1","60","70","50","","","","","","","","","","","","","","","",""
"null","audio/beep-329314.mp3","null","audio-keyboard-response","241","2.1.0","1227649","J=YES, F=NO","mgkwho8k39","1","60","70","50","","","","","","","","","","","","","","","",""
"null","audio/table1.wav","null","audio-keyboard-response","242","2.1.0","1228239","J=YES, F=NO","mgkwho8k39","1","60","70","50","","","","","","","","","","","","","","","",""
"697","
          <p id=""word"" style=""font-size: 40px;"">clear</p>
          <p style=""font-size: 16px;"">J = YES &nbsp;&nbsp;&nbsp; F = NO</p>
        ","j","html-keyboard-response","243","2.1.0","1228937","J=YES, F=NO","mgkwho8k39","1","60","70","50","","","","","","","","","clear","table1","literal","experimental","j","true","",""
"null","<p style=""font-size: 50px;"">+</p>","null","html-keyboard-response","244","2.1.0","1229238","J=YES, F=NO","mgkwho8k39","1","60","70","50","","","","","","","","","","","","","","","",""
"null","audio/beep-329314.mp3","null","audio-keyboard-response","245","2.1.0","1230773","J=YES, F=NO","mgkwho8k39","1","60","70","50","","","","","","","","","","","","","","","",""
"null","audio/neck.wav","null","audio-keyboard-response","246","2.1.0","1231381","J=YES, F=NO","mgkwho8k39","1","60","70","50","","","","","","","","","","","","","","","",""
"961","
          <p id=""word"" style=""font-size: 40px;"">werling</p>
          <p style=""font-size: 16px;"">J = YES &nbsp;&nbsp;&nbsp; F = NO</p>
        ","j","html-keyboard-response","247","2.1.0","1232343","J=YES, F=NO","mgkwho8k39","1","60","70","50","","","","","","","","","werling","neck","pseudoword","pseudoword","f","false","",""
"null","<p style=""font-size: 50px;"">+</p>","null","html-keyboard-response","248","2.1.0","1232658","J=YES, F=NO","mgkwho8k39","1","60","70","50","","","","","","","","","","","","","","","",""
"null","audio/beep-329314.mp3","null","audio-keyboard-response","249","2.1.0","1234190","J=YES, F=NO","mgkwho8k39","1","60","70","50","","","","","","","","","","","","","","","",""
"null","audio/ankle1.wav","null","audio-keyboard-response","250","2.1.0","1234700","J=YES, F=NO","mgkwho8k39","1","60","70","50","","","","","","","","","","","","","","","",""
"636","
          <p id=""word"" style=""font-size: 40px;"">kick</p>
          <p style=""font-size: 16px;"">J = YES &nbsp;&nbsp;&nbsp; F = NO</p>
        ","j","html-keyboard-response","251","2.1.0","1235336","J=YES, F=NO","mgkwho8k39","1","60","70","50","","","","","","","","","kick","ankle1","filler","filler","j","true","",""
"null","<p style=""font-size: 50px;"">+</p>","null","html-keyboard-response","252","2.1.0","1235645","J=YES, F=NO","mgkwho8k39","1","60","70","50","","","","","","","","","","","","","","","",""
"null","audio/beep-329314.mp3","null","audio-keyboard-response","253","2.1.0","1237170","J=YES, F=NO","mgkwho8k39","1","60","70","50","","","","","","","","","","","","","","","",""
"null","audio/pig.wav","null","audio-keyboard-response","254","2.1.0","1237539","J=YES, F=NO","mgkwho8k39","1","60","70","50","","","","","","","","","","","","","","","",""
"658","
          <p id=""word"" style=""font-size: 40px;"">feed</p>
          <p style=""font-size: 16px;"">J = YES &nbsp;&nbsp;&nbsp; F = NO</p>
        ","j","html-keyboard-response","255","2.1.0","1238198","J=YES, F=NO","mgkwho8k39","1","60","70","50","","","","","","","","","feed","pig","literal","experimental","j","true","",""
"null","<p style=""font-size: 50px;"">+</p>","null","html-keyboard-response","256","2.1.0","1238506","J=YES, F=NO","mgkwho8k39","1","60","70","50","","","","","","","","","","","","","","","",""
"null","audio/beep-329314.mp3","null","audio-keyboard-response","257","2.1.0","1240029","J=YES, F=NO","mgkwho8k39","1","60","70","50","","","","","","","","","","","","","","","",""
"null","audio/budget1.wav","null","audio-keyboard-response","258","2.1.0","1240679","J=YES, F=NO","mgkwho8k39","1","60","70","50","","","","","","","","","","","","","","","",""
"746","
          <p id=""word"" style=""font-size: 40px;"">sulist</p>
          <p style=""font-size: 16px;"">J = YES &nbsp;&nbsp;&nbsp; F = NO</p>
        ","f","html-keyboard-response","259","2.1.0","1241426","J=YES, F=NO","mgkwho8k39","1","60","70","50","","","","","","","","","sulist","budget1","pseudoword","pseudoword","f","true","",""
"null","<p style=""font-size: 50px;"">+</p>","null","html-keyboard-response","260","2.1.0","1241729","J=YES, F=NO","mgkwho8k39","1","60","70","50","","","","","","","","","","","","","","","",""
"null","audio/beep-329314.mp3","null","audio-keyboard-response","261","2.1.0","1243271","J=YES, F=NO","mgkwho8k39","1","60","70","50","","","","","","","","","","","","","","","",""
"null","audio/radio1.wav","null","audio-keyboard-response","262","2.1.0","1243921","J=YES, F=NO","mgkwho8k39","1","60","70","50","","","","","","","","","","","","","","","",""
"517","
          <p id=""word"" style=""font-size: 40px;"">spend</p>
          <p style=""font-size: 16px;"">J = YES &nbsp;&nbsp;&nbsp; F = NO</p>
        ","j","html-keyboard-response","263","2.1.0","1244440","J=YES, F=NO","mgkwho8k39","1","60","70","50","","","","","","","","","spend","radio1","unrelated","experimental","j","true","",""
"null","<p style=""font-size: 50px;"">+</p>","null","html-keyboard-response","264","2.1.0","1244756","J=YES, F=NO","mgkwho8k39","1","60","70","50","","","","","","","","","","","","","","","",""
"null","audio/beep-329314.mp3","null","audio-keyboard-response","265","2.1.0","1246291","J=YES, F=NO","mgkwho8k39","1","60","70","50","","","","","","","","","","","","","","","",""
"null","audio/soul.wav","null","audio-keyboard-response","266","2.1.0","1246942","J=YES, F=NO","mgkwho8k39","1","60","70","50","","","","","","","","","","","","","","","",""
"628","
          <p id=""word"" style=""font-size: 40px;"">sell</p>
          <p style=""font-size: 16px;"">J = YES &nbsp;&nbsp;&nbsp; F = NO</p>
        ","j","html-keyboard-response","267","2.1.0","1247571","J=YES, F=NO","mgkwho8k39","1","60","70","50","","","","","","","","","sell","soul","metaphor","experimental","j","true","",""
"null","<p style=""font-size: 50px;"">+</p>","null","html-keyboard-response","268","2.1.0","1247883","J=YES, F=NO","mgkwho8k39","1","60","70","50","","","","","","","","","","","","","","","",""
"null","audio/beep-329314.mp3","null","audio-keyboard-response","269","2.1.0","1249410","J=YES, F=NO","mgkwho8k39","1","60","70","50","","","","","","","","","","","","","","","",""
"null","audio/account1.wav","null","audio-keyboard-response","270","2.1.0","1250143","J=YES, F=NO","mgkwho8k39","1","60","70","50","","","","","","","","","","","","","","","",""
"532","
          <p id=""word"" style=""font-size: 40px;"">paint</p>
          <p style=""font-size: 16px;"">J = YES &nbsp;&nbsp;&nbsp; F = NO</p>
        ","j","html-keyboard-response","271","2.1.0","1250676","J=YES, F=NO","mgkwho8k39","1","60","70","50","","","","","","","","","paint","account1","filler","filler","j","true","",""
"null","<p style=""font-size: 50px;"">+</p>","null","html-keyboard-response","272","2.1.0","1250978","J=YES, F=NO","mgkwho8k39","1","60","70","50","","","","","","","","","","","","","","","",""
"null","audio/beep-329314.mp3","null","audio-keyboard-response","273","2.1.0","1252512","J=YES, F=NO","mgkwho8k39","1","60","70","50","","","","","","","","","","","","","","","",""
"null","audio/tunnel.wav","null","audio-keyboard-response","274","2.1.0","1252939","J=YES, F=NO","mgkwho8k39","1","60","70","50","","","","","","","","","","","","","","","",""
"638","
          <p id=""word"" style=""font-size: 40px;"">gred</p>
          <p style=""font-size: 16px;"">J = YES &nbsp;&nbsp;&nbsp; F = NO</p>
        ","j","html-keyboard-response","275","2.1.0","1253578","J=YES, F=NO","mgkwho8k39","1","60","70","50","","","","","","","","","gred","tunnel","pseudoword","pseudoword","f","false","",""
"null","<p style=""font-size: 50px;"">+</p>","null","html-keyboard-response","276","2.1.0","1253887","J=YES, F=NO","mgkwho8k39","1","60","70","50","","","","","","","","","","","","","","","",""
"null","audio/beep-329314.mp3","null","audio-keyboard-response","277","2.1.0","1255412","J=YES, F=NO","mgkwho8k39","1","60","70","50","","","","","","","","","","","","","","","",""
"null","audio/voice.wav","null","audio-keyboard-response","278","2.1.0","1256061","J=YES, F=NO","mgkwho8k39","1","60","70","50","","","","","","","","","","","","","","","",""
"550","
          <p id=""word"" style=""font-size: 40px;"">grintle</p>
          <p style=""font-size: 16px;"">J = YES &nbsp;&nbsp;&nbsp; F = NO</p>
        ","j","html-keyboard-response","279","2.1.0","1256613","J=YES, F=NO","mgkwho8k39","1","60","70","50","","","","","","","","","grintle","voice","pseudoword","pseudoword","f","false","",""
"null","<p style=""font-size: 50px;"">+</p>","null","html-keyboard-response","280","2.1.0","1256925","J=YES, F=NO","mgkwho8k39","1","60","70","50","","","","","","","","","","","","","","","",""
"null","audio/beep-329314.mp3","null","audio-keyboard-response","281","2.1.0","1258450","J=YES, F=NO","mgkwho8k39","1","60","70","50","","","","","","","","","","","","","","","",""
"null","audio/demon1.wav","null","audio-keyboard-response","282","2.1.0","1258980","J=YES, F=NO","mgkwho8k39","1","60","70","50","","","","","","","","","","","","","","","",""
"466","
          <p id=""word"" style=""font-size: 40px;"">wrestle</p>
          <p style=""font-size: 16px;"">J = YES &nbsp;&nbsp;&nbsp; F = NO</p>
        ","j","html-keyboard-response","283","2.1.0","1259447","J=YES, F=NO","mgkwho8k39","1","60","70","50","","","","","","","","","wrestle","demon1","metaphor","experimental","j","true","",""
"null","<p style=""font-size: 50px;"">+</p>","null","html-keyboard-response","284","2.1.0","1259752","J=YES, F=NO","mgkwho8k39","1","60","70","50","","","","","","","","","","","","","","","",""
"null","audio/beep-329314.mp3","null","audio-keyboard-response","285","2.1.0","1261291","J=YES, F=NO","mgkwho8k39","1","60","70","50","","","","","","","","","","","","","","","",""
"null","audio/radio1.wav","null","audio-keyboard-response","286","2.1.0","1261859","J=YES, F=NO","mgkwho8k39","1","60","70","50","","","","","","","","","","","","","","","",""
"411","
          <p id=""word"" style=""font-size: 40px;"">blanter</p>
          <p style=""font-size: 16px;"">J = YES &nbsp;&nbsp;&nbsp; F = NO</p>
        ","j","html-keyboard-response","287","2.1.0","1262271","J=YES, F=NO","mgkwho8k39","1","60","70","50","","","","","","","","","blanter","radio1","pseudoword","pseudoword","f","false","",""
"null","<p style=""font-size: 50px;"">+</p>","null","html-keyboard-response","288","2.1.0","1262580","J=YES, F=NO","mgkwho8k39","1","60","70","50","","","","","","","","","","","","","","","",""
"null","audio/beep-329314.mp3","null","audio-keyboard-response","289","2.1.0","1264112","J=YES, F=NO","mgkwho8k39","1","60","70","50","","","","","","","","","","","","","","","",""
"null","audio/table1.wav","null","audio-keyboard-response","290","2.1.0","1264583","J=YES, F=NO","mgkwho8k39","1","60","70","50","","","","","","","","","","","","","","","",""
"651","
          <p id=""word"" style=""font-size: 40px;"">stimb</p>
          <p style=""font-size: 16px;"">J = YES &nbsp;&nbsp;&nbsp; F = NO</p>
        ","f","html-keyboard-response","291","2.1.0","1265234","J=YES, F=NO","mgkwho8k39","1","60","70","50","","","","","","","","","stimb","table1","pseudoword","pseudoword","f","true","",""
"null","<p style=""font-size: 50px;"">+</p>","null","html-keyboard-response","292","2.1.0","1265551","J=YES, F=NO","mgkwho8k39","1","60","70","50","","","","","","","","","","","","","","","",""
"null","audio/beep-329314.mp3","null","audio-keyboard-response","293","2.1.0","1267091","J=YES, F=NO","mgkwho8k39","1","60","70","50","","","","","","","","","","","","","","","",""
"null","audio/cinema1.wav","null","audio-keyboard-response","294","2.1.0","1267740","J=YES, F=NO","mgkwho8k39","1","60","70","50","","","","","","","","","","","","","","","",""
"652","
          <p id=""word"" style=""font-size: 40px;"">murple</p>
          <p style=""font-size: 16px;"">J = YES &nbsp;&nbsp;&nbsp; F = NO</p>
        ","j","html-keyboard-response","295","2.1.0","1268393","J=YES, F=NO","mgkwho8k39","1","60","70","50","","","","","","","","","murple","cinema1","pseudoword","pseudoword","f","false","",""
"386874","<p>Excellent! You have finished block 2 of 8.</p>
                     <p>Feel free to take a 30 second break.</p>
                     <p>Press any key when you're ready to continue.</p>","k","html-keyboard-response","296","2.1.0","1655268","J=YES, F=NO","mgkwho8k39","1","60","70","50","","","","","","","","","","","","","","","",""
"733","<p>Starting main block 3 of 8. Press any key to continue.</p>","j","html-keyboard-response","297","2.1.0","1656001","J=YES, F=NO","mgkwho8k39","1","60","70","50","","","","","","","","","","","","","","","",""
"null","<p style=""font-size: 50px;"">+</p>","null","html-keyboard-response","298","2.1.0","1656303","J=YES, F=NO","mgkwho8k39","1","60","70","50","","","","","","","","","","","","","","","",""
"null","audio/beep-329314.mp3","null","audio-keyboard-response","299","2.1.0","1658273","J=YES, F=NO","mgkwho8k39","1","60","70","50","","","","","","","","","","","","","","","",""
"null","audio/heart1.wav","null","audio-keyboard-response","300","2.1.0","1659033","J=YES, F=NO","mgkwho8k39","1","60","70","50","","","","","","","","","","","","","","","",""
"394","
          <p id=""word"" style=""font-size: 40px;"">dralm</p>
          <p style=""font-size: 16px;"">J = YES &nbsp;&nbsp;&nbsp; F = NO</p>
        ","j","html-keyboard-response","301","2.1.0","1659427","J=YES, F=NO","mgkwho8k39","1","60","70","50","","","","","","","","","dralm","heart1","pseudoword","pseudoword","f","false","",""
"null","<p style=""font-size: 50px;"">+</p>","null","html-keyboard-response","302","2.1.0","1659733","J=YES, F=NO","mgkwho8k39","1","60","70","50","","","","","","","","","","","","","","","",""
"null","audio/beep-329314.mp3","null","audio-keyboard-response","303","2.1.0","1661272","J=YES, F=NO","mgkwho8k39","1","60","70","50","","","","","","","","","","","","","","","",""
"null","audio/novel.wav","null","audio-keyboard-response","304","2.1.0","1661812","J=YES, F=NO","mgkwho8k39","1","60","70","50","","","","","","","","","","","","","","","",""
"495","
          <p id=""word"" style=""font-size: 40px;"">type</p>
          <p style=""font-size: 16px;"">J = YES &nbsp;&nbsp;&nbsp; F = NO</p>
        ","j","html-keyboard-response","305","2.1.0","1662308","J=YES, F=NO","mgkwho8k39","1","60","70","50","","","","","","","","","type","novel","filler","filler","j","true","",""
"null","<p style=""font-size: 50px;"">+</p>","null","html-keyboard-response","306","2.1.0","1662625","J=YES, F=NO","mgkwho8k39","1","60","70","50","","","","","","","","","","","","","","","",""
"null","audio/beep-329314.mp3","null","audio-keyboard-response","307","2.1.0","1664151","J=YES, F=NO","mgkwho8k39","1","60","70","50","","","","","","","","","","","","","","","",""
"null","audio/birth1.wav","null","audio-keyboard-response","308","2.1.0","1664849","J=YES, F=NO","mgkwho8k39","1","60","70","50","","","","","","","","","","","","","","","",""
"565","
          <p id=""word"" style=""font-size: 40px;"">drop</p>
          <p style=""font-size: 16px;"">J = YES &nbsp;&nbsp;&nbsp; F = NO</p>
        ","j","html-keyboard-response","309","2.1.0","1665415","J=YES, F=NO","mgkwho8k39","1","60","70","50","","","","","","","","","drop","birth1","unrelated","experimental","j","true","",""
"null","<p style=""font-size: 50px;"">+</p>","null","html-keyboard-response","310","2.1.0","1665718","J=YES, F=NO","mgkwho8k39","1","60","70","50","","","","","","","","","","","","","","","",""
"null","audio/beep-329314.mp3","null","audio-keyboard-response","311","2.1.0","1667251","J=YES, F=NO","mgkwho8k39","1","60","70","50","","","","","","","","","","","","","","","",""
"null","audio/news.wav","null","audio-keyboard-response","312","2.1.0","1667951","J=YES, F=NO","mgkwho8k39","1","60","70","50","","","","","","","","","","","","","","","",""
"809","
          <p id=""word"" style=""font-size: 40px;"">digest</p>
          <p style=""font-size: 16px;"">J = YES &nbsp;&nbsp;&nbsp; F = NO</p>
        ","f","html-keyboard-response","313","2.1.0","1668760","J=YES, F=NO","mgkwho8k39","1","60","70","50","","","","","","","","","digest","news","metaphor","experimental","j","false","",""
"null","<p style=""font-size: 50px;"">+</p>","null","html-keyboard-response","314","2.1.0","1669077","J=YES, F=NO","mgkwho8k39","1","60","70","50","","","","","","","","","","","","","","","",""
"null","audio/beep-329314.mp3","null","audio-keyboard-response","315","2.1.0","1670611","J=YES, F=NO","mgkwho8k39","1","60","70","50","","","","","","","","","","","","","","","",""
"null","audio/menu.wav","null","audio-keyboard-response","316","2.1.0","1671229","J=YES, F=NO","mgkwho8k39","1","60","70","50","","","","","","","","","","","","","","","",""
"725","
          <p id=""word"" style=""font-size: 40px;"">slice</p>
          <p style=""font-size: 16px;"">J = YES &nbsp;&nbsp;&nbsp; F = NO</p>
        ","j","html-keyboard-response","317","2.1.0","1671955","J=YES, F=NO","mgkwho8k39","1","60","70","50","","","","","","","","","slice","menu","filler","filler","j","true","",""
"null","<p style=""font-size: 50px;"">+</p>","null","html-keyboard-response","318","2.1.0","1672263","J=YES, F=NO","mgkwho8k39","1","60","70","50","","","","","","","","","","","","","","","",""
"null","audio/beep-329314.mp3","null","audio-keyboard-response","319","2.1.0","1673790","J=YES, F=NO","mgkwho8k39","1","60","70","50","","","","","","","","","","","","","","","",""
"null","audio/handle.wav","null","audio-keyboard-response","320","2.1.0","1674470","J=YES, F=NO","mgkwho8k39","1","60","70","50","","","","","","","","","","","","","","","",""
"792","
          <p id=""word"" style=""font-size: 40px;"">grasp</p>
          <p style=""font-size: 16px;"">J = YES &nbsp;&nbsp;&nbsp; F = NO</p>
        ","j","html-keyboard-response","321","2.1.0","1675263","J=YES, F=NO","mgkwho8k39","1","60","70","50","","","","","","","","","grasp","handle","literal","experimental","j","true","",""
"null","<p style=""font-size: 50px;"">+</p>","null","html-keyboard-response","322","2.1.0","1675567","J=YES, F=NO","mgkwho8k39","1","60","70","50","","","","","","","","","","","","","","","",""
"null","audio/beep-329314.mp3","null","audio-keyboard-response","323","2.1.0","1677090","J=YES, F=NO","mgkwho8k39","1","60","70","50","","","","","","","","","","","","","","","",""
"null","audio/prisoner.wav","null","audio-keyboard-response","324","2.1.0","1677650","J=YES, F=NO","mgkwho8k39","1","60","70","50","","","","","","","","","","","","","","","",""
"549","
          <p id=""word"" style=""font-size: 40px;"">egotian</p>
          <p style=""font-size: 16px;"">J = YES &nbsp;&nbsp;&nbsp; F = NO</p>
        ","j","html-keyboard-response","325","2.1.0","1678200","J=YES, F=NO","mgkwho8k39","1","60","70","50","","","","","","","","","egotian","prisoner","pseudoword","pseudoword","f","false","",""
"null","<p style=""font-size: 50px;"">+</p>","null","html-keyboard-response","326","2.1.0","1678506","J=YES, F=NO","mgkwho8k39","1","60","70","50","","","","","","","","","","","","","","","",""
"null","audio/beep-329314.mp3","null","audio-keyboard-response","327","2.1.0","1680030","J=YES, F=NO","mgkwho8k39","1","60","70","50","","","","","","","","","","","","","","","",""
"null","audio/vehicle1.wav","null","audio-keyboard-response","328","2.1.0","1680732","J=YES, F=NO","mgkwho8k39","1","60","70","50","","","","","","","","","","","","","","","",""
"492","
          <p id=""word"" style=""font-size: 40px;"">approach</p>
          <p style=""font-size: 16px;"">J = YES &nbsp;&nbsp;&nbsp; F = NO</p>
        ","j","html-keyboard-response","329","2.1.0","1681225","J=YES, F=NO","mgkwho8k39","1","60","70","50","","","","","","","","","approach","vehicle1","literal","experimental","j","true","",""
"null","<p style=""font-size: 50px;"">+</p>","null","html-keyboard-response","330","2.1.0","1681541","J=YES, F=NO","mgkwho8k39","1","60","70","50","","","","","","","","","","","","","","","",""
"null","audio/beep-329314.mp3","null","audio-keyboard-response","331","2.1.0","1683070","J=YES, F=NO","mgkwho8k39","1","60","70","50","","","","","","","","","","","","","","","",""
"null","audio/terrain.wav","null","audio-keyboard-response","332","2.1.0","1683709","J=YES, F=NO","mgkwho8k39","1","60","70","50","","","","","","","","","","","","","","","",""
"427","
          <p id=""word"" style=""font-size: 40px;"">twist</p>
          <p style=""font-size: 16px;"">J = YES &nbsp;&nbsp;&nbsp; F = NO</p>
        ","j","html-keyboard-response","333","2.1.0","1684137","J=YES, F=NO","mgkwho8k39","1","60","70","50","","","","","","","","","twist","terrain","filler","filler","j","true","",""
"null","<p style=""font-size: 50px;"">+</p>","null","html-keyboard-response","334","2.1.0","1684441","J=YES, F=NO","mgkwho8k39","1","60","70","50","","","","","","","","","","","","","","","",""
"null","audio/beep-329314.mp3","null","audio-keyboard-response","335","2.1.0","1685969","J=YES, F=NO","mgkwho8k39","1","60","70","50","","","","","","","","","","","","","","","",""
"null","audio/gift1.wav","null","audio-keyboard-response","336","2.1.0","1686493","J=YES, F=NO","mgkwho8k39","1","60","70","50","","","","","","","","","","","","","","","",""
"400","
          <p id=""word"" style=""font-size: 40px;"">protsh</p>
          <p style=""font-size: 16px;"">J = YES &nbsp;&nbsp;&nbsp; F = NO</p>
        ","j","html-keyboard-response","337","2.1.0","1686893","J=YES, F=NO","mgkwho8k39","1","60","70","50","","","","","","","","","protsh","gift1","pseudoword","pseudoword","f","false","",""
"null","<p style=""font-size: 50px;"">+</p>","null","html-keyboard-response","338","2.1.0","1687200","J=YES, F=NO","mgkwho8k39","1","60","70","50","","","","","","","","","","","","","","","",""
"null","audio/beep-329314.mp3","null","audio-keyboard-response","339","2.1.0","1688730","J=YES, F=NO","mgkwho8k39","1","60","70","50","","","","","","","","","","","","","","","",""
"null","audio/bush1.wav","null","audio-keyboard-response","340","2.1.0","1689250","J=YES, F=NO","mgkwho8k39","1","60","70","50","","","","","","","","","","","","","","","",""
"545","
          <p id=""word"" style=""font-size: 40px;"">platined</p>
          <p style=""font-size: 16px;"">J = YES &nbsp;&nbsp;&nbsp; F = NO</p>
        ","j","html-keyboard-response","341","2.1.0","1689796","J=YES, F=NO","mgkwho8k39","1","60","70","50","","","","","","","","","platined","bush1","pseudoword","pseudoword","f","false","",""
"null","<p style=""font-size: 50px;"">+</p>","null","html-keyboard-response","342","2.1.0","1690102","J=YES, F=NO","mgkwho8k39","1","60","70","50","","","","","","","","","","","","","","","",""
"null","audio/beep-329314.mp3","null","audio-keyboard-response","343","2.1.0","1691632","J=YES, F=NO","mgkwho8k39","1","60","70","50","","","","","","","","","","","","","","","",""
"null","audio/truth1.wav","null","audio-keyboard-response","344","2.1.0","1692230","J=YES, F=NO","mgkwho8k39","1","60","70","50","","","","","","","","","","","","","","","",""
"731","
          <p id=""word"" style=""font-size: 40px;"">calitom</p>
          <p style=""font-size: 16px;"">J = YES &nbsp;&nbsp;&nbsp; F = NO</p>
        ","f","html-keyboard-response","345","2.1.0","1692962","J=YES, F=NO","mgkwho8k39","1","60","70","50","","","","","","","","","calitom","truth1","pseudoword","pseudoword","f","true","",""
"null","<p style=""font-size: 50px;"">+</p>","null","html-keyboard-response","346","2.1.0","1693272","J=YES, F=NO","mgkwho8k39","1","60","70","50","","","","","","","","","","","","","","","",""
"null","audio/beep-329314.mp3","null","audio-keyboard-response","347","2.1.0","1694813","J=YES, F=NO","mgkwho8k39","1","60","70","50","","","","","","","","","","","","","","","",""
"null","audio/corpse1.wav","null","audio-keyboard-response","348","2.1.0","1695518","J=YES, F=NO","mgkwho8k39","1","60","70","50","","","","","","","","","","","","","","","",""
"566","
          <p id=""word"" style=""font-size: 40px;"">glonet</p>
          <p style=""font-size: 16px;"">J = YES &nbsp;&nbsp;&nbsp; F = NO</p>
        ","f","html-keyboard-response","349","2.1.0","1696085","J=YES, F=NO","mgkwho8k39","1","60","70","50","","","","","","","","","glonet","corpse1","pseudoword","pseudoword","f","true","",""
"null","<p style=""font-size: 50px;"">+</p>","null","html-keyboard-response","350","2.1.0","1696400","J=YES, F=NO","mgkwho8k39","1","60","70","50","","","","","","","","","","","","","","","",""
"null","audio/beep-329314.mp3","null","audio-keyboard-response","351","2.1.0","1697931","J=YES, F=NO","mgkwho8k39","1","60","70","50","","","","","","","","","","","","","","","",""
"null","audio/trout1.wav","null","audio-keyboard-response","352","2.1.0","1698572","J=YES, F=NO","mgkwho8k39","1","60","70","50","","","","","","","","","","","","","","","",""
"680","
          <p id=""word"" style=""font-size: 40px;"">spimt</p>
          <p style=""font-size: 16px;"">J = YES &nbsp;&nbsp;&nbsp; F = NO</p>
        ","j","html-keyboard-response","353","2.1.0","1699253","J=YES, F=NO","mgkwho8k39","1","60","70","50","","","","","","","","","spimt","trout1","pseudoword","pseudoword","f","false","",""
"null","<p style=""font-size: 50px;"">+</p>","null","html-keyboard-response","354","2.1.0","1699561","J=YES, F=NO","mgkwho8k39","1","60","70","50","","","","","","","","","","","","","","","",""
"null","audio/beep-329314.mp3","null","audio-keyboard-response","355","2.1.0","1701090","J=YES, F=NO","mgkwho8k39","1","60","70","50","","","","","","","","","","","","","","","",""
"null","audio/smirk1.wav","null","audio-keyboard-response","356","2.1.0","1701873","J=YES, F=NO","mgkwho8k39","1","60","70","50","","","","","","","","","","","","","","","",""
"485","
          <p id=""word"" style=""font-size: 40px;"">snopt</p>
          <p style=""font-size: 16px;"">J = YES &nbsp;&nbsp;&nbsp; F = NO</p>
        ","j","html-keyboard-response","357","2.1.0","1702359","J=YES, F=NO","mgkwho8k39","1","60","70","50","","","","","","","","","snopt","smirk1","pseudoword","pseudoword","f","false","",""
"null","<p style=""font-size: 50px;"">+</p>","null","html-keyboard-response","358","2.1.0","1702667","J=YES, F=NO","mgkwho8k39","1","60","70","50","","","","","","","","","","","","","","","",""
"null","audio/beep-329314.mp3","null","audio-keyboard-response","359","2.1.0","1704189","J=YES, F=NO","mgkwho8k39","1","60","70","50","","","","","","","","","","","","","","","",""
"null","audio/cottage1.wav","null","audio-keyboard-response","360","2.1.0","1704890","J=YES, F=NO","mgkwho8k39","1","60","70","50","","","","","","","","","","","","","","","",""
"671","
          <p id=""word"" style=""font-size: 40px;"">release</p>
          <p style=""font-size: 16px;"">J = YES &nbsp;&nbsp;&nbsp; F = NO</p>
        ","j","html-keyboard-response","361","2.1.0","1705563","J=YES, F=NO","mgkwho8k39","1","60","70","50","","","","","","","","","release","cottage1","unrelated","experimental","j","true","",""
"300006","<p>Excellent! You have finished block 3 of 8.</p>
                     <p>Feel free to take a 30 second break.</p>
                     <p>Press any key when you're ready to continue.</p>","k","html-keyboard-response","362","2.1.0","2005569","J=YES, F=NO","mgkwho8k39","1","60","70","50","","","","","","","","","","","","","","","",""
"2838","<p>Starting main block 4 of 8. Press any key to continue.</p>","j","html-keyboard-response","363","2.1.0","2008409","J=YES, F=NO","mgkwho8k39","1","60","70","50","","","","","","","","","","","","","","","",""
"null","<p style=""font-size: 50px;"">+</p>","null","html-keyboard-response","364","2.1.0","2008714","J=YES, F=NO","mgkwho8k39","1","60","70","50","","","","","","","","","","","","","","","",""
"null","audio/beep-329314.mp3","null","audio-keyboard-response","365","2.1.0","2010696","J=YES, F=NO","mgkwho8k39","1","60","70","50","","","","","","","","","","","","","","","",""
"null","audio/weight1.wav","null","audio-keyboard-response","366","2.1.0","2011345","J=YES, F=NO","mgkwho8k39","1","60","70","50","","","","","","","","","","","","","","","",""
"692","
          <p id=""word"" style=""font-size: 40px;"">support</p>
          <p style=""font-size: 16px;"">J = YES &nbsp;&nbsp;&nbsp; F = NO</p>
        ","j","html-keyboard-response","367","2.1.0","2012038","J=YES, F=NO","mgkwho8k39","1","60","70","50","","","","","","","","","support","weight1","literal","experimental","j","true","",""
"null","<p style=""font-size: 50px;"">+</p>","null","html-keyboard-response","368","2.1.0","2012348","J=YES, F=NO","mgkwho8k39","1","60","70","50","","","","","","","","","","","","","","","",""
"null","audio/beep-329314.mp3","null","audio-keyboard-response","369","2.1.0","2013875","J=YES, F=NO","mgkwho8k39","1","60","70","50","","","","","","","","","","","","","","","",""
"null","audio/bridge.wav","null","audio-keyboard-response","370","2.1.0","2014405","J=YES, F=NO","mgkwho8k39","1","60","70","50","","","","","","","","","","","","","","","",""
"406","
          <p id=""word"" style=""font-size: 40px;"">build</p>
          <p style=""font-size: 16px;"">J = YES &nbsp;&nbsp;&nbsp; F = NO</p>
        ","j","html-keyboard-response","371","2.1.0","2014812","J=YES, F=NO","mgkwho8k39","1","60","70","50","","","","","","","","","build","bridge","literal","experimental","j","true","",""
"null","<p style=""font-size: 50px;"">+</p>","null","html-keyboard-response","372","2.1.0","2015117","J=YES, F=NO","mgkwho8k39","1","60","70","50","","","","","","","","","","","","","","","",""
"null","audio/beep-329314.mp3","null","audio-keyboard-response","373","2.1.0","2016656","J=YES, F=NO","mgkwho8k39","1","60","70","50","","","","","","","","","","","","","","","",""
"null","audio/dollar.wav","null","audio-keyboard-response","374","2.1.0","2017046","J=YES, F=NO","mgkwho8k39","1","60","70","50","","","","","","","","","","","","","","","",""
"410","
          <p id=""word"" style=""font-size: 40px;"">gliptism</p>
          <p style=""font-size: 16px;"">J = YES &nbsp;&nbsp;&nbsp; F = NO</p>
        ","j","html-keyboard-response","375","2.1.0","2017458","J=YES, F=NO","mgkwho8k39","1","60","70","50","","","","","","","","","gliptism","dollar","pseudoword","pseudoword","f","false","",""
"null","<p style=""font-size: 50px;"">+</p>","null","html-keyboard-response","376","2.1.0","2017772","J=YES, F=NO","mgkwho8k39","1","60","70","50","","","","","","","","","","","","","","","",""
"null","audio/beep-329314.mp3","null","audio-keyboard-response","377","2.1.0","2019296","J=YES, F=NO","mgkwho8k39","1","60","70","50","","","","","","","","","","","","","","","",""
"null","audio/ego.wav","null","audio-keyboard-response","378","2.1.0","2019986","J=YES, F=NO","mgkwho8k39","1","60","70","50","","","","","","","","","","","","","","","",""
"544","
          <p id=""word"" style=""font-size: 40px;"">bruite</p>
          <p style=""font-size: 16px;"">J = YES &nbsp;&nbsp;&nbsp; F = NO</p>
        ","j","html-keyboard-response","379","2.1.0","2020531","J=YES, F=NO","mgkwho8k39","1","60","70","50","","","","","","","","","bruite","ego","pseudoword","pseudoword","f","false","",""
"null","<p style=""font-size: 50px;"">+</p>","null","html-keyboard-response","380","2.1.0","2020839","J=YES, F=NO","mgkwho8k39","1","60","70","50","","","","","","","","","","","","","","","",""
"null","audio/beep-329314.mp3","null","audio-keyboard-response","381","2.1.0","2022377","J=YES, F=NO","mgkwho8k39","1","60","70","50","","","","","","","","","","","","","","","",""
"null","audio/desire.wav","null","audio-keyboard-response","382","2.1.0","2023047","J=YES, F=NO","mgkwho8k39","1","60","70","50","","","","","","","","","","","","","","","",""
"500","
          <p id=""word"" style=""font-size: 40px;"">nophed</p>
          <p style=""font-size: 16px;"">J = YES &nbsp;&nbsp;&nbsp; F = NO</p>
        ","j","html-keyboard-response","383","2.1.0","2023549","J=YES, F=NO","mgkwho8k39","1","60","70","50","","","","","","","","","nophed","desire","pseudoword","pseudoword","f","false","",""
"null","<p style=""font-size: 50px;"">+</p>","null","html-keyboard-response","384","2.1.0","2023861","J=YES, F=NO","mgkwho8k39","1","60","70","50","","","","","","","","","","","","","","","",""
"null","audio/beep-329314.mp3","null","audio-keyboard-response","385","2.1.0","2025397","J=YES, F=NO","mgkwho8k39","1","60","70","50","","","","","","","","","","","","","","","",""
"null","audio/arm.wav","null","audio-keyboard-response","386","2.1.0","2025927","J=YES, F=NO","mgkwho8k39","1","60","70","50","","","","","","","","","","","","","","","",""
"312","
          <p id=""word"" style=""font-size: 40px;"">pigne</p>
          <p style=""font-size: 16px;"">J = YES &nbsp;&nbsp;&nbsp; F = NO</p>
        ","j","html-keyboard-response","387","2.1.0","2026241","J=YES, F=NO","mgkwho8k39","1","60","70","50","","","","","","","","","pigne","arm","pseudoword","pseudoword","f","false","",""
"null","<p style=""font-size: 50px;"">+</p>","null","html-keyboard-response","388","2.1.0","2026547","J=YES, F=NO","mgkwho8k39","1","60","70","50","","","","","","","","","","","","","","","",""
"null","audio/beep-329314.mp3","null","audio-keyboard-response","389","2.1.0","2028077","J=YES, F=NO","mgkwho8k39","1","60","70","50","","","","","","","","","","","","","","","",""
"null","audio/devil1.wav","null","audio-keyboard-response","390","2.1.0","2028485","J=YES, F=NO","mgkwho8k39","1","60","70","50","","","","","","","","","","","","","","","",""
"340","
          <p id=""word"" style=""font-size: 40px;"">carry</p>
          <p style=""font-size: 16px;"">J = YES &nbsp;&nbsp;&nbsp; F = NO</p>
