"rt","stimulus","response","trial_type","trial_index","plugin_version","time_elapsed","response_mapping","subject_id","list_index","lextale_score","lextale_word_score","lextale_nonword_score","success","timeout","failed_images","failed_audio","failed_video","task","isWord","isDummy","target","prime","prime_type","stimulus_type","correct_response","correct","section","question_order"
"4188","
    <div style=""max-width: 800px; margin: auto; text-align: left;"">
      <h2>STANFORD UNIVERSITY</h2>
      <h3>Research Information Sheet</h3>
      <p><strong>Protocol Director:</strong> Robert Hawkins<br>
      <strong>Protocol Title:</strong> Communication and social cognition in natural audiovisual contexts<br>
      <strong>IRB#:</strong> 77226</p>

      <p><strong>DESCRIPTION:</strong> You are invited to participate in a research study about language and communication. The purpose of the research is to understand how you interact and communicate with other people in naturalistic settings as a fluent English speaker. This research will be conducted through the Prolific platform, including participants from the US, UK, and Canada. If you decide to participate in this research, you will play a communication game in a group with one or more partners.</p>

      <p><strong>TIME INVOLVEMENT:</strong> The task will last the amount of time advertised on Prolific. You are free to withdraw from the study at any time.</p>

      <p><strong>RISKS AND BENEFITS:</strong> You may become frustrated if your partner gets distracted, or experience discomfort if other participants in your group send text that is inappropriate for the task. We ask you to please be respectful of other participants you might be interacting with to mitigate these risks. You may also experience discomfort when being asked to discuss or challenge emotionally salient political beliefs. Study data will be stored securely, in compliance with Stanford University standards, minimizing the risk of confidentiality breach. This study advances our scientific understanding of how people communicate and collaborate in naturalistic settings. This study may lead to further insights about what can go wrong in teamwork, suggest potential interventions to overcome these barriers, and help to develop assistive technologies that collaborate with human partners. We cannot and do not guarantee or promise that you will receive any benefits from this study.</p>

      <p><strong>PAYMENTS:</strong> You will receive payment in the amount advertised on Prolific. If you do not complete this study, you will receive prorated payment based on the time that you have spent. Additionally, you may be eligible for bonus payments as described in the instructions.</p>

      <p><strong>PARTICIPANT’S RIGHTS:</strong> If you have read this form and have decided to participate in this project, please understand your participation is voluntary and you have the right to withdraw your consent or discontinue participation at any time without penalty or loss of benefits to which you are otherwise entitled. The alternative is not to participate. You have the right to refuse to answer particular questions. The results of this research study may be presented at scientific or professional meetings or published in scientific journals. Your individual privacy will be maintained in all published and written data resulting from the study. In accordance with scientific norms, the data from this study may be used or shared with other researchers for future research (after removing personally identifying information) without additional consent from you.</p>

      <p><strong>CONTACT INFORMATION:</strong><br>
      Questions: If you have any questions, concerns or complaints about this research, its procedures, risks and benefits, contact the Protocol Director, Robert Hawkins (<a href=""mailto:rdhawkins@stanford.edu"">rdhawkins@stanford.edu</a>, 217-549-6923).<br>
      Independent Contact: If you are not satisfied with how this study is being conducted, or if you have any concerns, complaints, or general questions about the research or your rights as a participant, please contact the Stanford Institutional Review Board (IRB) to speak to someone independent of the research team at 650-723-2480 or toll free at 1-866-680-2906, or email at <a href=""mailto:irbnon-med@stanford.edu"">irbnon-med@stanford.edu</a>. You can also write to the Stanford IRB, Stanford University, 1705 El Camino Real, Palo Alto, CA 94306.</p>

      <p><strong>Please save or print a copy of this page for your records.</strong></p>
      <p>If you agree to participate in this research, click ""Continue"" below.</p>
    </div>
  ","0","html-button-response","0","2.1.0","4208","F=YES, J=NO","mnot1ot3r1","0","75","65","85","","","","","","","","","","","","","","","",""
"1546","
    <div style=""max-width: 800px; margin: auto; text-align: left;"">
      <h2>Welcome!</h2>
      <p>Thank you for participating in this study. The experiment consists of three parts:</p>
      <ol>
        <li>An English vocabulary test</li>
        <li>A main task in which you will hear and see words, and decide whether the written word is a real English word</li>
        <li>A brief survey about your background</li>
      </ol>
      <p>Each part will be introduced before it begins.</p>
      <p>Please make sure you are in a quiet environment and can hear audio clearly for the final task.</p>
      <p style=""margin-top: 2em;"">Press any key to begin.</p>
    </div>
  ","k","html-keyboard-response","1","2.1.0","5763","F=YES, J=NO","mnot1ot3r1","0","75","65","85","","","","","","","","","","","","","","","",""
"","","","preload","2","2.1.0","9375","F=YES, J=NO","mnot1ot3r1","0","75","65","85","true","false","[]","[]","[]","","","","","","","","","","",""
"6572","
    <div style=""max-width: 800px; margin: auto; text-align: left;"">
      <h2>Part 1: Vocabulary Test</h2>
      <p>You will now complete the first part of the study: a short English vocabulary test.</p>
      <p>This test is called <strong>LexTALE</strong> and helps us get a general sense of your English proficiency.</p>
      <p style=""margin-top: 2em;"">Press any key to continue.</p>
    </div>
  "," ","html-keyboard-response","3","2.1.0","15948","F=YES, J=NO","mnot1ot3r1","0","75","65","85","","","","","","","","","","","","","","","",""
"15565","
    <div style=""max-width: 800px; margin: auto; text-align: left;"">
      <h2>LexTALE Vocabulary Test</h2>
      <p>In this test, you will see a series of letter strings—one at a time.</p>
      <p>Your task is to decide whether each string is a real English word.</p>
      <p><strong>Key responses:</strong></p>
      <ul>
        <li><strong>F</strong> = YES (real English word)</li>
        <li><strong>J</strong> = NO (not a real English word)</li>
      </ul>
      <p>There is no time limit, but please try to be accurate.</p>
      <p style=""margin-top: 2em;"">Press any key to begin.</p>
    </div>
  "," ","html-keyboard-response","4","2.1.0","31517","F=YES, J=NO","mnot1ot3r1","0","75","65","85","","","","","","","","","","","","","","","",""
"1928","
  <p style=""font-size: 40px;"">platery</p>
  <p style=""font-size: 16px;"">F = YES &nbsp;&nbsp;&nbsp; J = NO</p>
","f","html-keyboard-response","5","2.1.0","33450","F=YES, J=NO","mnot1ot3r1","0","75","65","85","","","","","","lextale","false","true","","","","","","","",""
"2156","
  <p style=""font-size: 40px;"">denial</p>
  <p style=""font-size: 16px;"">F = YES &nbsp;&nbsp;&nbsp; J = NO</p>
","f","html-keyboard-response","6","2.1.0","35608","F=YES, J=NO","mnot1ot3r1","0","75","65","85","","","","","","lextale","true","true","","","","","","","",""
"1846","
  <p style=""font-size: 40px;"">marrit</p>
  <p style=""font-size: 16px;"">F = YES &nbsp;&nbsp;&nbsp; J = NO</p>
","j","html-keyboard-response","7","2.1.0","37455","F=YES, J=NO","mnot1ot3r1","0","75","65","85","","","","","","lextale","false","true","","","","","","","",""
"1080","
  <p style=""font-size: 40px;"">bottle</p>
  <p style=""font-size: 16px;"">F = YES &nbsp;&nbsp;&nbsp; J = NO</p>
","f","html-keyboard-response","8","2.1.0","38537","F=YES, J=NO","mnot1ot3r1","0","75","65","85","","","","","","lextale","true","false","","","","","","","",""
"971","
  <p style=""font-size: 40px;"">birst</p>
  <p style=""font-size: 16px;"">F = YES &nbsp;&nbsp;&nbsp; J = NO</p>
","j","html-keyboard-response","9","2.1.0","39510","F=YES, J=NO","mnot1ot3r1","0","75","65","85","","","","","","lextale","false","false","","","","","","","",""
"1039","
  <p style=""font-size: 40px;"">envy</p>
  <p style=""font-size: 16px;"">F = YES &nbsp;&nbsp;&nbsp; J = NO</p>
","f","html-keyboard-response","10","2.1.0","40552","F=YES, J=NO","mnot1ot3r1","0","75","65","85","","","","","","lextale","true","false","","","","","","","",""
"962","
  <p style=""font-size: 40px;"">brang</p>
  <p style=""font-size: 16px;"">F = YES &nbsp;&nbsp;&nbsp; J = NO</p>
","j","html-keyboard-response","11","2.1.0","41516","F=YES, J=NO","mnot1ot3r1","0","75","65","85","","","","","","lextale","false","false","","","","","","","",""
"805","
  <p style=""font-size: 40px;"">huge</p>
  <p style=""font-size: 16px;"">F = YES &nbsp;&nbsp;&nbsp; J = NO</p>
","f","html-keyboard-response","12","2.1.0","42324","F=YES, J=NO","mnot1ot3r1","0","75","65","85","","","","","","lextale","true","false","","","","","","","",""
"1064","
  <p style=""font-size: 40px;"">plove</p>
  <p style=""font-size: 16px;"">F = YES &nbsp;&nbsp;&nbsp; J = NO</p>
","j","html-keyboard-response","13","2.1.0","43389","F=YES, J=NO","mnot1ot3r1","0","75","65","85","","","","","","lextale","false","false","","","","","","","",""
"896","
  <p style=""font-size: 40px;"">border</p>
  <p style=""font-size: 16px;"">F = YES &nbsp;&nbsp;&nbsp; J = NO</p>
","f","html-keyboard-response","14","2.1.0","44290","F=YES, J=NO","mnot1ot3r1","0","75","65","85","","","","","","lextale","true","false","","","","","","","",""
"2551","
  <p style=""font-size: 40px;"">flimsy</p>
  <p style=""font-size: 16px;"">F = YES &nbsp;&nbsp;&nbsp; J = NO</p>
","f","html-keyboard-response","15","2.1.0","46845","F=YES, J=NO","mnot1ot3r1","0","75","65","85","","","","","","lextale","true","false","","","","","","","",""
"843","
  <p style=""font-size: 40px;"">drain</p>
  <p style=""font-size: 16px;"">F = YES &nbsp;&nbsp;&nbsp; J = NO</p>
","f","html-keyboard-response","16","2.1.0","47691","F=YES, J=NO","mnot1ot3r1","0","75","65","85","","","","","","lextale","true","false","","","","","","","",""
"825","
  <p style=""font-size: 40px;"">twindle</p>
  <p style=""font-size: 16px;"">F = YES &nbsp;&nbsp;&nbsp; J = NO</p>
","j","html-keyboard-response","17","2.1.0","48518","F=YES, J=NO","mnot1ot3r1","0","75","65","85","","","","","","lextale","false","false","","","","","","","",""
"697","
  <p style=""font-size: 40px;"">propose</p>
  <p style=""font-size: 16px;"">F = YES &nbsp;&nbsp;&nbsp; J = NO</p>
","f","html-keyboard-response","18","2.1.0","49216","F=YES, J=NO","mnot1ot3r1","0","75","65","85","","","","","","lextale","true","false","","","","","","","",""
"908","
  <p style=""font-size: 40px;"">forlay</p>
  <p style=""font-size: 16px;"">F = YES &nbsp;&nbsp;&nbsp; J = NO</p>
","j","html-keyboard-response","19","2.1.0","50126","F=YES, J=NO","mnot1ot3r1","0","75","65","85","","","","","","lextale","false","false","","","","","","","",""
"879","
  <p style=""font-size: 40px;"">tenant</p>
  <p style=""font-size: 16px;"">F = YES &nbsp;&nbsp;&nbsp; J = NO</p>
","f","html-keyboard-response","20","2.1.0","51007","F=YES, J=NO","mnot1ot3r1","0","75","65","85","","","","","","lextale","true","false","","","","","","","",""
"922","
  <p style=""font-size: 40px;"">strain</p>
  <p style=""font-size: 16px;"">F = YES &nbsp;&nbsp;&nbsp; J = NO</p>
","f","html-keyboard-response","21","2.1.0","51931","F=YES, J=NO","mnot1ot3r1","0","75","65","85","","","","","","lextale","true","false","","","","","","","",""
"853","
  <p style=""font-size: 40px;"">holster</p>
  <p style=""font-size: 16px;"">F = YES &nbsp;&nbsp;&nbsp; J = NO</p>
","f","html-keyboard-response","22","2.1.0","52785","F=YES, J=NO","mnot1ot3r1","0","75","65","85","","","","","","lextale","true","false","","","","","","","",""
"1052","
  <p style=""font-size: 40px;"">hinder</p>
  <p style=""font-size: 16px;"">F = YES &nbsp;&nbsp;&nbsp; J = NO</p>
","j","html-keyboard-response","23","2.1.0","53837","F=YES, J=NO","mnot1ot3r1","0","75","65","85","","","","","","lextale","true","false","","","","","","","",""
"912","
  <p style=""font-size: 40px;"">swindle</p>
  <p style=""font-size: 16px;"">F = YES &nbsp;&nbsp;&nbsp; J = NO</p>
","j","html-keyboard-response","24","2.1.0","54750","F=YES, J=NO","mnot1ot3r1","0","75","65","85","","","","","","lextale","true","false","","","","","","","",""
"1271","
  <p style=""font-size: 40px;"">nuder</p>
  <p style=""font-size: 16px;"">F = YES &nbsp;&nbsp;&nbsp; J = NO</p>
","j","html-keyboard-response","25","2.1.0","56022","F=YES, J=NO","mnot1ot3r1","0","75","65","85","","","","","","lextale","false","false","","","","","","","",""
"693","
  <p style=""font-size: 40px;"">pillow</p>
  <p style=""font-size: 16px;"">F = YES &nbsp;&nbsp;&nbsp; J = NO</p>
","f","html-keyboard-response","26","2.1.0","56716","F=YES, J=NO","mnot1ot3r1","0","75","65","85","","","","","","lextale","true","false","","","","","","","",""
"1363","
  <p style=""font-size: 40px;"">shumble</p>
  <p style=""font-size: 16px;"">F = YES &nbsp;&nbsp;&nbsp; J = NO</p>
","j","html-keyboard-response","27","2.1.0","58079","F=YES, J=NO","mnot1ot3r1","0","75","65","85","","","","","","lextale","false","false","","","","","","","",""
"958","
  <p style=""font-size: 40px;"">thirst</p>
  <p style=""font-size: 16px;"">F = YES &nbsp;&nbsp;&nbsp; J = NO</p>
","f","html-keyboard-response","28","2.1.0","59038","F=YES, J=NO","mnot1ot3r1","0","75","65","85","","","","","","lextale","true","false","","","","","","","",""
"2640","
  <p style=""font-size: 40px;"">unsail</p>
  <p style=""font-size: 16px;"">F = YES &nbsp;&nbsp;&nbsp; J = NO</p>
","f","html-keyboard-response","29","2.1.0","61679","F=YES, J=NO","mnot1ot3r1","0","75","65","85","","","","","","lextale","false","false","","","","","","","",""
"1309","
  <p style=""font-size: 40px;"">rifle</p>
  <p style=""font-size: 16px;"">F = YES &nbsp;&nbsp;&nbsp; J = NO</p>
","f","html-keyboard-response","30","2.1.0","62988","F=YES, J=NO","mnot1ot3r1","0","75","65","85","","","","","","lextale","true","false","","","","","","","",""
"1203","
  <p style=""font-size: 40px;"">mush</p>
  <p style=""font-size: 16px;"">F = YES &nbsp;&nbsp;&nbsp; J = NO</p>
","j","html-keyboard-response","31","2.1.0","64191","F=YES, J=NO","mnot1ot3r1","0","75","65","85","","","","","","lextale","false","false","","","","","","","",""
"1039","
  <p style=""font-size: 40px;"">drench</p>
  <p style=""font-size: 16px;"">F = YES &nbsp;&nbsp;&nbsp; J = NO</p>
","j","html-keyboard-response","32","2.1.0","65231","F=YES, J=NO","mnot1ot3r1","0","75","65","85","","","","","","lextale","true","false","","","","","","","",""
"970","
  <p style=""font-size: 40px;"">snirt</p>
  <p style=""font-size: 16px;"">F = YES &nbsp;&nbsp;&nbsp; J = NO</p>
","j","html-keyboard-response","33","2.1.0","66202","F=YES, J=NO","mnot1ot3r1","0","75","65","85","","","","","","lextale","false","false","","","","","","","",""
"909","
  <p style=""font-size: 40px;"">bitter</p>
  <p style=""font-size: 16px;"">F = YES &nbsp;&nbsp;&nbsp; J = NO</p>
","f","html-keyboard-response","34","2.1.0","67112","F=YES, J=NO","mnot1ot3r1","0","75","65","85","","","","","","lextale","true","false","","","","","","","",""
"952","
  <p style=""font-size: 40px;"">pliff</p>
  <p style=""font-size: 16px;"">F = YES &nbsp;&nbsp;&nbsp; J = NO</p>
","j","html-keyboard-response","35","2.1.0","68065","F=YES, J=NO","mnot1ot3r1","0","75","65","85","","","","","","lextale","false","false","","","","","","","",""
"826","
  <p style=""font-size: 40px;"">tablet</p>
  <p style=""font-size: 16px;"">F = YES &nbsp;&nbsp;&nbsp; J = NO</p>
","f","html-keyboard-response","36","2.1.0","68892","F=YES, J=NO","mnot1ot3r1","0","75","65","85","","","","","","lextale","true","false","","","","","","","",""
"964","
  <p style=""font-size: 40px;"">glimmer</p>
  <p style=""font-size: 16px;"">F = YES &nbsp;&nbsp;&nbsp; J = NO</p>
","f","html-keyboard-response","37","2.1.0","69856","F=YES, J=NO","mnot1ot3r1","0","75","65","85","","","","","","lextale","true","false","","","","","","","",""
"723","
  <p style=""font-size: 40px;"">slink</p>
  <p style=""font-size: 16px;"">F = YES &nbsp;&nbsp;&nbsp; J = NO</p>
","f","html-keyboard-response","38","2.1.0","70581","F=YES, J=NO","mnot1ot3r1","0","75","65","85","","","","","","lextale","true","false","","","","","","","",""
"910","
  <p style=""font-size: 40px;"">clever</p>
  <p style=""font-size: 16px;"">F = YES &nbsp;&nbsp;&nbsp; J = NO</p>
","f","html-keyboard-response","39","2.1.0","71493","F=YES, J=NO","mnot1ot3r1","0","75","65","85","","","","","","lextale","true","false","","","","","","","",""
"762","
  <p style=""font-size: 40px;"">grum</p>
  <p style=""font-size: 16px;"">F = YES &nbsp;&nbsp;&nbsp; J = NO</p>
","j","html-keyboard-response","40","2.1.0","72255","F=YES, J=NO","mnot1ot3r1","0","75","65","85","","","","","","lextale","false","false","","","","","","","",""
"874","
  <p style=""font-size: 40px;"">string</p>
  <p style=""font-size: 16px;"">F = YES &nbsp;&nbsp;&nbsp; J = NO</p>
","f","html-keyboard-response","41","2.1.0","73131","F=YES, J=NO","mnot1ot3r1","0","75","65","85","","","","","","lextale","true","false","","","","","","","",""
"1194","
  <p style=""font-size: 40px;"">plim</p>
  <p style=""font-size: 16px;"">F = YES &nbsp;&nbsp;&nbsp; J = NO</p>
","f","html-keyboard-response","42","2.1.0","74325","F=YES, J=NO","mnot1ot3r1","0","75","65","85","","","","","","lextale","false","false","","","","","","","",""
"681","
  <p style=""font-size: 40px;"">cable</p>
  <p style=""font-size: 16px;"">F = YES &nbsp;&nbsp;&nbsp; J = NO</p>
","f","html-keyboard-response","43","2.1.0","75008","F=YES, J=NO","mnot1ot3r1","0","75","65","85","","","","","","lextale","true","false","","","","","","","",""
"742","
  <p style=""font-size: 40px;"">shrivel</p>
  <p style=""font-size: 16px;"">F = YES &nbsp;&nbsp;&nbsp; J = NO</p>
","j","html-keyboard-response","44","2.1.0","75752","F=YES, J=NO","mnot1ot3r1","0","75","65","85","","","","","","lextale","true","false","","","","","","","",""
"930","
  <p style=""font-size: 40px;"">tarnish</p>
  <p style=""font-size: 16px;"">F = YES &nbsp;&nbsp;&nbsp; J = NO</p>
","j","html-keyboard-response","45","2.1.0","76688","F=YES, J=NO","mnot1ot3r1","0","75","65","85","","","","","","lextale","true","false","","","","","","","",""
"933","
  <p style=""font-size: 40px;"">blim</p>
  <p style=""font-size: 16px;"">F = YES &nbsp;&nbsp;&nbsp; J = NO</p>
","j","html-keyboard-response","46","2.1.0","77623","F=YES, J=NO","mnot1ot3r1","0","75","65","85","","","","","","lextale","false","false","","","","","","","",""
"892","
  <p style=""font-size: 40px;"">stifle</p>
  <p style=""font-size: 16px;"">F = YES &nbsp;&nbsp;&nbsp; J = NO</p>
","j","html-keyboard-response","47","2.1.0","78517","F=YES, J=NO","mnot1ot3r1","0","75","65","85","","","","","","lextale","true","false","","","","","","","",""
"909","
  <p style=""font-size: 40px;"">bint</p>
  <p style=""font-size: 16px;"">F = YES &nbsp;&nbsp;&nbsp; J = NO</p>
","j","html-keyboard-response","48","2.1.0","79428","F=YES, J=NO","mnot1ot3r1","0","75","65","85","","","","","","lextale","false","false","","","","","","","",""
"660","
  <p style=""font-size: 40px;"">purple</p>
  <p style=""font-size: 16px;"">F = YES &nbsp;&nbsp;&nbsp; J = NO</p>
","f","html-keyboard-response","49","2.1.0","80089","F=YES, J=NO","mnot1ot3r1","0","75","65","85","","","","","","lextale","true","false","","","","","","","",""
"1167","
  <p style=""font-size: 40px;"">wriggle</p>
  <p style=""font-size: 16px;"">F = YES &nbsp;&nbsp;&nbsp; J = NO</p>
","j","html-keyboard-response","50","2.1.0","81257","F=YES, J=NO","mnot1ot3r1","0","75","65","85","","","","","","lextale","true","false","","","","","","","",""
"924","
  <p style=""font-size: 40px;"">mangle</p>
  <p style=""font-size: 16px;"">F = YES &nbsp;&nbsp;&nbsp; J = NO</p>
","j","html-keyboard-response","51","2.1.0","82183","F=YES, J=NO","mnot1ot3r1","0","75","65","85","","","","","","lextale","true","false","","","","","","","",""
"916","
  <p style=""font-size: 40px;"">shramp</p>
  <p style=""font-size: 16px;"">F = YES &nbsp;&nbsp;&nbsp; J = NO</p>
","j","html-keyboard-response","52","2.1.0","83101","F=YES, J=NO","mnot1ot3r1","0","75","65","85","","","","","","lextale","false","false","","","","","","","",""
"995","
  <p style=""font-size: 40px;"">flirt</p>
  <p style=""font-size: 16px;"">F = YES &nbsp;&nbsp;&nbsp; J = NO</p>
","f","html-keyboard-response","53","2.1.0","84098","F=YES, J=NO","mnot1ot3r1","0","75","65","85","","","","","","lextale","true","false","","","","","","","",""
"841","
  <p style=""font-size: 40px;"">frip</p>
  <p style=""font-size: 16px;"">F = YES &nbsp;&nbsp;&nbsp; J = NO</p>
","j","html-keyboard-response","54","2.1.0","84941","F=YES, J=NO","mnot1ot3r1","0","75","65","85","","","","","","lextale","false","false","","","","","","","",""
"1549","
  <p style=""font-size: 40px;"">tangle</p>
  <p style=""font-size: 16px;"">F = YES &nbsp;&nbsp;&nbsp; J = NO</p>
","f","html-keyboard-response","55","2.1.0","86492","F=YES, J=NO","mnot1ot3r1","0","75","65","85","","","","","","lextale","true","false","","","","","","","",""
"942","
  <p style=""font-size: 40px;"">crumble</p>
  <p style=""font-size: 16px;"">F = YES &nbsp;&nbsp;&nbsp; J = NO</p>
","f","html-keyboard-response","56","2.1.0","87435","F=YES, J=NO","mnot1ot3r1","0","75","65","85","","","","","","lextale","true","false","","","","","","","",""
"812","
  <p style=""font-size: 40px;"">wrinkle</p>
  <p style=""font-size: 16px;"">F = YES &nbsp;&nbsp;&nbsp; J = NO</p>
","f","html-keyboard-response","57","2.1.0","88248","F=YES, J=NO","mnot1ot3r1","0","75","65","85","","","","","","lextale","true","false","","","","","","","",""
"832","
  <p style=""font-size: 40px;"">slumb</p>
  <p style=""font-size: 16px;"">F = YES &nbsp;&nbsp;&nbsp; J = NO</p>
","j","html-keyboard-response","58","2.1.0","89082","F=YES, J=NO","mnot1ot3r1","0","75","65","85","","","","","","lextale","false","false","","","","","","","",""
"749","
  <p style=""font-size: 40px;"">jungle</p>
  <p style=""font-size: 16px;"">F = YES &nbsp;&nbsp;&nbsp; J = NO</p>
","f","html-keyboard-response","59","2.1.0","89833","F=YES, J=NO","mnot1ot3r1","0","75","65","85","","","","","","lextale","true","false","","","","","","","",""
"1138","
  <p style=""font-size: 40px;"">frolick</p>
  <p style=""font-size: 16px;"">F = YES &nbsp;&nbsp;&nbsp; J = NO</p>
","j","html-keyboard-response","60","2.1.0","90973","F=YES, J=NO","mnot1ot3r1","0","75","65","85","","","","","","lextale","false","false","","","","","","","",""
"2385","
      <h2>LexTALE Test Completed</h2>
      <p>Your LexTALE vocabulary score is: <strong>75%</strong></p>
      <p>Press any key to continue.</p>
    "," ","html-keyboard-response","61","2.1.0","93362","F=YES, J=NO","mnot1ot3r1","0","75","65","85","","","","","","","","","","","","","","","",""
"5135","
    <div style=""max-width: 800px; margin: auto; text-align: left;"">
      <h2>Break Time</h2>
      <p>You have completed the first part of the study.</p>
      <p>You may take a short <strong>30-second break</strong> before continuing.</p>
      <p>When you’re ready, press any key to continue to the final task.</p>
    </div>
  "," ","html-keyboard-response","62","2.1.0","98499","F=YES, J=NO","mnot1ot3r1","0","75","65","85","","","","","","","","","","","","","","","",""
"14393","
    <div style=""max-width: 800px; margin: auto; text-align: left;"">
      <h2>Part 2: Lexical Decision Task</h2>
      <p>You will now begin the second part of the study.</p>
      <p>Each trial will follow this sequence:</p>
      <ul>
        <li>A fixation cross (+) appears at the center of the screen.</li>
        <li>You will hear a short beep followed by a spoken word.</li>
        <li>A written word will appear briefly on the screen.</li>
      </ul>
      <p>Your task is to judge whether the <strong>written word</strong> is a real English word.</p>
      <p style=""margin-top: 1em;""><strong>Key responses:</strong></p>
      <ul>
        <li><strong>F</strong> = YES (real English word)</li>
        <li><strong>J</strong> = NO (not a real English word)</li>
      </ul>
      <p>Please respond as quickly and accurately as you can.</p>
      <p style=""margin-top: 2em;"">Press any key to continue.</p>
    </div>
  "," ","html-keyboard-response","63","2.1.0","112894","F=YES, J=NO","mnot1ot3r1","0","75","65","85","","","","","","","","","","","","","","","",""
"4312","
    <div style=""max-width: 800px; margin: auto; text-align: left;"">
      <h2>Before You Begin</h2>
      <p>Make sure your sound is turned on.</p>
      <p>You will hear audio during each trial, but your decision should be based only on the <strong>written word</strong> you see on the screen.</p>
      <p><strong>Reminder:</strong></p>
      <ul>
        <li><strong>F</strong> = YES (real English word)</li>
        <li><strong>J</strong> = NO (not a real English word)</li>
      </ul>
      <p style=""margin-top: 2em;"">Press any key when you are ready to begin.</p>
    </div>
  "," ","html-keyboard-response","64","2.1.0","117209","F=YES, J=NO","mnot1ot3r1","0","75","65","85","","","","","","","","","","","","","","","",""
"2096","
    <div style=""max-width: 800px; margin: auto; text-align: left;"">
      <h2>Part 2: Practice Trials</h2>
      <p>You will now complete a few <strong>practice trials</strong> to get familiar with the task.</p>
      <p>These trials are <strong>not scored</strong> and are only to help you get used to the format.</p>
      <p style=""margin-top: 2em;"">Press any key to begin.</p>
    </div>
  "," ","html-keyboard-response","65","2.1.0","119307","F=YES, J=NO","mnot1ot3r1","0","75","65","85","","","","","","","","","","","","","","","",""
"2691","<p>Starting practice block 1 of 2. Press any key to continue.</p>"," ","html-keyboard-response","66","2.1.0","122000","F=YES, J=NO","mnot1ot3r1","0","75","65","85","","","","","","","","","","","","","","","",""
"null","<p style=""font-size: 50px;"">+</p>","null","html-keyboard-response","67","2.1.0","122317","F=YES, J=NO","mnot1ot3r1","0","75","65","85","","","","","","","","","","","","","","","",""
"null","audio/beep-329314.mp3","null","audio-keyboard-response","68","2.1.0","124674","F=YES, J=NO","mnot1ot3r1","0","75","65","85","","","","","","","","","","","","","","","",""
"null","audio/flaw.wav","null","audio-keyboard-response","69","2.1.0","125404","F=YES, J=NO","mnot1ot3r1","0","75","65","85","","","","","","","","","","","","","","","",""
"907","
          <p id=""word"" style=""font-size: 40px;"">thwool</p>
          <p style=""font-size: 16px;"">F = YES &nbsp;&nbsp;&nbsp; J = NO</p>
        ","f","html-keyboard-response","70","2.1.0","126313","F=YES, J=NO","mnot1ot3r1","0","75","65","85","","","","","","","","","thwool","flaw","pseudoword","pseudoword","j","false","",""
"null","<p style=""font-size: 50px;"">+</p>","null","html-keyboard-response","71","2.1.0","126622","F=YES, J=NO","mnot1ot3r1","0","75","65","85","","","","","","","","","","","","","","","",""
"null","audio/beep-329314.mp3","null","audio-keyboard-response","72","2.1.0","128164","F=YES, J=NO","mnot1ot3r1","0","75","65","85","","","","","","","","","","","","","","","",""
"null","audio/arm.wav","null","audio-keyboard-response","73","2.1.0","128744","F=YES, J=NO","mnot1ot3r1","0","75","65","85","","","","","","","","","","","","","","","",""
"1110","
          <p id=""word"" style=""font-size: 40px;"">fold</p>
          <p style=""font-size: 16px;"">F = YES &nbsp;&nbsp;&nbsp; J = NO</p>
        ","f","html-keyboard-response","74","2.1.0","129855","F=YES, J=NO","mnot1ot3r1","0","75","65","85","","","","","","","","","fold","arm","filler","filler","f","true","",""
"null","<p style=""font-size: 50px;"">+</p>","null","html-keyboard-response","75","2.1.0","130162","F=YES, J=NO","mnot1ot3r1","0","75","65","85","","","","","","","","","","","","","","","",""
"null","audio/beep-329314.mp3","null","audio-keyboard-response","76","2.1.0","131704","F=YES, J=NO","mnot1ot3r1","0","75","65","85","","","","","","","","","","","","","","","",""
"null","audio/baby.wav","null","audio-keyboard-response","77","2.1.0","132426","F=YES, J=NO","mnot1ot3r1","0","75","65","85","","","","","","","","","","","","","","","",""
"852","
          <p id=""word"" style=""font-size: 40px;"">lift</p>
          <p style=""font-size: 16px;"">F = YES &nbsp;&nbsp;&nbsp; J = NO</p>
        ","f","html-keyboard-response","78","2.1.0","133281","F=YES, J=NO","mnot1ot3r1","0","75","65","85","","","","","","","","","lift","baby","filler","filler","f","true","",""
"null","<p style=""font-size: 50px;"">+</p>","null","html-keyboard-response","79","2.1.0","133592","F=YES, J=NO","mnot1ot3r1","0","75","65","85","","","","","","","","","","","","","","","",""
"null","audio/beep-329314.mp3","null","audio-keyboard-response","80","2.1.0","135127","F=YES, J=NO","mnot1ot3r1","0","75","65","85","","","","","","","","","","","","","","","",""
"null","audio/cinema1.wav","null","audio-keyboard-response","81","2.1.0","135806","F=YES, J=NO","mnot1ot3r1","0","75","65","85","","","","","","","","","","","","","","","",""
"853","
          <p id=""word"" style=""font-size: 40px;"">murple</p>
          <p style=""font-size: 16px;"">F = YES &nbsp;&nbsp;&nbsp; J = NO</p>
        ","f","html-keyboard-response","82","2.1.0","136662","F=YES, J=NO","mnot1ot3r1","0","75","65","85","","","","","","","","","murple","cinema1","pseudoword","pseudoword","j","false","",""
"null","<p style=""font-size: 50px;"">+</p>","null","html-keyboard-response","83","2.1.0","136967","F=YES, J=NO","mnot1ot3r1","0","75","65","85","","","","","","","","","","","","","","","",""
"null","audio/beep-329314.mp3","null","audio-keyboard-response","84","2.1.0","138507","F=YES, J=NO","mnot1ot3r1","0","75","65","85","","","","","","","","","","","","","","","",""
"null","audio/bridge.wav","null","audio-keyboard-response","85","2.1.0","139386","F=YES, J=NO","mnot1ot3r1","0","75","65","85","","","","","","","","","","","","","","","",""
"459","
          <p id=""word"" style=""font-size: 40px;"">crack</p>
          <p style=""font-size: 16px;"">F = YES &nbsp;&nbsp;&nbsp; J = NO</p>
        ","f","html-keyboard-response","86","2.1.0","139847","F=YES, J=NO","mnot1ot3r1","0","75","65","85","","","","","","","","","crack","bridge","filler","filler","f","true","",""
"null","<p style=""font-size: 50px;"">+</p>","null","html-keyboard-response","87","2.1.0","140160","F=YES, J=NO","mnot1ot3r1","0","75","65","85","","","","","","","","","","","","","","","",""
"null","audio/beep-329314.mp3","null","audio-keyboard-response","88","2.1.0","141687","F=YES, J=NO","mnot1ot3r1","0","75","65","85","","","","","","","","","","","","","","","",""
"null","audio/window1.wav","null","audio-keyboard-response","89","2.1.0","142587","F=YES, J=NO","mnot1ot3r1","0","75","65","85","","","","","","","","","","","","","","","",""
"340","
          <p id=""word"" style=""font-size: 40px;"">toss</p>
          <p style=""font-size: 16px;"">F = YES &nbsp;&nbsp;&nbsp; J = NO</p>
        ","f","html-keyboard-response","90","2.1.0","142929","F=YES, J=NO","mnot1ot3r1","0","75","65","85","","","","","","","","","toss","window1","filler","filler","f","true","",""
"null","<p style=""font-size: 50px;"">+</p>","null","html-keyboard-response","91","2.1.0","143232","F=YES, J=NO","mnot1ot3r1","0","75","65","85","","","","","","","","","","","","","","","",""
"null","audio/beep-329314.mp3","null","audio-keyboard-response","92","2.1.0","144766","F=YES, J=NO","mnot1ot3r1","0","75","65","85","","","","","","","","","","","","","","","",""
"null","audio/account1.wav","null","audio-keyboard-response","93","2.1.0","145687","F=YES, J=NO","mnot1ot3r1","0","75","65","85","","","","","","","","","","","","","","","",""
"312","
          <p id=""word"" style=""font-size: 40px;"">paint</p>
          <p style=""font-size: 16px;"">F = YES &nbsp;&nbsp;&nbsp; J = NO</p>
        ","f","html-keyboard-response","94","2.1.0","146001","F=YES, J=NO","mnot1ot3r1","0","75","65","85","","","","","","","","","paint","account1","filler","filler","f","true","",""
"null","<p style=""font-size: 50px;"">+</p>","null","html-keyboard-response","95","2.1.0","146306","F=YES, J=NO","mnot1ot3r1","0","75","65","85","","","","","","","","","","","","","","","",""
"null","audio/beep-329314.mp3","null","audio-keyboard-response","96","2.1.0","147847","F=YES, J=NO","mnot1ot3r1","0","75","65","85","","","","","","","","","","","","","","","",""
"null","audio/bottle.wav","null","audio-keyboard-response","97","2.1.0","148386","F=YES, J=NO","mnot1ot3r1","0","75","65","85","","","","","","","","","","","","","","","",""
"369","
          <p id=""word"" style=""font-size: 40px;"">watch</p>
          <p style=""font-size: 16px;"">F = YES &nbsp;&nbsp;&nbsp; J = NO</p>
        ","f","html-keyboard-response","98","2.1.0","148758","F=YES, J=NO","mnot1ot3r1","0","75","65","85","","","","","","","","","watch","bottle","filler","filler","f","true","",""
"null","<p style=""font-size: 50px;"">+</p>","null","html-keyboard-response","99","2.1.0","149071","F=YES, J=NO","mnot1ot3r1","0","75","65","85","","","","","","","","","","","","","","","",""
"null","audio/beep-329314.mp3","null","audio-keyboard-response","100","2.1.0","150607","F=YES, J=NO","mnot1ot3r1","0","75","65","85","","","","","","","","","","","","","","","",""
"null","audio/purpose.wav","null","audio-keyboard-response","101","2.1.0","151627","F=YES, J=NO","mnot1ot3r1","0","75","65","85","","","","","","","","","","","","","","","",""
"498","
          <p id=""word"" style=""font-size: 40px;"">whigm</p>
          <p style=""font-size: 16px;"">F = YES &nbsp;&nbsp;&nbsp; J = NO</p>
        ","f","html-keyboard-response","102","2.1.0","152128","F=YES, J=NO","mnot1ot3r1","0","75","65","85","","","","","","","","","whigm","purpose","pseudoword","pseudoword","j","false","",""
"null","<p style=""font-size: 50px;"">+</p>","null","html-keyboard-response","103","2.1.0","152431","F=YES, J=NO","mnot1ot3r1","0","75","65","85","","","","","","","","","","","","","","","",""
"null","audio/beep-329314.mp3","null","audio-keyboard-response","104","2.1.0","153967","F=YES, J=NO","mnot1ot3r1","0","75","65","85","","","","","","","","","","","","","","","",""
"null","audio/key1.wav","null","audio-keyboard-response","105","2.1.0","154406","F=YES, J=NO","mnot1ot3r1","0","75","65","85","","","","","","","","","","","","","","","",""
"870","
          <p id=""word"" style=""font-size: 40px;"">sminsh</p>
          <p style=""font-size: 16px;"">F = YES &nbsp;&nbsp;&nbsp; J = NO</p>
        ","f","html-keyboard-response","106","2.1.0","155278","F=YES, J=NO","mnot1ot3r1","0","75","65","85","","","","","","","","","sminsh","key1","pseudoword","pseudoword","j","false","",""
"null","<p style=""font-size: 50px;"">+</p>","null","html-keyboard-response","107","2.1.0","155594","F=YES, J=NO","mnot1ot3r1","0","75","65","85","","","","","","","","","","","","","","","",""
"null","audio/beep-329314.mp3","null","audio-keyboard-response","108","2.1.0","157127","F=YES, J=NO","mnot1ot3r1","0","75","65","85","","","","","","","","","","","","","","","",""
"null","audio/pattern.wav","null","audio-keyboard-response","109","2.1.0","157705","F=YES, J=NO","mnot1ot3r1","0","75","65","85","","","","","","","","","","","","","","","",""
"693","
          <p id=""word"" style=""font-size: 40px;"">tug</p>
          <p style=""font-size: 16px;"">F = YES &nbsp;&nbsp;&nbsp; J = NO</p>
        ","f","html-keyboard-response","110","2.1.0","158401","F=YES, J=NO","mnot1ot3r1","0","75","65","85","","","","","","","","","tug","pattern","filler","filler","f","true","",""
"null","<p style=""font-size: 50px;"">+</p>","null","html-keyboard-response","111","2.1.0","158714","F=YES, J=NO","mnot1ot3r1","0","75","65","85","","","","","","","","","","","","","","","",""
"null","audio/beep-329314.mp3","null","audio-keyboard-response","112","2.1.0","160244","F=YES, J=NO","mnot1ot3r1","0","75","65","85","","","","","","","","","","","","","","","",""
"null","audio/bishop1.wav","null","audio-keyboard-response","113","2.1.0","161125","F=YES, J=NO","mnot1ot3r1","0","75","65","85","","","","","","","","","","","","","","","",""
"562","
          <p id=""word"" style=""font-size: 40px;"">play</p>
          <p style=""font-size: 16px;"">F = YES &nbsp;&nbsp;&nbsp; J = NO</p>
        ","f","html-keyboard-response","114","2.1.0","161689","F=YES, J=NO","mnot1ot3r1","0","75","65","85","","","","","","","","","play","bishop1","filler","filler","f","true","",""
"2231","<p>Starting practice block 2 of 2. Press any key to continue.</p>"," ","html-keyboard-response","115","2.1.0","163920","F=YES, J=NO","mnot1ot3r1","0","75","65","85","","","","","","","","","","","","","","","",""
"null","<p style=""font-size: 50px;"">+</p>","null","html-keyboard-response","116","2.1.0","164226","F=YES, J=NO","mnot1ot3r1","0","75","65","85","","","","","","","","","","","","","","","",""
"null","audio/beep-329314.mp3","null","audio-keyboard-response","117","2.1.0","165766","F=YES, J=NO","mnot1ot3r1","0","75","65","85","","","","","","","","","","","","","","","",""
"null","audio/hotel1.wav","null","audio-keyboard-response","118","2.1.0","166667","F=YES, J=NO","mnot1ot3r1","0","75","65","85","","","","","","","","","","","","","","","",""
"479","
          <p id=""word"" style=""font-size: 40px;"">flanter</p>
          <p style=""font-size: 16px;"">F = YES &nbsp;&nbsp;&nbsp; J = NO</p>
        ","f","html-keyboard-response","119","2.1.0","167148","F=YES, J=NO","mnot1ot3r1","0","75","65","85","","","","","","","","","flanter","hotel1","pseudoword","pseudoword","j","false","",""
"null","<p style=""font-size: 50px;"">+</p>","null","html-keyboard-response","120","2.1.0","167451","F=YES, J=NO","mnot1ot3r1","0","75","65","85","","","","","","","","","","","","","","","",""
"null","audio/beep-329314.mp3","null","audio-keyboard-response","121","2.1.0","168987","F=YES, J=NO","mnot1ot3r1","0","75","65","85","","","","","","","","","","","","","","","",""
"null","audio/breath.wav","null","audio-keyboard-response","122","2.1.0","169866","F=YES, J=NO","mnot1ot3r1","0","75","65","85","","","","","","","","","","","","","","","",""
"1290","
          <p id=""word"" style=""font-size: 40px;"">twets</p>
          <p style=""font-size: 16px;"">F = YES &nbsp;&nbsp;&nbsp; J = NO</p>
        ","j","html-keyboard-response","123","2.1.0","171158","F=YES, J=NO","mnot1ot3r1","0","75","65","85","","","","","","","","","twets","breath","pseudoword","pseudoword","j","true","",""
"null","<p style=""font-size: 50px;"">+</p>","null","html-keyboard-response","124","2.1.0","171476","F=YES, J=NO","mnot1ot3r1","0","75","65","85","","","","","","","","","","","","","","","",""
"null","audio/beep-329314.mp3","null","audio-keyboard-response","125","2.1.0","173006","F=YES, J=NO","mnot1ot3r1","0","75","65","85","","","","","","","","","","","","","","","",""
"null","audio/novel.wav","null","audio-keyboard-response","126","2.1.0","173827","F=YES, J=NO","mnot1ot3r1","0","75","65","85","","","","","","","","","","","","","","","",""
"617","
          <p id=""word"" style=""font-size: 40px;"">type</p>
          <p style=""font-size: 16px;"">F = YES &nbsp;&nbsp;&nbsp; J = NO</p>
        ","f","html-keyboard-response","127","2.1.0","174447","F=YES, J=NO","mnot1ot3r1","0","75","65","85","","","","","","","","","type","novel","filler","filler","f","true","",""
"null","<p style=""font-size: 50px;"">+</p>","null","html-keyboard-response","128","2.1.0","174759","F=YES, J=NO","mnot1ot3r1","0","75","65","85","","","","","","","","","","","","","","","",""
"null","audio/beep-329314.mp3","null","audio-keyboard-response","129","2.1.0","176286","F=YES, J=NO","mnot1ot3r1","0","75","65","85","","","","","","","","","","","","","","","",""
"null","audio/roof1.wav","null","audio-keyboard-response","130","2.1.0","177147","F=YES, J=NO","mnot1ot3r1","0","75","65","85","","","","","","","","","","","","","","","",""
"1080","
          <p id=""word"" style=""font-size: 40px;"">wronb</p>
          <p style=""font-size: 16px;"">F = YES &nbsp;&nbsp;&nbsp; J = NO</p>
        ","f","html-keyboard-response","131","2.1.0","178230","F=YES, J=NO","mnot1ot3r1","0","75","65","85","","","","","","","","","wronb","roof1","pseudoword","pseudoword","j","false","",""
"null","<p style=""font-size: 50px;"">+</p>","null","html-keyboard-response","132","2.1.0","178545","F=YES, J=NO","mnot1ot3r1","0","75","65","85","","","","","","","","","","","","","","","",""
"null","audio/beep-329314.mp3","null","audio-keyboard-response","133","2.1.0","180086","F=YES, J=NO","mnot1ot3r1","0","75","65","85","","","","","","","","","","","","","","","",""
"null","audio/battle1.wav","null","audio-keyboard-response","134","2.1.0","180784","F=YES, J=NO","mnot1ot3r1","0","75","65","85","","","","","","","","","","","","","","","",""
"294","
          <p id=""word"" style=""font-size: 40px;"">boil</p>
          <p style=""font-size: 16px;"">F = YES &nbsp;&nbsp;&nbsp; J = NO</p>
        ","f","html-keyboard-response","135","2.1.0","181079","F=YES, J=NO","mnot1ot3r1","0","75","65","85","","","","","","","","","boil","battle1","filler","filler","f","true","",""
"null","<p style=""font-size: 50px;"">+</p>","null","html-keyboard-response","136","2.1.0","181381","F=YES, J=NO","mnot1ot3r1","0","75","65","85","","","","","","","","","","","","","","","",""
"null","audio/beep-329314.mp3","null","audio-keyboard-response","137","2.1.0","182924","F=YES, J=NO","mnot1ot3r1","0","75","65","85","","","","","","","","","","","","","","","",""
"null","audio/breath.wav","null","audio-keyboard-response","138","2.1.0","183484","F=YES, J=NO","mnot1ot3r1","0","75","65","85","","","","","","","","","","","","","","","",""
"1003","
          <p id=""word"" style=""font-size: 40px;"">pack</p>
          <p style=""font-size: 16px;"">F = YES &nbsp;&nbsp;&nbsp; J = NO</p>
        ","j","html-keyboard-response","139","2.1.0","184488","F=YES, J=NO","mnot1ot3r1","0","75","65","85","","","","","","","","","pack","breath","filler","filler","f","false","",""
"null","<p style=""font-size: 50px;"">+</p>","null","html-keyboard-response","140","2.1.0","184796","F=YES, J=NO","mnot1ot3r1","0","75","65","85","","","","","","","","","","","","","","","",""
"null","audio/beep-329314.mp3","null","audio-keyboard-response","141","2.1.0","186324","F=YES, J=NO","mnot1ot3r1","0","75","65","85","","","","","","","","","","","","","","","",""
"null","audio/sugar1.wav","null","audio-keyboard-response","142","2.1.0","187064","F=YES, J=NO","mnot1ot3r1","0","75","65","85","","","","","","","","","","","","","","","",""
"602","
          <p id=""word"" style=""font-size: 40px;"">glung</p>
          <p style=""font-size: 16px;"">F = YES &nbsp;&nbsp;&nbsp; J = NO</p>
        ","f","html-keyboard-response","143","2.1.0","187667","F=YES, J=NO","mnot1ot3r1","0","75","65","85","","","","","","","","","glung","sugar1","pseudoword","pseudoword","j","false","",""
"null","<p style=""font-size: 50px;"">+</p>","null","html-keyboard-response","144","2.1.0","187970","F=YES, J=NO","mnot1ot3r1","0","75","65","85","","","","","","","","","","","","","","","",""
"null","audio/beep-329314.mp3","null","audio-keyboard-response","145","2.1.0","189504","F=YES, J=NO","mnot1ot3r1","0","75","65","85","","","","","","","","","","","","","","","",""
"null","audio/client1.wav","null","audio-keyboard-response","146","2.1.0","190384","F=YES, J=NO","mnot1ot3r1","0","75","65","85","","","","","","","","","","","","","","","",""
"242","
          <p id=""word"" style=""font-size: 40px;"">droothe</p>
          <p style=""font-size: 16px;"">F = YES &nbsp;&nbsp;&nbsp; J = NO</p>
        ","f","html-keyboard-response","147","2.1.0","190628","F=YES, J=NO","mnot1ot3r1","0","75","65","85","","","","","","","","","droothe","client1","pseudoword","pseudoword","j","false","",""
"null","<p style=""font-size: 50px;"">+</p>","null","html-keyboard-response","148","2.1.0","190942","F=YES, J=NO","mnot1ot3r1","0","75","65","85","","","","","","","","","","","","","","","",""
"null","audio/beep-329314.mp3","null","audio-keyboard-response","149","2.1.0","192486","F=YES, J=NO","mnot1ot3r1","0","75","65","85","","","","","","","","","","","","","","","",""
"null","audio/table1.wav","null","audio-keyboard-response","150","2.1.0","193247","F=YES, J=NO","mnot1ot3r1","0","75","65","85","","","","","","","","","","","","","","","",""
"269","
          <p id=""word"" style=""font-size: 40px;"">stimb</p>
          <p style=""font-size: 16px;"">F = YES &nbsp;&nbsp;&nbsp; J = NO</p>
        ","f","html-keyboard-response","151","2.1.0","193518","F=YES, J=NO","mnot1ot3r1","0","75","65","85","","","","","","","","","stimb","table1","pseudoword","pseudoword","j","false","",""
"null","<p style=""font-size: 50px;"">+</p>","null","html-keyboard-response","152","2.1.0","193826","F=YES, J=NO","mnot1ot3r1","0","75","65","85","","","","","","","","","","","","","","","",""
"null","audio/beep-329314.mp3","null","audio-keyboard-response","153","2.1.0","195366","F=YES, J=NO","mnot1ot3r1","0","75","65","85","","","","","","","","","","","","","","","",""
"null","audio/trust.wav","null","audio-keyboard-response","154","2.1.0","196226","F=YES, J=NO","mnot1ot3r1","0","75","65","85","","","","","","","","","","","","","","","",""
"680","
          <p id=""word"" style=""font-size: 40px;"">swint</p>
          <p style=""font-size: 16px;"">F = YES &nbsp;&nbsp;&nbsp; J = NO</p>
        ","f","html-keyboard-response","155","2.1.0","196908","F=YES, J=NO","mnot1ot3r1","0","75","65","85","","","","","","","","","swint","trust","pseudoword","pseudoword","j","false","",""
"null","<p style=""font-size: 50px;"">+</p>","null","html-keyboard-response","156","2.1.0","197220","F=YES, J=NO","mnot1ot3r1","0","75","65","85","","","","","","","","","","","","","","","",""
"null","audio/beep-329314.mp3","null","audio-keyboard-response","157","2.1.0","198746","F=YES, J=NO","mnot1ot3r1","0","75","65","85","","","","","","","","","","","","","","","",""
"null","audio/brain.wav","null","audio-keyboard-response","158","2.1.0","199525","F=YES, J=NO","mnot1ot3r1","0","75","65","85","","","","","","","","","","","","","","","",""
"945","
          <p id=""word"" style=""font-size: 40px;"">throw</p>
          <p style=""font-size: 16px;"">F = YES &nbsp;&nbsp;&nbsp; J = NO</p>
        ","f","html-keyboard-response","159","2.1.0","200472","F=YES, J=NO","mnot1ot3r1","0","75","65","85","","","","","","","","","throw","brain","filler","filler","f","true","",""
"null","<p style=""font-size: 50px;"">+</p>","null","html-keyboard-response","160","2.1.0","200784","F=YES, J=NO","mnot1ot3r1","0","75","65","85","","","","","","","","","","","","","","","",""
"null","audio/beep-329314.mp3","null","audio-keyboard-response","161","2.1.0","202324","F=YES, J=NO","mnot1ot3r1","0","75","65","85","","","","","","","","","","","","","","","",""
"null","audio/prisoner.wav","null","audio-keyboard-response","162","2.1.0","202984","F=YES, J=NO","mnot1ot3r1","0","75","65","85","","","","","","","","","","","","","","","",""
"785","
          <p id=""word"" style=""font-size: 40px;"">egotian</p>
          <p style=""font-size: 16px;"">F = YES &nbsp;&nbsp;&nbsp; J = NO</p>
        ","j","html-keyboard-response","163","2.1.0","203770","F=YES, J=NO","mnot1ot3r1","0","75","65","85","","","","","","","","","egotian","prisoner","pseudoword","pseudoword","j","true","",""
"262224","
    <div style=""max-width: 800px; margin: auto; text-align: left;"">
      <h2>Part 2: Main Trials</h2>
      <p>Great job on the practice trials!</p>
      <p>You will now begin the <strong>main set of trials</strong>.</p>
      <p>Remember your key assignments:</p>
      <ul>
        <li><strong>F</strong> = YES (real English word)</li>
        <li><strong>J</strong> = NO (not a real English word)</li>
      </ul>
      <p>Try to respond as <strong>quickly and accurately</strong> as possible.</p>
      <p style=""margin-top: 2em;"">Press any key to begin the main trials.</p>
    </div>
  "," ","html-keyboard-response","164","2.1.0","465996","F=YES, J=NO","mnot1ot3r1","0","75","65","85","","","","","","","","","","","","","","","",""
"2801","<p>Starting main block 1 of 8. Press any key to continue.</p>"," ","html-keyboard-response","165","2.1.0","468799","F=YES, J=NO","mnot1ot3r1","0","75","65","85","","","","","","","","","","","","","","","",""
"null","<p style=""font-size: 50px;"">+</p>","null","html-keyboard-response","166","2.1.0","469109","F=YES, J=NO","mnot1ot3r1","0","75","65","85","","","","","","","","","","","","","","","",""
"null","audio/beep-329314.mp3","null","audio-keyboard-response","167","2.1.0","471404","F=YES, J=NO","mnot1ot3r1","0","75","65","85","","","","","","","","","","","","","","","",""
"null","audio/skin1.wav","null","audio-keyboard-response","168","2.1.0","472073","F=YES, J=NO","mnot1ot3r1","0","75","65","85","","","","","","","","","","","","","","","",""
"625","
          <p id=""word"" style=""font-size: 40px;"">expose</p>
          <p style=""font-size: 16px;"">F = YES &nbsp;&nbsp;&nbsp; J = NO</p>
        ","f","html-keyboard-response","169","2.1.0","472701","F=YES, J=NO","mnot1ot3r1","0","75","65","85","","","","","","","","","expose","skin1","literal","experimental","f","true","",""
"null","<p style=""font-size: 50px;"">+</p>","null","html-keyboard-response","170","2.1.0","473016","F=YES, J=NO","mnot1ot3r1","0","75","65","85","","","","","","","","","","","","","","","",""
"null","audio/beep-329314.mp3","null","audio-keyboard-response","171","2.1.0","474543","F=YES, J=NO","mnot1ot3r1","0","75","65","85","","","","","","","","","","","","","","","",""
"null","audio/pattern.wav","null","audio-keyboard-response","172","2.1.0","475033","F=YES, J=NO","mnot1ot3r1","0","75","65","85","","","","","","","","","","","","","","","",""
"359","
          <p id=""word"" style=""font-size: 40px;"">defeat</p>
          <p style=""font-size: 16px;"">F = YES &nbsp;&nbsp;&nbsp; J = NO</p>
        ","f","html-keyboard-response","173","2.1.0","475394","F=YES, J=NO","mnot1ot3r1","0","75","65","85","","","","","","","","","defeat","pattern","unrelated","experimental","f","true","",""
"null","<p style=""font-size: 50px;"">+</p>","null","html-keyboard-response","174","2.1.0","475705","F=YES, J=NO","mnot1ot3r1","0","75","65","85","","","","","","","","","","","","","","","",""
"null","audio/beep-329314.mp3","null","audio-keyboard-response","175","2.1.0","477244","F=YES, J=NO","mnot1ot3r1","0","75","65","85","","","","","","","","","","","","","","","",""
"null","audio/trout1.wav","null","audio-keyboard-response","176","2.1.0","477913","F=YES, J=NO","mnot1ot3r1","0","75","65","85","","","","","","","","","","","","","","","",""
"949","
          <p id=""word"" style=""font-size: 40px;"">spimt</p>
          <p style=""font-size: 16px;"">F = YES &nbsp;&nbsp;&nbsp; J = NO</p>
        ","f","html-keyboard-response","177","2.1.0","478864","F=YES, J=NO","mnot1ot3r1","0","75","65","85","","","","","","","","","spimt","trout1","pseudoword","pseudoword","j","false","",""
"null","<p style=""font-size: 50px;"">+</p>","null","html-keyboard-response","178","2.1.0","479182","F=YES, J=NO","mnot1ot3r1","0","75","65","85","","","","","","","","","","","","","","","",""
"null","audio/beep-329314.mp3","null","audio-keyboard-response","179","2.1.0","480724","F=YES, J=NO","mnot1ot3r1","0","75","65","85","","","","","","","","","","","","","","","",""
"null","audio/case1.wav","null","audio-keyboard-response","180","2.1.0","481293","F=YES, J=NO","mnot1ot3r1","0","75","65","85","","","","","","","","","","","","","","","",""
"287","
          <p id=""word"" style=""font-size: 40px;"">close</p>
          <p style=""font-size: 16px;"">F = YES &nbsp;&nbsp;&nbsp; J = NO</p>
        ","f","html-keyboard-response","181","2.1.0","481582","F=YES, J=NO","mnot1ot3r1","0","75","65","85","","","","","","","","","close","case1","metaphor","experimental","f","true","",""
"null","<p style=""font-size: 50px;"">+</p>","null","html-keyboard-response","182","2.1.0","481887","F=YES, J=NO","mnot1ot3r1","0","75","65","85","","","","","","","","","","","","","","","",""
"null","audio/beep-329314.mp3","null","audio-keyboard-response","183","2.1.0","483423","F=YES, J=NO","mnot1ot3r1","0","75","65","85","","","","","","","","","","","","","","","",""
"null","audio/mouth1.wav","null","audio-keyboard-response","184","2.1.0","484053","F=YES, J=NO","mnot1ot3r1","0","75","65","85","","","","","","","","","","","","","","","",""
"269","
          <p id=""word"" style=""font-size: 40px;"">spolial</p>
          <p style=""font-size: 16px;"">F = YES &nbsp;&nbsp;&nbsp; J = NO</p>
        ","f","html-keyboard-response","185","2.1.0","484324","F=YES, J=NO","mnot1ot3r1","0","75","65","85","","","","","","","","","spolial","mouth1","pseudoword","pseudoword","j","false","",""
"null","<p style=""font-size: 50px;"">+</p>","null","html-keyboard-response","186","2.1.0","484643","F=YES, J=NO","mnot1ot3r1","0","75","65","85","","","","","","","","","","","","","","","",""
"null","audio/beep-329314.mp3","null","audio-keyboard-response","187","2.1.0","486183","F=YES, J=NO","mnot1ot3r1","0","75","65","85","","","","","","","","","","","","","","","",""
"null","audio/cloud1.wav","null","audio-keyboard-response","188","2.1.0","486792","F=YES, J=NO","mnot1ot3r1","0","75","65","85","","","","","","","","","","","","","","","",""
"559","
          <p id=""word"" style=""font-size: 40px;"">brotant</p>
          <p style=""font-size: 16px;"">F = YES &nbsp;&nbsp;&nbsp; J = NO</p>
        ","f","html-keyboard-response","189","2.1.0","487354","F=YES, J=NO","mnot1ot3r1","0","75","65","85","","","","","","","","","brotant","cloud1","pseudoword","pseudoword","j","false","",""
"null","<p style=""font-size: 50px;"">+</p>","null","html-keyboard-response","190","2.1.0","487665","F=YES, J=NO","mnot1ot3r1","0","75","65","85","","","","","","","","","","","","","","","",""
"null","audio/beep-329314.mp3","null","audio-keyboard-response","191","2.1.0","489204","F=YES, J=NO","mnot1ot3r1","0","75","65","85","","","","","","","","","","","","","","","",""
"null","audio/radio1.wav","null","audio-keyboard-response","192","2.1.0","489873","F=YES, J=NO","mnot1ot3r1","0","75","65","85","","","","","","","","","","","","","","","",""
"344","
          <p id=""word"" style=""font-size: 40px;"">blanter</p>
          <p style=""font-size: 16px;"">F = YES &nbsp;&nbsp;&nbsp; J = NO</p>
        ","f","html-keyboard-response","193","2.1.0","490220","F=YES, J=NO","mnot1ot3r1","0","75","65","85","","","","","","","","","blanter","radio1","pseudoword","pseudoword","j","false","",""
"null","<p style=""font-size: 50px;"">+</p>","null","html-keyboard-response","194","2.1.0","490529","F=YES, J=NO","mnot1ot3r1","0","75","65","85","","","","","","","","","","","","","","","",""
"null","audio/beep-329314.mp3","null","audio-keyboard-response","195","2.1.0","492063","F=YES, J=NO","mnot1ot3r1","0","75","65","85","","","","","","","","","","","","","","","",""
"null","audio/grass.wav","null","audio-keyboard-response","196","2.1.0","492772","F=YES, J=NO","mnot1ot3r1","0","75","65","85","","","","","","","","","","","","","","","",""
"371","
          <p id=""word"" style=""font-size: 40px;"">milames</p>
          <p style=""font-size: 16px;"">F = YES &nbsp;&nbsp;&nbsp; J = NO</p>
        ","f","html-keyboard-response","197","2.1.0","493146","F=YES, J=NO","mnot1ot3r1","0","75","65","85","","","","","","","","","milames","grass","pseudoword","pseudoword","j","false","",""
"null","<p style=""font-size: 50px;"">+</p>","null","html-keyboard-response","198","2.1.0","493462","F=YES, J=NO","mnot1ot3r1","0","75","65","85","","","","","","","","","","","","","","","",""
"null","audio/beep-329314.mp3","null","audio-keyboard-response","199","2.1.0","495004","F=YES, J=NO","mnot1ot3r1","0","75","65","85","","","","","","","","","","","","","","","",""
"null","audio/floor.wav","null","audio-keyboard-response","200","2.1.0","495613","F=YES, J=NO","mnot1ot3r1","0","75","65","85","","","","","","","","","","","","","","","",""
"486","
          <p id=""word"" style=""font-size: 40px;"">mop</p>
          <p style=""font-size: 16px;"">F = YES &nbsp;&nbsp;&nbsp; J = NO</p>
        ","f","html-keyboard-response","201","2.1.0","496102","F=YES, J=NO","mnot1ot3r1","0","75","65","85","","","","","","","","","mop","floor","filler","filler","f","true","",""
"null","<p style=""font-size: 50px;"">+</p>","null","html-keyboard-response","202","2.1.0","496420","F=YES, J=NO","mnot1ot3r1","0","75","65","85","","","","","","","","","","","","","","","",""
"null","audio/beep-329314.mp3","null","audio-keyboard-response","203","2.1.0","497963","F=YES, J=NO","mnot1ot3r1","0","75","65","85","","","","","","","","","","","","","","","",""
"null","audio/smirk1.wav","null","audio-keyboard-response","204","2.1.0","498753","F=YES, J=NO","mnot1ot3r1","0","75","65","85","","","","","","","","","","","","","","","",""
"1300","
          <p id=""word"" style=""font-size: 40px;"">wipe</p>
          <p style=""font-size: 16px;"">F = YES &nbsp;&nbsp;&nbsp; J = NO</p>
        ","j","html-keyboard-response","205","2.1.0","500057","F=YES, J=NO","mnot1ot3r1","0","75","65","85","","","","","","","","","wipe","smirk1","metaphor","experimental","f","false","",""
"null","<p style=""font-size: 50px;"">+</p>","null","html-keyboard-response","206","2.1.0","500361","F=YES, J=NO","mnot1ot3r1","0","75","65","85","","","","","","","","","","","","","","","",""
"null","audio/beep-329314.mp3","null","audio-keyboard-response","207","2.1.0","501904","F=YES, J=NO","mnot1ot3r1","0","75","65","85","","","","","","","","","","","","","","","",""
"null","audio/pain1.wav","null","audio-keyboard-response","208","2.1.0","502413","F=YES, J=NO","mnot1ot3r1","0","75","65","85","","","","","","","","","","","","","","","",""
"1495","
          <p id=""word"" style=""font-size: 40px;"">tritted</p>
          <p style=""font-size: 16px;"">F = YES &nbsp;&nbsp;&nbsp; J = NO</p>
        ","j","html-keyboard-response","209","2.1.0","503910","F=YES, J=NO","mnot1ot3r1","0","75","65","85","","","","","","","","","tritted","pain1","pseudoword","pseudoword","j","true","",""
"null","<p style=""font-size: 50px;"">+</p>","null","html-keyboard-response","210","2.1.0","504215","F=YES, J=NO","mnot1ot3r1","0","75","65","85","","","","","","","","","","","","","","","",""
"null","audio/beep-329314.mp3","null","audio-keyboard-response","211","2.1.0","505744","F=YES, J=NO","mnot1ot3r1","0","75","65","85","","","","","","","","","","","","","","","",""
"null","audio/fence.wav","null","audio-keyboard-response","212","2.1.0","506473","F=YES, J=NO","mnot1ot3r1","0","75","65","85","","","","","","","","","","","","","","","",""
"268","
          <p id=""word"" style=""font-size: 40px;"">trim</p>
          <p style=""font-size: 16px;"">F = YES &nbsp;&nbsp;&nbsp; J = NO</p>
        ","f","html-keyboard-response","213","2.1.0","506744","F=YES, J=NO","mnot1ot3r1","0","75","65","85","","","","","","","","","trim","fence","filler","filler","f","true","",""
"null","<p style=""font-size: 50px;"">+</p>","null","html-keyboard-response","214","2.1.0","507053","F=YES, J=NO","mnot1ot3r1","0","75","65","85","","","","","","","","","","","","","","","",""
"null","audio/beep-329314.mp3","null","audio-keyboard-response","215","2.1.0","508584","F=YES, J=NO","mnot1ot3r1","0","75","65","85","","","","","","","","","","","","","","","",""
"null","audio/beach1.wav","null","audio-keyboard-response","216","2.1.0","509232","F=YES, J=NO","mnot1ot3r1","0","75","65","85","","","","","","","","","","","","","","","",""
"599","
          <p id=""word"" style=""font-size: 40px;"">cut</p>
          <p style=""font-size: 16px;"">F = YES &nbsp;&nbsp;&nbsp; J = NO</p>
        ","f","html-keyboard-response","217","2.1.0","509834","F=YES, J=NO","mnot1ot3r1","0","75","65","85","","","","","","","","","cut","beach1","unrelated","experimental","f","true","",""
"null","<p style=""font-size: 50px;"">+</p>","null","html-keyboard-response","218","2.1.0","510136","F=YES, J=NO","mnot1ot3r1","0","75","65","85","","","","","","","","","","","","","","","",""
"null","audio/beep-329314.mp3","null","audio-keyboard-response","219","2.1.0","511684","F=YES, J=NO","mnot1ot3r1","0","75","65","85","","","","","","","","","","","","","","","",""
"null","audio/cloud1.wav","null","audio-keyboard-response","220","2.1.0","512213","F=YES, J=NO","mnot1ot3r1","0","75","65","85","","","","","","","","","","","","","","","",""
"379","
          <p id=""word"" style=""font-size: 40px;"">scrap</p>
          <p style=""font-size: 16px;"">F = YES &nbsp;&nbsp;&nbsp; J = NO</p>
        ","f","html-keyboard-response","221","2.1.0","512595","F=YES, J=NO","mnot1ot3r1","0","75","65","85","","","","","","","","","scrap","cloud1","unrelated","experimental","f","true","",""
"null","<p style=""font-size: 50px;"">+</p>","null","html-keyboard-response","222","2.1.0","512904","F=YES, J=NO","mnot1ot3r1","0","75","65","85","","","","","","","","","","","","","","","",""
"null","audio/beep-329314.mp3","null","audio-keyboard-response","223","2.1.0","514443","F=YES, J=NO","mnot1ot3r1","0","75","65","85","","","","","","","","","","","","","","","",""
"null","audio/truth1.wav","null","audio-keyboard-response","224","2.1.0","515212","F=YES, J=NO","mnot1ot3r1","0","75","65","85","","","","","","","","","","","","","","","",""
"493","
          <p id=""word"" style=""font-size: 40px;"">calitom</p>
          <p style=""font-size: 16px;"">F = YES &nbsp;&nbsp;&nbsp; J = NO</p>
        ","f","html-keyboard-response","225","2.1.0","515708","F=YES, J=NO","mnot1ot3r1","0","75","65","85","","","","","","","","","calitom","truth1","pseudoword","pseudoword","j","false","",""
"null","<p style=""font-size: 50px;"">+</p>","null","html-keyboard-response","226","2.1.0","516026","F=YES, J=NO","mnot1ot3r1","0","75","65","85","","","","","","","","","","","","","","","",""
"null","audio/beep-329314.mp3","null","audio-keyboard-response","227","2.1.0","517564","F=YES, J=NO","mnot1ot3r1","0","75","65","85","","","","","","","","","","","","","","","",""
"null","audio/empire.wav","null","audio-keyboard-response","228","2.1.0","518253","F=YES, J=NO","mnot1ot3r1","0","75","65","85","","","","","","","","","","","","","","","",""
"352","
          <p id=""word"" style=""font-size: 40px;"">slorby</p>
          <p style=""font-size: 16px;"">F = YES &nbsp;&nbsp;&nbsp; J = NO</p>
        ","f","html-keyboard-response","229","2.1.0","518607","F=YES, J=NO","mnot1ot3r1","0","75","65","85","","","","","","","","","slorby","empire","pseudoword","pseudoword","j","false","",""
"3149","<p>Excellent! You have finished block 1 of 8.</p>
                     <p>Feel free to take a 30 second break.</p>
                     <p>Press any key when you're ready to continue.</p>"," ","html-keyboard-response","230","2.1.0","521758","F=YES, J=NO","mnot1ot3r1","0","75","65","85","","","","","","","","","","","","","","","",""
"4700","<p>Starting main block 2 of 8. Press any key to continue.</p>"," ","html-keyboard-response","231","2.1.0","526459","F=YES, J=NO","mnot1ot3r1","0","75","65","85","","","","","","","","","","","","","","","",""
"null","<p style=""font-size: 50px;"">+</p>","null","html-keyboard-response","232","2.1.0","526782","F=YES, J=NO","mnot1ot3r1","0","75","65","85","","","","","","","","","","","","","","","",""
"null","audio/beep-329314.mp3","null","audio-keyboard-response","233","2.1.0","528324","F=YES, J=NO","mnot1ot3r1","0","75","65","85","","","","","","","","","","","","","","","",""
"null","audio/dome.wav","null","audio-keyboard-response","234","2.1.0","528783","F=YES, J=NO","mnot1ot3r1","0","75","65","85","","","","","","","","","","","","","","","",""
"529","
          <p id=""word"" style=""font-size: 40px;"">scrupliness</p>
          <p style=""font-size: 16px;"">F = YES &nbsp;&nbsp;&nbsp; J = NO</p>
        ","j","html-keyboard-response","235","2.1.0","529314","F=YES, J=NO","mnot1ot3r1","0","75","65","85","","","","","","","","","scrupliness","dome","pseudoword","pseudoword","j","true","",""
"null","<p style=""font-size: 50px;"">+</p>","null","html-keyboard-response","236","2.1.0","529618","F=YES, J=NO","mnot1ot3r1","0","75","65","85","","","","","","","","","","","","","","","",""
"null","audio/beep-329314.mp3","null","audio-keyboard-response","237","2.1.0","531163","F=YES, J=NO","mnot1ot3r1","0","75","65","85","","","","","","","","","","","","","","","",""
"null","audio/pride1.wav","null","audio-keyboard-response","238","2.1.0","531903","F=YES, J=NO","mnot1ot3r1","0","75","65","85","","","","","","","","","","","","","","","",""
"587","
          <p id=""word"" style=""font-size: 40px;"">hurt</p>
          <p style=""font-size: 16px;"">F = YES &nbsp;&nbsp;&nbsp; J = NO</p>
        ","f","html-keyboard-response","239","2.1.0","532492","F=YES, J=NO","mnot1ot3r1","0","75","65","85","","","","","","","","","hurt","pride1","metaphor","experimental","f","true","",""
"null","<p style=""font-size: 50px;"">+</p>","null","html-keyboard-response","240","2.1.0","532800","F=YES, J=NO","mnot1ot3r1","0","75","65","85","","","","","","","","","","","","","","","",""
"null","audio/beep-329314.mp3","null","audio-keyboard-response","241","2.1.0","534344","F=YES, J=NO","mnot1ot3r1","0","75","65","85","","","","","","","","","","","","","","","",""
"null","audio/emotion.wav","null","audio-keyboard-response","242","2.1.0","535063","F=YES, J=NO","mnot1ot3r1","0","75","65","85","","","","","","","","","","","","","","","",""
"497","
          <p id=""word"" style=""font-size: 40px;"">devering</p>
          <p style=""font-size: 16px;"">F = YES &nbsp;&nbsp;&nbsp; J = NO</p>
        ","f","html-keyboard-response","243","2.1.0","535563","F=YES, J=NO","mnot1ot3r1","0","75","65","85","","","","","","","","","devering","emotion","pseudoword","pseudoword","j","false","",""
"null","<p style=""font-size: 50px;"">+</p>","null","html-keyboard-response","244","2.1.0","535871","F=YES, J=NO","mnot1ot3r1","0","75","65","85","","","","","","","","","","","","","","","",""
"null","audio/beep-329314.mp3","null","audio-keyboard-response","245","2.1.0","537404","F=YES, J=NO","mnot1ot3r1","0","75","65","85","","","","","","","","","","","","","","","",""
"null","audio/tomato.wav","null","audio-keyboard-response","246","2.1.0","538143","F=YES, J=NO","mnot1ot3r1","0","75","65","85","","","","","","","","","","","","","","","",""
"237","
          <p id=""word"" style=""font-size: 40px;"">gladies</p>
          <p style=""font-size: 16px;"">F = YES &nbsp;&nbsp;&nbsp; J = NO</p>
        ","f","html-keyboard-response","247","2.1.0","538383","F=YES, J=NO","mnot1ot3r1","0","75","65","85","","","","","","","","","gladies","tomato","pseudoword","pseudoword","j","false","",""
"null","<p style=""font-size: 50px;"">+</p>","null","html-keyboard-response","248","2.1.0","538690","F=YES, J=NO","mnot1ot3r1","0","75","65","85","","","","","","","","","","","","","","","",""
"null","audio/beep-329314.mp3","null","audio-keyboard-response","249","2.1.0","540224","F=YES, J=NO","mnot1ot3r1","0","75","65","85","","","","","","","","","","","","","","","",""
"null","audio/golf1.wav","null","audio-keyboard-response","250","2.1.0","540863","F=YES, J=NO","mnot1ot3r1","0","75","65","85","","","","","","","","","","","","","","","",""
"638","
          <p id=""word"" style=""font-size: 40px;"">drabble</p>
          <p style=""font-size: 16px;"">F = YES &nbsp;&nbsp;&nbsp; J = NO</p>
        ","f","html-keyboard-response","251","2.1.0","541504","F=YES, J=NO","mnot1ot3r1","0","75","65","85","","","","","","","","","drabble","golf1","pseudoword","pseudoword","j","false","",""
"null","<p style=""font-size: 50px;"">+</p>","null","html-keyboard-response","252","2.1.0","541808","F=YES, J=NO","mnot1ot3r1","0","75","65","85","","","","","","","","","","","","","","","",""
"null","audio/beep-329314.mp3","null","audio-keyboard-response","253","2.1.0","543345","F=YES, J=NO","mnot1ot3r1","0","75","65","85","","","","","","","","","","","","","","","",""
"null","audio/ankle1.wav","null","audio-keyboard-response","254","2.1.0","544084","F=YES, J=NO","mnot1ot3r1","0","75","65","85","","","","","","","","","","","","","","","",""
"984","
          <p id=""word"" style=""font-size: 40px;"">switm</p>
          <p style=""font-size: 16px;"">F = YES &nbsp;&nbsp;&nbsp; J = NO</p>
        ","f","html-keyboard-response","255","2.1.0","545070","F=YES, J=NO","mnot1ot3r1","0","75","65","85","","","","","","","","","switm","ankle1","pseudoword","pseudoword","j","false","",""
"null","<p style=""font-size: 50px;"">+</p>","null","html-keyboard-response","256","2.1.0","545388","F=YES, J=NO","mnot1ot3r1","0","75","65","85","","","","","","","","","","","","","","","",""
"null","audio/beep-329314.mp3","null","audio-keyboard-response","257","2.1.0","546924","F=YES, J=NO","mnot1ot3r1","0","75","65","85","","","","","","","","","","","","","","","",""
"null","audio/key1.wav","null","audio-keyboard-response","258","2.1.0","547284","F=YES, J=NO","mnot1ot3r1","0","75","65","85","","","","","","","","","","","","","","","",""
"353","
          <p id=""word"" style=""font-size: 40px;"">lose</p>
          <p style=""font-size: 16px;"">F = YES &nbsp;&nbsp;&nbsp; J = NO</p>
        ","f","html-keyboard-response","259","2.1.0","547639","F=YES, J=NO","mnot1ot3r1","0","75","65","85","","","","","","","","","lose","key1","literal","experimental","f","true","",""
"null","<p style=""font-size: 50px;"">+</p>","null","html-keyboard-response","260","2.1.0","547943","F=YES, J=NO","mnot1ot3r1","0","75","65","85","","","","","","","","","","","","","","","",""
"null","audio/beep-329314.mp3","null","audio-keyboard-response","261","2.1.0","549482","F=YES, J=NO","mnot1ot3r1","0","75","65","85","","","","","","","","","","","","","","","",""
"null","audio/plane1.wav","null","audio-keyboard-response","262","2.1.0","549944","F=YES, J=NO","mnot1ot3r1","0","75","65","85","","","","","","","","","","","","","","","",""
"758","
          <p id=""word"" style=""font-size: 40px;"">land</p>
          <p style=""font-size: 16px;"">F = YES &nbsp;&nbsp;&nbsp; J = NO</p>
        ","f","html-keyboard-response","263","2.1.0","550705","F=YES, J=NO","mnot1ot3r1","0","75","65","85","","","","","","","","","land","plane1","literal","experimental","f","true","",""
"null","<p style=""font-size: 50px;"">+</p>","null","html-keyboard-response","264","2.1.0","551017","F=YES, J=NO","mnot1ot3r1","0","75","65","85","","","","","","","","","","","","","","","",""
"null","audio/beep-329314.mp3","null","audio-keyboard-response","265","2.1.0","552543","F=YES, J=NO","mnot1ot3r1","0","75","65","85","","","","","","","","","","","","","","","",""
"null","audio/ego.wav","null","audio-keyboard-response","266","2.1.0","553303","F=YES, J=NO","mnot1ot3r1","0","75","65","85","","","","","","","","","","","","","","","",""
"477","
          <p id=""word"" style=""font-size: 40px;"">feed</p>
          <p style=""font-size: 16px;"">F = YES &nbsp;&nbsp;&nbsp; J = NO</p>
        ","f","html-keyboard-response","267","2.1.0","553783","F=YES, J=NO","mnot1ot3r1","0","75","65","85","","","","","","","","","feed","ego","metaphor","experimental","f","true","",""
"null","<p style=""font-size: 50px;"">+</p>","null","html-keyboard-response","268","2.1.0","554090","F=YES, J=NO","mnot1ot3r1","0","75","65","85","","","","","","","","","","","","","","","",""
"null","audio/beep-329314.mp3","null","audio-keyboard-response","269","2.1.0","555624","F=YES, J=NO","mnot1ot3r1","0","75","65","85","","","","","","","","","","","","","","","",""
"null","audio/pig.wav","null","audio-keyboard-response","270","2.1.0","556082","F=YES, J=NO","mnot1ot3r1","0","75","65","85","","","","","","","","","","","","","","","",""
"695","
          <p id=""word"" style=""font-size: 40px;"">tirlike</p>
          <p style=""font-size: 16px;"">F = YES &nbsp;&nbsp;&nbsp; J = NO</p>
        ","f","html-keyboard-response","271","2.1.0","556781","F=YES, J=NO","mnot1ot3r1","0","75","65","85","","","","","","","","","tirlike","pig","pseudoword","pseudoword","j","false","",""
"null","<p style=""font-size: 50px;"">+</p>","null","html-keyboard-response","272","2.1.0","557102","F=YES, J=NO","mnot1ot3r1","0","75","65","85","","","","","","","","","","","","","","","",""
"null","audio/beep-329314.mp3","null","audio-keyboard-response","273","2.1.0","558644","F=YES, J=NO","mnot1ot3r1","0","75","65","85","","","","","","","","","","","","","","","",""
"null","audio/cancer1.wav","null","audio-keyboard-response","274","2.1.0","559283","F=YES, J=NO","mnot1ot3r1","0","75","65","85","","","","","","","","","","","","","","","",""
"290","
          <p id=""word"" style=""font-size: 40px;"">draw</p>
          <p style=""font-size: 16px;"">F = YES &nbsp;&nbsp;&nbsp; J = NO</p>
        ","f","html-keyboard-response","275","2.1.0","559575","F=YES, J=NO","mnot1ot3r1","0","75","65","85","","","","","","","","","draw","cancer1","filler","filler","f","true","",""
"null","<p style=""font-size: 50px;"">+</p>","null","html-keyboard-response","276","2.1.0","559892","F=YES, J=NO","mnot1ot3r1","0","75","65","85","","","","","","","","","","","","","","","",""
"null","audio/beep-329314.mp3","null","audio-keyboard-response","277","2.1.0","561424","F=YES, J=NO","mnot1ot3r1","0","75","65","85","","","","","","","","","","","","","","","",""
"null","audio/storm1.wav","null","audio-keyboard-response","278","2.1.0","562124","F=YES, J=NO","mnot1ot3r1","0","75","65","85","","","","","","","","","","","","","","","",""
"259","
          <p id=""word"" style=""font-size: 40px;"">climb</p>
          <p style=""font-size: 16px;"">F = YES &nbsp;&nbsp;&nbsp; J = NO</p>
        ","f","html-keyboard-response","279","2.1.0","562385","F=YES, J=NO","mnot1ot3r1","0","75","65","85","","","","","","","","","climb","storm1","unrelated","experimental","f","true","",""
"null","<p style=""font-size: 50px;"">+</p>","null","html-keyboard-response","280","2.1.0","562692","F=YES, J=NO","mnot1ot3r1","0","75","65","85","","","","","","","","","","","","","","","",""
"null","audio/beep-329314.mp3","null","audio-keyboard-response","281","2.1.0","564228","F=YES, J=NO","mnot1ot3r1","0","75","65","85","","","","","","","","","","","","","","","",""
"null","audio/fear.wav","null","audio-keyboard-response","282","2.1.0","564843","F=YES, J=NO","mnot1ot3r1","0","75","65","85","","","","","","","","","","","","","","","",""
"467","
          <p id=""word"" style=""font-size: 40px;"">spread</p>
          <p style=""font-size: 16px;"">F = YES &nbsp;&nbsp;&nbsp; J = NO</p>
        ","f","html-keyboard-response","283","2.1.0","565312","F=YES, J=NO","mnot1ot3r1","0","75","65","85","","","","","","","","","spread","fear","metaphor","experimental","f","true","",""
"null","<p style=""font-size: 50px;"">+</p>","null","html-keyboard-response","284","2.1.0","565622","F=YES, J=NO","mnot1ot3r1","0","75","65","85","","","","","","","","","","","","","","","",""
"null","audio/beep-329314.mp3","null","audio-keyboard-response","285","2.1.0","567164","F=YES, J=NO","mnot1ot3r1","0","75","65","85","","","","","","","","","","","","","","","",""
"null","audio/road.wav","null","audio-keyboard-response","286","2.1.0","567662","F=YES, J=NO","mnot1ot3r1","0","75","65","85","","","","","","","","","","","","","","","",""
"907","
          <p id=""word"" style=""font-size: 40px;"">flood</p>
          <p style=""font-size: 16px;"">F = YES &nbsp;&nbsp;&nbsp; J = NO</p>
        ","f","html-keyboard-response","287","2.1.0","568572","F=YES, J=NO","mnot1ot3r1","0","75","65","85","","","","","","","","","flood","road","literal","experimental","f","true","",""
"null","<p style=""font-size: 50px;"">+</p>","null","html-keyboard-response","288","2.1.0","568877","F=YES, J=NO","mnot1ot3r1","0","75","65","85","","","","","","","","","","","","","","","",""
"null","audio/beep-329314.mp3","null","audio-keyboard-response","289","2.1.0","570403","F=YES, J=NO","mnot1ot3r1","0","75","65","85","","","","","","","","","","","","","","","",""
"null","audio/corpse1.wav","null","audio-keyboard-response","290","2.1.0","571243","F=YES, J=NO","mnot1ot3r1","0","75","65","85","","","","","","","","","","","","","","","",""
"417","
          <p id=""word"" style=""font-size: 40px;"">glonet</p>
          <p style=""font-size: 16px;"">F = YES &nbsp;&nbsp;&nbsp; J = NO</p>
        ","f","html-keyboard-response","291","2.1.0","571663","F=YES, J=NO","mnot1ot3r1","0","75","65","85","","","","","","","","","glonet","corpse1","pseudoword","pseudoword","j","false","",""
"null","<p style=""font-size: 50px;"">+</p>","null","html-keyboard-response","292","2.1.0","571971","F=YES, J=NO","mnot1ot3r1","0","75","65","85","","","","","","","","","","","","","","","",""
"null","audio/beep-329314.mp3","null","audio-keyboard-response","293","2.1.0","573503","F=YES, J=NO","mnot1ot3r1","0","75","65","85","","","","","","","","","","","","","","","",""
"null","audio/cave1.wav","null","audio-keyboard-response","294","2.1.0","574181","F=YES, J=NO","mnot1ot3r1","0","75","65","85","","","","","","","","","","","","","","","",""
"434","
          <p id=""word"" style=""font-size: 40px;"">blacket</p>
          <p style=""font-size: 16px;"">F = YES &nbsp;&nbsp;&nbsp; J = NO</p>
        ","f","html-keyboard-response","295","2.1.0","574616","F=YES, J=NO","mnot1ot3r1","0","75","65","85","","","","","","","","","blacket","cave1","pseudoword","pseudoword","j","false","",""
"1571","<p>Excellent! You have finished block 2 of 8.</p>
                     <p>Feel free to take a 30 second break.</p>
                     <p>Press any key when you're ready to continue.</p>"," ","html-keyboard-response","296","2.1.0","576188","F=YES, J=NO","mnot1ot3r1","0","75","65","85","","","","","","","","","","","","","","","",""
"508","<p>Starting main block 3 of 8. Press any key to continue.</p>","f","html-keyboard-response","297","2.1.0","576697","F=YES, J=NO","mnot1ot3r1","0","75","65","85","","","","","","","","","","","","","","","",""
"null","<p style=""font-size: 50px;"">+</p>","null","html-keyboard-response","298","2.1.0","576999","F=YES, J=NO","mnot1ot3r1","0","75","65","85","","","","","","","","","","","","","","","",""
"null","audio/beep-329314.mp3","null","audio-keyboard-response","299","2.1.0","578542","F=YES, J=NO","mnot1ot3r1","0","75","65","85","","","","","","","","","","","","","","","",""
"null","audio/show.wav","null","audio-keyboard-response","300","2.1.0","579262","F=YES, J=NO","mnot1ot3r1","0","75","65","85","","","","","","","","","","","","","","","",""
"477","
          <p id=""word"" style=""font-size: 40px;"">hold</p>
          <p style=""font-size: 16px;"">F = YES &nbsp;&nbsp;&nbsp; J = NO</p>
        ","f","html-keyboard-response","301","2.1.0","579741","F=YES, J=NO","mnot1ot3r1","0","75","65","85","","","","","","","","","hold","show","metaphor","experimental","f","true","",""
"null","<p style=""font-size: 50px;"">+</p>","null","html-keyboard-response","302","2.1.0","580052","F=YES, J=NO","mnot1ot3r1","0","75","65","85","","","","","","","","","","","","","","","",""
"null","audio/beep-329314.mp3","null","audio-keyboard-response","303","2.1.0","581581","F=YES, J=NO","mnot1ot3r1","0","75","65","85","","","","","","","","","","","","","","","",""
"null","audio/haste1.wav","null","audio-keyboard-response","304","2.1.0","582221","F=YES, J=NO","mnot1ot3r1","0","75","65","85","","","","","","","","","","","","","","","",""
"202","
          <p id=""word"" style=""font-size: 40px;"">coraconate</p>
          <p style=""font-size: 16px;"">F = YES &nbsp;&nbsp;&nbsp; J = NO</p>
        ","f","html-keyboard-response","305","2.1.0","582424","F=YES, J=NO","mnot1ot3r1","0","75","65","85","","","","","","","","","coraconate","haste1","pseudoword","pseudoword","j","false","",""
"null","<p style=""font-size: 50px;"">+</p>","null","html-keyboard-response","306","2.1.0","582737","F=YES, J=NO","mnot1ot3r1","0","75","65","85","","","","","","","","","","","","","","","",""
"null","audio/beep-329314.mp3","null","audio-keyboard-response","307","2.1.0","584273","F=YES, J=NO","mnot1ot3r1","0","75","65","85","","","","","","","","","","","","","","","",""
"null","audio/survey1.wav","null","audio-keyboard-response","308","2.1.0","585081","F=YES, J=NO","mnot1ot3r1","0","75","65","85","","","","","","","","","","","","","","","",""
"500","
          <p id=""word"" style=""font-size: 40px;"">release</p>
          <p style=""font-size: 16px;"">F = YES &nbsp;&nbsp;&nbsp; J = NO</p>
        ","f","html-keyboard-response","309","2.1.0","585582","F=YES, J=NO","mnot1ot3r1","0","75","65","85","","","","","","","","","release","survey1","metaphor","experimental","f","true","",""
"null","<p style=""font-size: 50px;"">+</p>","null","html-keyboard-response","310","2.1.0","585895","F=YES, J=NO","mnot1ot3r1","0","75","65","85","","","","","","","","","","","","","","","",""
"null","audio/beep-329314.mp3","null","audio-keyboard-response","311","2.1.0","587422","F=YES, J=NO","mnot1ot3r1","0","75","65","85","","","","","","","","","","","","","","","",""
"null","audio/birth1.wav","null","audio-keyboard-response","312","2.1.0","588122","F=YES, J=NO","mnot1ot3r1","0","75","65","85","","","","","","","","","","","","","","","",""
"367","
          <p id=""word"" style=""font-size: 40px;"">peel</p>
          <p style=""font-size: 16px;"">F = YES &nbsp;&nbsp;&nbsp; J = NO</p>
        ","f","html-keyboard-response","313","2.1.0","588491","F=YES, J=NO","mnot1ot3r1","0","75","65","85","","","","","","","","","peel","birth1","filler","filler","f","true","",""
"null","<p style=""font-size: 50px;"">+</p>","null","html-keyboard-response","314","2.1.0","588799","F=YES, J=NO","mnot1ot3r1","0","75","65","85","","","","","","","","","","","","","","","",""
"null","audio/beep-329314.mp3","null","audio-keyboard-response","315","2.1.0","590343","F=YES, J=NO","mnot1ot3r1","0","75","65","85","","","","","","","","","","","","","","","",""
"null","audio/bomb1.wav","null","audio-keyboard-response","316","2.1.0","590783","F=YES, J=NO","mnot1ot3r1","0","75","65","85","","","","","","","","","","","","","","","",""
"996","
          <p id=""word"" style=""font-size: 40px;"">drop</p>
          <p style=""font-size: 16px;"">F = YES &nbsp;&nbsp;&nbsp; J = NO</p>
        ","j","html-keyboard-response","317","2.1.0","591782","F=YES, J=NO","mnot1ot3r1","0","75","65","85","","","","","","","","","drop","bomb1","literal","experimental","f","false","",""
"null","<p style=""font-size: 50px;"">+</p>","null","html-keyboard-response","318","2.1.0","592085","F=YES, J=NO","mnot1ot3r1","0","75","65","85","","","","","","","","","","","","","","","",""
"null","audio/beep-329314.mp3","null","audio-keyboard-response","319","2.1.0","593621","F=YES, J=NO","mnot1ot3r1","0","75","65","85","","","","","","","","","","","","","","","",""
"null","audio/empire.wav","null","audio-keyboard-response","320","2.1.0","594243","F=YES, J=NO","mnot1ot3r1","0","75","65","85","","","","","","","","","","","","","","","",""
"146","
          <p id=""word"" style=""font-size: 40px;"">bring</p>
          <p style=""font-size: 16px;"">F = YES &nbsp;&nbsp;&nbsp; J = NO</p>
        ","f","html-keyboard-response","321","2.1.0","594391","F=YES, J=NO","mnot1ot3r1","0","75","65","85","","","","","","","","","bring","empire","unrelated","experimental","f","true","",""
"null","<p style=""font-size: 50px;"">+</p>","null","html-keyboard-response","322","2.1.0","594699","F=YES, J=NO","mnot1ot3r1","0","75","65","85","","","","","","","","","","","","","","","",""
"null","audio/beep-329314.mp3","null","audio-keyboard-response","323","2.1.0","596244","F=YES, J=NO","mnot1ot3r1","0","75","65","85","","","","","","","","","","","","","","","",""
"null","audio/noise1.wav","null","audio-keyboard-response","324","2.1.0","597103","F=YES, J=NO","mnot1ot3r1","0","75","65","85","","","","","","","","","","","","","","","",""
"103","
          <p id=""word"" style=""font-size: 40px;"">build</p>
          <p style=""font-size: 16px;"">F = YES &nbsp;&nbsp;&nbsp; J = NO</p>
        ","f","html-keyboard-response","325","2.1.0","597208","F=YES, J=NO","mnot1ot3r1","0","75","65","85","","","","","","","","","build","noise1","unrelated","experimental","f","true","",""
"null","<p style=""font-size: 50px;"">+</p>","null","html-keyboard-response","326","2.1.0","597524","F=YES, J=NO","mnot1ot3r1","0","75","65","85","","","","","","","","","","","","","","","",""
"null","audio/beep-329314.mp3","null","audio-keyboard-response","327","2.1.0","599064","F=YES, J=NO","mnot1ot3r1","0","75","65","85","","","","","","","","","","","","","","","",""
"null","audio/topic.wav","null","audio-keyboard-response","328","2.1.0","599743","F=YES, J=NO","mnot1ot3r1","0","75","65","85","","","","","","","","","","","","","","","",""
"168","
          <p id=""word"" style=""font-size: 40px;"">infortuitist</p>
          <p style=""font-size: 16px;"">F = YES &nbsp;&nbsp;&nbsp; J = NO</p>
        ","f","html-keyboard-response","329","2.1.0","599914","F=YES, J=NO","mnot1ot3r1","0","75","65","85","","","","","","","","","infortuitist","topic","pseudoword","pseudoword","j","false","",""
"null","<p style=""font-size: 50px;"">+</p>","null","html-keyboard-response","330","2.1.0","600227","F=YES, J=NO","mnot1ot3r1","0","75","65","85","","","","","","","","","","","","","","","",""
"null","audio/beep-329314.mp3","null","audio-keyboard-response","331","2.1.0","601762","F=YES, J=NO","mnot1ot3r1","0","75","65","85","","","","","","","","","","","","","","","",""
"null","audio/train.wav","null","audio-keyboard-response","332","2.1.0","602341","F=YES, J=NO","mnot1ot3r1","0","75","65","85","","","","","","","","","","","","","","","",""
"756","
          <p id=""word"" style=""font-size: 40px;"">catch</p>
          <p style=""font-size: 16px;"">F = YES &nbsp;&nbsp;&nbsp; J = NO</p>
        ","f","html-keyboard-response","333","2.1.0","603099","F=YES, J=NO","mnot1ot3r1","0","75","65","85","","","","","","","","","catch","train","metaphor","experimental","f","true","",""
"null","<p style=""font-size: 50px;"">+</p>","null","html-keyboard-response","334","2.1.0","603405","F=YES, J=NO","mnot1ot3r1","0","75","65","85","","","","","","","","","","","","","","","",""
"null","audio/beep-329314.mp3","null","audio-keyboard-response","335","2.1.0","604943","F=YES, J=NO","mnot1ot3r1","0","75","65","85","","","","","","","","","","","","","","","",""
"null","audio/cash1.wav","null","audio-keyboard-response","336","2.1.0","605581","F=YES, J=NO","mnot1ot3r1","0","75","65","85","","","","","","","","","","","","","","","",""
"568","
          <p id=""word"" style=""font-size: 40px;"">splear</p>
          <p style=""font-size: 16px;"">F = YES &nbsp;&nbsp;&nbsp; J = NO</p>
        ","f","html-keyboard-response","337","2.1.0","606151","F=YES, J=NO","mnot1ot3r1","0","75","65","85","","","","","","","","","splear","cash1","pseudoword","pseudoword","j","false","",""
"null","<p style=""font-size: 50px;"">+</p>","null","html-keyboard-response","338","2.1.0","606460","F=YES, J=NO","mnot1ot3r1","0","75","65","85","","","","","","","","","","","","","","","",""
"null","audio/beep-329314.mp3","null","audio-keyboard-response","339","2.1.0","608003","F=YES, J=NO","mnot1ot3r1","0","75","65","85","","","","","","","","","","","","","","","",""
"null","audio/dollar.wav","null","audio-keyboard-response","340","2.1.0","608422","F=YES, J=NO","mnot1ot3r1","0","75","65","85","","","","","","","","","","","","","","","",""
"497","
          <p id=""word"" style=""font-size: 40px;"">gliptism</p>
          <p style=""font-size: 16px;"">F = YES &nbsp;&nbsp;&nbsp; J = NO</p>
        ","f","html-keyboard-response","341","2.1.0","608922","F=YES, J=NO","mnot1ot3r1","0","75","65","85","","","","","","","","","gliptism","dollar","pseudoword","pseudoword","j","false","",""
"null","<p style=""font-size: 50px;"">+</p>","null","html-keyboard-response","342","2.1.0","609227","F=YES, J=NO","mnot1ot3r1","0","75","65","85","","","","","","","","","","","","","","","",""
"null","audio/beep-329314.mp3","null","audio-keyboard-response","343","2.1.0","610763","F=YES, J=NO","mnot1ot3r1","0","75","65","85","","","","","","","","","","","","","","","",""
"null","audio/uncle1.wav","null","audio-keyboard-response","344","2.1.0","611502","F=YES, J=NO","mnot1ot3r1","0","75","65","85","","","","","","","","","","","","","","","",""
"353","
          <p id=""word"" style=""font-size: 40px;"">dramble</p>
          <p style=""font-size: 16px;"">F = YES &nbsp;&nbsp;&nbsp; J = NO</p>
        ","f","html-keyboard-response","345","2.1.0","611857","F=YES, J=NO","mnot1ot3r1","0","75","65","85","","","","","","","","","dramble","uncle1","pseudoword","pseudoword","j","false","",""
"null","<p style=""font-size: 50px;"">+</p>","null","html-keyboard-response","346","2.1.0","612163","F=YES, J=NO","mnot1ot3r1","0","75","65","85","","","","","","","","","","","","","","","",""
"null","audio/beep-329314.mp3","null","audio-keyboard-response","347","2.1.0","613703","F=YES, J=NO","mnot1ot3r1","0","75","65","85","","","","","","","","","","","","","","","",""
"null","audio/terrain.wav","null","audio-keyboard-response","348","2.1.0","614463","F=YES, J=NO","mnot1ot3r1","0","75","65","85","","","","","","","","","","","","","","","",""
"1080","
          <p id=""word"" style=""font-size: 40px;"">twist</p>
          <p style=""font-size: 16px;"">F = YES &nbsp;&nbsp;&nbsp; J = NO</p>
        ","f","html-keyboard-response","349","2.1.0","615545","F=YES, J=NO","mnot1ot3r1","0","75","65","85","","","","","","","","","twist","terrain","filler","filler","f","true","",""
"null","<p style=""font-size: 50px;"">+</p>","null","html-keyboard-response","350","2.1.0","615862","F=YES, J=NO","mnot1ot3r1","0","75","65","85","","","","","","","","","","","","","","","",""
"null","audio/beep-329314.mp3","null","audio-keyboard-response","351","2.1.0","617402","F=YES, J=NO","mnot1ot3r1","0","75","65","85","","","","","","","","","","","","","","","",""
"null","audio/gift1.wav","null","audio-keyboard-response","352","2.1.0","617942","F=YES, J=NO","mnot1ot3r1","0","75","65","85","","","","","","","","","","","","","","","",""
"345","
          <p id=""word"" style=""font-size: 40px;"">protsh</p>
          <p style=""font-size: 16px;"">F = YES &nbsp;&nbsp;&nbsp; J = NO</p>
        ","f","html-keyboard-response","353","2.1.0","618290","F=YES, J=NO","mnot1ot3r1","0","75","65","85","","","","","","","","","protsh","gift1","pseudoword","pseudoword","j","false","",""
"null","<p style=""font-size: 50px;"">+</p>","null","html-keyboard-response","354","2.1.0","618600","F=YES, J=NO","mnot1ot3r1","0","75","65","85","","","","","","","","","","","","","","","",""
"null","audio/beep-329314.mp3","null","audio-keyboard-response","355","2.1.0","620141","F=YES, J=NO","mnot1ot3r1","0","75","65","85","","","","","","","","","","","","","","","",""
"null","audio/effort.wav","null","audio-keyboard-response","356","2.1.0","621001","F=YES, J=NO","mnot1ot3r1","0","75","65","85","","","","","","","","","","","","","","","",""
"264","
          <p id=""word"" style=""font-size: 40px;"">invest</p>
          <p style=""font-size: 16px;"">F = YES &nbsp;&nbsp;&nbsp; J = NO</p>
        ","f","html-keyboard-response","357","2.1.0","621266","F=YES, J=NO","mnot1ot3r1","0","75","65","85","","","","","","","","","invest","effort","metaphor","experimental","f","true","",""
"null","<p style=""font-size: 50px;"">+</p>","null","html-keyboard-response","358","2.1.0","621575","F=YES, J=NO","mnot1ot3r1","0","75","65","85","","","","","","","","","","","","","","","",""
"null","audio/beep-329314.mp3","null","audio-keyboard-response","359","2.1.0","623113","F=YES, J=NO","mnot1ot3r1","0","75","65","85","","","","","","","","","","","","","","","",""
"null","audio/lion1.wav","null","audio-keyboard-response","360","2.1.0","623722","F=YES, J=NO","mnot1ot3r1","0","75","65","85","","","","","","","","","","","","","","","",""
"743","
          <p id=""word"" style=""font-size: 40px;"">wrestle</p>
          <p style=""font-size: 16px;"">F = YES &nbsp;&nbsp;&nbsp; J = NO</p>
        ","f","html-keyboard-response","361","2.1.0","624467","F=YES, J=NO","mnot1ot3r1","0","75","65","85","","","","","","","","","wrestle","lion1","literal","experimental","f","true","",""
"2724","<p>Excellent! You have finished block 3 of 8.</p>
                     <p>Feel free to take a 30 second break.</p>
                     <p>Press any key when you're ready to continue.</p>"," ","html-keyboard-response","362","2.1.0","627193","F=YES, J=NO","mnot1ot3r1","0","75","65","85","","","","","","","","","","","","","","","",""
"599","<p>Starting main block 4 of 8. Press any key to continue.</p>","f","html-keyboard-response","363","2.1.0","627794","F=YES, J=NO","mnot1ot3r1","0","75","65","85","","","","","","","","","","","","","","","",""
"null","<p style=""font-size: 50px;"">+</p>","null","html-keyboard-response","364","2.1.0","628099","F=YES, J=NO","mnot1ot3r1","0","75","65","85","","","","","","","","","","","","","","","",""
"null","audio/beep-329314.mp3","null","audio-keyboard-response","365","2.1.0","629641","F=YES, J=NO","mnot1ot3r1","0","75","65","85","","","","","","","","","","","","","","","",""
"null","audio/stain.wav","null","audio-keyboard-response","366","2.1.0","630482","F=YES, J=NO","mnot1ot3r1","0","75","65","85","","","","","","","","","","","","","","","",""
"628","
          <p id=""word"" style=""font-size: 40px;"">rumpsied</p>
          <p style=""font-size: 16px;"">F = YES &nbsp;&nbsp;&nbsp; J = NO</p>
        ","j","html-keyboard-response","367","2.1.0","631112","F=YES, J=NO","mnot1ot3r1","0","75","65","85","","","","","","","","","rumpsied","stain","pseudoword","pseudoword","j","true","",""
"null","<p style=""font-size: 50px;"">+</p>","null","html-keyboard-response","368","2.1.0","631419","F=YES, J=NO","mnot1ot3r1","0","75","65","85","","","","","","","","","","","","","","","",""
"null","audio/beep-329314.mp3","null","audio-keyboard-response","369","2.1.0","632964","F=YES, J=NO","mnot1ot3r1","0","75","65","85","","","","","","","","","","","","","","","",""
"null","audio/pine.wav","null","audio-keyboard-response","370","2.1.0","633704","F=YES, J=NO","mnot1ot3r1","0","75","65","85","","","","","","","","","","","","","","","",""
"448","
          <p id=""word"" style=""font-size: 40px;"">crebble</p>
          <p style=""font-size: 16px;"">F = YES &nbsp;&nbsp;&nbsp; J = NO</p>
        ","f","html-keyboard-response","371","2.1.0","634154","F=YES, J=NO","mnot1ot3r1","0","75","65","85","","","","","","","","","crebble","pine","pseudoword","pseudoword","j","false","",""
"null","<p style=""font-size: 50px;"">+</p>","null","html-keyboard-response","372","2.1.0","634465","F=YES, J=NO","mnot1ot3r1","0","75","65","85","","","","","","","","","","","","","","","",""
"null","audio/beep-329314.mp3","null","audio-keyboard-response","373","2.1.0","636004","F=YES, J=NO","mnot1ot3r1","0","75","65","85","","","","","","","","","","","","","","","",""
"null","audio/camera1.wav","null","audio-keyboard-response","374","2.1.0","636704","F=YES, J=NO","mnot1ot3r1","0","75","65","85","","","","","","","","","","","","","","","",""
"1059","
          <p id=""word"" style=""font-size: 40px;"">stir</p>
          <p style=""font-size: 16px;"">F = YES &nbsp;&nbsp;&nbsp; J = NO</p>
        ","j","html-keyboard-response","375","2.1.0","637765","F=YES, J=NO","mnot1ot3r1","0","75","65","85","","","","","","","","","stir","camera1","filler","filler","f","false","",""
"null","<p style=""font-size: 50px;"">+</p>","null","html-keyboard-response","376","2.1.0","638075","F=YES, J=NO","mnot1ot3r1","0","75","65","85","","","","","","","","","","","","","","","",""
"null","audio/beep-329314.mp3","null","audio-keyboard-response","377","2.1.0","639604","F=YES, J=NO","mnot1ot3r1","0","75","65","85","","","","","","","","","","","","","","","",""
"null","audio/foot1.wav","null","audio-keyboard-response","378","2.1.0","640383","F=YES, J=NO","mnot1ot3r1","0","75","65","85","","","","","","","","","","","","","","","",""
"579","
          <p id=""word"" style=""font-size: 40px;"">thrutt</p>
          <p style=""font-size: 16px;"">F = YES &nbsp;&nbsp;&nbsp; J = NO</p>
        ","f","html-keyboard-response","379","2.1.0","640964","F=YES, J=NO","mnot1ot3r1","0","75","65","85","","","","","","","","","thrutt","foot1","pseudoword","pseudoword","j","false","",""
"null","<p style=""font-size: 50px;"">+</p>","null","html-keyboard-response","380","2.1.0","641271","F=YES, J=NO","mnot1ot3r1","0","75","65","85","","","","","","","","","","","","","","","",""
"null","audio/beep-329314.mp3","null","audio-keyboard-response","381","2.1.0","642803","F=YES, J=NO","mnot1ot3r1","0","75","65","85","","","","","","","","","","","","","","","",""
"null","audio/meal.wav","null","audio-keyboard-response","382","2.1.0","643483","F=YES, J=NO","mnot1ot3r1","0","75","65","85","","","","","","","","","","","","","","","",""
"414","
          <p id=""word"" style=""font-size: 40px;"">gallite</p>
          <p style=""font-size: 16px;"">F = YES &nbsp;&nbsp;&nbsp; J = NO</p>
        ","f","html-keyboard-response","383","2.1.0","643900","F=YES, J=NO","mnot1ot3r1","0","75","65","85","","","","","","","","","gallite","meal","pseudoword","pseudoword","j","false","",""
"null","<p style=""font-size: 50px;"">+</p>","null","html-keyboard-response","384","2.1.0","644213","F=YES, J=NO","mnot1ot3r1","0","75","65","85","","","","","","","","","","","","","","","",""
"null","audio/beep-329314.mp3","null","audio-keyboard-response","385","2.1.0","645743","F=YES, J=NO","mnot1ot3r1","0","75","65","85","","","","","","","","","","","","","","","",""
"null","audio/church1.wav","null","audio-keyboard-response","386","2.1.0","646663","F=YES, J=NO","mnot1ot3r1","0","75","65","85","","","","","","","","","","","","","","","",""
"425","
          <p id=""word"" style=""font-size: 40px;"">cover</p>
          <p style=""font-size: 16px;"">F = YES &nbsp;&nbsp;&nbsp; J = NO</p>
        ","f","html-keyboard-response","387","2.1.0","647090","F=YES, J=NO","mnot1ot3r1","0","75","65","85","","","","","","","","","cover","church1","unrelated","experimental","f","true","",""
"null","<p style=""font-size: 50px;"">+</p>","null","html-keyboard-response","388","2.1.0","647399","F=YES, J=NO","mnot1ot3r1","0","75","65","85","","","","","","","","","","","","","","","",""
"null","audio/beep-329314.mp3","null","audio-keyboard-response","389","2.1.0","648945","F=YES, J=NO","mnot1ot3r1","0","75","65","85","","","","","","","","","","","","","","","",""
"null","audio/holiday1.wav","null","audio-keyboard-response","390","2.1.0","649702","F=YES, J=NO","mnot1ot3r1","0","75","65","85","","","","","","","","","","","","","","","",""
"413","
          <p id=""word"" style=""font-size: 40px;"">drivets</p>
          <p style=""font-size: 16px;"">F = YES &nbsp;&nbsp;&nbsp; J = NO</p>
        ","f","html-keyboard-response","391","2.1.0","650117","F=YES, J=NO","mnot1ot3r1","0","75","65","85","","","","","","","","","drivets","holiday1","pseudoword","pseudoword","j","false","",""
