"rt","stimulus","response","trial_type","trial_index","plugin_version","time_elapsed","response_mapping","subject_id","list_index","lextale_score","lextale_word_score","lextale_nonword_score","success","timeout","failed_images","failed_audio","failed_video","task","isWord","isDummy","target","prime","prime_type","stimulus_type","correct_response","correct","section","question_order"
"6452","
    <div style=""max-width: 800px; margin: auto; text-align: left;"">
      <h2>STANFORD UNIVERSITY</h2>
      <h3>Research Information Sheet</h3>
      <p><strong>Protocol Director:</strong> Robert Hawkins<br>
      <strong>Protocol Title:</strong> Communication and social cognition in natural audiovisual contexts<br>
      <strong>IRB#:</strong> 77226</p>

      <p><strong>DESCRIPTION:</strong> You are invited to participate in a research study about language and communication. The purpose of the research is to understand how you interact and communicate with other people in naturalistic settings as a fluent English speaker. This research will be conducted through the Prolific platform, including participants from the US, UK, and Canada. If you decide to participate in this research, you will play a communication game in a group with one or more partners.</p>

      <p><strong>TIME INVOLVEMENT:</strong> The task will last the amount of time advertised on Prolific. You are free to withdraw from the study at any time.</p>

      <p><strong>RISKS AND BENEFITS:</strong> You may become frustrated if your partner gets distracted, or experience discomfort if other participants in your group send text that is inappropriate for the task. We ask you to please be respectful of other participants you might be interacting with to mitigate these risks. You may also experience discomfort when being asked to discuss or challenge emotionally salient political beliefs. Study data will be stored securely, in compliance with Stanford University standards, minimizing the risk of confidentiality breach. This study advances our scientific understanding of how people communicate and collaborate in naturalistic settings. This study may lead to further insights about what can go wrong in teamwork, suggest potential interventions to overcome these barriers, and help to develop assistive technologies that collaborate with human partners. We cannot and do not guarantee or promise that you will receive any benefits from this study.</p>

      <p><strong>PAYMENTS:</strong> You will receive payment in the amount advertised on Prolific. If you do not complete this study, you will receive prorated payment based on the time that you have spent. Additionally, you may be eligible for bonus payments as described in the instructions.</p>

      <p><strong>PARTICIPANT’S RIGHTS:</strong> If you have read this form and have decided to participate in this project, please understand your participation is voluntary and you have the right to withdraw your consent or discontinue participation at any time without penalty or loss of benefits to which you are otherwise entitled. The alternative is not to participate. You have the right to refuse to answer particular questions. The results of this research study may be presented at scientific or professional meetings or published in scientific journals. Your individual privacy will be maintained in all published and written data resulting from the study. In accordance with scientific norms, the data from this study may be used or shared with other researchers for future research (after removing personally identifying information) without additional consent from you.</p>

      <p><strong>CONTACT INFORMATION:</strong><br>
      Questions: If you have any questions, concerns or complaints about this research, its procedures, risks and benefits, contact the Protocol Director, Robert Hawkins (<a href=""mailto:rdhawkins@stanford.edu"">rdhawkins@stanford.edu</a>, 217-549-6923).<br>
      Independent Contact: If you are not satisfied with how this study is being conducted, or if you have any concerns, complaints, or general questions about the research or your rights as a participant, please contact the Stanford Institutional Review Board (IRB) to speak to someone independent of the research team at 650-723-2480 or toll free at 1-866-680-2906, or email at <a href=""mailto:irbnon-med@stanford.edu"">irbnon-med@stanford.edu</a>. You can also write to the Stanford IRB, Stanford University, 1705 El Camino Real, Palo Alto, CA 94306.</p>

      <p><strong>Please save or print a copy of this page for your records.</strong></p>
      <p>If you agree to participate in this research, click ""Continue"" below.</p>
    </div>
  ","0","html-button-response","0","2.1.0","6471","F=YES, J=NO","msf8prb81h","1","59","83","35","","","","","","","","","","","","","","","",""
"10362","
    <div style=""max-width: 800px; margin: auto; text-align: left;"">
      <h2>Welcome!</h2>
      <p>Thank you for participating in this study. The experiment consists of three parts:</p>
      <ol>
        <li>An English vocabulary test</li>
        <li>A main task in which you will hear and see words, and decide whether the written word is a real English word</li>
        <li>A brief survey about your background</li>
      </ol>
      <p>Each part will be introduced before it begins.</p>
      <p>Please make sure you are in a quiet environment and can hear audio clearly for the final task.</p>
      <p style=""margin-top: 2em;"">Press any key to begin.</p>
    </div>
  "," ","html-keyboard-response","1","2.1.0","16838","F=YES, J=NO","msf8prb81h","1","59","83","35","","","","","","","","","","","","","","","",""
"","","","preload","2","2.1.0","19187","F=YES, J=NO","msf8prb81h","1","59","83","35","true","false","[]","[]","[]","","","","","","","","","","",""
"6213","
    <div style=""max-width: 800px; margin: auto; text-align: left;"">
      <h2>Part 1: Vocabulary Test</h2>
      <p>You will now complete the first part of the study: a short English vocabulary test.</p>
      <p>This test is called <strong>LexTALE</strong> and helps us get a general sense of your English proficiency.</p>
      <p style=""margin-top: 2em;"">Press any key to continue.</p>
    </div>
  "," ","html-keyboard-response","3","2.1.0","25401","F=YES, J=NO","msf8prb81h","1","59","83","35","","","","","","","","","","","","","","","",""
"13198","
    <div style=""max-width: 800px; margin: auto; text-align: left;"">
      <h2>LexTALE Vocabulary Test</h2>
      <p>In this test, you will see a series of letter strings—one at a time.</p>
      <p>Your task is to decide whether each string is a real English word.</p>
      <p><strong>Key responses:</strong></p>
      <ul>
        <li><strong>F</strong> = YES (real English word)</li>
        <li><strong>J</strong> = NO (not a real English word)</li>
      </ul>
      <p>There is no time limit, but please try to be accurate.</p>
      <p style=""margin-top: 2em;"">Press any key to begin.</p>
    </div>
  "," ","html-keyboard-response","4","2.1.0","38600","F=YES, J=NO","msf8prb81h","1","59","83","35","","","","","","","","","","","","","","","",""
"2585","
  <p style=""font-size: 40px;"">platery</p>
  <p style=""font-size: 16px;"">F = YES &nbsp;&nbsp;&nbsp; J = NO</p>
","f","html-keyboard-response","5","2.1.0","41186","F=YES, J=NO","msf8prb81h","1","59","83","35","","","","","","lextale","false","true","","","","","","","",""
"1297","
  <p style=""font-size: 40px;"">denial</p>
  <p style=""font-size: 16px;"">F = YES &nbsp;&nbsp;&nbsp; J = NO</p>
","f","html-keyboard-response","6","2.1.0","42484","F=YES, J=NO","msf8prb81h","1","59","83","35","","","","","","lextale","true","true","","","","","","","",""
"2607","
  <p style=""font-size: 40px;"">marrit</p>
  <p style=""font-size: 16px;"">F = YES &nbsp;&nbsp;&nbsp; J = NO</p>
","j","html-keyboard-response","7","2.1.0","45094","F=YES, J=NO","msf8prb81h","1","59","83","35","","","","","","lextale","false","true","","","","","","","",""
"999","
  <p style=""font-size: 40px;"">bottle</p>
  <p style=""font-size: 16px;"">F = YES &nbsp;&nbsp;&nbsp; J = NO</p>
","f","html-keyboard-response","8","2.1.0","46095","F=YES, J=NO","msf8prb81h","1","59","83","35","","","","","","lextale","true","false","","","","","","","",""
"3085","
  <p style=""font-size: 40px;"">birst</p>
  <p style=""font-size: 16px;"">F = YES &nbsp;&nbsp;&nbsp; J = NO</p>
","j","html-keyboard-response","9","2.1.0","49181","F=YES, J=NO","msf8prb81h","1","59","83","35","","","","","","lextale","false","false","","","","","","","",""
"775","
  <p style=""font-size: 40px;"">envy</p>
  <p style=""font-size: 16px;"">F = YES &nbsp;&nbsp;&nbsp; J = NO</p>
","f","html-keyboard-response","10","2.1.0","49957","F=YES, J=NO","msf8prb81h","1","59","83","35","","","","","","lextale","true","false","","","","","","","",""
"890","
  <p style=""font-size: 40px;"">brang</p>
  <p style=""font-size: 16px;"">F = YES &nbsp;&nbsp;&nbsp; J = NO</p>
","f","html-keyboard-response","11","2.1.0","50850","F=YES, J=NO","msf8prb81h","1","59","83","35","","","","","","lextale","false","false","","","","","","","",""
"854","
  <p style=""font-size: 40px;"">huge</p>
  <p style=""font-size: 16px;"">F = YES &nbsp;&nbsp;&nbsp; J = NO</p>
","f","html-keyboard-response","12","2.1.0","51705","F=YES, J=NO","msf8prb81h","1","59","83","35","","","","","","lextale","true","false","","","","","","","",""
"3829","
  <p style=""font-size: 40px;"">plove</p>
  <p style=""font-size: 16px;"">F = YES &nbsp;&nbsp;&nbsp; J = NO</p>
","j","html-keyboard-response","13","2.1.0","55535","F=YES, J=NO","msf8prb81h","1","59","83","35","","","","","","lextale","false","false","","","","","","","",""
"940","
  <p style=""font-size: 40px;"">border</p>
  <p style=""font-size: 16px;"">F = YES &nbsp;&nbsp;&nbsp; J = NO</p>
","f","html-keyboard-response","14","2.1.0","56476","F=YES, J=NO","msf8prb81h","1","59","83","35","","","","","","lextale","true","false","","","","","","","",""
"1678","
  <p style=""font-size: 40px;"">flimsy</p>
  <p style=""font-size: 16px;"">F = YES &nbsp;&nbsp;&nbsp; J = NO</p>
","f","html-keyboard-response","15","2.1.0","58155","F=YES, J=NO","msf8prb81h","1","59","83","35","","","","","","lextale","true","false","","","","","","","",""
"744","
  <p style=""font-size: 40px;"">drain</p>
  <p style=""font-size: 16px;"">F = YES &nbsp;&nbsp;&nbsp; J = NO</p>
","f","html-keyboard-response","16","2.1.0","58900","F=YES, J=NO","msf8prb81h","1","59","83","35","","","","","","lextale","true","false","","","","","","","",""
"859","
  <p style=""font-size: 40px;"">twindle</p>
  <p style=""font-size: 16px;"">F = YES &nbsp;&nbsp;&nbsp; J = NO</p>
","f","html-keyboard-response","17","2.1.0","59761","F=YES, J=NO","msf8prb81h","1","59","83","35","","","","","","lextale","false","false","","","","","","","",""
"720","
  <p style=""font-size: 40px;"">propose</p>
  <p style=""font-size: 16px;"">F = YES &nbsp;&nbsp;&nbsp; J = NO</p>
","f","html-keyboard-response","18","2.1.0","60482","F=YES, J=NO","msf8prb81h","1","59","83","35","","","","","","lextale","true","false","","","","","","","",""
"1041","
  <p style=""font-size: 40px;"">forlay</p>
  <p style=""font-size: 16px;"">F = YES &nbsp;&nbsp;&nbsp; J = NO</p>
","j","html-keyboard-response","19","2.1.0","61524","F=YES, J=NO","msf8prb81h","1","59","83","35","","","","","","lextale","false","false","","","","","","","",""
"725","
  <p style=""font-size: 40px;"">tenant</p>
  <p style=""font-size: 16px;"">F = YES &nbsp;&nbsp;&nbsp; J = NO</p>
","f","html-keyboard-response","20","2.1.0","62250","F=YES, J=NO","msf8prb81h","1","59","83","35","","","","","","lextale","true","false","","","","","","","",""
"779","
  <p style=""font-size: 40px;"">strain</p>
  <p style=""font-size: 16px;"">F = YES &nbsp;&nbsp;&nbsp; J = NO</p>
","f","html-keyboard-response","21","2.1.0","63031","F=YES, J=NO","msf8prb81h","1","59","83","35","","","","","","lextale","true","false","","","","","","","",""
"1376","
  <p style=""font-size: 40px;"">holster</p>
  <p style=""font-size: 16px;"">F = YES &nbsp;&nbsp;&nbsp; J = NO</p>
","f","html-keyboard-response","22","2.1.0","64408","F=YES, J=NO","msf8prb81h","1","59","83","35","","","","","","lextale","true","false","","","","","","","",""
"923","
  <p style=""font-size: 40px;"">hinder</p>
  <p style=""font-size: 16px;"">F = YES &nbsp;&nbsp;&nbsp; J = NO</p>
","f","html-keyboard-response","23","2.1.0","65332","F=YES, J=NO","msf8prb81h","1","59","83","35","","","","","","lextale","true","false","","","","","","","",""
"590","
  <p style=""font-size: 40px;"">swindle</p>
  <p style=""font-size: 16px;"">F = YES &nbsp;&nbsp;&nbsp; J = NO</p>
","f","html-keyboard-response","24","2.1.0","65924","F=YES, J=NO","msf8prb81h","1","59","83","35","","","","","","lextale","true","false","","","","","","","",""
"1370","
  <p style=""font-size: 40px;"">nuder</p>
  <p style=""font-size: 16px;"">F = YES &nbsp;&nbsp;&nbsp; J = NO</p>
","j","html-keyboard-response","25","2.1.0","67295","F=YES, J=NO","msf8prb81h","1","59","83","35","","","","","","lextale","false","false","","","","","","","",""
"716","
  <p style=""font-size: 40px;"">pillow</p>
  <p style=""font-size: 16px;"">F = YES &nbsp;&nbsp;&nbsp; J = NO</p>
","f","html-keyboard-response","26","2.1.0","68011","F=YES, J=NO","msf8prb81h","1","59","83","35","","","","","","lextale","true","false","","","","","","","",""
"1330","
  <p style=""font-size: 40px;"">shumble</p>
  <p style=""font-size: 16px;"">F = YES &nbsp;&nbsp;&nbsp; J = NO</p>
","f","html-keyboard-response","27","2.1.0","69343","F=YES, J=NO","msf8prb81h","1","59","83","35","","","","","","lextale","false","false","","","","","","","",""
"935","
  <p style=""font-size: 40px;"">thirst</p>
  <p style=""font-size: 16px;"">F = YES &nbsp;&nbsp;&nbsp; J = NO</p>
","f","html-keyboard-response","28","2.1.0","70279","F=YES, J=NO","msf8prb81h","1","59","83","35","","","","","","lextale","true","false","","","","","","","",""
"1251","
  <p style=""font-size: 40px;"">unsail</p>
  <p style=""font-size: 16px;"">F = YES &nbsp;&nbsp;&nbsp; J = NO</p>
","f","html-keyboard-response","29","2.1.0","71530","F=YES, J=NO","msf8prb81h","1","59","83","35","","","","","","lextale","false","false","","","","","","","",""
"827","
  <p style=""font-size: 40px;"">rifle</p>
  <p style=""font-size: 16px;"">F = YES &nbsp;&nbsp;&nbsp; J = NO</p>
","f","html-keyboard-response","30","2.1.0","72359","F=YES, J=NO","msf8prb81h","1","59","83","35","","","","","","lextale","true","false","","","","","","","",""
"1191","
  <p style=""font-size: 40px;"">mush</p>
  <p style=""font-size: 16px;"">F = YES &nbsp;&nbsp;&nbsp; J = NO</p>
","f","html-keyboard-response","31","2.1.0","73551","F=YES, J=NO","msf8prb81h","1","59","83","35","","","","","","lextale","false","false","","","","","","","",""
"993","
  <p style=""font-size: 40px;"">drench</p>
  <p style=""font-size: 16px;"">F = YES &nbsp;&nbsp;&nbsp; J = NO</p>
","f","html-keyboard-response","32","2.1.0","74546","F=YES, J=NO","msf8prb81h","1","59","83","35","","","","","","lextale","true","false","","","","","","","",""
"1129","
  <p style=""font-size: 40px;"">snirt</p>
  <p style=""font-size: 16px;"">F = YES &nbsp;&nbsp;&nbsp; J = NO</p>
","j","html-keyboard-response","33","2.1.0","75677","F=YES, J=NO","msf8prb81h","1","59","83","35","","","","","","lextale","false","false","","","","","","","",""
"851","
  <p style=""font-size: 40px;"">bitter</p>
  <p style=""font-size: 16px;"">F = YES &nbsp;&nbsp;&nbsp; J = NO</p>
","f","html-keyboard-response","34","2.1.0","76529","F=YES, J=NO","msf8prb81h","1","59","83","35","","","","","","lextale","true","false","","","","","","","",""
"2542","
  <p style=""font-size: 40px;"">pliff</p>
  <p style=""font-size: 16px;"">F = YES &nbsp;&nbsp;&nbsp; J = NO</p>
","j","html-keyboard-response","35","2.1.0","79072","F=YES, J=NO","msf8prb81h","1","59","83","35","","","","","","lextale","false","false","","","","","","","",""
"855","
  <p style=""font-size: 40px;"">tablet</p>
  <p style=""font-size: 16px;"">F = YES &nbsp;&nbsp;&nbsp; J = NO</p>
","f","html-keyboard-response","36","2.1.0","79928","F=YES, J=NO","msf8prb81h","1","59","83","35","","","","","","lextale","true","false","","","","","","","",""
"2667","
  <p style=""font-size: 40px;"">glimmer</p>
  <p style=""font-size: 16px;"">F = YES &nbsp;&nbsp;&nbsp; J = NO</p>
","f","html-keyboard-response","37","2.1.0","82597","F=YES, J=NO","msf8prb81h","1","59","83","35","","","","","","lextale","true","false","","","","","","","",""
"689","
  <p style=""font-size: 40px;"">slink</p>
  <p style=""font-size: 16px;"">F = YES &nbsp;&nbsp;&nbsp; J = NO</p>
","f","html-keyboard-response","38","2.1.0","83287","F=YES, J=NO","msf8prb81h","1","59","83","35","","","","","","lextale","true","false","","","","","","","",""
"890","
  <p style=""font-size: 40px;"">clever</p>
  <p style=""font-size: 16px;"">F = YES &nbsp;&nbsp;&nbsp; J = NO</p>
","f","html-keyboard-response","39","2.1.0","84178","F=YES, J=NO","msf8prb81h","1","59","83","35","","","","","","lextale","true","false","","","","","","","",""
"815","
  <p style=""font-size: 40px;"">grum</p>
  <p style=""font-size: 16px;"">F = YES &nbsp;&nbsp;&nbsp; J = NO</p>
","f","html-keyboard-response","40","2.1.0","84993","F=YES, J=NO","msf8prb81h","1","59","83","35","","","","","","lextale","false","false","","","","","","","",""
"1306","
  <p style=""font-size: 40px;"">string</p>
  <p style=""font-size: 16px;"">F = YES &nbsp;&nbsp;&nbsp; J = NO</p>
","f","html-keyboard-response","41","2.1.0","86300","F=YES, J=NO","msf8prb81h","1","59","83","35","","","","","","lextale","true","false","","","","","","","",""
"1198","
  <p style=""font-size: 40px;"">plim</p>
  <p style=""font-size: 16px;"">F = YES &nbsp;&nbsp;&nbsp; J = NO</p>
","f","html-keyboard-response","42","2.1.0","87499","F=YES, J=NO","msf8prb81h","1","59","83","35","","","","","","lextale","false","false","","","","","","","",""
"635","
  <p style=""font-size: 40px;"">cable</p>
  <p style=""font-size: 16px;"">F = YES &nbsp;&nbsp;&nbsp; J = NO</p>
","f","html-keyboard-response","43","2.1.0","88135","F=YES, J=NO","msf8prb81h","1","59","83","35","","","","","","lextale","true","false","","","","","","","",""
"684","
  <p style=""font-size: 40px;"">shrivel</p>
  <p style=""font-size: 16px;"">F = YES &nbsp;&nbsp;&nbsp; J = NO</p>
","f","html-keyboard-response","44","2.1.0","88820","F=YES, J=NO","msf8prb81h","1","59","83","35","","","","","","lextale","true","false","","","","","","","",""
"999","
  <p style=""font-size: 40px;"">tarnish</p>
  <p style=""font-size: 16px;"">F = YES &nbsp;&nbsp;&nbsp; J = NO</p>
","f","html-keyboard-response","45","2.1.0","89821","F=YES, J=NO","msf8prb81h","1","59","83","35","","","","","","lextale","true","false","","","","","","","",""
"765","
  <p style=""font-size: 40px;"">blim</p>
  <p style=""font-size: 16px;"">F = YES &nbsp;&nbsp;&nbsp; J = NO</p>
","f","html-keyboard-response","46","2.1.0","90587","F=YES, J=NO","msf8prb81h","1","59","83","35","","","","","","lextale","false","false","","","","","","","",""
"1736","
  <p style=""font-size: 40px;"">stifle</p>
  <p style=""font-size: 16px;"">F = YES &nbsp;&nbsp;&nbsp; J = NO</p>
","f","html-keyboard-response","47","2.1.0","92323","F=YES, J=NO","msf8prb81h","1","59","83","35","","","","","","lextale","true","false","","","","","","","",""
"882","
  <p style=""font-size: 40px;"">bint</p>
  <p style=""font-size: 16px;"">F = YES &nbsp;&nbsp;&nbsp; J = NO</p>
","f","html-keyboard-response","48","2.1.0","93206","F=YES, J=NO","msf8prb81h","1","59","83","35","","","","","","lextale","false","false","","","","","","","",""
"638","
  <p style=""font-size: 40px;"">purple</p>
  <p style=""font-size: 16px;"">F = YES &nbsp;&nbsp;&nbsp; J = NO</p>
","f","html-keyboard-response","49","2.1.0","93845","F=YES, J=NO","msf8prb81h","1","59","83","35","","","","","","lextale","true","false","","","","","","","",""
"1121","
  <p style=""font-size: 40px;"">wriggle</p>
  <p style=""font-size: 16px;"">F = YES &nbsp;&nbsp;&nbsp; J = NO</p>
","j","html-keyboard-response","50","2.1.0","94968","F=YES, J=NO","msf8prb81h","1","59","83","35","","","","","","lextale","true","false","","","","","","","",""
"790","
  <p style=""font-size: 40px;"">mangle</p>
  <p style=""font-size: 16px;"">F = YES &nbsp;&nbsp;&nbsp; J = NO</p>
","f","html-keyboard-response","51","2.1.0","95759","F=YES, J=NO","msf8prb81h","1","59","83","35","","","","","","lextale","true","false","","","","","","","",""
"640","
  <p style=""font-size: 40px;"">shramp</p>
  <p style=""font-size: 16px;"">F = YES &nbsp;&nbsp;&nbsp; J = NO</p>
","f","html-keyboard-response","52","2.1.0","96400","F=YES, J=NO","msf8prb81h","1","59","83","35","","","","","","lextale","false","false","","","","","","","",""
"1145","
  <p style=""font-size: 40px;"">flirt</p>
  <p style=""font-size: 16px;"">F = YES &nbsp;&nbsp;&nbsp; J = NO</p>
","f","html-keyboard-response","53","2.1.0","97546","F=YES, J=NO","msf8prb81h","1","59","83","35","","","","","","lextale","true","false","","","","","","","",""
"2768","
  <p style=""font-size: 40px;"">frip</p>
  <p style=""font-size: 16px;"">F = YES &nbsp;&nbsp;&nbsp; J = NO</p>
","f","html-keyboard-response","54","2.1.0","100315","F=YES, J=NO","msf8prb81h","1","59","83","35","","","","","","lextale","false","false","","","","","","","",""
"765","
  <p style=""font-size: 40px;"">tangle</p>
  <p style=""font-size: 16px;"">F = YES &nbsp;&nbsp;&nbsp; J = NO</p>
","f","html-keyboard-response","55","2.1.0","101081","F=YES, J=NO","msf8prb81h","1","59","83","35","","","","","","lextale","true","false","","","","","","","",""
"820","
  <p style=""font-size: 40px;"">crumble</p>
  <p style=""font-size: 16px;"">F = YES &nbsp;&nbsp;&nbsp; J = NO</p>
","f","html-keyboard-response","56","2.1.0","101903","F=YES, J=NO","msf8prb81h","1","59","83","35","","","","","","lextale","true","false","","","","","","","",""
"599","
  <p style=""font-size: 40px;"">wrinkle</p>
  <p style=""font-size: 16px;"">F = YES &nbsp;&nbsp;&nbsp; J = NO</p>
","f","html-keyboard-response","57","2.1.0","102503","F=YES, J=NO","msf8prb81h","1","59","83","35","","","","","","lextale","true","false","","","","","","","",""
"794","
  <p style=""font-size: 40px;"">slumb</p>
  <p style=""font-size: 16px;"">F = YES &nbsp;&nbsp;&nbsp; J = NO</p>
","f","html-keyboard-response","58","2.1.0","103298","F=YES, J=NO","msf8prb81h","1","59","83","35","","","","","","lextale","false","false","","","","","","","",""
"534","
  <p style=""font-size: 40px;"">jungle</p>
  <p style=""font-size: 16px;"">F = YES &nbsp;&nbsp;&nbsp; J = NO</p>
","f","html-keyboard-response","59","2.1.0","103834","F=YES, J=NO","msf8prb81h","1","59","83","35","","","","","","lextale","true","false","","","","","","","",""
"1227","
  <p style=""font-size: 40px;"">frolick</p>
  <p style=""font-size: 16px;"">F = YES &nbsp;&nbsp;&nbsp; J = NO</p>
","j","html-keyboard-response","60","2.1.0","105062","F=YES, J=NO","msf8prb81h","1","59","83","35","","","","","","lextale","false","false","","","","","","","",""
"4332","
      <h2>LexTALE Test Completed</h2>
      <p>Your LexTALE vocabulary score is: <strong>59%</strong></p>
      <p>Press any key to continue.</p>
    "," ","html-keyboard-response","61","2.1.0","109397","F=YES, J=NO","msf8prb81h","1","59","83","35","","","","","","","","","","","","","","","",""
"4404","
    <div style=""max-width: 800px; margin: auto; text-align: left;"">
      <h2>Break Time</h2>
      <p>You have completed the first part of the study.</p>
      <p>You may take a short <strong>30-second break</strong> before continuing.</p>
      <p>When you’re ready, press any key to continue to the final task.</p>
    </div>
  "," ","html-keyboard-response","62","2.1.0","113803","F=YES, J=NO","msf8prb81h","1","59","83","35","","","","","","","","","","","","","","","",""
"10759","
    <div style=""max-width: 800px; margin: auto; text-align: left;"">
      <h2>Part 2: Lexical Decision Task</h2>
      <p>You will now begin the second part of the study.</p>
      <p>Each trial will follow this sequence:</p>
      <ul>
        <li>A fixation cross (+) appears at the center of the screen.</li>
        <li>You will hear a short beep followed by a spoken word.</li>
        <li>A written word will appear briefly on the screen.</li>
      </ul>
      <p>Your task is to judge whether the <strong>written word</strong> is a real English word.</p>
      <p style=""margin-top: 1em;""><strong>Key responses:</strong></p>
      <ul>
        <li><strong>F</strong> = YES (real English word)</li>
        <li><strong>J</strong> = NO (not a real English word)</li>
      </ul>
      <p>Please respond as quickly and accurately as you can.</p>
      <p style=""margin-top: 2em;"">Press any key to continue.</p>
    </div>
  "," ","html-keyboard-response","63","2.1.0","124563","F=YES, J=NO","msf8prb81h","1","59","83","35","","","","","","","","","","","","","","","",""
"75912","
    <div style=""max-width: 800px; margin: auto; text-align: left;"">
      <h2>Before You Begin</h2>
      <p>Make sure your sound is turned on.</p>
      <p>You will hear audio during each trial, but your decision should be based only on the <strong>written word</strong> you see on the screen.</p>
      <p><strong>Reminder:</strong></p>
      <ul>
        <li><strong>F</strong> = YES (real English word)</li>
        <li><strong>J</strong> = NO (not a real English word)</li>
      </ul>
      <p style=""margin-top: 2em;"">Press any key when you are ready to begin.</p>
    </div>
  "," ","html-keyboard-response","64","2.1.0","200477","F=YES, J=NO","msf8prb81h","1","59","83","35","","","","","","","","","","","","","","","",""
"20704","
    <div style=""max-width: 800px; margin: auto; text-align: left;"">
      <h2>Part 2: Practice Trials</h2>
      <p>You will now complete a few <strong>practice trials</strong> to get familiar with the task.</p>
      <p>These trials are <strong>not scored</strong> and are only to help you get used to the format.</p>
      <p style=""margin-top: 2em;"">Press any key to begin.</p>
    </div>
  "," ","html-keyboard-response","65","2.1.0","221182","F=YES, J=NO","msf8prb81h","1","59","83","35","","","","","","","","","","","","","","","",""
"120","<p>Starting practice block 1 of 2. Press any key to continue.</p>"," ","html-keyboard-response","66","2.1.0","221303","F=YES, J=NO","msf8prb81h","1","59","83","35","","","","","","","","","","","","","","","",""
"null","<p style=""font-size: 50px;"">+</p>","null","html-keyboard-response","67","2.1.0","221621","F=YES, J=NO","msf8prb81h","1","59","83","35","","","","","","","","","","","","","","","",""
"null","audio/beep-329314.mp3","null","audio-keyboard-response","68","2.1.0","224271","F=YES, J=NO","msf8prb81h","1","59","83","35","","","","","","","","","","","","","","","",""
"null","audio/sand.wav","null","audio-keyboard-response","69","2.1.0","225180","F=YES, J=NO","msf8prb81h","1","59","83","35","","","","","","","","","","","","","","","",""
"null","
          <p id=""word"" style=""font-size: 40px;"">proted</p>
          <p style=""font-size: 16px;"">F = YES &nbsp;&nbsp;&nbsp; J = NO</p>
        ","null","html-keyboard-response","70","2.1.0","226694","F=YES, J=NO","msf8prb81h","1","59","83","35","","","","","","","","","proted","sand","pseudoword","pseudoword","j","false","",""
"null","<p style=""font-size: 50px;"">+</p>","null","html-keyboard-response","71","2.1.0","226995","F=YES, J=NO","msf8prb81h","1","59","83","35","","","","","","","","","","","","","","","",""
"null","audio/beep-329314.mp3","null","audio-keyboard-response","72","2.1.0","228870","F=YES, J=NO","msf8prb81h","1","59","83","35","","","","","","","","","","","","","","","",""
"null","audio/floor.wav","null","audio-keyboard-response","73","2.1.0","229700","F=YES, J=NO","msf8prb81h","1","59","83","35","","","","","","","","","","","","","","","",""
"661","
          <p id=""word"" style=""font-size: 40px;"">mop</p>
          <p style=""font-size: 16px;"">F = YES &nbsp;&nbsp;&nbsp; J = NO</p>
        ","j","html-keyboard-response","74","2.1.0","230362","F=YES, J=NO","msf8prb81h","1","59","83","35","","","","","","","","","mop","floor","filler","filler","f","false","",""
"null","<p style=""font-size: 50px;"">+</p>","null","html-keyboard-response","75","2.1.0","230664","F=YES, J=NO","msf8prb81h","1","59","83","35","","","","","","","","","","","","","","","",""
"null","audio/beep-329314.mp3","null","audio-keyboard-response","76","2.1.0","232531","F=YES, J=NO","msf8prb81h","1","59","83","35","","","","","","","","","","","","","","","",""
"null","audio/noise1.wav","null","audio-keyboard-response","77","2.1.0","233260","F=YES, J=NO","msf8prb81h","1","59","83","35","","","","","","","","","","","","","","","",""
"757","
          <p id=""word"" style=""font-size: 40px;"">slintered</p>
          <p style=""font-size: 16px;"">F = YES &nbsp;&nbsp;&nbsp; J = NO</p>
        ","j","html-keyboard-response","78","2.1.0","234018","F=YES, J=NO","msf8prb81h","1","59","83","35","","","","","","","","","slintered","noise1","pseudoword","pseudoword","j","true","",""
"null","<p style=""font-size: 50px;"">+</p>","null","html-keyboard-response","79","2.1.0","234320","F=YES, J=NO","msf8prb81h","1","59","83","35","","","","","","","","","","","","","","","",""
"null","audio/beep-329314.mp3","null","audio-keyboard-response","80","2.1.0","236191","F=YES, J=NO","msf8prb81h","1","59","83","35","","","","","","","","","","","","","","","",""
"null","audio/ankle1.wav","null","audio-keyboard-response","81","2.1.0","236820","F=YES, J=NO","msf8prb81h","1","59","83","35","","","","","","","","","","","","","","","",""
"578","
          <p id=""word"" style=""font-size: 40px;"">kick</p>
          <p style=""font-size: 16px;"">F = YES &nbsp;&nbsp;&nbsp; J = NO</p>
        ","j","html-keyboard-response","82","2.1.0","237399","F=YES, J=NO","msf8prb81h","1","59","83","35","","","","","","","","","kick","ankle1","filler","filler","f","false","",""
"null","<p style=""font-size: 50px;"">+</p>","null","html-keyboard-response","83","2.1.0","237702","F=YES, J=NO","msf8prb81h","1","59","83","35","","","","","","","","","","","","","","","",""
"null","audio/beep-329314.mp3","null","audio-keyboard-response","84","2.1.0","239571","F=YES, J=NO","msf8prb81h","1","59","83","35","","","","","","","","","","","","","","","",""
"null","audio/cancer1.wav","null","audio-keyboard-response","85","2.1.0","240321","F=YES, J=NO","msf8prb81h","1","59","83","35","","","","","","","","","","","","","","","",""
"null","
          <p id=""word"" style=""font-size: 40px;"">draw</p>
          <p style=""font-size: 16px;"">F = YES &nbsp;&nbsp;&nbsp; J = NO</p>
        ","null","html-keyboard-response","86","2.1.0","241824","F=YES, J=NO","msf8prb81h","1","59","83","35","","","","","","","","","draw","cancer1","filler","filler","f","false","",""
"null","<p style=""font-size: 50px;"">+</p>","null","html-keyboard-response","87","2.1.0","242137","F=YES, J=NO","msf8prb81h","1","59","83","35","","","","","","","","","","","","","","","",""
"null","audio/beep-329314.mp3","null","audio-keyboard-response","88","2.1.0","244011","F=YES, J=NO","msf8prb81h","1","59","83","35","","","","","","","","","","","","","","","",""
"null","audio/mile1.wav","null","audio-keyboard-response","89","2.1.0","244740","F=YES, J=NO","msf8prb81h","1","59","83","35","","","","","","","","","","","","","","","",""
"712","
          <p id=""word"" style=""font-size: 40px;"">writch</p>
          <p style=""font-size: 16px;"">F = YES &nbsp;&nbsp;&nbsp; J = NO</p>
        ","f","html-keyboard-response","90","2.1.0","245453","F=YES, J=NO","msf8prb81h","1","59","83","35","","","","","","","","","writch","mile1","pseudoword","pseudoword","j","false","",""
"null","<p style=""font-size: 50px;"">+</p>","null","html-keyboard-response","91","2.1.0","245769","F=YES, J=NO","msf8prb81h","1","59","83","35","","","","","","","","","","","","","","","",""
"null","audio/beep-329314.mp3","null","audio-keyboard-response","92","2.1.0","247651","F=YES, J=NO","msf8prb81h","1","59","83","35","","","","","","","","","","","","","","","",""
"null","audio/cave1.wav","null","audio-keyboard-response","93","2.1.0","248300","F=YES, J=NO","msf8prb81h","1","59","83","35","","","","","","","","","","","","","","","",""
"613","
          <p id=""word"" style=""font-size: 40px;"">blacket</p>
          <p style=""font-size: 16px;"">F = YES &nbsp;&nbsp;&nbsp; J = NO</p>
        ","f","html-keyboard-response","94","2.1.0","248914","F=YES, J=NO","msf8prb81h","1","59","83","35","","","","","","","","","blacket","cave1","pseudoword","pseudoword","j","false","",""
"null","<p style=""font-size: 50px;"">+</p>","null","html-keyboard-response","95","2.1.0","249220","F=YES, J=NO","msf8prb81h","1","59","83","35","","","","","","","","","","","","","","","",""
"null","audio/beep-329314.mp3","null","audio-keyboard-response","96","2.1.0","251091","F=YES, J=NO","msf8prb81h","1","59","83","35","","","","","","","","","","","","","","","",""
"null","audio/brain.wav","null","audio-keyboard-response","97","2.1.0","251681","F=YES, J=NO","msf8prb81h","1","59","83","35","","","","","","","","","","","","","","","",""
"779","
          <p id=""word"" style=""font-size: 40px;"">throw</p>
          <p style=""font-size: 16px;"">F = YES &nbsp;&nbsp;&nbsp; J = NO</p>
        ","f","html-keyboard-response","98","2.1.0","252461","F=YES, J=NO","msf8prb81h","1","59","83","35","","","","","","","","","throw","brain","filler","filler","f","true","",""
"null","<p style=""font-size: 50px;"">+</p>","null","html-keyboard-response","99","2.1.0","252773","F=YES, J=NO","msf8prb81h","1","59","83","35","","","","","","","","","","","","","","","",""
"null","audio/beep-329314.mp3","null","audio-keyboard-response","100","2.1.0","254651","F=YES, J=NO","msf8prb81h","1","59","83","35","","","","","","","","","","","","","","","",""
"null","audio/tax1.wav","null","audio-keyboard-response","101","2.1.0","255441","F=YES, J=NO","msf8prb81h","1","59","83","35","","","","","","","","","","","","","","","",""
"714","
          <p id=""word"" style=""font-size: 40px;"">snate</p>
          <p style=""font-size: 16px;"">F = YES &nbsp;&nbsp;&nbsp; J = NO</p>
        ","j","html-keyboard-response","102","2.1.0","256156","F=YES, J=NO","msf8prb81h","1","59","83","35","","","","","","","","","snate","tax1","pseudoword","pseudoword","j","true","",""
"null","<p style=""font-size: 50px;"">+</p>","null","html-keyboard-response","103","2.1.0","256473","F=YES, J=NO","msf8prb81h","1","59","83","35","","","","","","","","","","","","","","","",""
"null","audio/beep-329314.mp3","null","audio-keyboard-response","104","2.1.0","258351","F=YES, J=NO","msf8prb81h","1","59","83","35","","","","","","","","","","","","","","","",""
"null","audio/arm.wav","null","audio-keyboard-response","105","2.1.0","259000","F=YES, J=NO","msf8prb81h","1","59","83","35","","","","","","","","","","","","","","","",""
"576","
          <p id=""word"" style=""font-size: 40px;"">fold</p>
          <p style=""font-size: 16px;"">F = YES &nbsp;&nbsp;&nbsp; J = NO</p>
        ","f","html-keyboard-response","106","2.1.0","259578","F=YES, J=NO","msf8prb81h","1","59","83","35","","","","","","","","","fold","arm","filler","filler","f","true","",""
"null","<p style=""font-size: 50px;"">+</p>","null","html-keyboard-response","107","2.1.0","259881","F=YES, J=NO","msf8prb81h","1","59","83","35","","","","","","","","","","","","","","","",""
"null","audio/beep-329314.mp3","null","audio-keyboard-response","108","2.1.0","261750","F=YES, J=NO","msf8prb81h","1","59","83","35","","","","","","","","","","","","","","","",""
"null","audio/hotel1.wav","null","audio-keyboard-response","109","2.1.0","262521","F=YES, J=NO","msf8prb81h","1","59","83","35","","","","","","","","","","","","","","","",""
"297","
          <p id=""word"" style=""font-size: 40px;"">flanter</p>
          <p style=""font-size: 16px;"">F = YES &nbsp;&nbsp;&nbsp; J = NO</p>
        ","f","html-keyboard-response","110","2.1.0","262819","F=YES, J=NO","msf8prb81h","1","59","83","35","","","","","","","","","flanter","hotel1","pseudoword","pseudoword","j","false","",""
"null","<p style=""font-size: 50px;"">+</p>","null","html-keyboard-response","111","2.1.0","263121","F=YES, J=NO","msf8prb81h","1","59","83","35","","","","","","","","","","","","","","","",""
"null","audio/beep-329314.mp3","null","audio-keyboard-response","112","2.1.0","264991","F=YES, J=NO","msf8prb81h","1","59","83","35","","","","","","","","","","","","","","","",""
"null","audio/relief.wav","null","audio-keyboard-response","113","2.1.0","265801","F=YES, J=NO","msf8prb81h","1","59","83","35","","","","","","","","","","","","","","","",""
"629","
          <p id=""word"" style=""font-size: 40px;"">grigg</p>
          <p style=""font-size: 16px;"">F = YES &nbsp;&nbsp;&nbsp; J = NO</p>
        ","j","html-keyboard-response","114","2.1.0","266432","F=YES, J=NO","msf8prb81h","1","59","83","35","","","","","","","","","grigg","relief","pseudoword","pseudoword","j","true","",""
"2387","<p>Starting practice block 2 of 2. Press any key to continue.</p>"," ","html-keyboard-response","115","2.1.0","268820","F=YES, J=NO","msf8prb81h","1","59","83","35","","","","","","","","","","","","","","","",""
"null","<p style=""font-size: 50px;"">+</p>","null","html-keyboard-response","116","2.1.0","269134","F=YES, J=NO","msf8prb81h","1","59","83","35","","","","","","","","","","","","","","","",""
"null","audio/beep-329314.mp3","null","audio-keyboard-response","117","2.1.0","271011","F=YES, J=NO","msf8prb81h","1","59","83","35","","","","","","","","","","","","","","","",""
"null","audio/foe1.wav","null","audio-keyboard-response","118","2.1.0","271701","F=YES, J=NO","msf8prb81h","1","59","83","35","","","","","","","","","","","","","","","",""
"844","
          <p id=""word"" style=""font-size: 40px;"">creth</p>
          <p style=""font-size: 16px;"">F = YES &nbsp;&nbsp;&nbsp; J = NO</p>
        ","j","html-keyboard-response","119","2.1.0","272546","F=YES, J=NO","msf8prb81h","1","59","83","35","","","","","","","","","creth","foe1","pseudoword","pseudoword","j","true","",""
"null","<p style=""font-size: 50px;"">+</p>","null","html-keyboard-response","120","2.1.0","272856","F=YES, J=NO","msf8prb81h","1","59","83","35","","","","","","","","","","","","","","","",""
"null","audio/beep-329314.mp3","null","audio-keyboard-response","121","2.1.0","274731","F=YES, J=NO","msf8prb81h","1","59","83","35","","","","","","","","","","","","","","","",""
"null","audio/smirk1.wav","null","audio-keyboard-response","122","2.1.0","275740","F=YES, J=NO","msf8prb81h","1","59","83","35","","","","","","","","","","","","","","","",""
"782","
          <p id=""word"" style=""font-size: 40px;"">snopt</p>
          <p style=""font-size: 16px;"">F = YES &nbsp;&nbsp;&nbsp; J = NO</p>
        ","j","html-keyboard-response","123","2.1.0","276523","F=YES, J=NO","msf8prb81h","1","59","83","35","","","","","","","","","snopt","smirk1","pseudoword","pseudoword","j","true","",""
"null","<p style=""font-size: 50px;"">+</p>","null","html-keyboard-response","124","2.1.0","276825","F=YES, J=NO","msf8prb81h","1","59","83","35","","","","","","","","","","","","","","","",""
"null","audio/beep-329314.mp3","null","audio-keyboard-response","125","2.1.0","278691","F=YES, J=NO","msf8prb81h","1","59","83","35","","","","","","","","","","","","","","","",""
"null","audio/butter1.wav","null","audio-keyboard-response","126","2.1.0","279220","F=YES, J=NO","msf8prb81h","1","59","83","35","","","","","","","","","","","","","","","",""
"623","
          <p id=""word"" style=""font-size: 40px;"">chew</p>
          <p style=""font-size: 16px;"">F = YES &nbsp;&nbsp;&nbsp; J = NO</p>
        ","f","html-keyboard-response","127","2.1.0","279845","F=YES, J=NO","msf8prb81h","1","59","83","35","","","","","","","","","chew","butter1","filler","filler","f","true","",""
"null","<p style=""font-size: 50px;"">+</p>","null","html-keyboard-response","128","2.1.0","280152","F=YES, J=NO","msf8prb81h","1","59","83","35","","","","","","","","","","","","","","","",""
"null","audio/beep-329314.mp3","null","audio-keyboard-response","129","2.1.0","282030","F=YES, J=NO","msf8prb81h","1","59","83","35","","","","","","","","","","","","","","","",""
"null","audio/kettle1.wav","null","audio-keyboard-response","130","2.1.0","282661","F=YES, J=NO","msf8prb81h","1","59","83","35","","","","","","","","","","","","","","","",""
"776","
          <p id=""word"" style=""font-size: 40px;"">wrap</p>
          <p style=""font-size: 16px;"">F = YES &nbsp;&nbsp;&nbsp; J = NO</p>
        ","f","html-keyboard-response","131","2.1.0","283437","F=YES, J=NO","msf8prb81h","1","59","83","35","","","","","","","","","wrap","kettle1","filler","filler","f","true","",""
"null","<p style=""font-size: 50px;"">+</p>","null","html-keyboard-response","132","2.1.0","283741","F=YES, J=NO","msf8prb81h","1","59","83","35","","","","","","","","","","","","","","","",""
"null","audio/beep-329314.mp3","null","audio-keyboard-response","133","2.1.0","285610","F=YES, J=NO","msf8prb81h","1","59","83","35","","","","","","","","","","","","","","","",""
"null","audio/belief.wav","null","audio-keyboard-response","134","2.1.0","286341","F=YES, J=NO","msf8prb81h","1","59","83","35","","","","","","","","","","","","","","","",""
"536","
          <p id=""word"" style=""font-size: 40px;"">read</p>
          <p style=""font-size: 16px;"">F = YES &nbsp;&nbsp;&nbsp; J = NO</p>
        ","f","html-keyboard-response","135","2.1.0","286878","F=YES, J=NO","msf8prb81h","1","59","83","35","","","","","","","","","read","belief","filler","filler","f","true","",""
"null","<p style=""font-size: 50px;"">+</p>","null","html-keyboard-response","136","2.1.0","287181","F=YES, J=NO","msf8prb81h","1","59","83","35","","","","","","","","","","","","","","","",""
"null","audio/beep-329314.mp3","null","audio-keyboard-response","137","2.1.0","289051","F=YES, J=NO","msf8prb81h","1","59","83","35","","","","","","","","","","","","","","","",""
"null","audio/cinema1.wav","null","audio-keyboard-response","138","2.1.0","289841","F=YES, J=NO","msf8prb81h","1","59","83","35","","","","","","","","","","","","","","","",""
"698","
          <p id=""word"" style=""font-size: 40px;"">murple</p>
          <p style=""font-size: 16px;"">F = YES &nbsp;&nbsp;&nbsp; J = NO</p>
        ","f","html-keyboard-response","139","2.1.0","290540","F=YES, J=NO","msf8prb81h","1","59","83","35","","","","","","","","","murple","cinema1","pseudoword","pseudoword","j","false","",""
"null","<p style=""font-size: 50px;"">+</p>","null","html-keyboard-response","140","2.1.0","290850","F=YES, J=NO","msf8prb81h","1","59","83","35","","","","","","","","","","","","","","","",""
"null","audio/beep-329314.mp3","null","audio-keyboard-response","141","2.1.0","292731","F=YES, J=NO","msf8prb81h","1","59","83","35","","","","","","","","","","","","","","","",""
"null","audio/age1.wav","null","audio-keyboard-response","142","2.1.0","293380","F=YES, J=NO","msf8prb81h","1","59","83","35","","","","","","","","","","","","","","","",""
"635","
          <p id=""word"" style=""font-size: 40px;"">bake</p>
          <p style=""font-size: 16px;"">F = YES &nbsp;&nbsp;&nbsp; J = NO</p>
        ","f","html-keyboard-response","143","2.1.0","294017","F=YES, J=NO","msf8prb81h","1","59","83","35","","","","","","","","","bake","age1","filler","filler","f","true","",""
"null","<p style=""font-size: 50px;"">+</p>","null","html-keyboard-response","144","2.1.0","294320","F=YES, J=NO","msf8prb81h","1","59","83","35","","","","","","","","","","","","","","","",""
"null","audio/beep-329314.mp3","null","audio-keyboard-response","145","2.1.0","296191","F=YES, J=NO","msf8prb81h","1","59","83","35","","","","","","","","","","","","","","","",""
"null","audio/menu.wav","null","audio-keyboard-response","146","2.1.0","296861","F=YES, J=NO","msf8prb81h","1","59","83","35","","","","","","","","","","","","","","","",""
"917","
          <p id=""word"" style=""font-size: 40px;"">slice</p>
          <p style=""font-size: 16px;"">F = YES &nbsp;&nbsp;&nbsp; J = NO</p>
        ","f","html-keyboard-response","147","2.1.0","297779","F=YES, J=NO","msf8prb81h","1","59","83","35","","","","","","","","","slice","menu","filler","filler","f","true","",""
"null","<p style=""font-size: 50px;"">+</p>","null","html-keyboard-response","148","2.1.0","298087","F=YES, J=NO","msf8prb81h","1","59","83","35","","","","","","","","","","","","","","","",""
"null","audio/beep-329314.mp3","null","audio-keyboard-response","149","2.1.0","299951","F=YES, J=NO","msf8prb81h","1","59","83","35","","","","","","","","","","","","","","","",""
"null","audio/pattern.wav","null","audio-keyboard-response","150","2.1.0","300561","F=YES, J=NO","msf8prb81h","1","59","83","35","","","","","","","","","","","","","","","",""
"643","
          <p id=""word"" style=""font-size: 40px;"">tug</p>
          <p style=""font-size: 16px;"">F = YES &nbsp;&nbsp;&nbsp; J = NO</p>
        ","f","html-keyboard-response","151","2.1.0","301205","F=YES, J=NO","msf8prb81h","1","59","83","35","","","","","","","","","tug","pattern","filler","filler","f","true","",""
"null","<p style=""font-size: 50px;"">+</p>","null","html-keyboard-response","152","2.1.0","301507","F=YES, J=NO","msf8prb81h","1","59","83","35","","","","","","","","","","","","","","","",""
"null","audio/beep-329314.mp3","null","audio-keyboard-response","153","2.1.0","303371","F=YES, J=NO","msf8prb81h","1","59","83","35","","","","","","","","","","","","","","","",""
"null","audio/golf1.wav","null","audio-keyboard-response","154","2.1.0","304081","F=YES, J=NO","msf8prb81h","1","59","83","35","","","","","","","","","","","","","","","",""
"1351","
          <p id=""word"" style=""font-size: 40px;"">drabble</p>
          <p style=""font-size: 16px;"">F = YES &nbsp;&nbsp;&nbsp; J = NO</p>
        ","f","html-keyboard-response","155","2.1.0","305434","F=YES, J=NO","msf8prb81h","1","59","83","35","","","","","","","","","drabble","golf1","pseudoword","pseudoword","j","false","",""
"null","<p style=""font-size: 50px;"">+</p>","null","html-keyboard-response","156","2.1.0","305735","F=YES, J=NO","msf8prb81h","1","59","83","35","","","","","","","","","","","","","","","",""
"null","audio/beep-329314.mp3","null","audio-keyboard-response","157","2.1.0","307610","F=YES, J=NO","msf8prb81h","1","59","83","35","","","","","","","","","","","","","","","",""
"null","audio/camera1.wav","null","audio-keyboard-response","158","2.1.0","308261","F=YES, J=NO","msf8prb81h","1","59","83","35","","","","","","","","","","","","","","","",""
"1054","
          <p id=""word"" style=""font-size: 40px;"">stir</p>
          <p style=""font-size: 16px;"">F = YES &nbsp;&nbsp;&nbsp; J = NO</p>
        ","f","html-keyboard-response","159","2.1.0","309317","F=YES, J=NO","msf8prb81h","1","59","83","35","","","","","","","","","stir","camera1","filler","filler","f","true","",""
"null","<p style=""font-size: 50px;"">+</p>","null","html-keyboard-response","160","2.1.0","309631","F=YES, J=NO","msf8prb81h","1","59","83","35","","","","","","","","","","","","","","","",""
"null","audio/beep-329314.mp3","null","audio-keyboard-response","161","2.1.0","311511","F=YES, J=NO","msf8prb81h","1","59","83","35","","","","","","","","","","","","","","","",""
"null","audio/stain.wav","null","audio-keyboard-response","162","2.1.0","312280","F=YES, J=NO","msf8prb81h","1","59","83","35","","","","","","","","","","","","","","","",""
"727","
          <p id=""word"" style=""font-size: 40px;"">rumpsied</p>
          <p style=""font-size: 16px;"">F = YES &nbsp;&nbsp;&nbsp; J = NO</p>
        ","j","html-keyboard-response","163","2.1.0","313008","F=YES, J=NO","msf8prb81h","1","59","83","35","","","","","","","","","rumpsied","stain","pseudoword","pseudoword","j","true","",""
"5435","
    <div style=""max-width: 800px; margin: auto; text-align: left;"">
      <h2>Part 2: Main Trials</h2>
      <p>Great job on the practice trials!</p>
      <p>You will now begin the <strong>main set of trials</strong>.</p>
      <p>Remember your key assignments:</p>
      <ul>
        <li><strong>F</strong> = YES (real English word)</li>
        <li><strong>J</strong> = NO (not a real English word)</li>
      </ul>
      <p>Try to respond as <strong>quickly and accurately</strong> as possible.</p>
      <p style=""margin-top: 2em;"">Press any key to begin the main trials.</p>
    </div>
  "," ","html-keyboard-response","164","2.1.0","318444","F=YES, J=NO","msf8prb81h","1","59","83","35","","","","","","","","","","","","","","","",""
"2458","<p>Starting main block 1 of 8. Press any key to continue.</p>"," ","html-keyboard-response","165","2.1.0","320903","F=YES, J=NO","msf8prb81h","1","59","83","35","","","","","","","","","","","","","","","",""
"null","<p style=""font-size: 50px;"">+</p>","null","html-keyboard-response","166","2.1.0","321217","F=YES, J=NO","msf8prb81h","1","59","83","35","","","","","","","","","","","","","","","",""
"null","audio/beep-329314.mp3","null","audio-keyboard-response","167","2.1.0","323093","F=YES, J=NO","msf8prb81h","1","59","83","35","","","","","","","","","","","","","","","",""
"null","audio/strength.wav","null","audio-keyboard-response","168","2.1.0","323972","F=YES, J=NO","msf8prb81h","1","59","83","35","","","","","","","","","","","","","","","",""
"828","
          <p id=""word"" style=""font-size: 40px;"">plabet</p>
          <p style=""font-size: 16px;"">F = YES &nbsp;&nbsp;&nbsp; J = NO</p>
        ","j","html-keyboard-response","169","2.1.0","324802","F=YES, J=NO","msf8prb81h","1","59","83","35","","","","","","","","","plabet","strength","pseudoword","pseudoword","j","true","",""
"null","<p style=""font-size: 50px;"">+</p>","null","html-keyboard-response","170","2.1.0","325112","F=YES, J=NO","msf8prb81h","1","59","83","35","","","","","","","","","","","","","","","",""
"null","audio/beep-329314.mp3","null","audio-keyboard-response","171","2.1.0","326992","F=YES, J=NO","msf8prb81h","1","59","83","35","","","","","","","","","","","","","","","",""
"null","audio/topic.wav","null","audio-keyboard-response","172","2.1.0","327832","F=YES, J=NO","msf8prb81h","1","59","83","35","","","","","","","","","","","","","","","",""
"615","
          <p id=""word"" style=""font-size: 40px;"">approach</p>
          <p style=""font-size: 16px;"">F = YES &nbsp;&nbsp;&nbsp; J = NO</p>
        ","f","html-keyboard-response","173","2.1.0","328448","F=YES, J=NO","msf8prb81h","1","59","83","35","","","","","","","","","approach","topic","metaphor","experimental","f","true","",""
"null","<p style=""font-size: 50px;"">+</p>","null","html-keyboard-response","174","2.1.0","328765","F=YES, J=NO","msf8prb81h","1","59","83","35","","","","","","","","","","","","","","","",""
"null","audio/beep-329314.mp3","null","audio-keyboard-response","175","2.1.0","330632","F=YES, J=NO","msf8prb81h","1","59","83","35","","","","","","","","","","","","","","","",""
"null","audio/tunnel.wav","null","audio-keyboard-response","176","2.1.0","331151","F=YES, J=NO","msf8prb81h","1","59","83","35","","","","","","","","","","","","","","","",""
"989","
          <p id=""word"" style=""font-size: 40px;"">gred</p>
          <p style=""font-size: 16px;"">F = YES &nbsp;&nbsp;&nbsp; J = NO</p>
        ","j","html-keyboard-response","177","2.1.0","332141","F=YES, J=NO","msf8prb81h","1","59","83","35","","","","","","","","","gred","tunnel","pseudoword","pseudoword","j","true","",""
"null","<p style=""font-size: 50px;"">+</p>","null","html-keyboard-response","178","2.1.0","332454","F=YES, J=NO","msf8prb81h","1","59","83","35","","","","","","","","","","","","","","","",""
"null","audio/beep-329314.mp3","null","audio-keyboard-response","179","2.1.0","334333","F=YES, J=NO","msf8prb81h","1","59","83","35","","","","","","","","","","","","","","","",""
"null","audio/show.wav","null","audio-keyboard-response","180","2.1.0","335032","F=YES, J=NO","msf8prb81h","1","59","83","35","","","","","","","","","","","","","","","",""
"609","
          <p id=""word"" style=""font-size: 40px;"">hold</p>
          <p style=""font-size: 16px;"">F = YES &nbsp;&nbsp;&nbsp; J = NO</p>
        ","f","html-keyboard-response","181","2.1.0","335642","F=YES, J=NO","msf8prb81h","1","59","83","35","","","","","","","","","hold","show","metaphor","experimental","f","true","",""
"null","<p style=""font-size: 50px;"">+</p>","null","html-keyboard-response","182","2.1.0","335946","F=YES, J=NO","msf8prb81h","1","59","83","35","","","","","","","","","","","","","","","",""
"null","audio/beep-329314.mp3","null","audio-keyboard-response","183","2.1.0","337813","F=YES, J=NO","msf8prb81h","1","59","83","35","","","","","","","","","","","","","","","",""
"null","audio/ankle1.wav","null","audio-keyboard-response","184","2.1.0","338412","F=YES, J=NO","msf8prb81h","1","59","83","35","","","","","","","","","","","","","","","",""
"737","
          <p id=""word"" style=""font-size: 40px;"">switm</p>
          <p style=""font-size: 16px;"">F = YES &nbsp;&nbsp;&nbsp; J = NO</p>
        ","f","html-keyboard-response","185","2.1.0","339151","F=YES, J=NO","msf8prb81h","1","59","83","35","","","","","","","","","switm","ankle1","pseudoword","pseudoword","j","false","",""
"null","<p style=""font-size: 50px;"">+</p>","null","html-keyboard-response","186","2.1.0","339459","F=YES, J=NO","msf8prb81h","1","59","83","35","","","","","","","","","","","","","","","",""
"null","audio/beep-329314.mp3","null","audio-keyboard-response","187","2.1.0","341333","F=YES, J=NO","msf8prb81h","1","59","83","35","","","","","","","","","","","","","","","",""
"null","audio/sand.wav","null","audio-keyboard-response","188","2.1.0","342092","F=YES, J=NO","msf8prb81h","1","59","83","35","","","","","","","","","","","","","","","",""
"943","
          <p id=""word"" style=""font-size: 40px;"">possess</p>
          <p style=""font-size: 16px;"">F = YES &nbsp;&nbsp;&nbsp; J = NO</p>
        ","j","html-keyboard-response","189","2.1.0","343037","F=YES, J=NO","msf8prb81h","1","59","83","35","","","","","","","","","possess","sand","unrelated","experimental","f","false","",""
"null","<p style=""font-size: 50px;"">+</p>","null","html-keyboard-response","190","2.1.0","343339","F=YES, J=NO","msf8prb81h","1","59","83","35","","","","","","","","","","","","","","","",""
"null","audio/beep-329314.mp3","null","audio-keyboard-response","191","2.1.0","345213","F=YES, J=NO","msf8prb81h","1","59","83","35","","","","","","","","","","","","","","","",""
"null","audio/van1.wav","null","audio-keyboard-response","192","2.1.0","345853","F=YES, J=NO","msf8prb81h","1","59","83","35","","","","","","","","","","","","","","","",""
"604","
          <p id=""word"" style=""font-size: 40px;"">push</p>
          <p style=""font-size: 16px;"">F = YES &nbsp;&nbsp;&nbsp; J = NO</p>
        ","f","html-keyboard-response","193","2.1.0","346459","F=YES, J=NO","msf8prb81h","1","59","83","35","","","","","","","","","push","van1","filler","filler","f","true","",""
"null","<p style=""font-size: 50px;"">+</p>","null","html-keyboard-response","194","2.1.0","346774","F=YES, J=NO","msf8prb81h","1","59","83","35","","","","","","","","","","","","","","","",""
"null","audio/beep-329314.mp3","null","audio-keyboard-response","195","2.1.0","348652","F=YES, J=NO","msf8prb81h","1","59","83","35","","","","","","","","","","","","","","","",""
"null","audio/trout1.wav","null","audio-keyboard-response","196","2.1.0","349492","F=YES, J=NO","msf8prb81h","1","59","83","35","","","","","","","","","","","","","","","",""
"707","
          <p id=""word"" style=""font-size: 40px;"">spimt</p>
          <p style=""font-size: 16px;"">F = YES &nbsp;&nbsp;&nbsp; J = NO</p>
        ","j","html-keyboard-response","197","2.1.0","350201","F=YES, J=NO","msf8prb81h","1","59","83","35","","","","","","","","","spimt","trout1","pseudoword","pseudoword","j","true","",""
"null","<p style=""font-size: 50px;"">+</p>","null","html-keyboard-response","198","2.1.0","350516","F=YES, J=NO","msf8prb81h","1","59","83","35","","","","","","","","","","","","","","","",""
"null","audio/beep-329314.mp3","null","audio-keyboard-response","199","2.1.0","352392","F=YES, J=NO","msf8prb81h","1","59","83","35","","","","","","","","","","","","","","","",""
"null","audio/milk.wav","null","audio-keyboard-response","200","2.1.0","353072","F=YES, J=NO","msf8prb81h","1","59","83","35","","","","","","","","","","","","","","","",""
"638","
          <p id=""word"" style=""font-size: 40px;"">digest</p>
          <p style=""font-size: 16px;"">F = YES &nbsp;&nbsp;&nbsp; J = NO</p>
        ","f","html-keyboard-response","201","2.1.0","353712","F=YES, J=NO","msf8prb81h","1","59","83","35","","","","","","","","","digest","milk","literal","experimental","f","true","",""
"null","<p style=""font-size: 50px;"">+</p>","null","html-keyboard-response","202","2.1.0","354023","F=YES, J=NO","msf8prb81h","1","59","83","35","","","","","","","","","","","","","","","",""
"null","audio/beep-329314.mp3","null","audio-keyboard-response","203","2.1.0","355892","F=YES, J=NO","msf8prb81h","1","59","83","35","","","","","","","","","","","","","","","",""
"null","audio/weight1.wav","null","audio-keyboard-response","204","2.1.0","356592","F=YES, J=NO","msf8prb81h","1","59","83","35","","","","","","","","","","","","","","","",""
"729","
          <p id=""word"" style=""font-size: 40px;"">crimsh</p>
          <p style=""font-size: 16px;"">F = YES &nbsp;&nbsp;&nbsp; J = NO</p>
        ","j","html-keyboard-response","205","2.1.0","357324","F=YES, J=NO","msf8prb81h","1","59","83","35","","","","","","","","","crimsh","weight1","pseudoword","pseudoword","j","true","",""
"null","<p style=""font-size: 50px;"">+</p>","null","html-keyboard-response","206","2.1.0","357636","F=YES, J=NO","msf8prb81h","1","59","83","35","","","","","","","","","","","","","","","",""
"null","audio/beep-329314.mp3","null","audio-keyboard-response","207","2.1.0","359512","F=YES, J=NO","msf8prb81h","1","59","83","35","","","","","","","","","","","","","","","",""
"null","audio/pig.wav","null","audio-keyboard-response","208","2.1.0","359973","F=YES, J=NO","msf8prb81h","1","59","83","35","","","","","","","","","","","","","","","",""
"830","
          <p id=""word"" style=""font-size: 40px;"">tirlike</p>
          <p style=""font-size: 16px;"">F = YES &nbsp;&nbsp;&nbsp; J = NO</p>
        ","j","html-keyboard-response","209","2.1.0","360806","F=YES, J=NO","msf8prb81h","1","59","83","35","","","","","","","","","tirlike","pig","pseudoword","pseudoword","j","true","",""
"null","<p style=""font-size: 50px;"">+</p>","null","html-keyboard-response","210","2.1.0","361120","F=YES, J=NO","msf8prb81h","1","59","83","35","","","","","","","","","","","","","","","",""
"null","audio/beep-329314.mp3","null","audio-keyboard-response","211","2.1.0","362992","F=YES, J=NO","msf8prb81h","1","59","83","35","","","","","","","","","","","","","","","",""
"null","audio/arm.wav","null","audio-keyboard-response","212","2.1.0","363612","F=YES, J=NO","msf8prb81h","1","59","83","35","","","","","","","","","","","","","","","",""
"1064","
          <p id=""word"" style=""font-size: 40px;"">pigne</p>
          <p style=""font-size: 16px;"">F = YES &nbsp;&nbsp;&nbsp; J = NO</p>
        ","j","html-keyboard-response","213","2.1.0","364677","F=YES, J=NO","msf8prb81h","1","59","83","35","","","","","","","","","pigne","arm","pseudoword","pseudoword","j","true","",""
"null","<p style=""font-size: 50px;"">+</p>","null","html-keyboard-response","214","2.1.0","364980","F=YES, J=NO","msf8prb81h","1","59","83","35","","","","","","","","","","","","","","","",""
"null","audio/beep-329314.mp3","null","audio-keyboard-response","215","2.1.0","366852","F=YES, J=NO","msf8prb81h","1","59","83","35","","","","","","","","","","","","","","","",""
"null","audio/mood1.wav","null","audio-keyboard-response","216","2.1.0","367432","F=YES, J=NO","msf8prb81h","1","59","83","35","","","","","","","","","","","","","","","",""
"967","
          <p id=""word"" style=""font-size: 40px;"">give</p>
          <p style=""font-size: 16px;"">F = YES &nbsp;&nbsp;&nbsp; J = NO</p>
        ","f","html-keyboard-response","217","2.1.0","368401","F=YES, J=NO","msf8prb81h","1","59","83","35","","","","","","","","","give","mood1","unrelated","experimental","f","true","",""
"null","<p style=""font-size: 50px;"">+</p>","null","html-keyboard-response","218","2.1.0","368716","F=YES, J=NO","msf8prb81h","1","59","83","35","","","","","","","","","","","","","","","",""
"null","audio/beep-329314.mp3","null","audio-keyboard-response","219","2.1.0","370593","F=YES, J=NO","msf8prb81h","1","59","83","35","","","","","","","","","","","","","","","",""
"null","audio/stain.wav","null","audio-keyboard-response","220","2.1.0","371352","F=YES, J=NO","msf8prb81h","1","59","83","35","","","","","","","","","","","","","","","",""
"638","
          <p id=""word"" style=""font-size: 40px;"">wipe</p>
          <p style=""font-size: 16px;"">F = YES &nbsp;&nbsp;&nbsp; J = NO</p>
        ","f","html-keyboard-response","221","2.1.0","371992","F=YES, J=NO","msf8prb81h","1","59","83","35","","","","","","","","","wipe","stain","literal","experimental","f","true","",""
"null","<p style=""font-size: 50px;"">+</p>","null","html-keyboard-response","222","2.1.0","372298","F=YES, J=NO","msf8prb81h","1","59","83","35","","","","","","","","","","","","","","","",""
"null","audio/beep-329314.mp3","null","audio-keyboard-response","223","2.1.0","374172","F=YES, J=NO","msf8prb81h","1","59","83","35","","","","","","","","","","","","","","","",""
"null","audio/novel.wav","null","audio-keyboard-response","224","2.1.0","374953","F=YES, J=NO","msf8prb81h","1","59","83","35","","","","","","","","","","","","","","","",""
"674","
          <p id=""word"" style=""font-size: 40px;"">type</p>
          <p style=""font-size: 16px;"">F = YES &nbsp;&nbsp;&nbsp; J = NO</p>
        ","j","html-keyboard-response","225","2.1.0","375629","F=YES, J=NO","msf8prb81h","1","59","83","35","","","","","","","","","type","novel","filler","filler","f","false","",""
"null","<p style=""font-size: 50px;"">+</p>","null","html-keyboard-response","226","2.1.0","375934","F=YES, J=NO","msf8prb81h","1","59","83","35","","","","","","","","","","","","","","","",""
"null","audio/beep-329314.mp3","null","audio-keyboard-response","227","2.1.0","377812","F=YES, J=NO","msf8prb81h","1","59","83","35","","","","","","","","","","","","","","","",""
"null","audio/desire.wav","null","audio-keyboard-response","228","2.1.0","378572","F=YES, J=NO","msf8prb81h","1","59","83","35","","","","","","","","","","","","","","","",""
"667","
          <p id=""word"" style=""font-size: 40px;"">nophed</p>
          <p style=""font-size: 16px;"">F = YES &nbsp;&nbsp;&nbsp; J = NO</p>
        ","j","html-keyboard-response","229","2.1.0","379240","F=YES, J=NO","msf8prb81h","1","59","83","35","","","","","","","","","nophed","desire","pseudoword","pseudoword","j","true","",""
"4090","<p>Excellent! You have finished block 1 of 8.</p>
                     <p>Feel free to take a 30 second break.</p>
                     <p>Press any key when you're ready to continue.</p>"," ","html-keyboard-response","230","2.1.0","383331","F=YES, J=NO","msf8prb81h","1","59","83","35","","","","","","","","","","","","","","","",""
"761","<p>Starting main block 2 of 8. Press any key to continue.</p>"," ","html-keyboard-response","231","2.1.0","384093","F=YES, J=NO","msf8prb81h","1","59","83","35","","","","","","","","","","","","","","","",""
"null","<p style=""font-size: 50px;"">+</p>","null","html-keyboard-response","232","2.1.0","384399","F=YES, J=NO","msf8prb81h","1","59","83","35","","","","","","","","","","","","","","","",""
"null","audio/beep-329314.mp3","null","audio-keyboard-response","233","2.1.0","386273","F=YES, J=NO","msf8prb81h","1","59","83","35","","","","","","","","","","","","","","","",""
"null","audio/effort.wav","null","audio-keyboard-response","234","2.1.0","386972","F=YES, J=NO","msf8prb81h","1","59","83","35","","","","","","","","","","","","","","","",""
"497","
          <p id=""word"" style=""font-size: 40px;"">whonk</p>
          <p style=""font-size: 16px;"">F = YES &nbsp;&nbsp;&nbsp; J = NO</p>
        ","j","html-keyboard-response","235","2.1.0","387471","F=YES, J=NO","msf8prb81h","1","59","83","35","","","","","","","","","whonk","effort","pseudoword","pseudoword","j","true","",""
"null","<p style=""font-size: 50px;"">+</p>","null","html-keyboard-response","236","2.1.0","387778","F=YES, J=NO","msf8prb81h","1","59","83","35","","","","","","","","","","","","","","","",""
"null","audio/beep-329314.mp3","null","audio-keyboard-response","237","2.1.0","389653","F=YES, J=NO","msf8prb81h","1","59","83","35","","","","","","","","","","","","","","","",""
"null","audio/pig.wav","null","audio-keyboard-response","238","2.1.0","390071","F=YES, J=NO","msf8prb81h","1","59","83","35","","","","","","","","","","","","","","","",""
"593","
          <p id=""word"" style=""font-size: 40px;"">feed</p>
          <p style=""font-size: 16px;"">F = YES &nbsp;&nbsp;&nbsp; J = NO</p>
        ","f","html-keyboard-response","239","2.1.0","390667","F=YES, J=NO","msf8prb81h","1","59","83","35","","","","","","","","","feed","pig","literal","experimental","f","true","",""
"null","<p style=""font-size: 50px;"">+</p>","null","html-keyboard-response","240","2.1.0","390975","F=YES, J=NO","msf8prb81h","1","59","83","35","","","","","","","","","","","","","","","",""
"null","audio/beep-329314.mp3","null","audio-keyboard-response","241","2.1.0","392853","F=YES, J=NO","msf8prb81h","1","59","83","35","","","","","","","","","","","","","","","",""
"null","audio/bishop1.wav","null","audio-keyboard-response","242","2.1.0","393612","F=YES, J=NO","msf8prb81h","1","59","83","35","","","","","","","","","","","","","","","",""
"507","
          <p id=""word"" style=""font-size: 40px;"">play</p>
          <p style=""font-size: 16px;"">F = YES &nbsp;&nbsp;&nbsp; J = NO</p>
        ","f","html-keyboard-response","243","2.1.0","394122","F=YES, J=NO","msf8prb81h","1","59","83","35","","","","","","","","","play","bishop1","filler","filler","f","true","",""
"null","<p style=""font-size: 50px;"">+</p>","null","html-keyboard-response","244","2.1.0","394429","F=YES, J=NO","msf8prb81h","1","59","83","35","","","","","","","","","","","","","","","",""
"null","audio/beep-329314.mp3","null","audio-keyboard-response","245","2.1.0","396312","F=YES, J=NO","msf8prb81h","1","59","83","35","","","","","","","","","","","","","","","",""
"null","audio/prisoner.wav","null","audio-keyboard-response","246","2.1.0","396932","F=YES, J=NO","msf8prb81h","1","59","83","35","","","","","","","","","","","","","","","",""
"529","
          <p id=""word"" style=""font-size: 40px;"">egotian</p>
          <p style=""font-size: 16px;"">F = YES &nbsp;&nbsp;&nbsp; J = NO</p>
        ","f","html-keyboard-response","247","2.1.0","397463","F=YES, J=NO","msf8prb81h","1","59","83","35","","","","","","","","","egotian","prisoner","pseudoword","pseudoword","j","false","",""
"null","<p style=""font-size: 50px;"">+</p>","null","html-keyboard-response","248","2.1.0","397764","F=YES, J=NO","msf8prb81h","1","59","83","35","","","","","","","","","","","","","","","",""
"null","audio/beep-329314.mp3","null","audio-keyboard-response","249","2.1.0","399633","F=YES, J=NO","msf8prb81h","1","59","83","35","","","","","","","","","","","","","","","",""
"null","audio/cave1.wav","null","audio-keyboard-response","250","2.1.0","400253","F=YES, J=NO","msf8prb81h","1","59","83","35","","","","","","","","","","","","","","","",""
"564","
          <p id=""word"" style=""font-size: 40px;"">hurt</p>
          <p style=""font-size: 16px;"">F = YES &nbsp;&nbsp;&nbsp; J = NO</p>
        ","f","html-keyboard-response","251","2.1.0","400819","F=YES, J=NO","msf8prb81h","1","59","83","35","","","","","","","","","hurt","cave1","unrelated","experimental","f","true","",""
"null","<p style=""font-size: 50px;"">+</p>","null","html-keyboard-response","252","2.1.0","401125","F=YES, J=NO","msf8prb81h","1","59","83","35","","","","","","","","","","","","","","","",""
"null","audio/beep-329314.mp3","null","audio-keyboard-response","253","2.1.0","402992","F=YES, J=NO","msf8prb81h","1","59","83","35","","","","","","","","","","","","","","","",""
"null","audio/foot1.wav","null","audio-keyboard-response","254","2.1.0","403672","F=YES, J=NO","msf8prb81h","1","59","83","35","","","","","","","","","","","","","","","",""
"721","
          <p id=""word"" style=""font-size: 40px;"">thrutt</p>
          <p style=""font-size: 16px;"">F = YES &nbsp;&nbsp;&nbsp; J = NO</p>
        ","j","html-keyboard-response","255","2.1.0","404395","F=YES, J=NO","msf8prb81h","1","59","83","35","","","","","","","","","thrutt","foot1","pseudoword","pseudoword","j","true","",""
"null","<p style=""font-size: 50px;"">+</p>","null","html-keyboard-response","256","2.1.0","404712","F=YES, J=NO","msf8prb81h","1","59","83","35","","","","","","","","","","","","","","","",""
"null","audio/beep-329314.mp3","null","audio-keyboard-response","257","2.1.0","406593","F=YES, J=NO","msf8prb81h","1","59","83","35","","","","","","","","","","","","","","","",""
"null","audio/vehicle1.wav","null","audio-keyboard-response","258","2.1.0","407393","F=YES, J=NO","msf8prb81h","1","59","83","35","","","","","","","","","","","","","","","",""
"1052","
          <p id=""word"" style=""font-size: 40px;"">dropt</p>
          <p style=""font-size: 16px;"">F = YES &nbsp;&nbsp;&nbsp; J = NO</p>
        ","j","html-keyboard-response","259","2.1.0","408448","F=YES, J=NO","msf8prb81h","1","59","83","35","","","","","","","","","dropt","vehicle1","pseudoword","pseudoword","j","true","",""
"null","<p style=""font-size: 50px;"">+</p>","null","html-keyboard-response","260","2.1.0","408752","F=YES, J=NO","msf8prb81h","1","59","83","35","","","","","","","","","","","","","","","",""
"null","audio/beep-329314.mp3","null","audio-keyboard-response","261","2.1.0","410632","F=YES, J=NO","msf8prb81h","1","59","83","35","","","","","","","","","","","","","","","",""
"null","audio/bottle.wav","null","audio-keyboard-response","262","2.1.0","411193","F=YES, J=NO","msf8prb81h","1","59","83","35","","","","","","","","","","","","","","","",""
"550","
          <p id=""word"" style=""font-size: 40px;"">watch</p>
          <p style=""font-size: 16px;"">F = YES &nbsp;&nbsp;&nbsp; J = NO</p>
        ","f","html-keyboard-response","263","2.1.0","411745","F=YES, J=NO","msf8prb81h","1","59","83","35","","","","","","","","","watch","bottle","filler","filler","f","true","",""
"null","<p style=""font-size: 50px;"">+</p>","null","html-keyboard-response","264","2.1.0","412051","F=YES, J=NO","msf8prb81h","1","59","83","35","","","","","","","","","","","","","","","",""
"null","audio/beep-329314.mp3","null","audio-keyboard-response","265","2.1.0","413931","F=YES, J=NO","msf8prb81h","1","59","83","35","","","","","","","","","","","","","","","",""
"null","audio/cloud1.wav","null","audio-keyboard-response","266","2.1.0","414633","F=YES, J=NO","msf8prb81h","1","59","83","35","","","","","","","","","","","","","","","",""
"826","
          <p id=""word"" style=""font-size: 40px;"">brotant</p>
          <p style=""font-size: 16px;"">F = YES &nbsp;&nbsp;&nbsp; J = NO</p>
        ","j","html-keyboard-response","267","2.1.0","415461","F=YES, J=NO","msf8prb81h","1","59","83","35","","","","","","","","","brotant","cloud1","pseudoword","pseudoword","j","true","",""
"null","<p style=""font-size: 50px;"">+</p>","null","html-keyboard-response","268","2.1.0","415774","F=YES, J=NO","msf8prb81h","1","59","83","35","","","","","","","","","","","","","","","",""
"null","audio/beep-329314.mp3","null","audio-keyboard-response","269","2.1.0","417653","F=YES, J=NO","msf8prb81h","1","59","83","35","","","","","","","","","","","","","","","",""
"null","audio/survey1.wav","null","audio-keyboard-response","270","2.1.0","418692","F=YES, J=NO","msf8prb81h","1","59","83","35","","","","","","","","","","","","","","","",""
"633","
          <p id=""word"" style=""font-size: 40px;"">imploth</p>
          <p style=""font-size: 16px;"">F = YES &nbsp;&nbsp;&nbsp; J = NO</p>
        ","j","html-keyboard-response","271","2.1.0","419327","F=YES, J=NO","msf8prb81h","1","59","83","35","","","","","","","","","imploth","survey1","pseudoword","pseudoword","j","true","",""
"null","<p style=""font-size: 50px;"">+</p>","null","html-keyboard-response","272","2.1.0","419644","F=YES, J=NO","msf8prb81h","1","59","83","35","","","","","","","","","","","","","","","",""
"null","audio/beep-329314.mp3","null","audio-keyboard-response","273","2.1.0","421512","F=YES, J=NO","msf8prb81h","1","59","83","35","","","","","","","","","","","","","","","",""
"null","audio/heart1.wav","null","audio-keyboard-response","274","2.1.0","422413","F=YES, J=NO","msf8prb81h","1","59","83","35","","","","","","","","","","","","","","","",""
"519","
          <p id=""word"" style=""font-size: 40px;"">touch</p>
          <p style=""font-size: 16px;"">F = YES &nbsp;&nbsp;&nbsp; J = NO</p>
        ","j","html-keyboard-response","275","2.1.0","422934","F=YES, J=NO","msf8prb81h","1","59","83","35","","","","","","","","","touch","heart1","metaphor","experimental","f","false","",""
"null","<p style=""font-size: 50px;"">+</p>","null","html-keyboard-response","276","2.1.0","423239","F=YES, J=NO","msf8prb81h","1","59","83","35","","","","","","","","","","","","","","","",""
"null","audio/beep-329314.mp3","null","audio-keyboard-response","277","2.1.0","425112","F=YES, J=NO","msf8prb81h","1","59","83","35","","","","","","","","","","","","","","","",""
"null","audio/neck.wav","null","audio-keyboard-response","278","2.1.0","425933","F=YES, J=NO","msf8prb81h","1","59","83","35","","","","","","","","","","","","","","","",""
"695","
          <p id=""word"" style=""font-size: 40px;"">werling</p>
          <p style=""font-size: 16px;"">F = YES &nbsp;&nbsp;&nbsp; J = NO</p>
        ","j","html-keyboard-response","279","2.1.0","426631","F=YES, J=NO","msf8prb81h","1","59","83","35","","","","","","","","","werling","neck","pseudoword","pseudoword","j","true","",""
"null","<p style=""font-size: 50px;"">+</p>","null","html-keyboard-response","280","2.1.0","426945","F=YES, J=NO","msf8prb81h","1","59","83","35","","","","","","","","","","","","","","","",""
"null","audio/beep-329314.mp3","null","audio-keyboard-response","281","2.1.0","428813","F=YES, J=NO","msf8prb81h","1","59","83","35","","","","","","","","","","","","","","","",""
"null","audio/winter.wav","null","audio-keyboard-response","282","2.1.0","429532","F=YES, J=NO","msf8prb81h","1","59","83","35","","","","","","","","","","","","","","","",""
"1048","
          <p id=""word"" style=""font-size: 40px;"">straven</p>
          <p style=""font-size: 16px;"">F = YES &nbsp;&nbsp;&nbsp; J = NO</p>
        ","j","html-keyboard-response","283","2.1.0","430583","F=YES, J=NO","msf8prb81h","1","59","83","35","","","","","","","","","straven","winter","pseudoword","pseudoword","j","true","",""
"null","<p style=""font-size: 50px;"">+</p>","null","html-keyboard-response","284","2.1.0","430896","F=YES, J=NO","msf8prb81h","1","59","83","35","","","","","","","","","","","","","","","",""
"null","audio/beep-329314.mp3","null","audio-keyboard-response","285","2.1.0","432773","F=YES, J=NO","msf8prb81h","1","59","83","35","","","","","","","","","","","","","","","",""
"null","audio/prisoner.wav","null","audio-keyboard-response","286","2.1.0","433352","F=YES, J=NO","msf8prb81h","1","59","83","35","","","","","","","","","","","","","","","",""
"560","
          <p id=""word"" style=""font-size: 40px;"">release</p>
          <p style=""font-size: 16px;"">F = YES &nbsp;&nbsp;&nbsp; J = NO</p>
        ","f","html-keyboard-response","287","2.1.0","433914","F=YES, J=NO","msf8prb81h","1","59","83","35","","","","","","","","","release","prisoner","literal","experimental","f","true","",""
"null","<p style=""font-size: 50px;"">+</p>","null","html-keyboard-response","288","2.1.0","434222","F=YES, J=NO","msf8prb81h","1","59","83","35","","","","","","","","","","","","","","","",""
"null","audio/beep-329314.mp3","null","audio-keyboard-response","289","2.1.0","436093","F=YES, J=NO","msf8prb81h","1","59","83","35","","","","","","","","","","","","","","","",""
"null","audio/uncle1.wav","null","audio-keyboard-response","290","2.1.0","436693","F=YES, J=NO","msf8prb81h","1","59","83","35","","","","","","","","","","","","","","","",""
"519","
          <p id=""word"" style=""font-size: 40px;"">dramble</p>
          <p style=""font-size: 16px;"">F = YES &nbsp;&nbsp;&nbsp; J = NO</p>
        ","f","html-keyboard-response","291","2.1.0","437214","F=YES, J=NO","msf8prb81h","1","59","83","35","","","","","","","","","dramble","uncle1","pseudoword","pseudoword","j","false","",""
"null","<p style=""font-size: 50px;"">+</p>","null","html-keyboard-response","292","2.1.0","437517","F=YES, J=NO","msf8prb81h","1","59","83","35","","","","","","","","","","","","","","","",""
"null","audio/beep-329314.mp3","null","audio-keyboard-response","293","2.1.0","439393","F=YES, J=NO","msf8prb81h","1","59","83","35","","","","","","","","","","","","","","","",""
"null","audio/gift1.wav","null","audio-keyboard-response","294","2.1.0","440113","F=YES, J=NO","msf8prb81h","1","59","83","35","","","","","","","","","","","","","","","",""
"778","
          <p id=""word"" style=""font-size: 40px;"">protsh</p>
          <p style=""font-size: 16px;"">F = YES &nbsp;&nbsp;&nbsp; J = NO</p>
        ","j","html-keyboard-response","295","2.1.0","440892","F=YES, J=NO","msf8prb81h","1","59","83","35","","","","","","","","","protsh","gift1","pseudoword","pseudoword","j","true","",""
"1065","<p>Excellent! You have finished block 2 of 8.</p>
                     <p>Feel free to take a 30 second break.</p>
                     <p>Press any key when you're ready to continue.</p>"," ","html-keyboard-response","296","2.1.0","441958","F=YES, J=NO","msf8prb81h","1","59","83","35","","","","","","","","","","","","","","","",""
"9889","<p>Starting main block 3 of 8. Press any key to continue.</p>"," ","html-keyboard-response","297","2.1.0","451850","F=YES, J=NO","msf8prb81h","1","59","83","35","","","","","","","","","","","","","","","",""
"null","<p style=""font-size: 50px;"">+</p>","null","html-keyboard-response","298","2.1.0","452161","F=YES, J=NO","msf8prb81h","1","59","83","35","","","","","","","","","","","","","","","",""
"null","audio/beep-329314.mp3","null","audio-keyboard-response","299","2.1.0","454014","F=YES, J=NO","msf8prb81h","1","59","83","35","","","","","","","","","","","","","","","",""
"null","audio/weapon.wav","null","audio-keyboard-response","300","2.1.0","454673","F=YES, J=NO","msf8prb81h","1","59","83","35","","","","","","","","","","","","","","","",""
"1332","
          <p id=""word"" style=""font-size: 40px;"">carry</p>
          <p style=""font-size: 16px;"">F = YES &nbsp;&nbsp;&nbsp; J = NO</p>
        ","f","html-keyboard-response","301","2.1.0","456007","F=YES, J=NO","msf8prb81h","1","59","83","35","","","","","","","","","carry","weapon","literal","experimental","f","true","",""
"null","<p style=""font-size: 50px;"">+</p>","null","html-keyboard-response","302","2.1.0","456317","F=YES, J=NO","msf8prb81h","1","59","83","35","","","","","","","","","","","","","","","",""
"null","audio/beep-329314.mp3","null","audio-keyboard-response","303","2.1.0","458194","F=YES, J=NO","msf8prb81h","1","59","83","35","","","","","","","","","","","","","","","",""
"null","audio/holiday1.wav","null","audio-keyboard-response","304","2.1.0","458974","F=YES, J=NO","msf8prb81h","1","59","83","35","","","","","","","","","","","","","","","",""
"752","
          <p id=""word"" style=""font-size: 40px;"">drivets</p>
          <p style=""font-size: 16px;"">F = YES &nbsp;&nbsp;&nbsp; J = NO</p>
        ","j","html-keyboard-response","305","2.1.0","459727","F=YES, J=NO","msf8prb81h","1","59","83","35","","","","","","","","","drivets","holiday1","pseudoword","pseudoword","j","true","",""
"null","<p style=""font-size: 50px;"">+</p>","null","html-keyboard-response","306","2.1.0","460028","F=YES, J=NO","msf8prb81h","1","59","83","35","","","","","","","","","","","","","","","",""
"null","audio/beep-329314.mp3","null","audio-keyboard-response","307","2.1.0","461913","F=YES, J=NO","msf8prb81h","1","59","83","35","","","","","","","","","","","","","","","",""
"null","audio/test1.wav","null","audio-keyboard-response","308","2.1.0","462754","F=YES, J=NO","msf8prb81h","1","59","83","35","","","","","","","","","","","","","","","",""
"670","
          <p id=""word"" style=""font-size: 40px;"">twopch</p>
          <p style=""font-size: 16px;"">F = YES &nbsp;&nbsp;&nbsp; J = NO</p>
        ","j","html-keyboard-response","309","2.1.0","463425","F=YES, J=NO","msf8prb81h","1","59","83","35","","","","","","","","","twopch","test1","pseudoword","pseudoword","j","true","",""
"null","<p style=""font-size: 50px;"">+</p>","null","html-keyboard-response","310","2.1.0","463735","F=YES, J=NO","msf8prb81h","1","59","83","35","","","","","","","","","","","","","","","",""
"null","audio/beep-329314.mp3","null","audio-keyboard-response","311","2.1.0","465613","F=YES, J=NO","msf8prb81h","1","59","83","35","","","","","","","","","","","","","","","",""
"null","audio/emotion.wav","null","audio-keyboard-response","312","2.1.0","466412","F=YES, J=NO","msf8prb81h","1","59","83","35","","","","","","","","","","","","","","","",""
"759","
          <p id=""word"" style=""font-size: 40px;"">bury</p>
          <p style=""font-size: 16px;"">F = YES &nbsp;&nbsp;&nbsp; J = NO</p>
        ","f","html-keyboard-response","313","2.1.0","467172","F=YES, J=NO","msf8prb81h","1","59","83","35","","","","","","","","","bury","emotion","metaphor","experimental","f","true","",""
"null","<p style=""font-size: 50px;"">+</p>","null","html-keyboard-response","314","2.1.0","467479","F=YES, J=NO","msf8prb81h","1","59","83","35","","","","","","","","","","","","","","","",""
"null","audio/beep-329314.mp3","null","audio-keyboard-response","315","2.1.0","469353","F=YES, J=NO","msf8prb81h","1","59","83","35","","","","","","","","","","","","","","","",""
"null","audio/budget1.wav","null","audio-keyboard-response","316","2.1.0","470293","F=YES, J=NO","msf8prb81h","1","59","83","35","","","","","","","","","","","","","","","",""
"778","
          <p id=""word"" style=""font-size: 40px;"">sulist</p>
          <p style=""font-size: 16px;"">F = YES &nbsp;&nbsp;&nbsp; J = NO</p>
        ","j","html-keyboard-response","317","2.1.0","471073","F=YES, J=NO","msf8prb81h","1","59","83","35","","","","","","","","","sulist","budget1","pseudoword","pseudoword","j","true","",""
"null","<p style=""font-size: 50px;"">+</p>","null","html-keyboard-response","318","2.1.0","471383","F=YES, J=NO","msf8prb81h","1","59","83","35","","","","","","","","","","","","","","","",""
"null","audio/beep-329314.mp3","null","audio-keyboard-response","319","2.1.0","473255","F=YES, J=NO","msf8prb81h","1","59","83","35","","","","","","","","","","","","","","","",""
"null","audio/dollar.wav","null","audio-keyboard-response","320","2.1.0","473713","F=YES, J=NO","msf8prb81h","1","59","83","35","","","","","","","","","","","","","","","",""
"1111","
          <p id=""word"" style=""font-size: 40px;"">gliptism</p>
          <p style=""font-size: 16px;"">F = YES &nbsp;&nbsp;&nbsp; J = NO</p>
        ","j","html-keyboard-response","321","2.1.0","474826","F=YES, J=NO","msf8prb81h","1","59","83","35","","","","","","","","","gliptism","dollar","pseudoword","pseudoword","j","true","",""
"null","<p style=""font-size: 50px;"">+</p>","null","html-keyboard-response","322","2.1.0","475130","F=YES, J=NO","msf8prb81h","1","59","83","35","","","","","","","","","","","","","","","",""
"null","audio/beep-329314.mp3","null","audio-keyboard-response","323","2.1.0","477014","F=YES, J=NO","msf8prb81h","1","59","83","35","","","","","","","","","","","","","","","",""
"null","audio/ego.wav","null","audio-keyboard-response","324","2.1.0","477853","F=YES, J=NO","msf8prb81h","1","59","83","35","","","","","","","","","","","","","","","",""
"953","
          <p id=""word"" style=""font-size: 40px;"">bruite</p>
          <p style=""font-size: 16px;"">F = YES &nbsp;&nbsp;&nbsp; J = NO</p>
        ","j","html-keyboard-response","325","2.1.0","478808","F=YES, J=NO","msf8prb81h","1","59","83","35","","","","","","","","","bruite","ego","pseudoword","pseudoword","j","true","",""
"null","<p style=""font-size: 50px;"">+</p>","null","html-keyboard-response","326","2.1.0","479116","F=YES, J=NO","msf8prb81h","1","59","83","35","","","","","","","","","","","","","","","",""
"null","audio/beep-329314.mp3","null","audio-keyboard-response","327","2.1.0","480993","F=YES, J=NO","msf8prb81h","1","59","83","35","","","","","","","","","","","","","","","",""
"null","audio/pizza1.wav","null","audio-keyboard-response","328","2.1.0","481694","F=YES, J=NO","msf8prb81h","1","59","83","35","","","","","","","","","","","","","","","",""
"914","
          <p id=""word"" style=""font-size: 40px;"">devour</p>
          <p style=""font-size: 16px;"">F = YES &nbsp;&nbsp;&nbsp; J = NO</p>
        ","f","html-keyboard-response","329","2.1.0","482610","F=YES, J=NO","msf8prb81h","1","59","83","35","","","","","","","","","devour","pizza1","literal","experimental","f","true","",""
"null","<p style=""font-size: 50px;"">+</p>","null","html-keyboard-response","330","2.1.0","482913","F=YES, J=NO","msf8prb81h","1","59","83","35","","","","","","","","","","","","","","","",""
"null","audio/beep-329314.mp3","null","audio-keyboard-response","331","2.1.0","484794","F=YES, J=NO","msf8prb81h","1","59","83","35","","","","","","","","","","","","","","","",""
"null","audio/mind.wav","null","audio-keyboard-response","332","2.1.0","485513","F=YES, J=NO","msf8prb81h","1","59","83","35","","","","","","","","","","","","","","","",""
"597","
          <p id=""word"" style=""font-size: 40px;"">crainate</p>
          <p style=""font-size: 16px;"">F = YES &nbsp;&nbsp;&nbsp; J = NO</p>
        ","j","html-keyboard-response","333","2.1.0","486111","F=YES, J=NO","msf8prb81h","1","59","83","35","","","","","","","","","crainate","mind","pseudoword","pseudoword","j","true","",""
"null","<p style=""font-size: 50px;"">+</p>","null","html-keyboard-response","334","2.1.0","486422","F=YES, J=NO","msf8prb81h","1","59","83","35","","","","","","","","","","","","","","","",""
"null","audio/beep-329314.mp3","null","audio-keyboard-response","335","2.1.0","488291","F=YES, J=NO","msf8prb81h","1","59","83","35","","","","","","","","","","","","","","","",""
"null","audio/birth1.wav","null","audio-keyboard-response","336","2.1.0","488994","F=YES, J=NO","msf8prb81h","1","59","83","35","","","","","","","","","","","","","","","",""
"626","
          <p id=""word"" style=""font-size: 40px;"">drop</p>
          <p style=""font-size: 16px;"">F = YES &nbsp;&nbsp;&nbsp; J = NO</p>
        ","f","html-keyboard-response","337","2.1.0","489621","F=YES, J=NO","msf8prb81h","1","59","83","35","","","","","","","","","drop","birth1","unrelated","experimental","f","true","",""
"null","<p style=""font-size: 50px;"">+</p>","null","html-keyboard-response","338","2.1.0","489932","F=YES, J=NO","msf8prb81h","1","59","83","35","","","","","","","","","","","","","","","",""
"null","audio/beep-329314.mp3","null","audio-keyboard-response","339","2.1.0","491813","F=YES, J=NO","msf8prb81h","1","59","83","35","","","","","","","","","","","","","","","",""
"null","audio/fence.wav","null","audio-keyboard-response","340","2.1.0","492752","F=YES, J=NO","msf8prb81h","1","59","83","35","","","","","","","","","","","","","","","",""
"569","
          <p id=""word"" style=""font-size: 40px;"">trim</p>
          <p style=""font-size: 16px;"">F = YES &nbsp;&nbsp;&nbsp; J = NO</p>
        ","f","html-keyboard-response","341","2.1.0","493322","F=YES, J=NO","msf8prb81h","1","59","83","35","","","","","","","","","trim","fence","filler","filler","f","true","",""
"null","<p style=""font-size: 50px;"">+</p>","null","html-keyboard-response","342","2.1.0","493627","F=YES, J=NO","msf8prb81h","1","59","83","35","","","","","","","","","","","","","","","",""
"null","audio/beep-329314.mp3","null","audio-keyboard-response","343","2.1.0","495493","F=YES, J=NO","msf8prb81h","1","59","83","35","","","","","","","","","","","","","","","",""
"null","audio/size1.wav","null","audio-keyboard-response","344","2.1.0","496571","F=YES, J=NO","msf8prb81h","1","59","83","35","","","","","","","","","","","","","","","",""
"562","
          <p id=""word"" style=""font-size: 40px;"">clear</p>
          <p style=""font-size: 16px;"">F = YES &nbsp;&nbsp;&nbsp; J = NO</p>
        ","f","html-keyboard-response","345","2.1.0","497135","F=YES, J=NO","msf8prb81h","1","59","83","35","","","","","","","","","clear","size1","unrelated","experimental","f","true","",""
"null","<p style=""font-size: 50px;"">+</p>","null","html-keyboard-response","346","2.1.0","497444","F=YES, J=NO","msf8prb81h","1","59","83","35","","","","","","","","","","","","","","","",""
"null","audio/beep-329314.mp3","null","audio-keyboard-response","347","2.1.0","499313","F=YES, J=NO","msf8prb81h","1","59","83","35","","","","","","","","","","","","","","","",""
"null","audio/pain1.wav","null","audio-keyboard-response","348","2.1.0","499853","F=YES, J=NO","msf8prb81h","1","59","83","35","","","","","","","","","","","","","","","",""
"636","
          <p id=""word"" style=""font-size: 40px;"">sell</p>
          <p style=""font-size: 16px;"">F = YES &nbsp;&nbsp;&nbsp; J = NO</p>
        ","f","html-keyboard-response","349","2.1.0","500490","F=YES, J=NO","msf8prb81h","1","59","83","35","","","","","","","","","sell","pain1","unrelated","experimental","f","true","",""
"null","<p style=""font-size: 50px;"">+</p>","null","html-keyboard-response","350","2.1.0","500804","F=YES, J=NO","msf8prb81h","1","59","83","35","","","","","","","","","","","","","","","",""
"null","audio/beep-329314.mp3","null","audio-keyboard-response","351","2.1.0","502672","F=YES, J=NO","msf8prb81h","1","59","83","35","","","","","","","","","","","","","","","",""
"null","audio/cash1.wav","null","audio-keyboard-response","352","2.1.0","503392","F=YES, J=NO","msf8prb81h","1","59","83","35","","","","","","","","","","","","","","","",""
"999","
          <p id=""word"" style=""font-size: 40px;"">splear</p>
          <p style=""font-size: 16px;"">F = YES &nbsp;&nbsp;&nbsp; J = NO</p>
        ","f","html-keyboard-response","353","2.1.0","504392","F=YES, J=NO","msf8prb81h","1","59","83","35","","","","","","","","","splear","cash1","pseudoword","pseudoword","j","false","",""
"null","<p style=""font-size: 50px;"">+</p>","null","html-keyboard-response","354","2.1.0","504705","F=YES, J=NO","msf8prb81h","1","59","83","35","","","","","","","","","","","","","","","",""
"null","audio/beep-329314.mp3","null","audio-keyboard-response","355","2.1.0","506574","F=YES, J=NO","msf8prb81h","1","59","83","35","","","","","","","","","","","","","","","",""
"null","audio/mouth1.wav","null","audio-keyboard-response","356","2.1.0","507293","F=YES, J=NO","msf8prb81h","1","59","83","35","","","","","","","","","","","","","","","",""
"851","
          <p id=""word"" style=""font-size: 40px;"">spolial</p>
          <p style=""font-size: 16px;"">F = YES &nbsp;&nbsp;&nbsp; J = NO</p>
        ","j","html-keyboard-response","357","2.1.0","508145","F=YES, J=NO","msf8prb81h","1","59","83","35","","","","","","","","","spolial","mouth1","pseudoword","pseudoword","j","true","",""
"null","<p style=""font-size: 50px;"">+</p>","null","html-keyboard-response","358","2.1.0","508449","F=YES, J=NO","msf8prb81h","1","59","83","35","","","","","","","","","","","","","","","",""
"null","audio/beep-329314.mp3","null","audio-keyboard-response","359","2.1.0","510333","F=YES, J=NO","msf8prb81h","1","59","83","35","","","","","","","","","","","","","","","",""
"null","audio/belief.wav","null","audio-keyboard-response","360","2.1.0","511052","F=YES, J=NO","msf8prb81h","1","59","83","35","","","","","","","","","","","","","","","",""
"612","
          <p id=""word"" style=""font-size: 40px;"">share</p>
          <p style=""font-size: 16px;"">F = YES &nbsp;&nbsp;&nbsp; J = NO</p>
        ","f","html-keyboard-response","361","2.1.0","511666","F=YES, J=NO","msf8prb81h","1","59","83","35","","","","","","","","","share","belief","metaphor","experimental","f","true","",""
"1266","<p>Excellent! You have finished block 3 of 8.</p>
                     <p>Feel free to take a 30 second break.</p>
                     <p>Press any key when you're ready to continue.</p>"," ","html-keyboard-response","362","2.1.0","512933","F=YES, J=NO","msf8prb81h","1","59","83","35","","","","","","","","","","","","","","","",""
"1064","<p>Starting main block 4 of 8. Press any key to continue.</p>"," ","html-keyboard-response","363","2.1.0","514000","F=YES, J=NO","msf8prb81h","1","59","83","35","","","","","","","","","","","","","","","",""
"null","<p style=""font-size: 50px;"">+</p>","null","html-keyboard-response","364","2.1.0","514307","F=YES, J=NO","msf8prb81h","1","59","83","35","","","","","","","","","","","","","","","",""
"null","audio/beep-329314.mp3","null","audio-keyboard-response","365","2.1.0","516174","F=YES, J=NO","msf8prb81h","1","59","83","35","","","","","","","","","","","","","","","",""
"null","audio/key1.wav","null","audio-keyboard-response","366","2.1.0","516633","F=YES, J=NO","msf8prb81h","1","59","83","35","","","","","","","","","","","","","","","",""
"null","
          <p id=""word"" style=""font-size: 40px;"">sminsh</p>
          <p style=""font-size: 16px;"">F = YES &nbsp;&nbsp;&nbsp; J = NO</p>
        ","null","html-keyboard-response","367","2.1.0","518137","F=YES, J=NO","msf8prb81h","1","59","83","35","","","","","","","","","sminsh","key1","pseudoword","pseudoword","j","false","",""
"null","<p style=""font-size: 50px;"">+</p>","null","html-keyboard-response","368","2.1.0","518450","F=YES, J=NO","msf8prb81h","1","59","83","35","","","","","","","","","","","","","","","",""
"null","audio/beep-329314.mp3","null","audio-keyboard-response","369","2.1.0","520334","F=YES, J=NO","msf8prb81h","1","59","83","35","","","","","","","","","","","","","","","",""
"null","audio/skin1.wav","null","audio-keyboard-response","370","2.1.0","521193","F=YES, J=NO","msf8prb81h","1","59","83","35","","","","","","","","","","","","","","","",""
"null","
          <p id=""word"" style=""font-size: 40px;"">expose</p>
          <p style=""font-size: 16px;"">F = YES &nbsp;&nbsp;&nbsp; J = NO</p>
        ","null","html-keyboard-response","371","2.1.0","522708","F=YES, J=NO","msf8prb81h","1","59","83","35","","","","","","","","","expose","skin1","literal","experimental","f","false","",""
"null","<p style=""font-size: 50px;"">+</p>","null","html-keyboard-response","372","2.1.0","523012","F=YES, J=NO","msf8prb81h","1","59","83","35","","","","","","","","","","","","","","","",""
"null","audio/beep-329314.mp3","null","audio-keyboard-response","373","2.1.0","524894","F=YES, J=NO","msf8prb81h","1","59","83","35","","","","","","","","","","","","","","","",""
"null","audio/effort.wav","null","audio-keyboard-response","374","2.1.0","525572","F=YES, J=NO","msf8prb81h","1","59","83","35","","","","","","","","","","","","","","","",""
"729","
          <p id=""word"" style=""font-size: 40px;"">invest</p>
          <p style=""font-size: 16px;"">F = YES &nbsp;&nbsp;&nbsp; J = NO</p>
        ","f","html-keyboard-response","375","2.1.0","526303","F=YES, J=NO","msf8prb81h","1","59","83","35","","","","","","","","","invest","effort","metaphor","experimental","f","true","",""
"null","<p style=""font-size: 50px;"">+</p>","null","html-keyboard-response","376","2.1.0","526614","F=YES, J=NO","msf8prb81h","1","59","83","35","","","","","","","","","","","","","","","",""
"null","audio/beep-329314.mp3","null","audio-keyboard-response","377","2.1.0","528493","F=YES, J=NO","msf8prb81h","1","59","83","35","","","","","","","","","","","","","","","",""
"null","audio/dome.wav","null","audio-keyboard-response","378","2.1.0","529014","F=YES, J=NO","msf8prb81h","1","59","83","35","","","","","","","","","","","","","","","",""
"744","
          <p id=""word"" style=""font-size: 40px;"">scrupliness</p>
          <p style=""font-size: 16px;"">F = YES &nbsp;&nbsp;&nbsp; J = NO</p>
        ","j","html-keyboard-response","379","2.1.0","529759","F=YES, J=NO","msf8prb81h","1","59","83","35","","","","","","","","","scrupliness","dome","pseudoword","pseudoword","j","true","",""
"null","<p style=""font-size: 50px;"">+</p>","null","html-keyboard-response","380","2.1.0","530073","F=YES, J=NO","msf8prb81h","1","59","83","35","","","","","","","","","","","","","","","",""
"null","audio/beep-329314.mp3","null","audio-keyboard-response","381","2.1.0","531953","F=YES, J=NO","msf8prb81h","1","59","83","35","","","","","","","","","","","","","","","",""
"null","audio/arm.wav","null","audio-keyboard-response","382","2.1.0","532574","F=YES, J=NO","msf8prb81h","1","59","83","35","","","","","","","","","","","","","","","",""
"636","
          <p id=""word"" style=""font-size: 40px;"">seize</p>
          <p style=""font-size: 16px;"">F = YES &nbsp;&nbsp;&nbsp; J = NO</p>
        ","f","html-keyboard-response","383","2.1.0","533211","F=YES, J=NO","msf8prb81h","1","59","83","35","","","","","","","","","seize","arm","literal","experimental","f","true","",""
"null","<p style=""font-size: 50px;"">+</p>","null","html-keyboard-response","384","2.1.0","533520","F=YES, J=NO","msf8prb81h","1","59","83","35","","","","","","","","","","","","","","","",""
"null","audio/beep-329314.mp3","null","audio-keyboard-response","385","2.1.0","535394","F=YES, J=NO","msf8prb81h","1","59","83","35","","","","","","","","","","","","","","","",""
"null","audio/menu.wav","null","audio-keyboard-response","386","2.1.0","536033","F=YES, J=NO","msf8prb81h","1","59","83","35","","","","","","","","","","","","","","","",""
"652","
          <p id=""word"" style=""font-size: 40px;"">navigate</p>
          <p style=""font-size: 16px;"">F = YES &nbsp;&nbsp;&nbsp; J = NO</p>
        ","f","html-keyboard-response","387","2.1.0","536687","F=YES, J=NO","msf8prb81h","1","59","83","35","","","","","","","","","navigate","menu","metaphor","experimental","f","true","",""
"null","<p style=""font-size: 50px;"">+</p>","null","html-keyboard-response","388","2.1.0","537004","F=YES, J=NO","msf8prb81h","1","59","83","35","","","","","","","","","","","","","","","",""
"null","audio/beep-329314.mp3","null","audio-keyboard-response","389","2.1.0","538875","F=YES, J=NO","msf8prb81h","1","59","83","35","","","","","","","","","","","","","","","",""
"null","audio/camera1.wav","null","audio-keyboard-response","390","2.1.0","539433","F=YES, J=NO","msf8prb81h","1","59","83","35","","","","","","","","","","","","","","","",""
"474","
          <p id=""word"" style=""font-size: 40px;"">bring</p>
          <p style=""font-size: 16px;"">F = YES &nbsp;&nbsp;&nbsp; J = NO</p>
        ","f","html-keyboard-response","391","2.1.0","539909","F=YES, J=NO","msf8prb81h","1","59","83","35","","","","","","","","","bring","camera1","literal","experimental","f","true","",""
