"rt","stimulus","response","trial_type","trial_index","plugin_version","time_elapsed","response_mapping","subject_id","list_index","lextale_score","lextale_word_score","lextale_nonword_score","success","timeout","failed_images","failed_audio","failed_video","task","isWord","isDummy","target","prime","prime_type","stimulus_type","correct_response","correct","section","question_order"
"8854","
    <div style=""max-width: 800px; margin: auto; text-align: left;"">
      <h2>STANFORD UNIVERSITY</h2>
      <h3>Research Information Sheet</h3>
      <p><strong>Protocol Director:</strong> Robert Hawkins<br>
      <strong>Protocol Title:</strong> Communication and social cognition in natural audiovisual contexts<br>
      <strong>IRB#:</strong> 77226</p>

      <p><strong>DESCRIPTION:</strong> You are invited to participate in a research study about language and communication. The purpose of the research is to understand how you interact and communicate with other people in naturalistic settings as a fluent English speaker. This research will be conducted through the Prolific platform, including participants from the US, UK, and Canada. If you decide to participate in this research, you will play a communication game in a group with one or more partners.</p>

      <p><strong>TIME INVOLVEMENT:</strong> The task will last the amount of time advertised on Prolific. You are free to withdraw from the study at any time.</p>

      <p><strong>RISKS AND BENEFITS:</strong> You may become frustrated if your partner gets distracted, or experience discomfort if other participants in your group send text that is inappropriate for the task. We ask you to please be respectful of other participants you might be interacting with to mitigate these risks. You may also experience discomfort when being asked to discuss or challenge emotionally salient political beliefs. Study data will be stored securely, in compliance with Stanford University standards, minimizing the risk of confidentiality breach. This study advances our scientific understanding of how people communicate and collaborate in naturalistic settings. This study may lead to further insights about what can go wrong in teamwork, suggest potential interventions to overcome these barriers, and help to develop assistive technologies that collaborate with human partners. We cannot and do not guarantee or promise that you will receive any benefits from this study.</p>

      <p><strong>PAYMENTS:</strong> You will receive payment in the amount advertised on Prolific. If you do not complete this study, you will receive prorated payment based on the time that you have spent. Additionally, you may be eligible for bonus payments as described in the instructions.</p>

      <p><strong>PARTICIPANT’S RIGHTS:</strong> If you have read this form and have decided to participate in this project, please understand your participation is voluntary and you have the right to withdraw your consent or discontinue participation at any time without penalty or loss of benefits to which you are otherwise entitled. The alternative is not to participate. You have the right to refuse to answer particular questions. The results of this research study may be presented at scientific or professional meetings or published in scientific journals. Your individual privacy will be maintained in all published and written data resulting from the study. In accordance with scientific norms, the data from this study may be used or shared with other researchers for future research (after removing personally identifying information) without additional consent from you.</p>

      <p><strong>CONTACT INFORMATION:</strong><br>
      Questions: If you have any questions, concerns or complaints about this research, its procedures, risks and benefits, contact the Protocol Director, Robert Hawkins (<a href=""mailto:rdhawkins@stanford.edu"">rdhawkins@stanford.edu</a>, 217-549-6923).<br>
      Independent Contact: If you are not satisfied with how this study is being conducted, or if you have any concerns, complaints, or general questions about the research or your rights as a participant, please contact the Stanford Institutional Review Board (IRB) to speak to someone independent of the research team at 650-723-2480 or toll free at 1-866-680-2906, or email at <a href=""mailto:irbnon-med@stanford.edu"">irbnon-med@stanford.edu</a>. You can also write to the Stanford IRB, Stanford University, 1705 El Camino Real, Palo Alto, CA 94306.</p>

      <p><strong>Please save or print a copy of this page for your records.</strong></p>
      <p>If you agree to participate in this research, click ""Continue"" below.</p>
    </div>
  ","0","html-button-response","0","2.1.0","8866","F=YES, J=NO","mv2ttrdc5c","0","66","63","70","","","","","","","","","","","","","","","",""
"10766","
    <div style=""max-width: 800px; margin: auto; text-align: left;"">
      <h2>Welcome!</h2>
      <p>Thank you for participating in this study. The experiment consists of three parts:</p>
      <ol>
        <li>An English vocabulary test</li>
        <li>A main task in which you will hear and see words, and decide whether the written word is a real English word</li>
        <li>A brief survey about your background</li>
      </ol>
      <p>Each part will be introduced before it begins.</p>
      <p>Please make sure you are in a quiet environment and can hear audio clearly for the final task.</p>
      <p style=""margin-top: 2em;"">Press any key to begin.</p>
    </div>
  "," ","html-keyboard-response","1","2.1.0","19635","F=YES, J=NO","mv2ttrdc5c","0","66","63","70","","","","","","","","","","","","","","","",""
"","","","preload","2","2.1.0","22164","F=YES, J=NO","mv2ttrdc5c","0","66","63","70","true","false","[]","[]","[]","","","","","","","","","","",""
"11248","
    <div style=""max-width: 800px; margin: auto; text-align: left;"">
      <h2>Part 1: Vocabulary Test</h2>
      <p>You will now complete the first part of the study: a short English vocabulary test.</p>
      <p>This test is called <strong>LexTALE</strong> and helps us get a general sense of your English proficiency.</p>
      <p style=""margin-top: 2em;"">Press any key to continue.</p>
    </div>
  "," ","html-keyboard-response","3","2.1.0","33413","F=YES, J=NO","mv2ttrdc5c","0","66","63","70","","","","","","","","","","","","","","","",""
"6058","
    <div style=""max-width: 800px; margin: auto; text-align: left;"">
      <h2>LexTALE Vocabulary Test</h2>
      <p>In this test, you will see a series of letter strings—one at a time.</p>
      <p>Your task is to decide whether each string is a real English word.</p>
      <p><strong>Key responses:</strong></p>
      <ul>
        <li><strong>F</strong> = YES (real English word)</li>
        <li><strong>J</strong> = NO (not a real English word)</li>
      </ul>
      <p>There is no time limit, but please try to be accurate.</p>
      <p style=""margin-top: 2em;"">Press any key to begin.</p>
    </div>
  ","F2","html-keyboard-response","4","2.1.0","39471","F=YES, J=NO","mv2ttrdc5c","0","66","63","70","","","","","","","","","","","","","","","",""
"2052","
  <p style=""font-size: 40px;"">platery</p>
  <p style=""font-size: 16px;"">F = YES &nbsp;&nbsp;&nbsp; J = NO</p>
","f","html-keyboard-response","5","2.1.0","41524","F=YES, J=NO","mv2ttrdc5c","0","66","63","70","","","","","","lextale","false","true","","","","","","","",""
"3047","
  <p style=""font-size: 40px;"">denial</p>
  <p style=""font-size: 16px;"">F = YES &nbsp;&nbsp;&nbsp; J = NO</p>
","f","html-keyboard-response","6","2.1.0","44573","F=YES, J=NO","mv2ttrdc5c","0","66","63","70","","","","","","lextale","true","true","","","","","","","",""
"901","
  <p style=""font-size: 40px;"">marrit</p>
  <p style=""font-size: 16px;"">F = YES &nbsp;&nbsp;&nbsp; J = NO</p>
","j","html-keyboard-response","7","2.1.0","45476","F=YES, J=NO","mv2ttrdc5c","0","66","63","70","","","","","","lextale","false","true","","","","","","","",""
"1070","
  <p style=""font-size: 40px;"">bottle</p>
  <p style=""font-size: 16px;"">F = YES &nbsp;&nbsp;&nbsp; J = NO</p>
","f","html-keyboard-response","8","2.1.0","46548","F=YES, J=NO","mv2ttrdc5c","0","66","63","70","","","","","","lextale","true","false","","","","","","","",""
"1254","
  <p style=""font-size: 40px;"">birst</p>
  <p style=""font-size: 16px;"">F = YES &nbsp;&nbsp;&nbsp; J = NO</p>
","j","html-keyboard-response","9","2.1.0","47804","F=YES, J=NO","mv2ttrdc5c","0","66","63","70","","","","","","lextale","false","false","","","","","","","",""
"998","
  <p style=""font-size: 40px;"">envy</p>
  <p style=""font-size: 16px;"">F = YES &nbsp;&nbsp;&nbsp; J = NO</p>
","f","html-keyboard-response","10","2.1.0","48804","F=YES, J=NO","mv2ttrdc5c","0","66","63","70","","","","","","lextale","true","false","","","","","","","",""
"1181","
  <p style=""font-size: 40px;"">brang</p>
  <p style=""font-size: 16px;"">F = YES &nbsp;&nbsp;&nbsp; J = NO</p>
","j","html-keyboard-response","11","2.1.0","49987","F=YES, J=NO","mv2ttrdc5c","0","66","63","70","","","","","","lextale","false","false","","","","","","","",""
"592","
  <p style=""font-size: 40px;"">huge</p>
  <p style=""font-size: 16px;"">F = YES &nbsp;&nbsp;&nbsp; J = NO</p>
","f","html-keyboard-response","12","2.1.0","50580","F=YES, J=NO","mv2ttrdc5c","0","66","63","70","","","","","","lextale","true","false","","","","","","","",""
"1542","
  <p style=""font-size: 40px;"">plove</p>
  <p style=""font-size: 16px;"">F = YES &nbsp;&nbsp;&nbsp; J = NO</p>
","j","html-keyboard-response","13","2.1.0","52124","F=YES, J=NO","mv2ttrdc5c","0","66","63","70","","","","","","lextale","false","false","","","","","","","",""
"1038","
  <p style=""font-size: 40px;"">border</p>
  <p style=""font-size: 16px;"">F = YES &nbsp;&nbsp;&nbsp; J = NO</p>
","f","html-keyboard-response","14","2.1.0","53164","F=YES, J=NO","mv2ttrdc5c","0","66","63","70","","","","","","lextale","true","false","","","","","","","",""
"935","
  <p style=""font-size: 40px;"">flimsy</p>
  <p style=""font-size: 16px;"">F = YES &nbsp;&nbsp;&nbsp; J = NO</p>
","j","html-keyboard-response","15","2.1.0","54100","F=YES, J=NO","mv2ttrdc5c","0","66","63","70","","","","","","lextale","true","false","","","","","","","",""
"1215","
  <p style=""font-size: 40px;"">drain</p>
  <p style=""font-size: 16px;"">F = YES &nbsp;&nbsp;&nbsp; J = NO</p>
","f","html-keyboard-response","16","2.1.0","55316","F=YES, J=NO","mv2ttrdc5c","0","66","63","70","","","","","","lextale","true","false","","","","","","","",""
"1126","
  <p style=""font-size: 40px;"">twindle</p>
  <p style=""font-size: 16px;"">F = YES &nbsp;&nbsp;&nbsp; J = NO</p>
","j","html-keyboard-response","17","2.1.0","56444","F=YES, J=NO","mv2ttrdc5c","0","66","63","70","","","","","","lextale","false","false","","","","","","","",""
"743","
  <p style=""font-size: 40px;"">propose</p>
  <p style=""font-size: 16px;"">F = YES &nbsp;&nbsp;&nbsp; J = NO</p>
","f","html-keyboard-response","18","2.1.0","57188","F=YES, J=NO","mv2ttrdc5c","0","66","63","70","","","","","","lextale","true","false","","","","","","","",""
"1030","
  <p style=""font-size: 40px;"">forlay</p>
  <p style=""font-size: 16px;"">F = YES &nbsp;&nbsp;&nbsp; J = NO</p>
","j","html-keyboard-response","19","2.1.0","58220","F=YES, J=NO","mv2ttrdc5c","0","66","63","70","","","","","","lextale","false","false","","","","","","","",""
"1759","
  <p style=""font-size: 40px;"">tenant</p>
  <p style=""font-size: 16px;"">F = YES &nbsp;&nbsp;&nbsp; J = NO</p>
","j","html-keyboard-response","20","2.1.0","59980","F=YES, J=NO","mv2ttrdc5c","0","66","63","70","","","","","","lextale","true","false","","","","","","","",""
"934","
  <p style=""font-size: 40px;"">strain</p>
  <p style=""font-size: 16px;"">F = YES &nbsp;&nbsp;&nbsp; J = NO</p>
","f","html-keyboard-response","21","2.1.0","60916","F=YES, J=NO","mv2ttrdc5c","0","66","63","70","","","","","","lextale","true","false","","","","","","","",""
"1079","
  <p style=""font-size: 40px;"">holster</p>
  <p style=""font-size: 16px;"">F = YES &nbsp;&nbsp;&nbsp; J = NO</p>
","j","html-keyboard-response","22","2.1.0","61996","F=YES, J=NO","mv2ttrdc5c","0","66","63","70","","","","","","lextale","true","false","","","","","","","",""
"1287","
  <p style=""font-size: 40px;"">hinder</p>
  <p style=""font-size: 16px;"">F = YES &nbsp;&nbsp;&nbsp; J = NO</p>
","j","html-keyboard-response","23","2.1.0","63284","F=YES, J=NO","mv2ttrdc5c","0","66","63","70","","","","","","lextale","true","false","","","","","","","",""
"999","
  <p style=""font-size: 40px;"">swindle</p>
  <p style=""font-size: 16px;"">F = YES &nbsp;&nbsp;&nbsp; J = NO</p>
","j","html-keyboard-response","24","2.1.0","64284","F=YES, J=NO","mv2ttrdc5c","0","66","63","70","","","","","","lextale","true","false","","","","","","","",""
"902","
  <p style=""font-size: 40px;"">nuder</p>
  <p style=""font-size: 16px;"">F = YES &nbsp;&nbsp;&nbsp; J = NO</p>
","j","html-keyboard-response","25","2.1.0","65188","F=YES, J=NO","mv2ttrdc5c","0","66","63","70","","","","","","lextale","false","false","","","","","","","",""
"803","
  <p style=""font-size: 40px;"">pillow</p>
  <p style=""font-size: 16px;"">F = YES &nbsp;&nbsp;&nbsp; J = NO</p>
","f","html-keyboard-response","26","2.1.0","65992","F=YES, J=NO","mv2ttrdc5c","0","66","63","70","","","","","","lextale","true","false","","","","","","","",""
"1171","
  <p style=""font-size: 40px;"">shumble</p>
  <p style=""font-size: 16px;"">F = YES &nbsp;&nbsp;&nbsp; J = NO</p>
","f","html-keyboard-response","27","2.1.0","67164","F=YES, J=NO","mv2ttrdc5c","0","66","63","70","","","","","","lextale","false","false","","","","","","","",""
"860","
  <p style=""font-size: 40px;"">thirst</p>
  <p style=""font-size: 16px;"">F = YES &nbsp;&nbsp;&nbsp; J = NO</p>
","f","html-keyboard-response","28","2.1.0","68025","F=YES, J=NO","mv2ttrdc5c","0","66","63","70","","","","","","lextale","true","false","","","","","","","",""
"1129","
  <p style=""font-size: 40px;"">unsail</p>
  <p style=""font-size: 16px;"">F = YES &nbsp;&nbsp;&nbsp; J = NO</p>
","f","html-keyboard-response","29","2.1.0","69155","F=YES, J=NO","mv2ttrdc5c","0","66","63","70","","","","","","lextale","false","false","","","","","","","",""
"1544","
  <p style=""font-size: 40px;"">rifle</p>
  <p style=""font-size: 16px;"">F = YES &nbsp;&nbsp;&nbsp; J = NO</p>
","f","html-keyboard-response","30","2.1.0","70700","F=YES, J=NO","mv2ttrdc5c","0","66","63","70","","","","","","lextale","true","false","","","","","","","",""
"831","
  <p style=""font-size: 40px;"">mush</p>
  <p style=""font-size: 16px;"">F = YES &nbsp;&nbsp;&nbsp; J = NO</p>
","f","html-keyboard-response","31","2.1.0","71531","F=YES, J=NO","mv2ttrdc5c","0","66","63","70","","","","","","lextale","false","false","","","","","","","",""
"855","
  <p style=""font-size: 40px;"">drench</p>
  <p style=""font-size: 16px;"">F = YES &nbsp;&nbsp;&nbsp; J = NO</p>
","j","html-keyboard-response","32","2.1.0","72388","F=YES, J=NO","mv2ttrdc5c","0","66","63","70","","","","","","lextale","true","false","","","","","","","",""
"862","
  <p style=""font-size: 40px;"">snirt</p>
  <p style=""font-size: 16px;"">F = YES &nbsp;&nbsp;&nbsp; J = NO</p>
","j","html-keyboard-response","33","2.1.0","73252","F=YES, J=NO","mv2ttrdc5c","0","66","63","70","","","","","","lextale","false","false","","","","","","","",""
"742","
  <p style=""font-size: 40px;"">bitter</p>
  <p style=""font-size: 16px;"">F = YES &nbsp;&nbsp;&nbsp; J = NO</p>
","f","html-keyboard-response","34","2.1.0","73995","F=YES, J=NO","mv2ttrdc5c","0","66","63","70","","","","","","lextale","true","false","","","","","","","",""
"759","
  <p style=""font-size: 40px;"">pliff</p>
  <p style=""font-size: 16px;"">F = YES &nbsp;&nbsp;&nbsp; J = NO</p>
","j","html-keyboard-response","35","2.1.0","74756","F=YES, J=NO","mv2ttrdc5c","0","66","63","70","","","","","","lextale","false","false","","","","","","","",""
"855","
  <p style=""font-size: 40px;"">tablet</p>
  <p style=""font-size: 16px;"">F = YES &nbsp;&nbsp;&nbsp; J = NO</p>
","f","html-keyboard-response","36","2.1.0","75612","F=YES, J=NO","mv2ttrdc5c","0","66","63","70","","","","","","lextale","true","false","","","","","","","",""
"1327","
  <p style=""font-size: 40px;"">glimmer</p>
  <p style=""font-size: 16px;"">F = YES &nbsp;&nbsp;&nbsp; J = NO</p>
","j","html-keyboard-response","37","2.1.0","76940","F=YES, J=NO","mv2ttrdc5c","0","66","63","70","","","","","","lextale","true","false","","","","","","","",""
"1326","
  <p style=""font-size: 40px;"">slink</p>
  <p style=""font-size: 16px;"">F = YES &nbsp;&nbsp;&nbsp; J = NO</p>
","f","html-keyboard-response","38","2.1.0","78267","F=YES, J=NO","mv2ttrdc5c","0","66","63","70","","","","","","lextale","true","false","","","","","","","",""
"695","
  <p style=""font-size: 40px;"">clever</p>
  <p style=""font-size: 16px;"">F = YES &nbsp;&nbsp;&nbsp; J = NO</p>
","f","html-keyboard-response","39","2.1.0","78962","F=YES, J=NO","mv2ttrdc5c","0","66","63","70","","","","","","lextale","true","false","","","","","","","",""
"1736","
  <p style=""font-size: 40px;"">grum</p>
  <p style=""font-size: 16px;"">F = YES &nbsp;&nbsp;&nbsp; J = NO</p>
","j","html-keyboard-response","40","2.1.0","80700","F=YES, J=NO","mv2ttrdc5c","0","66","63","70","","","","","","lextale","false","false","","","","","","","",""
"943","
  <p style=""font-size: 40px;"">string</p>
  <p style=""font-size: 16px;"">F = YES &nbsp;&nbsp;&nbsp; J = NO</p>
","f","html-keyboard-response","41","2.1.0","81644","F=YES, J=NO","mv2ttrdc5c","0","66","63","70","","","","","","lextale","true","false","","","","","","","",""
"790","
  <p style=""font-size: 40px;"">plim</p>
  <p style=""font-size: 16px;"">F = YES &nbsp;&nbsp;&nbsp; J = NO</p>
","j","html-keyboard-response","42","2.1.0","82435","F=YES, J=NO","mv2ttrdc5c","0","66","63","70","","","","","","lextale","false","false","","","","","","","",""
"767","
  <p style=""font-size: 40px;"">cable</p>
  <p style=""font-size: 16px;"">F = YES &nbsp;&nbsp;&nbsp; J = NO</p>
","f","html-keyboard-response","43","2.1.0","83204","F=YES, J=NO","mv2ttrdc5c","0","66","63","70","","","","","","lextale","true","false","","","","","","","",""
"766","
  <p style=""font-size: 40px;"">shrivel</p>
  <p style=""font-size: 16px;"">F = YES &nbsp;&nbsp;&nbsp; J = NO</p>
","f","html-keyboard-response","44","2.1.0","83971","F=YES, J=NO","mv2ttrdc5c","0","66","63","70","","","","","","lextale","true","false","","","","","","","",""
"799","
  <p style=""font-size: 40px;"">tarnish</p>
  <p style=""font-size: 16px;"">F = YES &nbsp;&nbsp;&nbsp; J = NO</p>
","j","html-keyboard-response","45","2.1.0","84771","F=YES, J=NO","mv2ttrdc5c","0","66","63","70","","","","","","lextale","true","false","","","","","","","",""
"670","
  <p style=""font-size: 40px;"">blim</p>
  <p style=""font-size: 16px;"">F = YES &nbsp;&nbsp;&nbsp; J = NO</p>
","f","html-keyboard-response","46","2.1.0","85443","F=YES, J=NO","mv2ttrdc5c","0","66","63","70","","","","","","lextale","false","false","","","","","","","",""
"991","
  <p style=""font-size: 40px;"">stifle</p>
  <p style=""font-size: 16px;"">F = YES &nbsp;&nbsp;&nbsp; J = NO</p>
","j","html-keyboard-response","47","2.1.0","86435","F=YES, J=NO","mv2ttrdc5c","0","66","63","70","","","","","","lextale","true","false","","","","","","","",""
"639","
  <p style=""font-size: 40px;"">bint</p>
  <p style=""font-size: 16px;"">F = YES &nbsp;&nbsp;&nbsp; J = NO</p>
","j","html-keyboard-response","48","2.1.0","87076","F=YES, J=NO","mv2ttrdc5c","0","66","63","70","","","","","","lextale","false","false","","","","","","","",""
"783","
  <p style=""font-size: 40px;"">purple</p>
  <p style=""font-size: 16px;"">F = YES &nbsp;&nbsp;&nbsp; J = NO</p>
","f","html-keyboard-response","49","2.1.0","87859","F=YES, J=NO","mv2ttrdc5c","0","66","63","70","","","","","","lextale","true","false","","","","","","","",""
"1239","
  <p style=""font-size: 40px;"">wriggle</p>
  <p style=""font-size: 16px;"">F = YES &nbsp;&nbsp;&nbsp; J = NO</p>
","f","html-keyboard-response","50","2.1.0","89099","F=YES, J=NO","mv2ttrdc5c","0","66","63","70","","","","","","lextale","true","false","","","","","","","",""
"1071","
  <p style=""font-size: 40px;"">mangle</p>
  <p style=""font-size: 16px;"">F = YES &nbsp;&nbsp;&nbsp; J = NO</p>
","f","html-keyboard-response","51","2.1.0","90172","F=YES, J=NO","mv2ttrdc5c","0","66","63","70","","","","","","lextale","true","false","","","","","","","",""
"1414","
  <p style=""font-size: 40px;"">shramp</p>
  <p style=""font-size: 16px;"">F = YES &nbsp;&nbsp;&nbsp; J = NO</p>
","j","html-keyboard-response","52","2.1.0","91587","F=YES, J=NO","mv2ttrdc5c","0","66","63","70","","","","","","lextale","false","false","","","","","","","",""
"1111","
  <p style=""font-size: 40px;"">flirt</p>
  <p style=""font-size: 16px;"">F = YES &nbsp;&nbsp;&nbsp; J = NO</p>
","f","html-keyboard-response","53","2.1.0","92699","F=YES, J=NO","mv2ttrdc5c","0","66","63","70","","","","","","lextale","true","false","","","","","","","",""
"2015","
  <p style=""font-size: 40px;"">frip</p>
  <p style=""font-size: 16px;"">F = YES &nbsp;&nbsp;&nbsp; J = NO</p>
","j","html-keyboard-response","54","2.1.0","94715","F=YES, J=NO","mv2ttrdc5c","0","66","63","70","","","","","","lextale","false","false","","","","","","","",""
"1679","
  <p style=""font-size: 40px;"">tangle</p>
  <p style=""font-size: 16px;"">F = YES &nbsp;&nbsp;&nbsp; J = NO</p>
","f","html-keyboard-response","55","2.1.0","96395","F=YES, J=NO","mv2ttrdc5c","0","66","63","70","","","","","","lextale","true","false","","","","","","","",""
"808","
  <p style=""font-size: 40px;"">crumble</p>
  <p style=""font-size: 16px;"">F = YES &nbsp;&nbsp;&nbsp; J = NO</p>
","f","html-keyboard-response","56","2.1.0","97204","F=YES, J=NO","mv2ttrdc5c","0","66","63","70","","","","","","lextale","true","false","","","","","","","",""
"773","
  <p style=""font-size: 40px;"">wrinkle</p>
  <p style=""font-size: 16px;"">F = YES &nbsp;&nbsp;&nbsp; J = NO</p>
","f","html-keyboard-response","57","2.1.0","97978","F=YES, J=NO","mv2ttrdc5c","0","66","63","70","","","","","","lextale","true","false","","","","","","","",""
"1552","
  <p style=""font-size: 40px;"">slumb</p>
  <p style=""font-size: 16px;"">F = YES &nbsp;&nbsp;&nbsp; J = NO</p>
","f","html-keyboard-response","58","2.1.0","99531","F=YES, J=NO","mv2ttrdc5c","0","66","63","70","","","","","","lextale","false","false","","","","","","","",""
"679","
  <p style=""font-size: 40px;"">jungle</p>
  <p style=""font-size: 16px;"">F = YES &nbsp;&nbsp;&nbsp; J = NO</p>
","f","html-keyboard-response","59","2.1.0","100211","F=YES, J=NO","mv2ttrdc5c","0","66","63","70","","","","","","lextale","true","false","","","","","","","",""
"791","
  <p style=""font-size: 40px;"">frolick</p>
  <p style=""font-size: 16px;"">F = YES &nbsp;&nbsp;&nbsp; J = NO</p>
","j","html-keyboard-response","60","2.1.0","101003","F=YES, J=NO","mv2ttrdc5c","0","66","63","70","","","","","","lextale","false","false","","","","","","","",""
"3134","
      <h2>LexTALE Test Completed</h2>
      <p>Your LexTALE vocabulary score is: <strong>66%</strong></p>
      <p>Press any key to continue.</p>
    "," ","html-keyboard-response","61","2.1.0","104139","F=YES, J=NO","mv2ttrdc5c","0","66","63","70","","","","","","","","","","","","","","","",""
"4399","
    <div style=""max-width: 800px; margin: auto; text-align: left;"">
      <h2>Break Time</h2>
      <p>You have completed the first part of the study.</p>
      <p>You may take a short <strong>30-second break</strong> before continuing.</p>
      <p>When you’re ready, press any key to continue to the final task.</p>
    </div>
  "," ","html-keyboard-response","62","2.1.0","108540","F=YES, J=NO","mv2ttrdc5c","0","66","63","70","","","","","","","","","","","","","","","",""
"18679","
    <div style=""max-width: 800px; margin: auto; text-align: left;"">
      <h2>Part 2: Lexical Decision Task</h2>
      <p>You will now begin the second part of the study.</p>
      <p>Each trial will follow this sequence:</p>
      <ul>
        <li>A fixation cross (+) appears at the center of the screen.</li>
        <li>You will hear a short beep followed by a spoken word.</li>
        <li>A written word will appear briefly on the screen.</li>
      </ul>
      <p>Your task is to judge whether the <strong>written word</strong> is a real English word.</p>
      <p style=""margin-top: 1em;""><strong>Key responses:</strong></p>
      <ul>
        <li><strong>F</strong> = YES (real English word)</li>
        <li><strong>J</strong> = NO (not a real English word)</li>
      </ul>
      <p>Please respond as quickly and accurately as you can.</p>
      <p style=""margin-top: 2em;"">Press any key to continue.</p>
    </div>
  "," ","html-keyboard-response","63","2.1.0","127219","F=YES, J=NO","mv2ttrdc5c","0","66","63","70","","","","","","","","","","","","","","","",""
"5367","
    <div style=""max-width: 800px; margin: auto; text-align: left;"">
      <h2>Before You Begin</h2>
      <p>Make sure your sound is turned on.</p>
      <p>You will hear audio during each trial, but your decision should be based only on the <strong>written word</strong> you see on the screen.</p>
      <p><strong>Reminder:</strong></p>
      <ul>
        <li><strong>F</strong> = YES (real English word)</li>
        <li><strong>J</strong> = NO (not a real English word)</li>
      </ul>
      <p style=""margin-top: 2em;"">Press any key when you are ready to begin.</p>
    </div>
  "," ","html-keyboard-response","64","2.1.0","132587","F=YES, J=NO","mv2ttrdc5c","0","66","63","70","","","","","","","","","","","","","","","",""
"1798","
    <div style=""max-width: 800px; margin: auto; text-align: left;"">
      <h2>Part 2: Practice Trials</h2>
      <p>You will now complete a few <strong>practice trials</strong> to get familiar with the task.</p>
      <p>These trials are <strong>not scored</strong> and are only to help you get used to the format.</p>
      <p style=""margin-top: 2em;"">Press any key to begin.</p>
    </div>
  "," ","html-keyboard-response","65","2.1.0","134387","F=YES, J=NO","mv2ttrdc5c","0","66","63","70","","","","","","","","","","","","","","","",""
"1679","<p>Starting practice block 1 of 2. Press any key to continue.</p>"," ","html-keyboard-response","66","2.1.0","136067","F=YES, J=NO","mv2ttrdc5c","0","66","63","70","","","","","","","","","","","","","","","",""
"null","<p style=""font-size: 50px;"">+</p>","null","html-keyboard-response","67","2.1.0","136370","F=YES, J=NO","mv2ttrdc5c","0","66","63","70","","","","","","","","","","","","","","","",""
"null","audio/beep-329314.mp3","null","audio-keyboard-response","68","2.1.0","137953","F=YES, J=NO","mv2ttrdc5c","0","66","63","70","","","","","","","","","","","","","","","",""
"null","audio/van1.wav","null","audio-keyboard-response","69","2.1.0","138422","F=YES, J=NO","mv2ttrdc5c","0","66","63","70","","","","","","","","","","","","","","","",""
"null","
          <p id=""word"" style=""font-size: 40px;"">push</p>
          <p style=""font-size: 16px;"">F = YES &nbsp;&nbsp;&nbsp; J = NO</p>
        ","null","html-keyboard-response","70","2.1.0","139926","F=YES, J=NO","mv2ttrdc5c","0","66","63","70","","","","","","","","","push","van1","filler","filler","f","false","",""
"null","<p style=""font-size: 50px;"">+</p>","null","html-keyboard-response","71","2.1.0","140228","F=YES, J=NO","mv2ttrdc5c","0","66","63","70","","","","","","","","","","","","","","","",""
"null","audio/beep-329314.mp3","null","audio-keyboard-response","72","2.1.0","141771","F=YES, J=NO","mv2ttrdc5c","0","66","63","70","","","","","","","","","","","","","","","",""
"null","audio/battle1.wav","null","audio-keyboard-response","73","2.1.0","142304","F=YES, J=NO","mv2ttrdc5c","0","66","63","70","","","","","","","","","","","","","","","",""
"906","
          <p id=""word"" style=""font-size: 40px;"">boil</p>
          <p style=""font-size: 16px;"">F = YES &nbsp;&nbsp;&nbsp; J = NO</p>
        ","f","html-keyboard-response","74","2.1.0","143211","F=YES, J=NO","mv2ttrdc5c","0","66","63","70","","","","","","","","","boil","battle1","filler","filler","f","true","",""
"null","<p style=""font-size: 50px;"">+</p>","null","html-keyboard-response","75","2.1.0","143514","F=YES, J=NO","mv2ttrdc5c","0","66","63","70","","","","","","","","","","","","","","","",""
"null","audio/beep-329314.mp3","null","audio-keyboard-response","76","2.1.0","145057","F=YES, J=NO","mv2ttrdc5c","0","66","63","70","","","","","","","","","","","","","","","",""
"null","audio/alarm1.wav","null","audio-keyboard-response","77","2.1.0","145654","F=YES, J=NO","mv2ttrdc5c","0","66","63","70","","","","","","","","","","","","","","","",""
"691","
          <p id=""word"" style=""font-size: 40px;"">swetp</p>
          <p style=""font-size: 16px;"">F = YES &nbsp;&nbsp;&nbsp; J = NO</p>
        ","j","html-keyboard-response","78","2.1.0","146347","F=YES, J=NO","mv2ttrdc5c","0","66","63","70","","","","","","","","","swetp","alarm1","pseudoword","pseudoword","j","true","",""
"null","<p style=""font-size: 50px;"">+</p>","null","html-keyboard-response","79","2.1.0","146650","F=YES, J=NO","mv2ttrdc5c","0","66","63","70","","","","","","","","","","","","","","","",""
"null","audio/beep-329314.mp3","null","audio-keyboard-response","80","2.1.0","148193","F=YES, J=NO","mv2ttrdc5c","0","66","63","70","","","","","","","","","","","","","","","",""
"null","audio/table1.wav","null","audio-keyboard-response","81","2.1.0","148683","F=YES, J=NO","mv2ttrdc5c","0","66","63","70","","","","","","","","","","","","","","","",""
"750","
          <p id=""word"" style=""font-size: 40px;"">stimb</p>
          <p style=""font-size: 16px;"">F = YES &nbsp;&nbsp;&nbsp; J = NO</p>
        ","j","html-keyboard-response","82","2.1.0","149435","F=YES, J=NO","mv2ttrdc5c","0","66","63","70","","","","","","","","","stimb","table1","pseudoword","pseudoword","j","true","",""
"null","<p style=""font-size: 50px;"">+</p>","null","html-keyboard-response","83","2.1.0","149738","F=YES, J=NO","mv2ttrdc5c","0","66","63","70","","","","","","","","","","","","","","","",""
"null","audio/beep-329314.mp3","null","audio-keyboard-response","84","2.1.0","151286","F=YES, J=NO","mv2ttrdc5c","0","66","63","70","","","","","","","","","","","","","","","",""
"null","audio/age1.wav","null","audio-keyboard-response","85","2.1.0","151840","F=YES, J=NO","mv2ttrdc5c","0","66","63","70","","","","","","","","","","","","","","","",""
"825","
          <p id=""word"" style=""font-size: 40px;"">bake</p>
          <p style=""font-size: 16px;"">F = YES &nbsp;&nbsp;&nbsp; J = NO</p>
        ","f","html-keyboard-response","86","2.1.0","152667","F=YES, J=NO","mv2ttrdc5c","0","66","63","70","","","","","","","","","bake","age1","filler","filler","f","true","",""
"null","<p style=""font-size: 50px;"">+</p>","null","html-keyboard-response","87","2.1.0","152969","F=YES, J=NO","mv2ttrdc5c","0","66","63","70","","","","","","","","","","","","","","","",""
"null","audio/beep-329314.mp3","null","audio-keyboard-response","88","2.1.0","154529","F=YES, J=NO","mv2ttrdc5c","0","66","63","70","","","","","","","","","","","","","","","",""
"null","audio/bush1.wav","null","audio-keyboard-response","89","2.1.0","155019","F=YES, J=NO","mv2ttrdc5c","0","66","63","70","","","","","","","","","","","","","","","",""
"718","
          <p id=""word"" style=""font-size: 40px;"">platined</p>
          <p style=""font-size: 16px;"">F = YES &nbsp;&nbsp;&nbsp; J = NO</p>
        ","j","html-keyboard-response","90","2.1.0","155739","F=YES, J=NO","mv2ttrdc5c","0","66","63","70","","","","","","","","","platined","bush1","pseudoword","pseudoword","j","true","",""
"null","<p style=""font-size: 50px;"">+</p>","null","html-keyboard-response","91","2.1.0","156041","F=YES, J=NO","mv2ttrdc5c","0","66","63","70","","","","","","","","","","","","","","","",""
"null","audio/beep-329314.mp3","null","audio-keyboard-response","92","2.1.0","157601","F=YES, J=NO","mv2ttrdc5c","0","66","63","70","","","","","","","","","","","","","","","",""
"null","audio/fence.wav","null","audio-keyboard-response","93","2.1.0","158326","F=YES, J=NO","mv2ttrdc5c","0","66","63","70","","","","","","","","","","","","","","","",""
"1067","
          <p id=""word"" style=""font-size: 40px;"">trim</p>
          <p style=""font-size: 16px;"">F = YES &nbsp;&nbsp;&nbsp; J = NO</p>
        ","j","html-keyboard-response","94","2.1.0","159394","F=YES, J=NO","mv2ttrdc5c","0","66","63","70","","","","","","","","","trim","fence","filler","filler","f","false","",""
"null","<p style=""font-size: 50px;"">+</p>","null","html-keyboard-response","95","2.1.0","159697","F=YES, J=NO","mv2ttrdc5c","0","66","63","70","","","","","","","","","","","","","","","",""
"null","audio/beep-329314.mp3","null","audio-keyboard-response","96","2.1.0","161248","F=YES, J=NO","mv2ttrdc5c","0","66","63","70","","","","","","","","","","","","","","","",""
"null","audio/camera1.wav","null","audio-keyboard-response","97","2.1.0","161739","F=YES, J=NO","mv2ttrdc5c","0","66","63","70","","","","","","","","","","","","","","","",""
"982","
          <p id=""word"" style=""font-size: 40px;"">stir</p>
          <p style=""font-size: 16px;"">F = YES &nbsp;&nbsp;&nbsp; J = NO</p>
        ","f","html-keyboard-response","98","2.1.0","162723","F=YES, J=NO","mv2ttrdc5c","0","66","63","70","","","","","","","","","stir","camera1","filler","filler","f","true","",""
"null","<p style=""font-size: 50px;"">+</p>","null","html-keyboard-response","99","2.1.0","163025","F=YES, J=NO","mv2ttrdc5c","0","66","63","70","","","","","","","","","","","","","","","",""
"null","audio/beep-329314.mp3","null","audio-keyboard-response","100","2.1.0","164577","F=YES, J=NO","mv2ttrdc5c","0","66","63","70","","","","","","","","","","","","","","","",""
"null","audio/cancer1.wav","null","audio-keyboard-response","101","2.1.0","165323","F=YES, J=NO","mv2ttrdc5c","0","66","63","70","","","","","","","","","","","","","","","",""
"638","
          <p id=""word"" style=""font-size: 40px;"">draw</p>
          <p style=""font-size: 16px;"">F = YES &nbsp;&nbsp;&nbsp; J = NO</p>
        ","f","html-keyboard-response","102","2.1.0","165962","F=YES, J=NO","mv2ttrdc5c","0","66","63","70","","","","","","","","","draw","cancer1","filler","filler","f","true","",""
"null","<p style=""font-size: 50px;"">+</p>","null","html-keyboard-response","103","2.1.0","166265","F=YES, J=NO","mv2ttrdc5c","0","66","63","70","","","","","","","","","","","","","","","",""
"null","audio/beep-329314.mp3","null","audio-keyboard-response","104","2.1.0","167819","F=YES, J=NO","mv2ttrdc5c","0","66","63","70","","","","","","","","","","","","","","","",""
"null","audio/emotion.wav","null","audio-keyboard-response","105","2.1.0","168544","F=YES, J=NO","mv2ttrdc5c","0","66","63","70","","","","","","","","","","","","","","","",""
"888","
          <p id=""word"" style=""font-size: 40px;"">devering</p>
          <p style=""font-size: 16px;"">F = YES &nbsp;&nbsp;&nbsp; J = NO</p>
        ","j","html-keyboard-response","106","2.1.0","169434","F=YES, J=NO","mv2ttrdc5c","0","66","63","70","","","","","","","","","devering","emotion","pseudoword","pseudoword","j","true","",""
"null","<p style=""font-size: 50px;"">+</p>","null","html-keyboard-response","107","2.1.0","169736","F=YES, J=NO","mv2ttrdc5c","0","66","63","70","","","","","","","","","","","","","","","",""
"null","audio/beep-329314.mp3","null","audio-keyboard-response","108","2.1.0","171275","F=YES, J=NO","mv2ttrdc5c","0","66","63","70","","","","","","","","","","","","","","","",""
"null","audio/winter.wav","null","audio-keyboard-response","109","2.1.0","171851","F=YES, J=NO","mv2ttrdc5c","0","66","63","70","","","","","","","","","","","","","","","",""
"470","
          <p id=""word"" style=""font-size: 40px;"">straven</p>
          <p style=""font-size: 16px;"">F = YES &nbsp;&nbsp;&nbsp; J = NO</p>
        ","j","html-keyboard-response","110","2.1.0","172322","F=YES, J=NO","mv2ttrdc5c","0","66","63","70","","","","","","","","","straven","winter","pseudoword","pseudoword","j","true","",""
"null","<p style=""font-size: 50px;"">+</p>","null","html-keyboard-response","111","2.1.0","172625","F=YES, J=NO","mv2ttrdc5c","0","66","63","70","","","","","","","","","","","","","","","",""
"null","audio/beep-329314.mp3","null","audio-keyboard-response","112","2.1.0","174176","F=YES, J=NO","mv2ttrdc5c","0","66","63","70","","","","","","","","","","","","","","","",""
"null","audio/noise1.wav","null","audio-keyboard-response","113","2.1.0","174795","F=YES, J=NO","mv2ttrdc5c","0","66","63","70","","","","","","","","","","","","","","","",""
"759","
          <p id=""word"" style=""font-size: 40px;"">slintered</p>
          <p style=""font-size: 16px;"">F = YES &nbsp;&nbsp;&nbsp; J = NO</p>
        ","j","html-keyboard-response","114","2.1.0","175555","F=YES, J=NO","mv2ttrdc5c","0","66","63","70","","","","","","","","","slintered","noise1","pseudoword","pseudoword","j","true","",""
"1343","<p>Starting practice block 2 of 2. Press any key to continue.</p>"," ","html-keyboard-response","115","2.1.0","176898","F=YES, J=NO","mv2ttrdc5c","0","66","63","70","","","","","","","","","","","","","","","",""
"null","<p style=""font-size: 50px;"">+</p>","null","html-keyboard-response","116","2.1.0","177201","F=YES, J=NO","mv2ttrdc5c","0","66","63","70","","","","","","","","","","","","","","","",""
"null","audio/beep-329314.mp3","null","audio-keyboard-response","117","2.1.0","178742","F=YES, J=NO","mv2ttrdc5c","0","66","63","70","","","","","","","","","","","","","","","",""
"null","audio/window1.wav","null","audio-keyboard-response","118","2.1.0","179424","F=YES, J=NO","mv2ttrdc5c","0","66","63","70","","","","","","","","","","","","","","","",""
"969","
          <p id=""word"" style=""font-size: 40px;"">toss</p>
          <p style=""font-size: 16px;"">F = YES &nbsp;&nbsp;&nbsp; J = NO</p>
        ","f","html-keyboard-response","119","2.1.0","180394","F=YES, J=NO","mv2ttrdc5c","0","66","63","70","","","","","","","","","toss","window1","filler","filler","f","true","",""
"null","<p style=""font-size: 50px;"">+</p>","null","html-keyboard-response","120","2.1.0","180697","F=YES, J=NO","mv2ttrdc5c","0","66","63","70","","","","","","","","","","","","","","","",""
"null","audio/beep-329314.mp3","null","audio-keyboard-response","121","2.1.0","182240","F=YES, J=NO","mv2ttrdc5c","0","66","63","70","","","","","","","","","","","","","","","",""
"null","audio/sand.wav","null","audio-keyboard-response","122","2.1.0","182901","F=YES, J=NO","mv2ttrdc5c","0","66","63","70","","","","","","","","","","","","","","","",""
"723","
          <p id=""word"" style=""font-size: 40px;"">proted</p>
          <p style=""font-size: 16px;"">F = YES &nbsp;&nbsp;&nbsp; J = NO</p>
        ","j","html-keyboard-response","123","2.1.0","183626","F=YES, J=NO","mv2ttrdc5c","0","66","63","70","","","","","","","","","proted","sand","pseudoword","pseudoword","j","true","",""
"null","<p style=""font-size: 50px;"">+</p>","null","html-keyboard-response","124","2.1.0","183929","F=YES, J=NO","mv2ttrdc5c","0","66","63","70","","","","","","","","","","","","","","","",""
"null","audio/beep-329314.mp3","null","audio-keyboard-response","125","2.1.0","185483","F=YES, J=NO","mv2ttrdc5c","0","66","63","70","","","","","","","","","","","","","","","",""
"null","audio/trust.wav","null","audio-keyboard-response","126","2.1.0","186187","F=YES, J=NO","mv2ttrdc5c","0","66","63","70","","","","","","","","","","","","","","","",""
"655","
          <p id=""word"" style=""font-size: 40px;"">swint</p>
          <p style=""font-size: 16px;"">F = YES &nbsp;&nbsp;&nbsp; J = NO</p>
        ","j","html-keyboard-response","127","2.1.0","186843","F=YES, J=NO","mv2ttrdc5c","0","66","63","70","","","","","","","","","swint","trust","pseudoword","pseudoword","j","true","",""
"null","<p style=""font-size: 50px;"">+</p>","null","html-keyboard-response","128","2.1.0","187146","F=YES, J=NO","mv2ttrdc5c","0","66","63","70","","","","","","","","","","","","","","","",""
"null","audio/beep-329314.mp3","null","audio-keyboard-response","129","2.1.0","188704","F=YES, J=NO","mv2ttrdc5c","0","66","63","70","","","","","","","","","","","","","","","",""
"null","audio/road.wav","null","audio-keyboard-response","130","2.1.0","189152","F=YES, J=NO","mv2ttrdc5c","0","66","63","70","","","","","","","","","","","","","","","",""
"1480","
          <p id=""word"" style=""font-size: 40px;"">wappings</p>
          <p style=""font-size: 16px;"">F = YES &nbsp;&nbsp;&nbsp; J = NO</p>
        ","j","html-keyboard-response","131","2.1.0","190634","F=YES, J=NO","mv2ttrdc5c","0","66","63","70","","","","","","","","","wappings","road","pseudoword","pseudoword","j","true","",""
"null","<p style=""font-size: 50px;"">+</p>","null","html-keyboard-response","132","2.1.0","190936","F=YES, J=NO","mv2ttrdc5c","0","66","63","70","","","","","","","","","","","","","","","",""
"null","audio/beep-329314.mp3","null","audio-keyboard-response","133","2.1.0","192480","F=YES, J=NO","mv2ttrdc5c","0","66","63","70","","","","","","","","","","","","","","","",""
"null","audio/terrain.wav","null","audio-keyboard-response","134","2.1.0","193141","F=YES, J=NO","mv2ttrdc5c","0","66","63","70","","","","","","","","","","","","","","","",""
"731","
          <p id=""word"" style=""font-size: 40px;"">twist</p>
          <p style=""font-size: 16px;"">F = YES &nbsp;&nbsp;&nbsp; J = NO</p>
        ","f","html-keyboard-response","135","2.1.0","193874","F=YES, J=NO","mv2ttrdc5c","0","66","63","70","","","","","","","","","twist","terrain","filler","filler","f","true","",""
"null","<p style=""font-size: 50px;"">+</p>","null","html-keyboard-response","136","2.1.0","194176","F=YES, J=NO","mv2ttrdc5c","0","66","63","70","","","","","","","","","","","","","","","",""
"null","audio/beep-329314.mp3","null","audio-keyboard-response","137","2.1.0","195723","F=YES, J=NO","mv2ttrdc5c","0","66","63","70","","","","","","","","","","","","","","","",""
"null","audio/birth1.wav","null","audio-keyboard-response","138","2.1.0","196341","F=YES, J=NO","mv2ttrdc5c","0","66","63","70","","","","","","","","","","","","","","","",""
"531","
          <p id=""word"" style=""font-size: 40px;"">peel</p>
          <p style=""font-size: 16px;"">F = YES &nbsp;&nbsp;&nbsp; J = NO</p>
        ","j","html-keyboard-response","139","2.1.0","196874","F=YES, J=NO","mv2ttrdc5c","0","66","63","70","","","","","","","","","peel","birth1","filler","filler","f","false","",""
"null","<p style=""font-size: 50px;"">+</p>","null","html-keyboard-response","140","2.1.0","197177","F=YES, J=NO","mv2ttrdc5c","0","66","63","70","","","","","","","","","","","","","","","",""
"null","audio/beep-329314.mp3","null","audio-keyboard-response","141","2.1.0","198731","F=YES, J=NO","mv2ttrdc5c","0","66","63","70","","","","","","","","","","","","","","","",""
"null","audio/bottle.wav","null","audio-keyboard-response","142","2.1.0","199242","F=YES, J=NO","mv2ttrdc5c","0","66","63","70","","","","","","","","","","","","","","","",""
"694","
          <p id=""word"" style=""font-size: 40px;"">watch</p>
          <p style=""font-size: 16px;"">F = YES &nbsp;&nbsp;&nbsp; J = NO</p>
        ","f","html-keyboard-response","143","2.1.0","199938","F=YES, J=NO","mv2ttrdc5c","0","66","63","70","","","","","","","","","watch","bottle","filler","filler","f","true","",""
"null","<p style=""font-size: 50px;"">+</p>","null","html-keyboard-response","144","2.1.0","200241","F=YES, J=NO","mv2ttrdc5c","0","66","63","70","","","","","","","","","","","","","","","",""
"null","audio/beep-329314.mp3","null","audio-keyboard-response","145","2.1.0","201781","F=YES, J=NO","mv2ttrdc5c","0","66","63","70","","","","","","","","","","","","","","","",""
"null","audio/purpose.wav","null","audio-keyboard-response","146","2.1.0","202528","F=YES, J=NO","mv2ttrdc5c","0","66","63","70","","","","","","","","","","","","","","","",""
"545","
          <p id=""word"" style=""font-size: 40px;"">whigm</p>
          <p style=""font-size: 16px;"">F = YES &nbsp;&nbsp;&nbsp; J = NO</p>
        ","j","html-keyboard-response","147","2.1.0","203074","F=YES, J=NO","mv2ttrdc5c","0","66","63","70","","","","","","","","","whigm","purpose","pseudoword","pseudoword","j","true","",""
"null","<p style=""font-size: 50px;"">+</p>","null","html-keyboard-response","148","2.1.0","203377","F=YES, J=NO","mv2ttrdc5c","0","66","63","70","","","","","","","","","","","","","","","",""
"null","audio/beep-329314.mp3","null","audio-keyboard-response","149","2.1.0","204917","F=YES, J=NO","mv2ttrdc5c","0","66","63","70","","","","","","","","","","","","","","","",""
"null","audio/butter1.wav","null","audio-keyboard-response","150","2.1.0","205386","F=YES, J=NO","mv2ttrdc5c","0","66","63","70","","","","","","","","","","","","","","","",""
"718","
          <p id=""word"" style=""font-size: 40px;"">chew</p>
          <p style=""font-size: 16px;"">F = YES &nbsp;&nbsp;&nbsp; J = NO</p>
        ","f","html-keyboard-response","151","2.1.0","206106","F=YES, J=NO","mv2ttrdc5c","0","66","63","70","","","","","","","","","chew","butter1","filler","filler","f","true","",""
"null","<p style=""font-size: 50px;"">+</p>","null","html-keyboard-response","152","2.1.0","206409","F=YES, J=NO","mv2ttrdc5c","0","66","63","70","","","","","","","","","","","","","","","",""
"null","audio/beep-329314.mp3","null","audio-keyboard-response","153","2.1.0","207968","F=YES, J=NO","mv2ttrdc5c","0","66","63","70","","","","","","","","","","","","","","","",""
"null","audio/breath.wav","null","audio-keyboard-response","154","2.1.0","208544","F=YES, J=NO","mv2ttrdc5c","0","66","63","70","","","","","","","","","","","","","","","",""
"1025","
          <p id=""word"" style=""font-size: 40px;"">pack</p>
          <p style=""font-size: 16px;"">F = YES &nbsp;&nbsp;&nbsp; J = NO</p>
        ","f","html-keyboard-response","155","2.1.0","209570","F=YES, J=NO","mv2ttrdc5c","0","66","63","70","","","","","","","","","pack","breath","filler","filler","f","true","",""
"null","<p style=""font-size: 50px;"">+</p>","null","html-keyboard-response","156","2.1.0","209873","F=YES, J=NO","mv2ttrdc5c","0","66","63","70","","","","","","","","","","","","","","","",""
"null","audio/beep-329314.mp3","null","audio-keyboard-response","157","2.1.0","211424","F=YES, J=NO","mv2ttrdc5c","0","66","63","70","","","","","","","","","","","","","","","",""
"null","audio/client1.wav","null","audio-keyboard-response","158","2.1.0","212170","F=YES, J=NO","mv2ttrdc5c","0","66","63","70","","","","","","","","","","","","","","","",""
"558","
          <p id=""word"" style=""font-size: 40px;"">droothe</p>
          <p style=""font-size: 16px;"">F = YES &nbsp;&nbsp;&nbsp; J = NO</p>
        ","j","html-keyboard-response","159","2.1.0","212730","F=YES, J=NO","mv2ttrdc5c","0","66","63","70","","","","","","","","","droothe","client1","pseudoword","pseudoword","j","true","",""
"null","<p style=""font-size: 50px;"">+</p>","null","html-keyboard-response","160","2.1.0","213032","F=YES, J=NO","mv2ttrdc5c","0","66","63","70","","","","","","","","","","","","","","","",""
"null","audio/beep-329314.mp3","null","audio-keyboard-response","161","2.1.0","214581","F=YES, J=NO","mv2ttrdc5c","0","66","63","70","","","","","","","","","","","","","","","",""
"null","audio/weight1.wav","null","audio-keyboard-response","162","2.1.0","215200","F=YES, J=NO","mv2ttrdc5c","0","66","63","70","","","","","","","","","","","","","","","",""
"960","
          <p id=""word"" style=""font-size: 40px;"">crimsh</p>
          <p style=""font-size: 16px;"">F = YES &nbsp;&nbsp;&nbsp; J = NO</p>
        ","j","html-keyboard-response","163","2.1.0","216161","F=YES, J=NO","mv2ttrdc5c","0","66","63","70","","","","","","","","","crimsh","weight1","pseudoword","pseudoword","j","true","",""
"9505","
    <div style=""max-width: 800px; margin: auto; text-align: left;"">
      <h2>Part 2: Main Trials</h2>
      <p>Great job on the practice trials!</p>
      <p>You will now begin the <strong>main set of trials</strong>.</p>
      <p>Remember your key assignments:</p>
      <ul>
        <li><strong>F</strong> = YES (real English word)</li>
        <li><strong>J</strong> = NO (not a real English word)</li>
      </ul>
      <p>Try to respond as <strong>quickly and accurately</strong> as possible.</p>
      <p style=""margin-top: 2em;"">Press any key to begin the main trials.</p>
    </div>
  "," ","html-keyboard-response","164","2.1.0","225667","F=YES, J=NO","mv2ttrdc5c","0","66","63","70","","","","","","","","","","","","","","","",""
"1374","<p>Starting main block 1 of 8. Press any key to continue.</p>"," ","html-keyboard-response","165","2.1.0","227042","F=YES, J=NO","mv2ttrdc5c","0","66","63","70","","","","","","","","","","","","","","","",""
"null","<p style=""font-size: 50px;"">+</p>","null","html-keyboard-response","166","2.1.0","227345","F=YES, J=NO","mv2ttrdc5c","0","66","63","70","","","","","","","","","","","","","","","",""
"null","audio/beep-329314.mp3","null","audio-keyboard-response","167","2.1.0","228911","F=YES, J=NO","mv2ttrdc5c","0","66","63","70","","","","","","","","","","","","","","","",""
"null","audio/cash1.wav","null","audio-keyboard-response","168","2.1.0","229466","F=YES, J=NO","mv2ttrdc5c","0","66","63","70","","","","","","","","","","","","","","","",""
"774","
          <p id=""word"" style=""font-size: 40px;"">invest</p>
          <p style=""font-size: 16px;"">F = YES &nbsp;&nbsp;&nbsp; J = NO</p>
        ","f","html-keyboard-response","169","2.1.0","230242","F=YES, J=NO","mv2ttrdc5c","0","66","63","70","","","","","","","","","invest","cash1","literal","experimental","f","true","",""
"null","<p style=""font-size: 50px;"">+</p>","null","html-keyboard-response","170","2.1.0","230545","F=YES, J=NO","mv2ttrdc5c","0","66","63","70","","","","","","","","","","","","","","","",""
"null","audio/beep-329314.mp3","null","audio-keyboard-response","171","2.1.0","232090","F=YES, J=NO","mv2ttrdc5c","0","66","63","70","","","","","","","","","","","","","","","",""
"null","audio/arm.wav","null","audio-keyboard-response","172","2.1.0","232645","F=YES, J=NO","mv2ttrdc5c","0","66","63","70","","","","","","","","","","","","","","","",""
"692","
          <p id=""word"" style=""font-size: 40px;"">fold</p>
          <p style=""font-size: 16px;"">F = YES &nbsp;&nbsp;&nbsp; J = NO</p>
        ","f","html-keyboard-response","173","2.1.0","233338","F=YES, J=NO","mv2ttrdc5c","0","66","63","70","","","","","","","","","fold","arm","filler","filler","f","true","",""
"null","<p style=""font-size: 50px;"">+</p>","null","html-keyboard-response","174","2.1.0","233641","F=YES, J=NO","mv2ttrdc5c","0","66","63","70","","","","","","","","","","","","","","","",""
"null","audio/beep-329314.mp3","null","audio-keyboard-response","175","2.1.0","235183","F=YES, J=NO","mv2ttrdc5c","0","66","63","70","","","","","","","","","","","","","","","",""
"null","audio/pattern.wav","null","audio-keyboard-response","176","2.1.0","235695","F=YES, J=NO","mv2ttrdc5c","0","66","63","70","","","","","","","","","","","","","","","",""
"809","
          <p id=""word"" style=""font-size: 40px;"">tug</p>
          <p style=""font-size: 16px;"">F = YES &nbsp;&nbsp;&nbsp; J = NO</p>
        ","j","html-keyboard-response","177","2.1.0","236505","F=YES, J=NO","mv2ttrdc5c","0","66","63","70","","","","","","","","","tug","pattern","filler","filler","f","false","",""
"null","<p style=""font-size: 50px;"">+</p>","null","html-keyboard-response","178","2.1.0","236808","F=YES, J=NO","mv2ttrdc5c","0","66","63","70","","","","","","","","","","","","","","","",""
"null","audio/beep-329314.mp3","null","audio-keyboard-response","179","2.1.0","238362","F=YES, J=NO","mv2ttrdc5c","0","66","63","70","","","","","","","","","","","","","","","",""
"null","audio/planet1.wav","null","audio-keyboard-response","180","2.1.0","238959","F=YES, J=NO","mv2ttrdc5c","0","66","63","70","","","","","","","","","","","","","","","",""
"729","
          <p id=""word"" style=""font-size: 40px;"">save</p>
          <p style=""font-size: 16px;"">F = YES &nbsp;&nbsp;&nbsp; J = NO</p>
        ","f","html-keyboard-response","181","2.1.0","239689","F=YES, J=NO","mv2ttrdc5c","0","66","63","70","","","","","","","","","save","planet1","metaphor","experimental","f","true","",""
"null","<p style=""font-size: 50px;"">+</p>","null","html-keyboard-response","182","2.1.0","239992","F=YES, J=NO","mv2ttrdc5c","0","66","63","70","","","","","","","","","","","","","","","",""
"null","audio/beep-329314.mp3","null","audio-keyboard-response","183","2.1.0","241541","F=YES, J=NO","mv2ttrdc5c","0","66","63","70","","","","","","","","","","","","","","","",""
"null","audio/alarm1.wav","null","audio-keyboard-response","184","2.1.0","242138","F=YES, J=NO","mv2ttrdc5c","0","66","63","70","","","","","","","","","","","","","","","",""
"646","
          <p id=""word"" style=""font-size: 40px;"">lock</p>
          <p style=""font-size: 16px;"">F = YES &nbsp;&nbsp;&nbsp; J = NO</p>
        ","f","html-keyboard-response","185","2.1.0","242785","F=YES, J=NO","mv2ttrdc5c","0","66","63","70","","","","","","","","","lock","alarm1","filler","filler","f","true","",""
"null","<p style=""font-size: 50px;"">+</p>","null","html-keyboard-response","186","2.1.0","243089","F=YES, J=NO","mv2ttrdc5c","0","66","63","70","","","","","","","","","","","","","","","",""
"null","audio/beep-329314.mp3","null","audio-keyboard-response","187","2.1.0","244634","F=YES, J=NO","mv2ttrdc5c","0","66","63","70","","","","","","","","","","","","","","","",""
"null","audio/case1.wav","null","audio-keyboard-response","188","2.1.0","245146","F=YES, J=NO","mv2ttrdc5c","0","66","63","70","","","","","","","","","","","","","","","",""
"598","
          <p id=""word"" style=""font-size: 40px;"">close</p>
          <p style=""font-size: 16px;"">F = YES &nbsp;&nbsp;&nbsp; J = NO</p>
        ","f","html-keyboard-response","189","2.1.0","245745","F=YES, J=NO","mv2ttrdc5c","0","66","63","70","","","","","","","","","close","case1","metaphor","experimental","f","true","",""
"null","<p style=""font-size: 50px;"">+</p>","null","html-keyboard-response","190","2.1.0","246048","F=YES, J=NO","mv2ttrdc5c","0","66","63","70","","","","","","","","","","","","","","","",""
"null","audio/beep-329314.mp3","null","audio-keyboard-response","191","2.1.0","247599","F=YES, J=NO","mv2ttrdc5c","0","66","63","70","","","","","","","","","","","","","","","",""
"null","audio/cash1.wav","null","audio-keyboard-response","192","2.1.0","248175","F=YES, J=NO","mv2ttrdc5c","0","66","63","70","","","","","","","","","","","","","","","",""
"785","
          <p id=""word"" style=""font-size: 40px;"">splear</p>
          <p style=""font-size: 16px;"">F = YES &nbsp;&nbsp;&nbsp; J = NO</p>
        ","j","html-keyboard-response","193","2.1.0","248962","F=YES, J=NO","mv2ttrdc5c","0","66","63","70","","","","","","","","","splear","cash1","pseudoword","pseudoword","j","true","",""
"null","<p style=""font-size: 50px;"">+</p>","null","html-keyboard-response","194","2.1.0","249265","F=YES, J=NO","mv2ttrdc5c","0","66","63","70","","","","","","","","","","","","","","","",""
"null","audio/beep-329314.mp3","null","audio-keyboard-response","195","2.1.0","250820","F=YES, J=NO","mv2ttrdc5c","0","66","63","70","","","","","","","","","","","","","","","",""
"null","audio/tomato.wav","null","audio-keyboard-response","196","2.1.0","251503","F=YES, J=NO","mv2ttrdc5c","0","66","63","70","","","","","","","","","","","","","","","",""
"585","
          <p id=""word"" style=""font-size: 40px;"">grow</p>
          <p style=""font-size: 16px;"">F = YES &nbsp;&nbsp;&nbsp; J = NO</p>
        ","f","html-keyboard-response","197","2.1.0","252089","F=YES, J=NO","mv2ttrdc5c","0","66","63","70","","","","","","","","","grow","tomato","literal","experimental","f","true","",""
"null","<p style=""font-size: 50px;"">+</p>","null","html-keyboard-response","198","2.1.0","252392","F=YES, J=NO","mv2ttrdc5c","0","66","63","70","","","","","","","","","","","","","","","",""
"null","audio/beep-329314.mp3","null","audio-keyboard-response","199","2.1.0","253935","F=YES, J=NO","mv2ttrdc5c","0","66","63","70","","","","","","","","","","","","","","","",""
"null","audio/ground.wav","null","audio-keyboard-response","200","2.1.0","254532","F=YES, J=NO","mv2ttrdc5c","0","66","63","70","","","","","","","","","","","","","","","",""
"692","
          <p id=""word"" style=""font-size: 40px;"">touch</p>
          <p style=""font-size: 16px;"">F = YES &nbsp;&nbsp;&nbsp; J = NO</p>
        ","f","html-keyboard-response","201","2.1.0","255225","F=YES, J=NO","mv2ttrdc5c","0","66","63","70","","","","","","","","","touch","ground","literal","experimental","f","true","",""
"null","<p style=""font-size: 50px;"">+</p>","null","html-keyboard-response","202","2.1.0","255528","F=YES, J=NO","mv2ttrdc5c","0","66","63","70","","","","","","","","","","","","","","","",""
"null","audio/beep-329314.mp3","null","audio-keyboard-response","203","2.1.0","257071","F=YES, J=NO","mv2ttrdc5c","0","66","63","70","","","","","","","","","","","","","","","",""
"null","audio/foe1.wav","null","audio-keyboard-response","204","2.1.0","257583","F=YES, J=NO","mv2ttrdc5c","0","66","63","70","","","","","","","","","","","","","","","",""
"753","
          <p id=""word"" style=""font-size: 40px;"">creth</p>
          <p style=""font-size: 16px;"">F = YES &nbsp;&nbsp;&nbsp; J = NO</p>
        ","j","html-keyboard-response","205","2.1.0","258337","F=YES, J=NO","mv2ttrdc5c","0","66","63","70","","","","","","","","","creth","foe1","pseudoword","pseudoword","j","true","",""
"null","<p style=""font-size: 50px;"">+</p>","null","html-keyboard-response","206","2.1.0","258640","F=YES, J=NO","mv2ttrdc5c","0","66","63","70","","","","","","","","","","","","","","","",""
"null","audio/beep-329314.mp3","null","audio-keyboard-response","207","2.1.0","260186","F=YES, J=NO","mv2ttrdc5c","0","66","63","70","","","","","","","","","","","","","","","",""
"null","audio/cave1.wav","null","audio-keyboard-response","208","2.1.0","260740","F=YES, J=NO","mv2ttrdc5c","0","66","63","70","","","","","","","","","","","","","","","",""
"716","
          <p id=""word"" style=""font-size: 40px;"">blacket</p>
          <p style=""font-size: 16px;"">F = YES &nbsp;&nbsp;&nbsp; J = NO</p>
        ","f","html-keyboard-response","209","2.1.0","261458","F=YES, J=NO","mv2ttrdc5c","0","66","63","70","","","","","","","","","blacket","cave1","pseudoword","pseudoword","j","false","",""
"null","<p style=""font-size: 50px;"">+</p>","null","html-keyboard-response","210","2.1.0","261761","F=YES, J=NO","mv2ttrdc5c","0","66","63","70","","","","","","","","","","","","","","","",""
"null","audio/beep-329314.mp3","null","audio-keyboard-response","211","2.1.0","263300","F=YES, J=NO","mv2ttrdc5c","0","66","63","70","","","","","","","","","","","","","","","",""
"null","audio/neck.wav","null","audio-keyboard-response","212","2.1.0","263855","F=YES, J=NO","mv2ttrdc5c","0","66","63","70","","","","","","","","","","","","","","","",""
"649","
          <p id=""word"" style=""font-size: 40px;"">share</p>
          <p style=""font-size: 16px;"">F = YES &nbsp;&nbsp;&nbsp; J = NO</p>
        ","f","html-keyboard-response","213","2.1.0","264505","F=YES, J=NO","mv2ttrdc5c","0","66","63","70","","","","","","","","","share","neck","unrelated","experimental","f","true","",""
"null","<p style=""font-size: 50px;"">+</p>","null","html-keyboard-response","214","2.1.0","264808","F=YES, J=NO","mv2ttrdc5c","0","66","63","70","","","","","","","","","","","","","","","",""
"null","audio/beep-329314.mp3","null","audio-keyboard-response","215","2.1.0","266351","F=YES, J=NO","mv2ttrdc5c","0","66","63","70","","","","","","","","","","","","","","","",""
"null","audio/rank1.wav","null","audio-keyboard-response","216","2.1.0","266927","F=YES, J=NO","mv2ttrdc5c","0","66","63","70","","","","","","","","","","","","","","","",""
"673","
          <p id=""word"" style=""font-size: 40px;"">climb</p>
          <p style=""font-size: 16px;"">F = YES &nbsp;&nbsp;&nbsp; J = NO</p>
        ","f","html-keyboard-response","217","2.1.0","267601","F=YES, J=NO","mv2ttrdc5c","0","66","63","70","","","","","","","","","climb","rank1","metaphor","experimental","f","true","",""
"null","<p style=""font-size: 50px;"">+</p>","null","html-keyboard-response","218","2.1.0","267905","F=YES, J=NO","mv2ttrdc5c","0","66","63","70","","","","","","","","","","","","","","","",""
"null","audio/beep-329314.mp3","null","audio-keyboard-response","219","2.1.0","269444","F=YES, J=NO","mv2ttrdc5c","0","66","63","70","","","","","","","","","","","","","","","",""
"null","audio/meal.wav","null","audio-keyboard-response","220","2.1.0","269892","F=YES, J=NO","mv2ttrdc5c","0","66","63","70","","","","","","","","","","","","","","","",""
"739","
          <p id=""word"" style=""font-size: 40px;"">gallite</p>
          <p style=""font-size: 16px;"">F = YES &nbsp;&nbsp;&nbsp; J = NO</p>
        ","j","html-keyboard-response","221","2.1.0","270632","F=YES, J=NO","mv2ttrdc5c","0","66","63","70","","","","","","","","","gallite","meal","pseudoword","pseudoword","j","true","",""
"null","<p style=""font-size: 50px;"">+</p>","null","html-keyboard-response","222","2.1.0","270935","F=YES, J=NO","mv2ttrdc5c","0","66","63","70","","","","","","","","","","","","","","","",""
"null","audio/beep-329314.mp3","null","audio-keyboard-response","223","2.1.0","272473","F=YES, J=NO","mv2ttrdc5c","0","66","63","70","","","","","","","","","","","","","","","",""
"null","audio/strength.wav","null","audio-keyboard-response","224","2.1.0","273220","F=YES, J=NO","mv2ttrdc5c","0","66","63","70","","","","","","","","","","","","","","","",""
"748","
          <p id=""word"" style=""font-size: 40px;"">plabet</p>
          <p style=""font-size: 16px;"">F = YES &nbsp;&nbsp;&nbsp; J = NO</p>
        ","j","html-keyboard-response","225","2.1.0","273969","F=YES, J=NO","mv2ttrdc5c","0","66","63","70","","","","","","","","","plabet","strength","pseudoword","pseudoword","j","true","",""
"null","<p style=""font-size: 50px;"">+</p>","null","html-keyboard-response","226","2.1.0","274271","F=YES, J=NO","mv2ttrdc5c","0","66","63","70","","","","","","","","","","","","","","","",""
"null","audio/beep-329314.mp3","null","audio-keyboard-response","227","2.1.0","275823","F=YES, J=NO","mv2ttrdc5c","0","66","63","70","","","","","","","","","","","","","","","",""
"null","audio/test1.wav","null","audio-keyboard-response","228","2.1.0","276399","F=YES, J=NO","mv2ttrdc5c","0","66","63","70","","","","","","","","","","","","","","","",""
"545","
          <p id=""word"" style=""font-size: 40px;"">twopch</p>
          <p style=""font-size: 16px;"">F = YES &nbsp;&nbsp;&nbsp; J = NO</p>
        ","j","html-keyboard-response","229","2.1.0","276944","F=YES, J=NO","mv2ttrdc5c","0","66","63","70","","","","","","","","","twopch","test1","pseudoword","pseudoword","j","true","",""
"631","<p>Excellent! You have finished block 1 of 8.</p>
                     <p>Feel free to take a 30 second break.</p>
                     <p>Press any key when you're ready to continue.</p>"," ","html-keyboard-response","230","2.1.0","277576","F=YES, J=NO","mv2ttrdc5c","0","66","63","70","","","","","","","","","","","","","","","",""
"511","<p>Starting main block 2 of 8. Press any key to continue.</p>"," ","html-keyboard-response","231","2.1.0","278088","F=YES, J=NO","mv2ttrdc5c","0","66","63","70","","","","","","","","","","","","","","","",""
"null","<p style=""font-size: 50px;"">+</p>","null","html-keyboard-response","232","2.1.0","278391","F=YES, J=NO","mv2ttrdc5c","0","66","63","70","","","","","","","","","","","","","","","",""
"null","audio/beep-329314.mp3","null","audio-keyboard-response","233","2.1.0","279940","F=YES, J=NO","mv2ttrdc5c","0","66","63","70","","","","","","","","","","","","","","","",""
"null","audio/pain1.wav","null","audio-keyboard-response","234","2.1.0","280388","F=YES, J=NO","mv2ttrdc5c","0","66","63","70","","","","","","","","","","","","","","","",""
"595","
          <p id=""word"" style=""font-size: 40px;"">tritted</p>
          <p style=""font-size: 16px;"">F = YES &nbsp;&nbsp;&nbsp; J = NO</p>
        ","j","html-keyboard-response","235","2.1.0","280984","F=YES, J=NO","mv2ttrdc5c","0","66","63","70","","","","","","","","","tritted","pain1","pseudoword","pseudoword","j","true","",""
"null","<p style=""font-size: 50px;"">+</p>","null","html-keyboard-response","236","2.1.0","281287","F=YES, J=NO","mv2ttrdc5c","0","66","63","70","","","","","","","","","","","","","","","",""
"null","audio/beep-329314.mp3","null","audio-keyboard-response","237","2.1.0","282841","F=YES, J=NO","mv2ttrdc5c","0","66","63","70","","","","","","","","","","","","","","","",""
"null","audio/camera1.wav","null","audio-keyboard-response","238","2.1.0","283332","F=YES, J=NO","mv2ttrdc5c","0","66","63","70","","","","","","","","","","","","","","","",""
"676","
          <p id=""word"" style=""font-size: 40px;"">bring</p>
          <p style=""font-size: 16px;"">F = YES &nbsp;&nbsp;&nbsp; J = NO</p>
        ","f","html-keyboard-response","239","2.1.0","284009","F=YES, J=NO","mv2ttrdc5c","0","66","63","70","","","","","","","","","bring","camera1","literal","experimental","f","true","",""
"null","<p style=""font-size: 50px;"">+</p>","null","html-keyboard-response","240","2.1.0","284311","F=YES, J=NO","mv2ttrdc5c","0","66","63","70","","","","","","","","","","","","","","","",""
"null","audio/beep-329314.mp3","null","audio-keyboard-response","241","2.1.0","285849","F=YES, J=NO","mv2ttrdc5c","0","66","63","70","","","","","","","","","","","","","","","",""
"null","audio/golf1.wav","null","audio-keyboard-response","242","2.1.0","286425","F=YES, J=NO","mv2ttrdc5c","0","66","63","70","","","","","","","","","","","","","","","",""
"510","
          <p id=""word"" style=""font-size: 40px;"">drabble</p>
          <p style=""font-size: 16px;"">F = YES &nbsp;&nbsp;&nbsp; J = NO</p>
        ","j","html-keyboard-response","243","2.1.0","286936","F=YES, J=NO","mv2ttrdc5c","0","66","63","70","","","","","","","","","drabble","golf1","pseudoword","pseudoword","j","true","",""
"null","<p style=""font-size: 50px;"">+</p>","null","html-keyboard-response","244","2.1.0","287239","F=YES, J=NO","mv2ttrdc5c","0","66","63","70","","","","","","","","","","","","","","","",""
"null","audio/beep-329314.mp3","null","audio-keyboard-response","245","2.1.0","288793","F=YES, J=NO","mv2ttrdc5c","0","66","63","70","","","","","","","","","","","","","","","",""
"null","audio/news.wav","null","audio-keyboard-response","246","2.1.0","289454","F=YES, J=NO","mv2ttrdc5c","0","66","63","70","","","","","","","","","","","","","","","",""
"513","
          <p id=""word"" style=""font-size: 40px;"">digest</p>
          <p style=""font-size: 16px;"">F = YES &nbsp;&nbsp;&nbsp; J = NO</p>
        ","j","html-keyboard-response","247","2.1.0","289968","F=YES, J=NO","mv2ttrdc5c","0","66","63","70","","","","","","","","","digest","news","metaphor","experimental","f","false","",""
"null","<p style=""font-size: 50px;"">+</p>","null","html-keyboard-response","248","2.1.0","290271","F=YES, J=NO","mv2ttrdc5c","0","66","63","70","","","","","","","","","","","","","","","",""
"null","audio/beep-329314.mp3","null","audio-keyboard-response","249","2.1.0","291823","F=YES, J=NO","mv2ttrdc5c","0","66","63","70","","","","","","","","","","","","","","","",""
"null","audio/grass.wav","null","audio-keyboard-response","250","2.1.0","292484","F=YES, J=NO","mv2ttrdc5c","0","66","63","70","","","","","","","","","","","","","","","",""
"891","
          <p id=""word"" style=""font-size: 40px;"">milames</p>
          <p style=""font-size: 16px;"">F = YES &nbsp;&nbsp;&nbsp; J = NO</p>
        ","j","html-keyboard-response","251","2.1.0","293376","F=YES, J=NO","mv2ttrdc5c","0","66","63","70","","","","","","","","","milames","grass","pseudoword","pseudoword","j","true","",""
"null","<p style=""font-size: 50px;"">+</p>","null","html-keyboard-response","252","2.1.0","293678","F=YES, J=NO","mv2ttrdc5c","0","66","63","70","","","","","","","","","","","","","","","",""
"null","audio/beep-329314.mp3","null","audio-keyboard-response","253","2.1.0","295236","F=YES, J=NO","mv2ttrdc5c","0","66","63","70","","","","","","","","","","","","","","","",""
"null","audio/road.wav","null","audio-keyboard-response","254","2.1.0","295684","F=YES, J=NO","mv2ttrdc5c","0","66","63","70","","","","","","","","","","","","","","","",""
"707","
          <p id=""word"" style=""font-size: 40px;"">flood</p>
          <p style=""font-size: 16px;"">F = YES &nbsp;&nbsp;&nbsp; J = NO</p>
        ","f","html-keyboard-response","255","2.1.0","296392","F=YES, J=NO","mv2ttrdc5c","0","66","63","70","","","","","","","","","flood","road","literal","experimental","f","true","",""
"null","<p style=""font-size: 50px;"">+</p>","null","html-keyboard-response","256","2.1.0","296695","F=YES, J=NO","mv2ttrdc5c","0","66","63","70","","","","","","","","","","","","","","","",""
"null","audio/beep-329314.mp3","null","audio-keyboard-response","257","2.1.0","298244","F=YES, J=NO","mv2ttrdc5c","0","66","63","70","","","","","","","","","","","","","","","",""
"null","audio/haste1.wav","null","audio-keyboard-response","258","2.1.0","298820","F=YES, J=NO","mv2ttrdc5c","0","66","63","70","","","","","","","","","","","","","","","",""
"732","
          <p id=""word"" style=""font-size: 40px;"">hide</p>
          <p style=""font-size: 16px;"">F = YES &nbsp;&nbsp;&nbsp; J = NO</p>
        ","f","html-keyboard-response","259","2.1.0","299553","F=YES, J=NO","mv2ttrdc5c","0","66","63","70","","","","","","","","","hide","haste1","unrelated","experimental","f","true","",""
"null","<p style=""font-size: 50px;"">+</p>","null","html-keyboard-response","260","2.1.0","299855","F=YES, J=NO","mv2ttrdc5c","0","66","63","70","","","","","","","","","","","","","","","",""
"null","audio/beep-329314.mp3","null","audio-keyboard-response","261","2.1.0","301401","F=YES, J=NO","mv2ttrdc5c","0","66","63","70","","","","","","","","","","","","","","","",""
"null","audio/table1.wav","null","audio-keyboard-response","262","2.1.0","301892","F=YES, J=NO","mv2ttrdc5c","0","66","63","70","","","","","","","","","","","","","","","",""
"588","
          <p id=""word"" style=""font-size: 40px;"">clear</p>
          <p style=""font-size: 16px;"">F = YES &nbsp;&nbsp;&nbsp; J = NO</p>
        ","f","html-keyboard-response","263","2.1.0","302481","F=YES, J=NO","mv2ttrdc5c","0","66","63","70","","","","","","","","","clear","table1","literal","experimental","f","true","",""
"null","<p style=""font-size: 50px;"">+</p>","null","html-keyboard-response","264","2.1.0","302784","F=YES, J=NO","mv2ttrdc5c","0","66","63","70","","","","","","","","","","","","","","","",""
"null","audio/beep-329314.mp3","null","audio-keyboard-response","265","2.1.0","304324","F=YES, J=NO","mv2ttrdc5c","0","66","63","70","","","","","","","","","","","","","","","",""
"null","audio/uncle1.wav","null","audio-keyboard-response","266","2.1.0","304814","F=YES, J=NO","mv2ttrdc5c","0","66","63","70","","","","","","","","","","","","","","","",""
"729","
          <p id=""word"" style=""font-size: 40px;"">dramble</p>
          <p style=""font-size: 16px;"">F = YES &nbsp;&nbsp;&nbsp; J = NO</p>
        ","f","html-keyboard-response","267","2.1.0","305545","F=YES, J=NO","mv2ttrdc5c","0","66","63","70","","","","","","","","","dramble","uncle1","pseudoword","pseudoword","j","false","",""
"null","<p style=""font-size: 50px;"">+</p>","null","html-keyboard-response","268","2.1.0","305847","F=YES, J=NO","mv2ttrdc5c","0","66","63","70","","","","","","","","","","","","","","","",""
"null","audio/beep-329314.mp3","null","audio-keyboard-response","269","2.1.0","307396","F=YES, J=NO","mv2ttrdc5c","0","66","63","70","","","","","","","","","","","","","","","",""
"null","audio/topic.wav","null","audio-keyboard-response","270","2.1.0","307993","F=YES, J=NO","mv2ttrdc5c","0","66","63","70","","","","","","","","","","","","","","","",""
"647","
          <p id=""word"" style=""font-size: 40px;"">approach</p>
          <p style=""font-size: 16px;"">F = YES &nbsp;&nbsp;&nbsp; J = NO</p>
        ","f","html-keyboard-response","271","2.1.0","308641","F=YES, J=NO","mv2ttrdc5c","0","66","63","70","","","","","","","","","approach","topic","metaphor","experimental","f","true","",""
"null","<p style=""font-size: 50px;"">+</p>","null","html-keyboard-response","272","2.1.0","308944","F=YES, J=NO","mv2ttrdc5c","0","66","63","70","","","","","","","","","","","","","","","",""
"null","audio/beep-329314.mp3","null","audio-keyboard-response","273","2.1.0","310489","F=YES, J=NO","mv2ttrdc5c","0","66","63","70","","","","","","","","","","","","","","","",""
"null","audio/radio1.wav","null","audio-keyboard-response","274","2.1.0","311086","F=YES, J=NO","mv2ttrdc5c","0","66","63","70","","","","","","","","","","","","","","","",""
"689","
          <p id=""word"" style=""font-size: 40px;"">blanter</p>
          <p style=""font-size: 16px;"">F = YES &nbsp;&nbsp;&nbsp; J = NO</p>
        ","j","html-keyboard-response","275","2.1.0","311777","F=YES, J=NO","mv2ttrdc5c","0","66","63","70","","","","","","","","","blanter","radio1","pseudoword","pseudoword","j","true","",""
"null","<p style=""font-size: 50px;"">+</p>","null","html-keyboard-response","276","2.1.0","312079","F=YES, J=NO","mv2ttrdc5c","0","66","63","70","","","","","","","","","","","","","","","",""
"null","audio/beep-329314.mp3","null","audio-keyboard-response","277","2.1.0","313625","F=YES, J=NO","mv2ttrdc5c","0","66","63","70","","","","","","","","","","","","","","","",""
"null","audio/promise1.wav","null","audio-keyboard-response","278","2.1.0","314265","F=YES, J=NO","mv2ttrdc5c","0","66","63","70","","","","","","","","","","","","","","","",""
"486","
          <p id=""word"" style=""font-size: 40px;"">break</p>
          <p style=""font-size: 16px;"">F = YES &nbsp;&nbsp;&nbsp; J = NO</p>
        ","f","html-keyboard-response","279","2.1.0","314753","F=YES, J=NO","mv2ttrdc5c","0","66","63","70","","","","","","","","","break","promise1","metaphor","experimental","f","true","",""
"null","<p style=""font-size: 50px;"">+</p>","null","html-keyboard-response","280","2.1.0","315055","F=YES, J=NO","mv2ttrdc5c","0","66","63","70","","","","","","","","","","","","","","","",""
"null","audio/beep-329314.mp3","null","audio-keyboard-response","281","2.1.0","316612","F=YES, J=NO","mv2ttrdc5c","0","66","63","70","","","","","","","","","","","","","","","",""
"null","audio/arm.wav","null","audio-keyboard-response","282","2.1.0","317166","F=YES, J=NO","mv2ttrdc5c","0","66","63","70","","","","","","","","","","","","","","","",""
"641","
          <p id=""word"" style=""font-size: 40px;"">seize</p>
          <p style=""font-size: 16px;"">F = YES &nbsp;&nbsp;&nbsp; J = NO</p>
        ","j","html-keyboard-response","283","2.1.0","317808","F=YES, J=NO","mv2ttrdc5c","0","66","63","70","","","","","","","","","seize","arm","literal","experimental","f","false","",""
"null","<p style=""font-size: 50px;"">+</p>","null","html-keyboard-response","284","2.1.0","318110","F=YES, J=NO","mv2ttrdc5c","0","66","63","70","","","","","","","","","","","","","","","",""
"null","audio/beep-329314.mp3","null","audio-keyboard-response","285","2.1.0","319662","F=YES, J=NO","mv2ttrdc5c","0","66","63","70","","","","","","","","","","","","","","","",""
"null","audio/burden.wav","null","audio-keyboard-response","286","2.1.0","320174","F=YES, J=NO","mv2ttrdc5c","0","66","63","70","","","","","","","","","","","","","","","",""
"561","
          <p id=""word"" style=""font-size: 40px;"">whotth</p>
          <p style=""font-size: 16px;"">F = YES &nbsp;&nbsp;&nbsp; J = NO</p>
        ","j","html-keyboard-response","287","2.1.0","320737","F=YES, J=NO","mv2ttrdc5c","0","66","63","70","","","","","","","","","whotth","burden","pseudoword","pseudoword","j","true","",""
"null","<p style=""font-size: 50px;"">+</p>","null","html-keyboard-response","288","2.1.0","321040","F=YES, J=NO","mv2ttrdc5c","0","66","63","70","","","","","","","","","","","","","","","",""
"null","audio/beep-329314.mp3","null","audio-keyboard-response","289","2.1.0","322585","F=YES, J=NO","mv2ttrdc5c","0","66","63","70","","","","","","","","","","","","","","","",""
"null","audio/pig.wav","null","audio-keyboard-response","290","2.1.0","322969","F=YES, J=NO","mv2ttrdc5c","0","66","63","70","","","","","","","","","","","","","","","",""
"622","
          <p id=""word"" style=""font-size: 40px;"">tirlike</p>
          <p style=""font-size: 16px;"">F = YES &nbsp;&nbsp;&nbsp; J = NO</p>
        ","j","html-keyboard-response","291","2.1.0","323592","F=YES, J=NO","mv2ttrdc5c","0","66","63","70","","","","","","","","","tirlike","pig","pseudoword","pseudoword","j","true","",""
"null","<p style=""font-size: 50px;"">+</p>","null","html-keyboard-response","292","2.1.0","323895","F=YES, J=NO","mv2ttrdc5c","0","66","63","70","","","","","","","","","","","","","","","",""
"null","audio/beep-329314.mp3","null","audio-keyboard-response","293","2.1.0","325443","F=YES, J=NO","mv2ttrdc5c","0","66","63","70","","","","","","","","","","","","","","","",""
"null","audio/card1.wav","null","audio-keyboard-response","294","2.1.0","325998","F=YES, J=NO","mv2ttrdc5c","0","66","63","70","","","","","","","","","","","","","","","",""
"569","
          <p id=""word"" style=""font-size: 40px;"">land</p>
          <p style=""font-size: 16px;"">F = YES &nbsp;&nbsp;&nbsp; J = NO</p>
        ","f","html-keyboard-response","295","2.1.0","326568","F=YES, J=NO","mv2ttrdc5c","0","66","63","70","","","","","","","","","land","card1","unrelated","experimental","f","true","",""
"543","<p>Excellent! You have finished block 2 of 8.</p>
                     <p>Feel free to take a 30 second break.</p>
                     <p>Press any key when you're ready to continue.</p>"," ","html-keyboard-response","296","2.1.0","327112","F=YES, J=NO","mv2ttrdc5c","0","66","63","70","","","","","","","","","","","","","","","",""
"367","<p>Starting main block 3 of 8. Press any key to continue.</p>"," ","html-keyboard-response","297","2.1.0","327480","F=YES, J=NO","mv2ttrdc5c","0","66","63","70","","","","","","","","","","","","","","","",""
"null","<p style=""font-size: 50px;"">+</p>","null","html-keyboard-response","298","2.1.0","327783","F=YES, J=NO","mv2ttrdc5c","0","66","63","70","","","","","","","","","","","","","","","",""
"null","audio/beep-329314.mp3","null","audio-keyboard-response","299","2.1.0","329326","F=YES, J=NO","mv2ttrdc5c","0","66","63","70","","","","","","","","","","","","","","","",""
"null","audio/life1.wav","null","audio-keyboard-response","300","2.1.0","329902","F=YES, J=NO","mv2ttrdc5c","0","66","63","70","","","","","","","","","","","","","","","",""
"633","
          <p id=""word"" style=""font-size: 40px;"">flimch</p>
          <p style=""font-size: 16px;"">F = YES &nbsp;&nbsp;&nbsp; J = NO</p>
        ","j","html-keyboard-response","301","2.1.0","330537","F=YES, J=NO","mv2ttrdc5c","0","66","63","70","","","","","","","","","flimch","life1","pseudoword","pseudoword","j","true","",""
"null","<p style=""font-size: 50px;"">+</p>","null","html-keyboard-response","302","2.1.0","330839","F=YES, J=NO","mv2ttrdc5c","0","66","63","70","","","","","","","","","","","","","","","",""
"null","audio/beep-329314.mp3","null","audio-keyboard-response","303","2.1.0","332398","F=YES, J=NO","mv2ttrdc5c","0","66","63","70","","","","","","","","","","","","","","","",""
"null","audio/trout1.wav","null","audio-keyboard-response","304","2.1.0","332995","F=YES, J=NO","mv2ttrdc5c","0","66","63","70","","","","","","","","","","","","","","","",""
"700","
          <p id=""word"" style=""font-size: 40px;"">spimt</p>
          <p style=""font-size: 16px;"">F = YES &nbsp;&nbsp;&nbsp; J = NO</p>
        ","j","html-keyboard-response","305","2.1.0","333697","F=YES, J=NO","mv2ttrdc5c","0","66","63","70","","","","","","","","","spimt","trout1","pseudoword","pseudoword","j","true","",""
"null","<p style=""font-size: 50px;"">+</p>","null","html-keyboard-response","306","2.1.0","334000","F=YES, J=NO","mv2ttrdc5c","0","66","63","70","","","","","","","","","","","","","","","",""
"null","audio/beep-329314.mp3","null","audio-keyboard-response","307","2.1.0","335555","F=YES, J=NO","mv2ttrdc5c","0","66","63","70","","","","","","","","","","","","","","","",""
"null","audio/van1.wav","null","audio-keyboard-response","308","2.1.0","336046","F=YES, J=NO","mv2ttrdc5c","0","66","63","70","","","","","","","","","","","","","","","",""
"641","
          <p id=""word"" style=""font-size: 40px;"">support</p>
          <p style=""font-size: 16px;"">F = YES &nbsp;&nbsp;&nbsp; J = NO</p>
        ","f","html-keyboard-response","309","2.1.0","336688","F=YES, J=NO","mv2ttrdc5c","0","66","63","70","","","","","","","","","support","van1","unrelated","experimental","f","true","",""
"null","<p style=""font-size: 50px;"">+</p>","null","html-keyboard-response","310","2.1.0","336992","F=YES, J=NO","mv2ttrdc5c","0","66","63","70","","","","","","","","","","","","","","","",""
"null","audio/beep-329314.mp3","null","audio-keyboard-response","311","2.1.0","338542","F=YES, J=NO","mv2ttrdc5c","0","66","63","70","","","","","","","","","","","","","","","",""
"null","audio/empire.wav","null","audio-keyboard-response","312","2.1.0","339182","F=YES, J=NO","mv2ttrdc5c","0","66","63","70","","","","","","","","","","","","","","","",""
"633","
          <p id=""word"" style=""font-size: 40px;"">slorby</p>
          <p style=""font-size: 16px;"">F = YES &nbsp;&nbsp;&nbsp; J = NO</p>
        ","j","html-keyboard-response","313","2.1.0","339816","F=YES, J=NO","mv2ttrdc5c","0","66","63","70","","","","","","","","","slorby","empire","pseudoword","pseudoword","j","true","",""
"null","<p style=""font-size: 50px;"">+</p>","null","html-keyboard-response","314","2.1.0","340119","F=YES, J=NO","mv2ttrdc5c","0","66","63","70","","","","","","","","","","","","","","","",""
"null","audio/beep-329314.mp3","null","audio-keyboard-response","315","2.1.0","341678","F=YES, J=NO","mv2ttrdc5c","0","66","63","70","","","","","","","","","","","","","","","",""
"null","audio/story.wav","null","audio-keyboard-response","316","2.1.0","342360","F=YES, J=NO","mv2ttrdc5c","0","66","63","70","","","","","","","","","","","","","","","",""
"574","
          <p id=""word"" style=""font-size: 40px;"">cover</p>
          <p style=""font-size: 16px;"">F = YES &nbsp;&nbsp;&nbsp; J = NO</p>
        ","f","html-keyboard-response","317","2.1.0","342936","F=YES, J=NO","mv2ttrdc5c","0","66","63","70","","","","","","","","","cover","story","metaphor","experimental","f","true","",""
"null","<p style=""font-size: 50px;"">+</p>","null","html-keyboard-response","318","2.1.0","343239","F=YES, J=NO","mv2ttrdc5c","0","66","63","70","","","","","","","","","","","","","","","",""
"null","audio/beep-329314.mp3","null","audio-keyboard-response","319","2.1.0","344792","F=YES, J=NO","mv2ttrdc5c","0","66","63","70","","","","","","","","","","","","","","","",""
"null","audio/ankle1.wav","null","audio-keyboard-response","320","2.1.0","345326","F=YES, J=NO","mv2ttrdc5c","0","66","63","70","","","","","","","","","","","","","","","",""
"450","
          <p id=""word"" style=""font-size: 40px;"">kick</p>
          <p style=""font-size: 16px;"">F = YES &nbsp;&nbsp;&nbsp; J = NO</p>
        ","f","html-keyboard-response","321","2.1.0","345777","F=YES, J=NO","mv2ttrdc5c","0","66","63","70","","","","","","","","","kick","ankle1","filler","filler","f","true","",""
"null","<p style=""font-size: 50px;"">+</p>","null","html-keyboard-response","322","2.1.0","346080","F=YES, J=NO","mv2ttrdc5c","0","66","63","70","","","","","","","","","","","","","","","",""
"null","audio/beep-329314.mp3","null","audio-keyboard-response","323","2.1.0","347630","F=YES, J=NO","mv2ttrdc5c","0","66","63","70","","","","","","","","","","","","","","","",""
"null","audio/budget1.wav","null","audio-keyboard-response","324","2.1.0","348248","F=YES, J=NO","mv2ttrdc5c","0","66","63","70","","","","","","","","","","","","","","","",""
"678","
          <p id=""word"" style=""font-size: 40px;"">sulist</p>
          <p style=""font-size: 16px;"">F = YES &nbsp;&nbsp;&nbsp; J = NO</p>
        ","j","html-keyboard-response","325","2.1.0","348928","F=YES, J=NO","mv2ttrdc5c","0","66","63","70","","","","","","","","","sulist","budget1","pseudoword","pseudoword","j","true","",""
"null","<p style=""font-size: 50px;"">+</p>","null","html-keyboard-response","326","2.1.0","349231","F=YES, J=NO","mv2ttrdc5c","0","66","63","70","","","","","","","","","","","","","","","",""
"null","audio/beep-329314.mp3","null","audio-keyboard-response","327","2.1.0","350787","F=YES, J=NO","mv2ttrdc5c","0","66","63","70","","","","","","","","","","","","","","","",""
"null","audio/arm.wav","null","audio-keyboard-response","328","2.1.0","351342","F=YES, J=NO","mv2ttrdc5c","0","66","63","70","","","","","","","","","","","","","","","",""
"633","
          <p id=""word"" style=""font-size: 40px;"">pigne</p>
          <p style=""font-size: 16px;"">F = YES &nbsp;&nbsp;&nbsp; J = NO</p>
        ","j","html-keyboard-response","329","2.1.0","351976","F=YES, J=NO","mv2ttrdc5c","0","66","63","70","","","","","","","","","pigne","arm","pseudoword","pseudoword","j","true","",""
"null","<p style=""font-size: 50px;"">+</p>","null","html-keyboard-response","330","2.1.0","352280","F=YES, J=NO","mv2ttrdc5c","0","66","63","70","","","","","","","","","","","","","","","",""
"null","audio/beep-329314.mp3","null","audio-keyboard-response","331","2.1.0","353838","F=YES, J=NO","mv2ttrdc5c","0","66","63","70","","","","","","","","","","","","","","","",""
"null","audio/brain.wav","null","audio-keyboard-response","332","2.1.0","354328","F=YES, J=NO","mv2ttrdc5c","0","66","63","70","","","","","","","","","","","","","","","",""
"486","
          <p id=""word"" style=""font-size: 40px;"">throw</p>
          <p style=""font-size: 16px;"">F = YES &nbsp;&nbsp;&nbsp; J = NO</p>
        ","f","html-keyboard-response","333","2.1.0","354816","F=YES, J=NO","mv2ttrdc5c","0","66","63","70","","","","","","","","","throw","brain","filler","filler","f","true","",""
"null","<p style=""font-size: 50px;"">+</p>","null","html-keyboard-response","334","2.1.0","355119","F=YES, J=NO","mv2ttrdc5c","0","66","63","70","","","","","","","","","","","","","","","",""
"null","audio/beep-329314.mp3","null","audio-keyboard-response","335","2.1.0","356675","F=YES, J=NO","mv2ttrdc5c","0","66","63","70","","","","","","","","","","","","","","","",""
"null","audio/kettle1.wav","null","audio-keyboard-response","336","2.1.0","357144","F=YES, J=NO","mv2ttrdc5c","0","66","63","70","","","","","","","","","","","","","","","",""
"1015","
          <p id=""word"" style=""font-size: 40px;"">navigate</p>
          <p style=""font-size: 16px;"">F = YES &nbsp;&nbsp;&nbsp; J = NO</p>
        ","f","html-keyboard-response","337","2.1.0","358161","F=YES, J=NO","mv2ttrdc5c","0","66","63","70","","","","","","","","","navigate","kettle1","unrelated","experimental","f","true","",""
"null","<p style=""font-size: 50px;"">+</p>","null","html-keyboard-response","338","2.1.0","358464","F=YES, J=NO","mv2ttrdc5c","0","66","63","70","","","","","","","","","","","","","","","",""
"null","audio/beep-329314.mp3","null","audio-keyboard-response","339","2.1.0","360003","F=YES, J=NO","mv2ttrdc5c","0","66","63","70","","","","","","","","","","","","","","","",""
"null","audio/mind.wav","null","audio-keyboard-response","340","2.1.0","360579","F=YES, J=NO","mv2ttrdc5c","0","66","63","70","","","","","","","","","","","","","","","",""
"540","
          <p id=""word"" style=""font-size: 40px;"">crainate</p>
          <p style=""font-size: 16px;"">F = YES &nbsp;&nbsp;&nbsp; J = NO</p>
        ","j","html-keyboard-response","341","2.1.0","361120","F=YES, J=NO","mv2ttrdc5c","0","66","63","70","","","","","","","","","crainate","mind","pseudoword","pseudoword","j","true","",""
"null","<p style=""font-size: 50px;"">+</p>","null","html-keyboard-response","342","2.1.0","361423","F=YES, J=NO","mv2ttrdc5c","0","66","63","70","","","","","","","","","","","","","","","",""
"null","audio/beep-329314.mp3","null","audio-keyboard-response","343","2.1.0","362969","F=YES, J=NO","mv2ttrdc5c","0","66","63","70","","","","","","","","","","","","","","","",""
"null","audio/ankle1.wav","null","audio-keyboard-response","344","2.1.0","363502","F=YES, J=NO","mv2ttrdc5c","0","66","63","70","","","","","","","","","","","","","","","",""
"705","
          <p id=""word"" style=""font-size: 40px;"">switm</p>
          <p style=""font-size: 16px;"">F = YES &nbsp;&nbsp;&nbsp; J = NO</p>
        ","j","html-keyboard-response","345","2.1.0","364208","F=YES, J=NO","mv2ttrdc5c","0","66","63","70","","","","","","","","","switm","ankle1","pseudoword","pseudoword","j","true","",""
"null","<p style=""font-size: 50px;"">+</p>","null","html-keyboard-response","346","2.1.0","364511","F=YES, J=NO","mv2ttrdc5c","0","66","63","70","","","","","","","","","","","","","","","",""
"null","audio/beep-329314.mp3","null","audio-keyboard-response","347","2.1.0","366062","F=YES, J=NO","mv2ttrdc5c","0","66","63","70","","","","","","","","","","","","","","","",""
"null","audio/desire.wav","null","audio-keyboard-response","348","2.1.0","366680","F=YES, J=NO","mv2ttrdc5c","0","66","63","70","","","","","","","","","","","","","","","",""
"583","
          <p id=""word"" style=""font-size: 40px;"">nophed</p>
          <p style=""font-size: 16px;"">F = YES &nbsp;&nbsp;&nbsp; J = NO</p>
        ","j","html-keyboard-response","349","2.1.0","367264","F=YES, J=NO","mv2ttrdc5c","0","66","63","70","","","","","","","","","nophed","desire","pseudoword","pseudoword","j","true","",""
"null","<p style=""font-size: 50px;"">+</p>","null","html-keyboard-response","350","2.1.0","367567","F=YES, J=NO","mv2ttrdc5c","0","66","63","70","","","","","","","","","","","","","","","",""
"null","audio/beep-329314.mp3","null","audio-keyboard-response","351","2.1.0","369112","F=YES, J=NO","mv2ttrdc5c","0","66","63","70","","","","","","","","","","","","","","","",""
"null","audio/breath.wav","null","audio-keyboard-response","352","2.1.0","369688","F=YES, J=NO","mv2ttrdc5c","0","66","63","70","","","","","","","","","","","","","","","",""
"903","
          <p id=""word"" style=""font-size: 40px;"">construct</p>
          <p style=""font-size: 16px;"">F = YES &nbsp;&nbsp;&nbsp; J = NO</p>
        ","j","html-keyboard-response","353","2.1.0","370592","F=YES, J=NO","mv2ttrdc5c","0","66","63","70","","","","","","","","","construct","breath","unrelated","experimental","f","false","",""
"null","<p style=""font-size: 50px;"">+</p>","null","html-keyboard-response","354","2.1.0","370895","F=YES, J=NO","mv2ttrdc5c","0","66","63","70","","","","","","","","","","","","","","","",""
"null","audio/beep-329314.mp3","null","audio-keyboard-response","355","2.1.0","372440","F=YES, J=NO","mv2ttrdc5c","0","66","63","70","","","","","","","","","","","","","","","",""
"null","audio/truth1.wav","null","audio-keyboard-response","356","2.1.0","372995","F=YES, J=NO","mv2ttrdc5c","0","66","63","70","","","","","","","","","","","","","","","",""
"812","
          <p id=""word"" style=""font-size: 40px;"">calitom</p>
          <p style=""font-size: 16px;"">F = YES &nbsp;&nbsp;&nbsp; J = NO</p>
        ","j","html-keyboard-response","357","2.1.0","373808","F=YES, J=NO","mv2ttrdc5c","0","66","63","70","","","","","","","","","calitom","truth1","pseudoword","pseudoword","j","true","",""
"null","<p style=""font-size: 50px;"">+</p>","null","html-keyboard-response","358","2.1.0","374110","F=YES, J=NO","mv2ttrdc5c","0","66","63","70","","","","","","","","","","","","","","","",""
"null","audio/beep-329314.mp3","null","audio-keyboard-response","359","2.1.0","375661","F=YES, J=NO","mv2ttrdc5c","0","66","63","70","","","","","","","","","","","","","","","",""
"null","audio/smirk1.wav","null","audio-keyboard-response","360","2.1.0","376387","F=YES, J=NO","mv2ttrdc5c","0","66","63","70","","","","","","","","","","","","","","","",""
"612","
          <p id=""word"" style=""font-size: 40px;"">snopt</p>
          <p style=""font-size: 16px;"">F = YES &nbsp;&nbsp;&nbsp; J = NO</p>
        ","j","html-keyboard-response","361","2.1.0","377000","F=YES, J=NO","mv2ttrdc5c","0","66","63","70","","","","","","","","","snopt","smirk1","pseudoword","pseudoword","j","true","",""
"591","<p>Excellent! You have finished block 3 of 8.</p>
                     <p>Feel free to take a 30 second break.</p>
                     <p>Press any key when you're ready to continue.</p>"," ","html-keyboard-response","362","2.1.0","377591","F=YES, J=NO","mv2ttrdc5c","0","66","63","70","","","","","","","","","","","","","","","",""
"199","<p>Starting main block 4 of 8. Press any key to continue.</p>"," ","html-keyboard-response","363","2.1.0","377792","F=YES, J=NO","mv2ttrdc5c","0","66","63","70","","","","","","","","","","","","","","","",""
"null","<p style=""font-size: 50px;"">+</p>","null","html-keyboard-response","364","2.1.0","378095","F=YES, J=NO","mv2ttrdc5c","0","66","63","70","","","","","","","","","","","","","","","",""
"null","audio/beep-329314.mp3","null","audio-keyboard-response","365","2.1.0","379651","F=YES, J=NO","mv2ttrdc5c","0","66","63","70","","","","","","","","","","","","","","","",""
"null","audio/noise1.wav","null","audio-keyboard-response","366","2.1.0","380269","F=YES, J=NO","mv2ttrdc5c","0","66","63","70","","","","","","","","","","","","","","","",""
"673","
          <p id=""word"" style=""font-size: 40px;"">build</p>
          <p style=""font-size: 16px;"">F = YES &nbsp;&nbsp;&nbsp; J = NO</p>
        ","f","html-keyboard-response","367","2.1.0","380944","F=YES, J=NO","mv2ttrdc5c","0","66","63","70","","","","","","","","","build","noise1","unrelated","experimental","f","true","",""
"null","<p style=""font-size: 50px;"">+</p>","null","html-keyboard-response","368","2.1.0","381247","F=YES, J=NO","mv2ttrdc5c","0","66","63","70","","","","","","","","","","","","","","","",""
"null","audio/beep-329314.mp3","null","audio-keyboard-response","369","2.1.0","382787","F=YES, J=NO","mv2ttrdc5c","0","66","63","70","","","","","","","","","","","","","","","",""
"null","audio/dollar.wav","null","audio-keyboard-response","370","2.1.0","383171","F=YES, J=NO","mv2ttrdc5c","0","66","63","70","","","","","","","","","","","","","","","",""
"580","
          <p id=""word"" style=""font-size: 40px;"">gliptism</p>
          <p style=""font-size: 16px;"">F = YES &nbsp;&nbsp;&nbsp; J = NO</p>
        ","j","html-keyboard-response","371","2.1.0","383751","F=YES, J=NO","mv2ttrdc5c","0","66","63","70","","","","","","","","","gliptism","dollar","pseudoword","pseudoword","j","true","",""
"null","<p style=""font-size: 50px;"">+</p>","null","html-keyboard-response","372","2.1.0","384054","F=YES, J=NO","mv2ttrdc5c","0","66","63","70","","","","","","","","","","","","","","","",""
"null","audio/beep-329314.mp3","null","audio-keyboard-response","373","2.1.0","385603","F=YES, J=NO","mv2ttrdc5c","0","66","63","70","","","","","","","","","","","","","","","",""
"null","audio/age1.wav","null","audio-keyboard-response","374","2.1.0","386157","F=YES, J=NO","mv2ttrdc5c","0","66","63","70","","","","","","","","","","","","","","","",""
"554","
          <p id=""word"" style=""font-size: 40px;"">lachry</p>
          <p style=""font-size: 16px;"">F = YES &nbsp;&nbsp;&nbsp; J = NO</p>
        ","j","html-keyboard-response","375","2.1.0","386712","F=YES, J=NO","mv2ttrdc5c","0","66","63","70","","","","","","","","","lachry","age1","pseudoword","pseudoword","j","true","",""
"null","<p style=""font-size: 50px;"">+</p>","null","html-keyboard-response","376","2.1.0","387015","F=YES, J=NO","mv2ttrdc5c","0","66","63","70","","","","","","","","","","","","","","","",""
"null","audio/beep-329314.mp3","null","audio-keyboard-response","377","2.1.0","388568","F=YES, J=NO","mv2ttrdc5c","0","66","63","70","","","","","","","","","","","","","","","",""
"null","audio/neck.wav","null","audio-keyboard-response","378","2.1.0","389123","F=YES, J=NO","mv2ttrdc5c","0","66","63","70","","","","","","","","","","","","","","","",""
"548","
          <p id=""word"" style=""font-size: 40px;"">werling</p>
          <p style=""font-size: 16px;"">F = YES &nbsp;&nbsp;&nbsp; J = NO</p>
        ","j","html-keyboard-response","379","2.1.0","389672","F=YES, J=NO","mv2ttrdc5c","0","66","63","70","","","","","","","","","werling","neck","pseudoword","pseudoword","j","true","",""
"null","<p style=""font-size: 50px;"">+</p>","null","html-keyboard-response","380","2.1.0","389974","F=YES, J=NO","mv2ttrdc5c","0","66","63","70","","","","","","","","","","","","","","","",""
"null","audio/beep-329314.mp3","null","audio-keyboard-response","381","2.1.0","391533","F=YES, J=NO","mv2ttrdc5c","0","66","63","70","","","","","","","","","","","","","","","",""
"null","audio/tax1.wav","null","audio-keyboard-response","382","2.1.0","392152","F=YES, J=NO","mv2ttrdc5c","0","66","63","70","","","","","","","","","","","","","","","",""
"551","
          <p id=""word"" style=""font-size: 40px;"">snate</p>
          <p style=""font-size: 16px;"">F = YES &nbsp;&nbsp;&nbsp; J = NO</p>
        ","j","html-keyboard-response","383","2.1.0","392704","F=YES, J=NO","mv2ttrdc5c","0","66","63","70","","","","","","","","","snate","tax1","pseudoword","pseudoword","j","true","",""
"null","<p style=""font-size: 50px;"">+</p>","null","html-keyboard-response","384","2.1.0","393006","F=YES, J=NO","mv2ttrdc5c","0","66","63","70","","","","","","","","","","","","","","","",""
"null","audio/beep-329314.mp3","null","audio-keyboard-response","385","2.1.0","394563","F=YES, J=NO","mv2ttrdc5c","0","66","63","70","","","","","","","","","","","","","","","",""
"null","audio/menu.wav","null","audio-keyboard-response","386","2.1.0","395138","F=YES, J=NO","mv2ttrdc5c","0","66","63","70","","","","","","","","","","","","","","","",""
"580","
          <p id=""word"" style=""font-size: 40px;"">slice</p>
          <p style=""font-size: 16px;"">F = YES &nbsp;&nbsp;&nbsp; J = NO</p>
        ","j","html-keyboard-response","387","2.1.0","395719","F=YES, J=NO","mv2ttrdc5c","0","66","63","70","","","","","","","","","slice","menu","filler","filler","f","false","",""
"null","<p style=""font-size: 50px;"">+</p>","null","html-keyboard-response","388","2.1.0","396022","F=YES, J=NO","mv2ttrdc5c","0","66","63","70","","","","","","","","","","","","","","","",""
"null","audio/beep-329314.mp3","null","audio-keyboard-response","389","2.1.0","397570","F=YES, J=NO","mv2ttrdc5c","0","66","63","70","","","","","","","","","","","","","","","",""
"null","audio/price.wav","null","audio-keyboard-response","390","2.1.0","398210","F=YES, J=NO","mv2ttrdc5c","0","66","63","70","","","","","","","","","","","","","","","",""
"563","
          <p id=""word"" style=""font-size: 40px;"">drop</p>
          <p style=""font-size: 16px;"">F = YES &nbsp;&nbsp;&nbsp; J = NO</p>
        ","f","html-keyboard-response","391","2.1.0","398775","F=YES, J=NO","mv2ttrdc5c","0","66","63","70","","","","","","","","","drop","price","metaphor","experimental","f","true","",""
