"rt","stimulus","response","trial_type","trial_index","plugin_version","time_elapsed","response_mapping","subject_id","list_index","lextale_score","lextale_word_score","lextale_nonword_score","success","timeout","failed_images","failed_audio","failed_video","task","isWord","isDummy","target","prime","prime_type","stimulus_type","correct_response","correct","section","question_order"
"4723","
    <div style=""max-width: 800px; margin: auto; text-align: left;"">
      <h2>STANFORD UNIVERSITY</h2>
      <h3>Research Information Sheet</h3>
      <p><strong>Protocol Director:</strong> Robert Hawkins<br>
      <strong>Protocol Title:</strong> Communication and social cognition in natural audiovisual contexts<br>
      <strong>IRB#:</strong> 77226</p>

      <p><strong>DESCRIPTION:</strong> You are invited to participate in a research study about language and communication. The purpose of the research is to understand how you interact and communicate with other people in naturalistic settings as a fluent English speaker. This research will be conducted through the Prolific platform, including participants from the US, UK, and Canada. If you decide to participate in this research, you will play a communication game in a group with one or more partners.</p>

      <p><strong>TIME INVOLVEMENT:</strong> The task will last the amount of time advertised on Prolific. You are free to withdraw from the study at any time.</p>

      <p><strong>RISKS AND BENEFITS:</strong> You may become frustrated if your partner gets distracted, or experience discomfort if other participants in your group send text that is inappropriate for the task. We ask you to please be respectful of other participants you might be interacting with to mitigate these risks. You may also experience discomfort when being asked to discuss or challenge emotionally salient political beliefs. Study data will be stored securely, in compliance with Stanford University standards, minimizing the risk of confidentiality breach. This study advances our scientific understanding of how people communicate and collaborate in naturalistic settings. This study may lead to further insights about what can go wrong in teamwork, suggest potential interventions to overcome these barriers, and help to develop assistive technologies that collaborate with human partners. We cannot and do not guarantee or promise that you will receive any benefits from this study.</p>

      <p><strong>PAYMENTS:</strong> You will receive payment in the amount advertised on Prolific. If you do not complete this study, you will receive prorated payment based on the time that you have spent. Additionally, you may be eligible for bonus payments as described in the instructions.</p>

      <p><strong>PARTICIPANT’S RIGHTS:</strong> If you have read this form and have decided to participate in this project, please understand your participation is voluntary and you have the right to withdraw your consent or discontinue participation at any time without penalty or loss of benefits to which you are otherwise entitled. The alternative is not to participate. You have the right to refuse to answer particular questions. The results of this research study may be presented at scientific or professional meetings or published in scientific journals. Your individual privacy will be maintained in all published and written data resulting from the study. In accordance with scientific norms, the data from this study may be used or shared with other researchers for future research (after removing personally identifying information) without additional consent from you.</p>

      <p><strong>CONTACT INFORMATION:</strong><br>
      Questions: If you have any questions, concerns or complaints about this research, its procedures, risks and benefits, contact the Protocol Director, Robert Hawkins (<a href=""mailto:rdhawkins@stanford.edu"">rdhawkins@stanford.edu</a>, 217-549-6923).<br>
      Independent Contact: If you are not satisfied with how this study is being conducted, or if you have any concerns, complaints, or general questions about the research or your rights as a participant, please contact the Stanford Institutional Review Board (IRB) to speak to someone independent of the research team at 650-723-2480 or toll free at 1-866-680-2906, or email at <a href=""mailto:irbnon-med@stanford.edu"">irbnon-med@stanford.edu</a>. You can also write to the Stanford IRB, Stanford University, 1705 El Camino Real, Palo Alto, CA 94306.</p>

      <p><strong>Please save or print a copy of this page for your records.</strong></p>
      <p>If you agree to participate in this research, click ""Continue"" below.</p>
    </div>
  ","0","html-button-response","0","2.1.0","4742","J=YES, F=NO","mxdoyrbeh9","2","79","83","75","","","","","","","","","","","","","","","",""
"6420","
    <div style=""max-width: 800px; margin: auto; text-align: left;"">
      <h2>Welcome!</h2>
      <p>Thank you for participating in this study. The experiment consists of three parts:</p>
      <ol>
        <li>An English vocabulary test</li>
        <li>A main task in which you will hear and see words, and decide whether the written word is a real English word</li>
        <li>A brief survey about your background</li>
      </ol>
      <p>Each part will be introduced before it begins.</p>
      <p>Please make sure you are in a quiet environment and can hear audio clearly for the final task.</p>
      <p style=""margin-top: 2em;"">Press any key to begin.</p>
    </div>
  "," ","html-keyboard-response","1","2.1.0","11166","J=YES, F=NO","mxdoyrbeh9","2","79","83","75","","","","","","","","","","","","","","","",""
"","","","preload","2","2.1.0","14992","J=YES, F=NO","mxdoyrbeh9","2","79","83","75","true","false","[]","[]","[]","","","","","","","","","","",""
"1314","
    <div style=""max-width: 800px; margin: auto; text-align: left;"">
      <h2>Part 1: Vocabulary Test</h2>
      <p>You will now complete the first part of the study: a short English vocabulary test.</p>
      <p>This test is called <strong>LexTALE</strong> and helps us get a general sense of your English proficiency.</p>
      <p style=""margin-top: 2em;"">Press any key to continue.</p>
    </div>
  ","AudioVolumeUp","html-keyboard-response","3","2.1.0","16308","J=YES, F=NO","mxdoyrbeh9","2","79","83","75","","","","","","","","","","","","","","","",""
"7778","
    <div style=""max-width: 800px; margin: auto; text-align: left;"">
      <h2>LexTALE Vocabulary Test</h2>
      <p>In this test, you will see a series of letter strings—one at a time.</p>
      <p>Your task is to decide whether each string is a real English word.</p>
      <p><strong>Key responses:</strong></p>
      <ul>
        <li><strong>J</strong> = YES (real English word)</li>
        <li><strong>F</strong> = NO (not a real English word)</li>
      </ul>
      <p>There is no time limit, but please try to be accurate.</p>
      <p style=""margin-top: 2em;"">Press any key to begin.</p>
    </div>
  "," ","html-keyboard-response","4","2.1.0","24088","J=YES, F=NO","mxdoyrbeh9","2","79","83","75","","","","","","","","","","","","","","","",""
"1211","
  <p style=""font-size: 40px;"">platery</p>
  <p style=""font-size: 16px;"">J = YES &nbsp;&nbsp;&nbsp; F = NO</p>
","j","html-keyboard-response","5","2.1.0","25300","J=YES, F=NO","mxdoyrbeh9","2","79","83","75","","","","","","lextale","false","true","","","","","","","",""
"1073","
  <p style=""font-size: 40px;"">denial</p>
  <p style=""font-size: 16px;"">J = YES &nbsp;&nbsp;&nbsp; F = NO</p>
","j","html-keyboard-response","6","2.1.0","26374","J=YES, F=NO","mxdoyrbeh9","2","79","83","75","","","","","","lextale","true","true","","","","","","","",""
"2721","
  <p style=""font-size: 40px;"">marrit</p>
  <p style=""font-size: 16px;"">J = YES &nbsp;&nbsp;&nbsp; F = NO</p>
","f","html-keyboard-response","7","2.1.0","29096","J=YES, F=NO","mxdoyrbeh9","2","79","83","75","","","","","","lextale","false","true","","","","","","","",""
"1213","
  <p style=""font-size: 40px;"">bottle</p>
  <p style=""font-size: 16px;"">J = YES &nbsp;&nbsp;&nbsp; F = NO</p>
","j","html-keyboard-response","8","2.1.0","30311","J=YES, F=NO","mxdoyrbeh9","2","79","83","75","","","","","","lextale","true","false","","","","","","","",""
"985","
  <p style=""font-size: 40px;"">birst</p>
  <p style=""font-size: 16px;"">J = YES &nbsp;&nbsp;&nbsp; F = NO</p>
","f","html-keyboard-response","9","2.1.0","31298","J=YES, F=NO","mxdoyrbeh9","2","79","83","75","","","","","","lextale","false","false","","","","","","","",""
"932","
  <p style=""font-size: 40px;"">envy</p>
  <p style=""font-size: 16px;"">J = YES &nbsp;&nbsp;&nbsp; F = NO</p>
","j","html-keyboard-response","10","2.1.0","32231","J=YES, F=NO","mxdoyrbeh9","2","79","83","75","","","","","","lextale","true","false","","","","","","","",""
"2407","
  <p style=""font-size: 40px;"">brang</p>
  <p style=""font-size: 16px;"">J = YES &nbsp;&nbsp;&nbsp; F = NO</p>
","j","html-keyboard-response","11","2.1.0","34639","J=YES, F=NO","mxdoyrbeh9","2","79","83","75","","","","","","lextale","false","false","","","","","","","",""
"1751","
  <p style=""font-size: 40px;"">huge</p>
  <p style=""font-size: 16px;"">J = YES &nbsp;&nbsp;&nbsp; F = NO</p>
","j","html-keyboard-response","12","2.1.0","36392","J=YES, F=NO","mxdoyrbeh9","2","79","83","75","","","","","","lextale","true","false","","","","","","","",""
"1747","
  <p style=""font-size: 40px;"">plove</p>
  <p style=""font-size: 16px;"">J = YES &nbsp;&nbsp;&nbsp; F = NO</p>
","f","html-keyboard-response","13","2.1.0","38140","J=YES, F=NO","mxdoyrbeh9","2","79","83","75","","","","","","lextale","false","false","","","","","","","",""
"1069","
  <p style=""font-size: 40px;"">border</p>
  <p style=""font-size: 16px;"">J = YES &nbsp;&nbsp;&nbsp; F = NO</p>
","j","html-keyboard-response","14","2.1.0","39210","J=YES, F=NO","mxdoyrbeh9","2","79","83","75","","","","","","lextale","true","false","","","","","","","",""
"2391","
  <p style=""font-size: 40px;"">flimsy</p>
  <p style=""font-size: 16px;"">J = YES &nbsp;&nbsp;&nbsp; F = NO</p>
","j","html-keyboard-response","15","2.1.0","41603","J=YES, F=NO","mxdoyrbeh9","2","79","83","75","","","","","","lextale","true","false","","","","","","","",""
"992","
  <p style=""font-size: 40px;"">drain</p>
  <p style=""font-size: 16px;"">J = YES &nbsp;&nbsp;&nbsp; F = NO</p>
","j","html-keyboard-response","16","2.1.0","42596","J=YES, F=NO","mxdoyrbeh9","2","79","83","75","","","","","","lextale","true","false","","","","","","","",""
"1156","
  <p style=""font-size: 40px;"">twindle</p>
  <p style=""font-size: 16px;"">J = YES &nbsp;&nbsp;&nbsp; F = NO</p>
","j","html-keyboard-response","17","2.1.0","43754","J=YES, F=NO","mxdoyrbeh9","2","79","83","75","","","","","","lextale","false","false","","","","","","","",""
"861","
  <p style=""font-size: 40px;"">propose</p>
  <p style=""font-size: 16px;"">J = YES &nbsp;&nbsp;&nbsp; F = NO</p>
","j","html-keyboard-response","18","2.1.0","44617","J=YES, F=NO","mxdoyrbeh9","2","79","83","75","","","","","","lextale","true","false","","","","","","","",""
"988","
  <p style=""font-size: 40px;"">forlay</p>
  <p style=""font-size: 16px;"">J = YES &nbsp;&nbsp;&nbsp; F = NO</p>
","f","html-keyboard-response","19","2.1.0","45605","J=YES, F=NO","mxdoyrbeh9","2","79","83","75","","","","","","lextale","false","false","","","","","","","",""
"1540","
  <p style=""font-size: 40px;"">tenant</p>
  <p style=""font-size: 16px;"">J = YES &nbsp;&nbsp;&nbsp; F = NO</p>
","j","html-keyboard-response","20","2.1.0","47147","J=YES, F=NO","mxdoyrbeh9","2","79","83","75","","","","","","lextale","true","false","","","","","","","",""
"1179","
  <p style=""font-size: 40px;"">strain</p>
  <p style=""font-size: 16px;"">J = YES &nbsp;&nbsp;&nbsp; F = NO</p>
","j","html-keyboard-response","21","2.1.0","48328","J=YES, F=NO","mxdoyrbeh9","2","79","83","75","","","","","","lextale","true","false","","","","","","","",""
"1040","
  <p style=""font-size: 40px;"">holster</p>
  <p style=""font-size: 16px;"">J = YES &nbsp;&nbsp;&nbsp; F = NO</p>
","j","html-keyboard-response","22","2.1.0","49368","J=YES, F=NO","mxdoyrbeh9","2","79","83","75","","","","","","lextale","true","false","","","","","","","",""
"1922","
  <p style=""font-size: 40px;"">hinder</p>
  <p style=""font-size: 16px;"">J = YES &nbsp;&nbsp;&nbsp; F = NO</p>
","f","html-keyboard-response","23","2.1.0","51292","J=YES, F=NO","mxdoyrbeh9","2","79","83","75","","","","","","lextale","true","false","","","","","","","",""
"1004","
  <p style=""font-size: 40px;"">swindle</p>
  <p style=""font-size: 16px;"">J = YES &nbsp;&nbsp;&nbsp; F = NO</p>
","j","html-keyboard-response","24","2.1.0","52297","J=YES, F=NO","mxdoyrbeh9","2","79","83","75","","","","","","lextale","true","false","","","","","","","",""
"863","
  <p style=""font-size: 40px;"">nuder</p>
  <p style=""font-size: 16px;"">J = YES &nbsp;&nbsp;&nbsp; F = NO</p>
","f","html-keyboard-response","25","2.1.0","53161","J=YES, F=NO","mxdoyrbeh9","2","79","83","75","","","","","","lextale","false","false","","","","","","","",""
"2663","
  <p style=""font-size: 40px;"">pillow</p>
  <p style=""font-size: 16px;"">J = YES &nbsp;&nbsp;&nbsp; F = NO</p>
","j","html-keyboard-response","26","2.1.0","55826","J=YES, F=NO","mxdoyrbeh9","2","79","83","75","","","","","","lextale","true","false","","","","","","","",""
"1908","
  <p style=""font-size: 40px;"">shumble</p>
  <p style=""font-size: 16px;"">J = YES &nbsp;&nbsp;&nbsp; F = NO</p>
","f","html-keyboard-response","27","2.1.0","57735","J=YES, F=NO","mxdoyrbeh9","2","79","83","75","","","","","","lextale","false","false","","","","","","","",""
"2186","
  <p style=""font-size: 40px;"">thirst</p>
  <p style=""font-size: 16px;"">J = YES &nbsp;&nbsp;&nbsp; F = NO</p>
","j","html-keyboard-response","28","2.1.0","59923","J=YES, F=NO","mxdoyrbeh9","2","79","83","75","","","","","","lextale","true","false","","","","","","","",""
"1688","
  <p style=""font-size: 40px;"">unsail</p>
  <p style=""font-size: 16px;"">J = YES &nbsp;&nbsp;&nbsp; F = NO</p>
","f","html-keyboard-response","29","2.1.0","61612","J=YES, F=NO","mxdoyrbeh9","2","79","83","75","","","","","","lextale","false","false","","","","","","","",""
"1160","
  <p style=""font-size: 40px;"">rifle</p>
  <p style=""font-size: 16px;"">J = YES &nbsp;&nbsp;&nbsp; F = NO</p>
","j","html-keyboard-response","30","2.1.0","62776","J=YES, F=NO","mxdoyrbeh9","2","79","83","75","","","","","","lextale","true","false","","","","","","","",""
"2714","
  <p style=""font-size: 40px;"">mush</p>
  <p style=""font-size: 16px;"">J = YES &nbsp;&nbsp;&nbsp; F = NO</p>
","j","html-keyboard-response","31","2.1.0","65491","J=YES, F=NO","mxdoyrbeh9","2","79","83","75","","","","","","lextale","false","false","","","","","","","",""
"879","
  <p style=""font-size: 40px;"">drench</p>
  <p style=""font-size: 16px;"">J = YES &nbsp;&nbsp;&nbsp; F = NO</p>
","j","html-keyboard-response","32","2.1.0","66373","J=YES, F=NO","mxdoyrbeh9","2","79","83","75","","","","","","lextale","true","false","","","","","","","",""
"874","
  <p style=""font-size: 40px;"">snirt</p>
  <p style=""font-size: 16px;"">J = YES &nbsp;&nbsp;&nbsp; F = NO</p>
","f","html-keyboard-response","33","2.1.0","67248","J=YES, F=NO","mxdoyrbeh9","2","79","83","75","","","","","","lextale","false","false","","","","","","","",""
"716","
  <p style=""font-size: 40px;"">bitter</p>
  <p style=""font-size: 16px;"">J = YES &nbsp;&nbsp;&nbsp; F = NO</p>
","j","html-keyboard-response","34","2.1.0","67965","J=YES, F=NO","mxdoyrbeh9","2","79","83","75","","","","","","lextale","true","false","","","","","","","",""
"1378","
  <p style=""font-size: 40px;"">pliff</p>
  <p style=""font-size: 16px;"">J = YES &nbsp;&nbsp;&nbsp; F = NO</p>
","f","html-keyboard-response","35","2.1.0","69344","J=YES, F=NO","mxdoyrbeh9","2","79","83","75","","","","","","lextale","false","false","","","","","","","",""
"691","
  <p style=""font-size: 40px;"">tablet</p>
  <p style=""font-size: 16px;"">J = YES &nbsp;&nbsp;&nbsp; F = NO</p>
","j","html-keyboard-response","36","2.1.0","70036","J=YES, F=NO","mxdoyrbeh9","2","79","83","75","","","","","","lextale","true","false","","","","","","","",""
"1109","
  <p style=""font-size: 40px;"">glimmer</p>
  <p style=""font-size: 16px;"">J = YES &nbsp;&nbsp;&nbsp; F = NO</p>
","j","html-keyboard-response","37","2.1.0","71146","J=YES, F=NO","mxdoyrbeh9","2","79","83","75","","","","","","lextale","true","false","","","","","","","",""
"1386","
  <p style=""font-size: 40px;"">slink</p>
  <p style=""font-size: 16px;"">J = YES &nbsp;&nbsp;&nbsp; F = NO</p>
","j","html-keyboard-response","38","2.1.0","72533","J=YES, F=NO","mxdoyrbeh9","2","79","83","75","","","","","","lextale","true","false","","","","","","","",""
"916","
  <p style=""font-size: 40px;"">clever</p>
  <p style=""font-size: 16px;"">J = YES &nbsp;&nbsp;&nbsp; F = NO</p>
","j","html-keyboard-response","39","2.1.0","73450","J=YES, F=NO","mxdoyrbeh9","2","79","83","75","","","","","","lextale","true","false","","","","","","","",""
"1161","
  <p style=""font-size: 40px;"">grum</p>
  <p style=""font-size: 16px;"">J = YES &nbsp;&nbsp;&nbsp; F = NO</p>
","f","html-keyboard-response","40","2.1.0","74612","J=YES, F=NO","mxdoyrbeh9","2","79","83","75","","","","","","lextale","false","false","","","","","","","",""
"1036","
  <p style=""font-size: 40px;"">string</p>
  <p style=""font-size: 16px;"">J = YES &nbsp;&nbsp;&nbsp; F = NO</p>
","j","html-keyboard-response","41","2.1.0","75649","J=YES, F=NO","mxdoyrbeh9","2","79","83","75","","","","","","lextale","true","false","","","","","","","",""
"985","
  <p style=""font-size: 40px;"">plim</p>
  <p style=""font-size: 16px;"">J = YES &nbsp;&nbsp;&nbsp; F = NO</p>
","f","html-keyboard-response","42","2.1.0","76635","J=YES, F=NO","mxdoyrbeh9","2","79","83","75","","","","","","lextale","false","false","","","","","","","",""
"621","
  <p style=""font-size: 40px;"">cable</p>
  <p style=""font-size: 16px;"">J = YES &nbsp;&nbsp;&nbsp; F = NO</p>
","j","html-keyboard-response","43","2.1.0","77258","J=YES, F=NO","mxdoyrbeh9","2","79","83","75","","","","","","lextale","true","false","","","","","","","",""
"873","
  <p style=""font-size: 40px;"">shrivel</p>
  <p style=""font-size: 16px;"">J = YES &nbsp;&nbsp;&nbsp; F = NO</p>
","j","html-keyboard-response","44","2.1.0","78132","J=YES, F=NO","mxdoyrbeh9","2","79","83","75","","","","","","lextale","true","false","","","","","","","",""
"1236","
  <p style=""font-size: 40px;"">tarnish</p>
  <p style=""font-size: 16px;"">J = YES &nbsp;&nbsp;&nbsp; F = NO</p>
","j","html-keyboard-response","45","2.1.0","79369","J=YES, F=NO","mxdoyrbeh9","2","79","83","75","","","","","","lextale","true","false","","","","","","","",""
"796","
  <p style=""font-size: 40px;"">blim</p>
  <p style=""font-size: 16px;"">J = YES &nbsp;&nbsp;&nbsp; F = NO</p>
","f","html-keyboard-response","46","2.1.0","80165","J=YES, F=NO","mxdoyrbeh9","2","79","83","75","","","","","","lextale","false","false","","","","","","","",""
"707","
  <p style=""font-size: 40px;"">stifle</p>
  <p style=""font-size: 16px;"">J = YES &nbsp;&nbsp;&nbsp; F = NO</p>
","j","html-keyboard-response","47","2.1.0","80873","J=YES, F=NO","mxdoyrbeh9","2","79","83","75","","","","","","lextale","true","false","","","","","","","",""
"760","
  <p style=""font-size: 40px;"">bint</p>
  <p style=""font-size: 16px;"">J = YES &nbsp;&nbsp;&nbsp; F = NO</p>
","f","html-keyboard-response","48","2.1.0","81634","J=YES, F=NO","mxdoyrbeh9","2","79","83","75","","","","","","lextale","false","false","","","","","","","",""
"625","
  <p style=""font-size: 40px;"">purple</p>
  <p style=""font-size: 16px;"">J = YES &nbsp;&nbsp;&nbsp; F = NO</p>
","j","html-keyboard-response","49","2.1.0","82260","J=YES, F=NO","mxdoyrbeh9","2","79","83","75","","","","","","lextale","true","false","","","","","","","",""
"999","
  <p style=""font-size: 40px;"">wriggle</p>
  <p style=""font-size: 16px;"">J = YES &nbsp;&nbsp;&nbsp; F = NO</p>
","j","html-keyboard-response","50","2.1.0","83260","J=YES, F=NO","mxdoyrbeh9","2","79","83","75","","","","","","lextale","true","false","","","","","","","",""
"1822","
  <p style=""font-size: 40px;"">mangle</p>
  <p style=""font-size: 16px;"">J = YES &nbsp;&nbsp;&nbsp; F = NO</p>
","j","html-keyboard-response","51","2.1.0","85083","J=YES, F=NO","mxdoyrbeh9","2","79","83","75","","","","","","lextale","true","false","","","","","","","",""
"1187","
  <p style=""font-size: 40px;"">shramp</p>
  <p style=""font-size: 16px;"">J = YES &nbsp;&nbsp;&nbsp; F = NO</p>
","j","html-keyboard-response","52","2.1.0","86271","J=YES, F=NO","mxdoyrbeh9","2","79","83","75","","","","","","lextale","false","false","","","","","","","",""
"980","
  <p style=""font-size: 40px;"">flirt</p>
  <p style=""font-size: 16px;"">J = YES &nbsp;&nbsp;&nbsp; F = NO</p>
","j","html-keyboard-response","53","2.1.0","87252","J=YES, F=NO","mxdoyrbeh9","2","79","83","75","","","","","","lextale","true","false","","","","","","","",""
"973","
  <p style=""font-size: 40px;"">frip</p>
  <p style=""font-size: 16px;"">J = YES &nbsp;&nbsp;&nbsp; F = NO</p>
","f","html-keyboard-response","54","2.1.0","88226","J=YES, F=NO","mxdoyrbeh9","2","79","83","75","","","","","","lextale","false","false","","","","","","","",""
"714","
  <p style=""font-size: 40px;"">tangle</p>
  <p style=""font-size: 16px;"">J = YES &nbsp;&nbsp;&nbsp; F = NO</p>
","j","html-keyboard-response","55","2.1.0","88941","J=YES, F=NO","mxdoyrbeh9","2","79","83","75","","","","","","lextale","true","false","","","","","","","",""
"859","
  <p style=""font-size: 40px;"">crumble</p>
  <p style=""font-size: 16px;"">J = YES &nbsp;&nbsp;&nbsp; F = NO</p>
","j","html-keyboard-response","56","2.1.0","89801","J=YES, F=NO","mxdoyrbeh9","2","79","83","75","","","","","","lextale","true","false","","","","","","","",""
"600","
  <p style=""font-size: 40px;"">wrinkle</p>
  <p style=""font-size: 16px;"">J = YES &nbsp;&nbsp;&nbsp; F = NO</p>
","j","html-keyboard-response","57","2.1.0","90402","J=YES, F=NO","mxdoyrbeh9","2","79","83","75","","","","","","lextale","true","false","","","","","","","",""
"1097","
  <p style=""font-size: 40px;"">slumb</p>
  <p style=""font-size: 16px;"">J = YES &nbsp;&nbsp;&nbsp; F = NO</p>
","f","html-keyboard-response","58","2.1.0","91500","J=YES, F=NO","mxdoyrbeh9","2","79","83","75","","","","","","lextale","false","false","","","","","","","",""
"585","
  <p style=""font-size: 40px;"">jungle</p>
  <p style=""font-size: 16px;"">J = YES &nbsp;&nbsp;&nbsp; F = NO</p>
","j","html-keyboard-response","59","2.1.0","92085","J=YES, F=NO","mxdoyrbeh9","2","79","83","75","","","","","","lextale","true","false","","","","","","","",""
"1185","
  <p style=""font-size: 40px;"">frolick</p>
  <p style=""font-size: 16px;"">J = YES &nbsp;&nbsp;&nbsp; F = NO</p>
","f","html-keyboard-response","60","2.1.0","93272","J=YES, F=NO","mxdoyrbeh9","2","79","83","75","","","","","","lextale","false","false","","","","","","","",""
"2131","
      <h2>LexTALE Test Completed</h2>
      <p>Your LexTALE vocabulary score is: <strong>79%</strong></p>
      <p>Press any key to continue.</p>
    "," ","html-keyboard-response","61","2.1.0","95405","J=YES, F=NO","mxdoyrbeh9","2","79","83","75","","","","","","","","","","","","","","","",""
"4394","
    <div style=""max-width: 800px; margin: auto; text-align: left;"">
      <h2>Break Time</h2>
      <p>You have completed the first part of the study.</p>
      <p>You may take a short <strong>30-second break</strong> before continuing.</p>
      <p>When you’re ready, press any key to continue to the final task.</p>
    </div>
  "," ","html-keyboard-response","62","2.1.0","99801","J=YES, F=NO","mxdoyrbeh9","2","79","83","75","","","","","","","","","","","","","","","",""
"9363","
    <div style=""max-width: 800px; margin: auto; text-align: left;"">
      <h2>Part 2: Lexical Decision Task</h2>
      <p>You will now begin the second part of the study.</p>
      <p>Each trial will follow this sequence:</p>
      <ul>
        <li>A fixation cross (+) appears at the center of the screen.</li>
        <li>You will hear a short beep followed by a spoken word.</li>
        <li>A written word will appear briefly on the screen.</li>
      </ul>
      <p>Your task is to judge whether the <strong>written word</strong> is a real English word.</p>
      <p style=""margin-top: 1em;""><strong>Key responses:</strong></p>
      <ul>
        <li><strong>J</strong> = YES (real English word)</li>
        <li><strong>F</strong> = NO (not a real English word)</li>
      </ul>
      <p>Please respond as quickly and accurately as you can.</p>
      <p style=""margin-top: 2em;"">Press any key to continue.</p>
    </div>
  ","AudioVolumeUp","html-keyboard-response","63","2.1.0","109165","J=YES, F=NO","mxdoyrbeh9","2","79","83","75","","","","","","","","","","","","","","","",""
"180","
    <div style=""max-width: 800px; margin: auto; text-align: left;"">
      <h2>Before You Begin</h2>
      <p>Make sure your sound is turned on.</p>
      <p>You will hear audio during each trial, but your decision should be based only on the <strong>written word</strong> you see on the screen.</p>
      <p><strong>Reminder:</strong></p>
      <ul>
        <li><strong>J</strong> = YES (real English word)</li>
        <li><strong>F</strong> = NO (not a real English word)</li>
      </ul>
      <p style=""margin-top: 2em;"">Press any key when you are ready to begin.</p>
    </div>
  ","AudioVolumeUp","html-keyboard-response","64","2.1.0","109346","J=YES, F=NO","mxdoyrbeh9","2","79","83","75","","","","","","","","","","","","","","","",""
"210","
    <div style=""max-width: 800px; margin: auto; text-align: left;"">
      <h2>Part 2: Practice Trials</h2>
      <p>You will now complete a few <strong>practice trials</strong> to get familiar with the task.</p>
      <p>These trials are <strong>not scored</strong> and are only to help you get used to the format.</p>
      <p style=""margin-top: 2em;"">Press any key to begin.</p>
    </div>
  ","AudioVolumeUp","html-keyboard-response","65","2.1.0","109557","J=YES, F=NO","mxdoyrbeh9","2","79","83","75","","","","","","","","","","","","","","","",""
"3864","<p>Starting practice block 1 of 2. Press any key to continue.</p>"," ","html-keyboard-response","66","2.1.0","113422","J=YES, F=NO","mxdoyrbeh9","2","79","83","75","","","","","","","","","","","","","","","",""
"null","<p style=""font-size: 50px;"">+</p>","null","html-keyboard-response","67","2.1.0","113734","J=YES, F=NO","mxdoyrbeh9","2","79","83","75","","","","","","","","","","","","","","","",""
"null","audio/beep-329314.mp3","null","audio-keyboard-response","68","2.1.0","115670","J=YES, F=NO","mxdoyrbeh9","2","79","83","75","","","","","","","","","","","","","","","",""
"null","audio/plot1.wav","null","audio-keyboard-response","69","2.1.0","116733","J=YES, F=NO","mxdoyrbeh9","2","79","83","75","","","","","","","","","","","","","","","",""
"null","
          <p id=""word"" style=""font-size: 40px;"">glenter</p>
          <p style=""font-size: 16px;"">J = YES &nbsp;&nbsp;&nbsp; F = NO</p>
        ","null","html-keyboard-response","70","2.1.0","118245","J=YES, F=NO","mxdoyrbeh9","2","79","83","75","","","","","","","","","glenter","plot1","pseudoword","pseudoword","f","false","",""
"null","<p style=""font-size: 50px;"">+</p>","null","html-keyboard-response","71","2.1.0","118558","J=YES, F=NO","mxdoyrbeh9","2","79","83","75","","","","","","","","","","","","","","","",""
"null","audio/beep-329314.mp3","null","audio-keyboard-response","72","2.1.0","120090","J=YES, F=NO","mxdoyrbeh9","2","79","83","75","","","","","","","","","","","","","","","",""
"null","audio/strength.wav","null","audio-keyboard-response","73","2.1.0","120870","J=YES, F=NO","mxdoyrbeh9","2","79","83","75","","","","","","","","","","","","","","","",""
"null","
          <p id=""word"" style=""font-size: 40px;"">plabet</p>
          <p style=""font-size: 16px;"">J = YES &nbsp;&nbsp;&nbsp; F = NO</p>
        ","null","html-keyboard-response","74","2.1.0","122375","J=YES, F=NO","mxdoyrbeh9","2","79","83","75","","","","","","","","","plabet","strength","pseudoword","pseudoword","f","false","",""
"null","<p style=""font-size: 50px;"">+</p>","null","html-keyboard-response","75","2.1.0","122688","J=YES, F=NO","mxdoyrbeh9","2","79","83","75","","","","","","","","","","","","","","","",""
"null","audio/beep-329314.mp3","null","audio-keyboard-response","76","2.1.0","124230","J=YES, F=NO","mxdoyrbeh9","2","79","83","75","","","","","","","","","","","","","","","",""
"null","audio/neck.wav","null","audio-keyboard-response","77","2.1.0","124830","J=YES, F=NO","mxdoyrbeh9","2","79","83","75","","","","","","","","","","","","","","","",""
"1049","
          <p id=""word"" style=""font-size: 40px;"">werling</p>
          <p style=""font-size: 16px;"">J = YES &nbsp;&nbsp;&nbsp; F = NO</p>
        ","f","html-keyboard-response","78","2.1.0","125880","J=YES, F=NO","mxdoyrbeh9","2","79","83","75","","","","","","","","","werling","neck","pseudoword","pseudoword","f","true","",""
"null","<p style=""font-size: 50px;"">+</p>","null","html-keyboard-response","79","2.1.0","126189","J=YES, F=NO","mxdoyrbeh9","2","79","83","75","","","","","","","","","","","","","","","",""
"null","audio/beep-329314.mp3","null","audio-keyboard-response","80","2.1.0","127730","J=YES, F=NO","mxdoyrbeh9","2","79","83","75","","","","","","","","","","","","","","","",""
"null","audio/cancer1.wav","null","audio-keyboard-response","81","2.1.0","128333","J=YES, F=NO","mxdoyrbeh9","2","79","83","75","","","","","","","","","","","","","","","",""
"993","
          <p id=""word"" style=""font-size: 40px;"">draw</p>
          <p style=""font-size: 16px;"">J = YES &nbsp;&nbsp;&nbsp; F = NO</p>
        ","f","html-keyboard-response","82","2.1.0","129328","J=YES, F=NO","mxdoyrbeh9","2","79","83","75","","","","","","","","","draw","cancer1","filler","filler","j","false","",""
"null","<p style=""font-size: 50px;"">+</p>","null","html-keyboard-response","83","2.1.0","129633","J=YES, F=NO","mxdoyrbeh9","2","79","83","75","","","","","","","","","","","","","","","",""
"null","audio/beep-329314.mp3","null","audio-keyboard-response","84","2.1.0","131170","J=YES, F=NO","mxdoyrbeh9","2","79","83","75","","","","","","","","","","","","","","","",""
"null","audio/menu.wav","null","audio-keyboard-response","85","2.1.0","132090","J=YES, F=NO","mxdoyrbeh9","2","79","83","75","","","","","","","","","","","","","","","",""
"1184","
          <p id=""word"" style=""font-size: 40px;"">slice</p>
          <p style=""font-size: 16px;"">J = YES &nbsp;&nbsp;&nbsp; F = NO</p>
        ","f","html-keyboard-response","86","2.1.0","133275","J=YES, F=NO","mxdoyrbeh9","2","79","83","75","","","","","","","","","slice","menu","filler","filler","j","false","",""
"null","<p style=""font-size: 50px;"">+</p>","null","html-keyboard-response","87","2.1.0","133578","J=YES, F=NO","mxdoyrbeh9","2","79","83","75","","","","","","","","","","","","","","","",""
"null","audio/beep-329314.mp3","null","audio-keyboard-response","88","2.1.0","135111","J=YES, F=NO","mxdoyrbeh9","2","79","83","75","","","","","","","","","","","","","","","",""
"null","audio/breath.wav","null","audio-keyboard-response","89","2.1.0","135790","J=YES, F=NO","mxdoyrbeh9","2","79","83","75","","","","","","","","","","","","","","","",""
"891","
          <p id=""word"" style=""font-size: 40px;"">pack</p>
          <p style=""font-size: 16px;"">J = YES &nbsp;&nbsp;&nbsp; F = NO</p>
        ","f","html-keyboard-response","90","2.1.0","136682","J=YES, F=NO","mxdoyrbeh9","2","79","83","75","","","","","","","","","pack","breath","filler","filler","j","false","",""
"null","<p style=""font-size: 50px;"">+</p>","null","html-keyboard-response","91","2.1.0","136993","J=YES, F=NO","mxdoyrbeh9","2","79","83","75","","","","","","","","","","","","","","","",""
"null","audio/beep-329314.mp3","null","audio-keyboard-response","92","2.1.0","138530","J=YES, F=NO","mxdoyrbeh9","2","79","83","75","","","","","","","","","","","","","","","",""
"null","audio/holiday1.wav","null","audio-keyboard-response","93","2.1.0","139690","J=YES, F=NO","mxdoyrbeh9","2","79","83","75","","","","","","","","","","","","","","","",""
"870","
          <p id=""word"" style=""font-size: 40px;"">drivets</p>
          <p style=""font-size: 16px;"">J = YES &nbsp;&nbsp;&nbsp; F = NO</p>
        ","f","html-keyboard-response","94","2.1.0","140561","J=YES, F=NO","mxdoyrbeh9","2","79","83","75","","","","","","","","","drivets","holiday1","pseudoword","pseudoword","f","true","",""
"null","<p style=""font-size: 50px;"">+</p>","null","html-keyboard-response","95","2.1.0","140873","J=YES, F=NO","mxdoyrbeh9","2","79","83","75","","","","","","","","","","","","","","","",""
"null","audio/beep-329314.mp3","null","audio-keyboard-response","96","2.1.0","142412","J=YES, F=NO","mxdoyrbeh9","2","79","83","75","","","","","","","","","","","","","","","",""
"null","audio/tomato.wav","null","audio-keyboard-response","97","2.1.0","143175","J=YES, F=NO","mxdoyrbeh9","2","79","83","75","","","","","","","","","","","","","","","",""
"697","
          <p id=""word"" style=""font-size: 40px;"">gladies</p>
          <p style=""font-size: 16px;"">J = YES &nbsp;&nbsp;&nbsp; F = NO</p>
        ","f","html-keyboard-response","98","2.1.0","143873","J=YES, F=NO","mxdoyrbeh9","2","79","83","75","","","","","","","","","gladies","tomato","pseudoword","pseudoword","f","true","",""
"null","<p style=""font-size: 50px;"">+</p>","null","html-keyboard-response","99","2.1.0","144186","J=YES, F=NO","mxdoyrbeh9","2","79","83","75","","","","","","","","","","","","","","","",""
"null","audio/beep-329314.mp3","null","audio-keyboard-response","100","2.1.0","145710","J=YES, F=NO","mxdoyrbeh9","2","79","83","75","","","","","","","","","","","","","","","",""
"null","audio/desire.wav","null","audio-keyboard-response","101","2.1.0","146370","J=YES, F=NO","mxdoyrbeh9","2","79","83","75","","","","","","","","","","","","","","","",""
"683","
          <p id=""word"" style=""font-size: 40px;"">nophed</p>
          <p style=""font-size: 16px;"">J = YES &nbsp;&nbsp;&nbsp; F = NO</p>
        ","f","html-keyboard-response","102","2.1.0","147054","J=YES, F=NO","mxdoyrbeh9","2","79","83","75","","","","","","","","","nophed","desire","pseudoword","pseudoword","f","true","",""
"null","<p style=""font-size: 50px;"">+</p>","null","html-keyboard-response","103","2.1.0","147366","J=YES, F=NO","mxdoyrbeh9","2","79","83","75","","","","","","","","","","","","","","","",""
"null","audio/beep-329314.mp3","null","audio-keyboard-response","104","2.1.0","148910","J=YES, F=NO","mxdoyrbeh9","2","79","83","75","","","","","","","","","","","","","","","",""
"null","audio/brain.wav","null","audio-keyboard-response","105","2.1.0","149591","J=YES, F=NO","mxdoyrbeh9","2","79","83","75","","","","","","","","","","","","","","","",""
"613","
          <p id=""word"" style=""font-size: 40px;"">throw</p>
          <p style=""font-size: 16px;"">J = YES &nbsp;&nbsp;&nbsp; F = NO</p>
        ","f","html-keyboard-response","106","2.1.0","150205","J=YES, F=NO","mxdoyrbeh9","2","79","83","75","","","","","","","","","throw","brain","filler","filler","j","false","",""
"null","<p style=""font-size: 50px;"">+</p>","null","html-keyboard-response","107","2.1.0","150509","J=YES, F=NO","mxdoyrbeh9","2","79","83","75","","","","","","","","","","","","","","","",""
"null","audio/beep-329314.mp3","null","audio-keyboard-response","108","2.1.0","152050","J=YES, F=NO","mxdoyrbeh9","2","79","83","75","","","","","","","","","","","","","","","",""
"null","audio/bomb1.wav","null","audio-keyboard-response","109","2.1.0","152630","J=YES, F=NO","mxdoyrbeh9","2","79","83","75","","","","","","","","","","","","","","","",""
"580","
          <p id=""word"" style=""font-size: 40px;"">clean</p>
          <p style=""font-size: 16px;"">J = YES &nbsp;&nbsp;&nbsp; F = NO</p>
        ","f","html-keyboard-response","110","2.1.0","153211","J=YES, F=NO","mxdoyrbeh9","2","79","83","75","","","","","","","","","clean","bomb1","filler","filler","j","false","",""
"null","<p style=""font-size: 50px;"">+</p>","null","html-keyboard-response","111","2.1.0","153516","J=YES, F=NO","mxdoyrbeh9","2","79","83","75","","","","","","","","","","","","","","","",""
"null","audio/beep-329314.mp3","null","audio-keyboard-response","112","2.1.0","155051","J=YES, F=NO","mxdoyrbeh9","2","79","83","75","","","","","","","","","","","","","","","",""
"null","audio/smirk1.wav","null","audio-keyboard-response","113","2.1.0","156127","J=YES, F=NO","mxdoyrbeh9","2","79","83","75","","","","","","","","","","","","","","","",""
"496","
          <p id=""word"" style=""font-size: 40px;"">snopt</p>
          <p style=""font-size: 16px;"">J = YES &nbsp;&nbsp;&nbsp; F = NO</p>
        ","f","html-keyboard-response","114","2.1.0","156625","J=YES, F=NO","mxdoyrbeh9","2","79","83","75","","","","","","","","","snopt","smirk1","pseudoword","pseudoword","f","true","",""
"4607","<p>Starting practice block 2 of 2. Press any key to continue.</p>","AudioVolumeUp","html-keyboard-response","115","2.1.0","161233","J=YES, F=NO","mxdoyrbeh9","2","79","83","75","","","","","","","","","","","","","","","",""
"null","<p style=""font-size: 50px;"">+</p>","null","html-keyboard-response","116","2.1.0","161534","J=YES, F=NO","mxdoyrbeh9","2","79","83","75","","","","","","","","","","","","","","","",""
"null","audio/beep-329314.mp3","null","audio-keyboard-response","117","2.1.0","163072","J=YES, F=NO","mxdoyrbeh9","2","79","83","75","","","","","","","","","","","","","","","",""
"null","audio/cinema1.wav","null","audio-keyboard-response","118","2.1.0","163930","J=YES, F=NO","mxdoyrbeh9","2","79","83","75","","","","","","","","","","","","","","","",""
"975","
          <p id=""word"" style=""font-size: 40px;"">murple</p>
          <p style=""font-size: 16px;"">J = YES &nbsp;&nbsp;&nbsp; F = NO</p>
        ","f","html-keyboard-response","119","2.1.0","164907","J=YES, F=NO","mxdoyrbeh9","2","79","83","75","","","","","","","","","murple","cinema1","pseudoword","pseudoword","f","true","",""
"null","<p style=""font-size: 50px;"">+</p>","null","html-keyboard-response","120","2.1.0","165216","J=YES, F=NO","mxdoyrbeh9","2","79","83","75","","","","","","","","","","","","","","","",""
"null","audio/beep-329314.mp3","null","audio-keyboard-response","121","2.1.0","166756","J=YES, F=NO","mxdoyrbeh9","2","79","83","75","","","","","","","","","","","","","","","",""
"null","audio/sugar1.wav","null","audio-keyboard-response","122","2.1.0","167470","J=YES, F=NO","mxdoyrbeh9","2","79","83","75","","","","","","","","","","","","","","","",""
"679","
          <p id=""word"" style=""font-size: 40px;"">glung</p>
          <p style=""font-size: 16px;"">J = YES &nbsp;&nbsp;&nbsp; F = NO</p>
        ","f","html-keyboard-response","123","2.1.0","168150","J=YES, F=NO","mxdoyrbeh9","2","79","83","75","","","","","","","","","glung","sugar1","pseudoword","pseudoword","f","true","",""
"null","<p style=""font-size: 50px;"">+</p>","null","html-keyboard-response","124","2.1.0","168463","J=YES, F=NO","mxdoyrbeh9","2","79","83","75","","","","","","","","","","","","","","","",""
"null","audio/beep-329314.mp3","null","audio-keyboard-response","125","2.1.0","169993","J=YES, F=NO","mxdoyrbeh9","2","79","83","75","","","","","","","","","","","","","","","",""
"null","audio/theory1.wav","null","audio-keyboard-response","126","2.1.0","170870","J=YES, F=NO","mxdoyrbeh9","2","79","83","75","","","","","","","","","","","","","","","",""
"717","
          <p id=""word"" style=""font-size: 40px;"">scolve</p>
          <p style=""font-size: 16px;"">J = YES &nbsp;&nbsp;&nbsp; F = NO</p>
        ","f","html-keyboard-response","127","2.1.0","171589","J=YES, F=NO","mxdoyrbeh9","2","79","83","75","","","","","","","","","scolve","theory1","pseudoword","pseudoword","f","true","",""
"null","<p style=""font-size: 50px;"">+</p>","null","html-keyboard-response","128","2.1.0","171893","J=YES, F=NO","mxdoyrbeh9","2","79","83","75","","","","","","","","","","","","","","","",""
"null","audio/beep-329314.mp3","null","audio-keyboard-response","129","2.1.0","173432","J=YES, F=NO","mxdoyrbeh9","2","79","83","75","","","","","","","","","","","","","","","",""
"null","audio/ankle1.wav","null","audio-keyboard-response","130","2.1.0","174011","J=YES, F=NO","mxdoyrbeh9","2","79","83","75","","","","","","","","","","","","","","","",""
"518","
          <p id=""word"" style=""font-size: 40px;"">kick</p>
          <p style=""font-size: 16px;"">J = YES &nbsp;&nbsp;&nbsp; F = NO</p>
        ","f","html-keyboard-response","131","2.1.0","174530","J=YES, F=NO","mxdoyrbeh9","2","79","83","75","","","","","","","","","kick","ankle1","filler","filler","j","false","",""
"null","<p style=""font-size: 50px;"">+</p>","null","html-keyboard-response","132","2.1.0","174835","J=YES, F=NO","mxdoyrbeh9","2","79","83","75","","","","","","","","","","","","","","","",""
"null","audio/beep-329314.mp3","null","audio-keyboard-response","133","2.1.0","176370","J=YES, F=NO","mxdoyrbeh9","2","79","83","75","","","","","","","","","","","","","","","",""
"null","audio/budget1.wav","null","audio-keyboard-response","134","2.1.0","177150","J=YES, F=NO","mxdoyrbeh9","2","79","83","75","","","","","","","","","","","","","","","",""
"950","
          <p id=""word"" style=""font-size: 40px;"">sulist</p>
          <p style=""font-size: 16px;"">J = YES &nbsp;&nbsp;&nbsp; F = NO</p>
        ","f","html-keyboard-response","135","2.1.0","178101","J=YES, F=NO","mxdoyrbeh9","2","79","83","75","","","","","","","","","sulist","budget1","pseudoword","pseudoword","f","true","",""
"null","<p style=""font-size: 50px;"">+</p>","null","html-keyboard-response","136","2.1.0","178403","J=YES, F=NO","mxdoyrbeh9","2","79","83","75","","","","","","","","","","","","","","","",""
"null","audio/beep-329314.mp3","null","audio-keyboard-response","137","2.1.0","179931","J=YES, F=NO","mxdoyrbeh9","2","79","83","75","","","","","","","","","","","","","","","",""
"null","audio/floor.wav","null","audio-keyboard-response","138","2.1.0","180671","J=YES, F=NO","mxdoyrbeh9","2","79","83","75","","","","","","","","","","","","","","","",""
"1055","
          <p id=""word"" style=""font-size: 40px;"">mop</p>
          <p style=""font-size: 16px;"">J = YES &nbsp;&nbsp;&nbsp; F = NO</p>
        ","j","html-keyboard-response","139","2.1.0","181726","J=YES, F=NO","mxdoyrbeh9","2","79","83","75","","","","","","","","","mop","floor","filler","filler","j","true","",""
"null","<p style=""font-size: 50px;"">+</p>","null","html-keyboard-response","140","2.1.0","182034","J=YES, F=NO","mxdoyrbeh9","2","79","83","75","","","","","","","","","","","","","","","",""
"null","audio/beep-329314.mp3","null","audio-keyboard-response","141","2.1.0","183570","J=YES, F=NO","mxdoyrbeh9","2","79","83","75","","","","","","","","","","","","","","","",""
"null","audio/mouth1.wav","null","audio-keyboard-response","142","2.1.0","184171","J=YES, F=NO","mxdoyrbeh9","2","79","83","75","","","","","","","","","","","","","","","",""
"930","
          <p id=""word"" style=""font-size: 40px;"">spolial</p>
          <p style=""font-size: 16px;"">J = YES &nbsp;&nbsp;&nbsp; F = NO</p>
        ","f","html-keyboard-response","143","2.1.0","185104","J=YES, F=NO","mxdoyrbeh9","2","79","83","75","","","","","","","","","spolial","mouth1","pseudoword","pseudoword","f","true","",""
"null","<p style=""font-size: 50px;"">+</p>","null","html-keyboard-response","144","2.1.0","185422","J=YES, F=NO","mxdoyrbeh9","2","79","83","75","","","","","","","","","","","","","","","",""
"null","audio/beep-329314.mp3","null","audio-keyboard-response","145","2.1.0","186952","J=YES, F=NO","mxdoyrbeh9","2","79","83","75","","","","","","","","","","","","","","","",""
"null","audio/bishop1.wav","null","audio-keyboard-response","146","2.1.0","187772","J=YES, F=NO","mxdoyrbeh9","2","79","83","75","","","","","","","","","","","","","","","",""
"693","
          <p id=""word"" style=""font-size: 40px;"">play</p>
          <p style=""font-size: 16px;"">J = YES &nbsp;&nbsp;&nbsp; F = NO</p>
        ","j","html-keyboard-response","147","2.1.0","188468","J=YES, F=NO","mxdoyrbeh9","2","79","83","75","","","","","","","","","play","bishop1","filler","filler","j","true","",""
"null","<p style=""font-size: 50px;"">+</p>","null","html-keyboard-response","148","2.1.0","188775","J=YES, F=NO","mxdoyrbeh9","2","79","83","75","","","","","","","","","","","","","","","",""
"null","audio/beep-329314.mp3","null","audio-keyboard-response","149","2.1.0","190312","J=YES, F=NO","mxdoyrbeh9","2","79","83","75","","","","","","","","","","","","","","","",""
"null","audio/butter1.wav","null","audio-keyboard-response","150","2.1.0","190790","J=YES, F=NO","mxdoyrbeh9","2","79","83","75","","","","","","","","","","","","","","","",""
"1010","
          <p id=""word"" style=""font-size: 40px;"">chew</p>
          <p style=""font-size: 16px;"">J = YES &nbsp;&nbsp;&nbsp; F = NO</p>
        ","j","html-keyboard-response","151","2.1.0","191801","J=YES, F=NO","mxdoyrbeh9","2","79","83","75","","","","","","","","","chew","butter1","filler","filler","j","true","",""
"null","<p style=""font-size: 50px;"">+</p>","null","html-keyboard-response","152","2.1.0","192104","J=YES, F=NO","mxdoyrbeh9","2","79","83","75","","","","","","","","","","","","","","","",""
"null","audio/beep-329314.mp3","null","audio-keyboard-response","153","2.1.0","193632","J=YES, F=NO","mxdoyrbeh9","2","79","83","75","","","","","","","","","","","","","","","",""
"null","audio/birth1.wav","null","audio-keyboard-response","154","2.1.0","194250","J=YES, F=NO","mxdoyrbeh9","2","79","83","75","","","","","","","","","","","","","","","",""
"606","
          <p id=""word"" style=""font-size: 40px;"">peel</p>
          <p style=""font-size: 16px;"">J = YES &nbsp;&nbsp;&nbsp; F = NO</p>
        ","j","html-keyboard-response","155","2.1.0","194857","J=YES, F=NO","mxdoyrbeh9","2","79","83","75","","","","","","","","","peel","birth1","filler","filler","j","true","",""
"null","<p style=""font-size: 50px;"">+</p>","null","html-keyboard-response","156","2.1.0","195160","J=YES, F=NO","mxdoyrbeh9","2","79","83","75","","","","","","","","","","","","","","","",""
"null","audio/beep-329314.mp3","null","audio-keyboard-response","157","2.1.0","196690","J=YES, F=NO","mxdoyrbeh9","2","79","83","75","","","","","","","","","","","","","","","",""
"null","audio/beach1.wav","null","audio-keyboard-response","158","2.1.0","197470","J=YES, F=NO","mxdoyrbeh9","2","79","83","75","","","","","","","","","","","","","","","",""
"600","
          <p id=""word"" style=""font-size: 40px;"">drive</p>
          <p style=""font-size: 16px;"">J = YES &nbsp;&nbsp;&nbsp; F = NO</p>
        ","j","html-keyboard-response","159","2.1.0","198071","J=YES, F=NO","mxdoyrbeh9","2","79","83","75","","","","","","","","","drive","beach1","filler","filler","j","true","",""
"null","<p style=""font-size: 50px;"">+</p>","null","html-keyboard-response","160","2.1.0","198373","J=YES, F=NO","mxdoyrbeh9","2","79","83","75","","","","","","","","","","","","","","","",""
"null","audio/beep-329314.mp3","null","audio-keyboard-response","161","2.1.0","199912","J=YES, F=NO","mxdoyrbeh9","2","79","83","75","","","","","","","","","","","","","","","",""
"null","audio/alarm1.wav","null","audio-keyboard-response","162","2.1.0","200551","J=YES, F=NO","mxdoyrbeh9","2","79","83","75","","","","","","","","","","","","","","","",""
"582","
          <p id=""word"" style=""font-size: 40px;"">lock</p>
          <p style=""font-size: 16px;"">J = YES &nbsp;&nbsp;&nbsp; F = NO</p>
        ","j","html-keyboard-response","163","2.1.0","201135","J=YES, F=NO","mxdoyrbeh9","2","79","83","75","","","","","","","","","lock","alarm1","filler","filler","j","true","",""
"17600","
    <div style=""max-width: 800px; margin: auto; text-align: left;"">
      <h2>Part 2: Main Trials</h2>
      <p>Great job on the practice trials!</p>
      <p>You will now begin the <strong>main set of trials</strong>.</p>
      <p>Remember your key assignments:</p>
      <ul>
        <li><strong>J</strong> = YES (real English word)</li>
        <li><strong>F</strong> = NO (not a real English word)</li>
      </ul>
      <p>Try to respond as <strong>quickly and accurately</strong> as possible.</p>
      <p style=""margin-top: 2em;"">Press any key to begin the main trials.</p>
    </div>
  "," ","html-keyboard-response","164","2.1.0","218737","J=YES, F=NO","mxdoyrbeh9","2","79","83","75","","","","","","","","","","","","","","","",""
"1216","<p>Starting main block 1 of 8. Press any key to continue.</p>"," ","html-keyboard-response","165","2.1.0","219954","J=YES, F=NO","mxdoyrbeh9","2","79","83","75","","","","","","","","","","","","","","","",""
"null","<p style=""font-size: 50px;"">+</p>","null","html-keyboard-response","166","2.1.0","220267","J=YES, F=NO","mxdoyrbeh9","2","79","83","75","","","","","","","","","","","","","","","",""
"null","audio/beep-329314.mp3","null","audio-keyboard-response","167","2.1.0","222302","J=YES, F=NO","mxdoyrbeh9","2","79","83","75","","","","","","","","","","","","","","","",""
"null","audio/arm.wav","null","audio-keyboard-response","168","2.1.0","223184","J=YES, F=NO","mxdoyrbeh9","2","79","83","75","","","","","","","","","","","","","","","",""
"1353","
          <p id=""word"" style=""font-size: 40px;"">pigne</p>
          <p style=""font-size: 16px;"">J = YES &nbsp;&nbsp;&nbsp; F = NO</p>
        ","f","html-keyboard-response","169","2.1.0","224538","J=YES, F=NO","mxdoyrbeh9","2","79","83","75","","","","","","","","","pigne","arm","pseudoword","pseudoword","f","true","",""
"null","<p style=""font-size: 50px;"">+</p>","null","html-keyboard-response","170","2.1.0","224843","J=YES, F=NO","mxdoyrbeh9","2","79","83","75","","","","","","","","","","","","","","","",""
"null","audio/beep-329314.mp3","null","audio-keyboard-response","171","2.1.0","226389","J=YES, F=NO","mxdoyrbeh9","2","79","83","75","","","","","","","","","","","","","","","",""
"null","audio/pain1.wav","null","audio-keyboard-response","172","2.1.0","226922","J=YES, F=NO","mxdoyrbeh9","2","79","83","75","","","","","","","","","","","","","","","",""
"null","
          <p id=""word"" style=""font-size: 40px;"">tritted</p>
          <p style=""font-size: 16px;"">J = YES &nbsp;&nbsp;&nbsp; F = NO</p>
        ","null","html-keyboard-response","173","2.1.0","228427","J=YES, F=NO","mxdoyrbeh9","2","79","83","75","","","","","","","","","tritted","pain1","pseudoword","pseudoword","f","false","",""
"null","<p style=""font-size: 50px;"">+</p>","null","html-keyboard-response","174","2.1.0","228728","J=YES, F=NO","mxdoyrbeh9","2","79","83","75","","","","","","","","","","","","","","","",""
"null","audio/beep-329314.mp3","null","audio-keyboard-response","175","2.1.0","230263","J=YES, F=NO","mxdoyrbeh9","2","79","83","75","","","","","","","","","","","","","","","",""
"null","audio/arm.wav","null","audio-keyboard-response","176","2.1.0","230802","J=YES, F=NO","mxdoyrbeh9","2","79","83","75","","","","","","","","","","","","","","","",""
"1256","
          <p id=""word"" style=""font-size: 40px;"">fold</p>
          <p style=""font-size: 16px;"">J = YES &nbsp;&nbsp;&nbsp; F = NO</p>
        ","j","html-keyboard-response","177","2.1.0","232059","J=YES, F=NO","mxdoyrbeh9","2","79","83","75","","","","","","","","","fold","arm","filler","filler","j","true","",""
"null","<p style=""font-size: 50px;"">+</p>","null","html-keyboard-response","178","2.1.0","232373","J=YES, F=NO","mxdoyrbeh9","2","79","83","75","","","","","","","","","","","","","","","",""
"null","audio/beep-329314.mp3","null","audio-keyboard-response","179","2.1.0","233906","J=YES, F=NO","mxdoyrbeh9","2","79","83","75","","","","","","","","","","","","","","","",""
"null","audio/ego.wav","null","audio-keyboard-response","180","2.1.0","234504","J=YES, F=NO","mxdoyrbeh9","2","79","83","75","","","","","","","","","","","","","","","",""
"843","
          <p id=""word"" style=""font-size: 40px;"">bruite</p>
          <p style=""font-size: 16px;"">J = YES &nbsp;&nbsp;&nbsp; F = NO</p>
        ","f","html-keyboard-response","181","2.1.0","235348","J=YES, F=NO","mxdoyrbeh9","2","79","83","75","","","","","","","","","bruite","ego","pseudoword","pseudoword","f","true","",""
"null","<p style=""font-size: 50px;"">+</p>","null","html-keyboard-response","182","2.1.0","235652","J=YES, F=NO","mxdoyrbeh9","2","79","83","75","","","","","","","","","","","","","","","",""
"null","audio/beep-329314.mp3","null","audio-keyboard-response","183","2.1.0","237186","J=YES, F=NO","mxdoyrbeh9","2","79","83","75","","","","","","","","","","","","","","","",""
"null","audio/dollar.wav","null","audio-keyboard-response","184","2.1.0","237603","J=YES, F=NO","mxdoyrbeh9","2","79","83","75","","","","","","","","","","","","","","","",""
"968","
          <p id=""word"" style=""font-size: 40px;"">save</p>
          <p style=""font-size: 16px;"">J = YES &nbsp;&nbsp;&nbsp; F = NO</p>
        ","j","html-keyboard-response","185","2.1.0","238572","J=YES, F=NO","mxdoyrbeh9","2","79","83","75","","","","","","","","","save","dollar","literal","experimental","j","true","",""
"null","<p style=""font-size: 50px;"">+</p>","null","html-keyboard-response","186","2.1.0","238883","J=YES, F=NO","mxdoyrbeh9","2","79","83","75","","","","","","","","","","","","","","","",""
"null","audio/beep-329314.mp3","null","audio-keyboard-response","187","2.1.0","240424","J=YES, F=NO","mxdoyrbeh9","2","79","83","75","","","","","","","","","","","","","","","",""
"null","audio/heart1.wav","null","audio-keyboard-response","188","2.1.0","241103","J=YES, F=NO","mxdoyrbeh9","2","79","83","75","","","","","","","","","","","","","","","",""
"886","
          <p id=""word"" style=""font-size: 40px;"">touch</p>
          <p style=""font-size: 16px;"">J = YES &nbsp;&nbsp;&nbsp; F = NO</p>
        ","j","html-keyboard-response","189","2.1.0","241990","J=YES, F=NO","mxdoyrbeh9","2","79","83","75","","","","","","","","","touch","heart1","metaphor","experimental","j","true","",""
"null","<p style=""font-size: 50px;"">+</p>","null","html-keyboard-response","190","2.1.0","242296","J=YES, F=NO","mxdoyrbeh9","2","79","83","75","","","","","","","","","","","","","","","",""
"null","audio/beep-329314.mp3","null","audio-keyboard-response","191","2.1.0","243822","J=YES, F=NO","mxdoyrbeh9","2","79","83","75","","","","","","","","","","","","","","","",""
"null","audio/hawk1.wav","null","audio-keyboard-response","192","2.1.0","244466","J=YES, F=NO","mxdoyrbeh9","2","79","83","75","","","","","","","","","","","","","","","",""
"1385","
          <p id=""word"" style=""font-size: 40px;"">ostach</p>
          <p style=""font-size: 16px;"">J = YES &nbsp;&nbsp;&nbsp; F = NO</p>
        ","f","html-keyboard-response","193","2.1.0","245852","J=YES, F=NO","mxdoyrbeh9","2","79","83","75","","","","","","","","","ostach","hawk1","pseudoword","pseudoword","f","true","",""
"null","<p style=""font-size: 50px;"">+</p>","null","html-keyboard-response","194","2.1.0","246157","J=YES, F=NO","mxdoyrbeh9","2","79","83","75","","","","","","","","","","","","","","","",""
"null","audio/beep-329314.mp3","null","audio-keyboard-response","195","2.1.0","247703","J=YES, F=NO","mxdoyrbeh9","2","79","83","75","","","","","","","","","","","","","","","",""
"null","audio/soul.wav","null","audio-keyboard-response","196","2.1.0","248343","J=YES, F=NO","mxdoyrbeh9","2","79","83","75","","","","","","","","","","","","","","","",""
"822","
          <p id=""word"" style=""font-size: 40px;"">sell</p>
          <p style=""font-size: 16px;"">J = YES &nbsp;&nbsp;&nbsp; F = NO</p>
        ","j","html-keyboard-response","197","2.1.0","249166","J=YES, F=NO","mxdoyrbeh9","2","79","83","75","","","","","","","","","sell","soul","metaphor","experimental","j","true","",""
"null","<p style=""font-size: 50px;"">+</p>","null","html-keyboard-response","198","2.1.0","249482","J=YES, F=NO","mxdoyrbeh9","2","79","83","75","","","","","","","","","","","","","","","",""
"null","audio/beep-329314.mp3","null","audio-keyboard-response","199","2.1.0","251023","J=YES, F=NO","mxdoyrbeh9","2","79","83","75","","","","","","","","","","","","","","","",""
"null","audio/corpse1.wav","null","audio-keyboard-response","200","2.1.0","251682","J=YES, F=NO","mxdoyrbeh9","2","79","83","75","","","","","","","","","","","","","","","",""
"1250","
          <p id=""word"" style=""font-size: 40px;"">glonet</p>
          <p style=""font-size: 16px;"">J = YES &nbsp;&nbsp;&nbsp; F = NO</p>
        ","f","html-keyboard-response","201","2.1.0","252934","J=YES, F=NO","mxdoyrbeh9","2","79","83","75","","","","","","","","","glonet","corpse1","pseudoword","pseudoword","f","true","",""
"null","<p style=""font-size: 50px;"">+</p>","null","html-keyboard-response","202","2.1.0","253237","J=YES, F=NO","mxdoyrbeh9","2","79","83","75","","","","","","","","","","","","","","","",""
"null","audio/beep-329314.mp3","null","audio-keyboard-response","203","2.1.0","254763","J=YES, F=NO","mxdoyrbeh9","2","79","83","75","","","","","","","","","","","","","","","",""
"null","audio/tax1.wav","null","audio-keyboard-response","204","2.1.0","255442","J=YES, F=NO","mxdoyrbeh9","2","79","83","75","","","","","","","","","","","","","","","",""
"1093","
          <p id=""word"" style=""font-size: 40px;"">snate</p>
          <p style=""font-size: 16px;"">J = YES &nbsp;&nbsp;&nbsp; F = NO</p>
        ","f","html-keyboard-response","205","2.1.0","256537","J=YES, F=NO","mxdoyrbeh9","2","79","83","75","","","","","","","","","snate","tax1","pseudoword","pseudoword","f","true","",""
"null","<p style=""font-size: 50px;"">+</p>","null","html-keyboard-response","206","2.1.0","256848","J=YES, F=NO","mxdoyrbeh9","2","79","83","75","","","","","","","","","","","","","","","",""
"null","audio/beep-329314.mp3","null","audio-keyboard-response","207","2.1.0","258384","J=YES, F=NO","mxdoyrbeh9","2","79","83","75","","","","","","","","","","","","","","","",""
"null","audio/grass.wav","null","audio-keyboard-response","208","2.1.0","259064","J=YES, F=NO","mxdoyrbeh9","2","79","83","75","","","","","","","","","","","","","","","",""
"770","
          <p id=""word"" style=""font-size: 40px;"">cut</p>
          <p style=""font-size: 16px;"">J = YES &nbsp;&nbsp;&nbsp; F = NO</p>
        ","j","html-keyboard-response","209","2.1.0","259835","J=YES, F=NO","mxdoyrbeh9","2","79","83","75","","","","","","","","","cut","grass","literal","experimental","j","true","",""
"null","<p style=""font-size: 50px;"">+</p>","null","html-keyboard-response","210","2.1.0","260145","J=YES, F=NO","mxdoyrbeh9","2","79","83","75","","","","","","","","","","","","","","","",""
"null","audio/beep-329314.mp3","null","audio-keyboard-response","211","2.1.0","261683","J=YES, F=NO","mxdoyrbeh9","2","79","83","75","","","","","","","","","","","","","","","",""
"null","audio/bottle.wav","null","audio-keyboard-response","212","2.1.0","262182","J=YES, F=NO","mxdoyrbeh9","2","79","83","75","","","","","","","","","","","","","","","",""
"535","
          <p id=""word"" style=""font-size: 40px;"">watch</p>
          <p style=""font-size: 16px;"">J = YES &nbsp;&nbsp;&nbsp; F = NO</p>
        ","j","html-keyboard-response","213","2.1.0","262718","J=YES, F=NO","mxdoyrbeh9","2","79","83","75","","","","","","","","","watch","bottle","filler","filler","j","true","",""
"null","<p style=""font-size: 50px;"">+</p>","null","html-keyboard-response","214","2.1.0","263026","J=YES, F=NO","mxdoyrbeh9","2","79","83","75","","","","","","","","","","","","","","","",""
"null","audio/beep-329314.mp3","null","audio-keyboard-response","215","2.1.0","264563","J=YES, F=NO","mxdoyrbeh9","2","79","83","75","","","","","","","","","","","","","","","",""
"null","audio/cave1.wav","null","audio-keyboard-response","216","2.1.0","265143","J=YES, F=NO","mxdoyrbeh9","2","79","83","75","","","","","","","","","","","","","","","",""
"644","
          <p id=""word"" style=""font-size: 40px;"">blacket</p>
          <p style=""font-size: 16px;"">J = YES &nbsp;&nbsp;&nbsp; F = NO</p>
        ","j","html-keyboard-response","217","2.1.0","265788","J=YES, F=NO","mxdoyrbeh9","2","79","83","75","","","","","","","","","blacket","cave1","pseudoword","pseudoword","f","false","",""
"null","<p style=""font-size: 50px;"">+</p>","null","html-keyboard-response","218","2.1.0","266104","J=YES, F=NO","mxdoyrbeh9","2","79","83","75","","","","","","","","","","","","","","","",""
"null","audio/beep-329314.mp3","null","audio-keyboard-response","219","2.1.0","267643","J=YES, F=NO","mxdoyrbeh9","2","79","83","75","","","","","","","","","","","","","","","",""
"null","audio/fortune1.wav","null","audio-keyboard-response","220","2.1.0","268442","J=YES, F=NO","mxdoyrbeh9","2","79","83","75","","","","","","","","","","","","","","","",""
"681","
          <p id=""word"" style=""font-size: 40px;"">spend</p>
          <p style=""font-size: 16px;"">J = YES &nbsp;&nbsp;&nbsp; F = NO</p>
        ","j","html-keyboard-response","221","2.1.0","269125","J=YES, F=NO","mxdoyrbeh9","2","79","83","75","","","","","","","","","spend","fortune1","literal","experimental","j","true","",""
"null","<p style=""font-size: 50px;"">+</p>","null","html-keyboard-response","222","2.1.0","269438","J=YES, F=NO","mxdoyrbeh9","2","79","83","75","","","","","","","","","","","","","","","",""
"null","audio/beep-329314.mp3","null","audio-keyboard-response","223","2.1.0","270962","J=YES, F=NO","mxdoyrbeh9","2","79","83","75","","","","","","","","","","","","","","","",""
"null","audio/pig.wav","null","audio-keyboard-response","224","2.1.0","271383","J=YES, F=NO","mxdoyrbeh9","2","79","83","75","","","","","","","","","","","","","","","",""
"759","
          <p id=""word"" style=""font-size: 40px;"">tirlike</p>
          <p style=""font-size: 16px;"">J = YES &nbsp;&nbsp;&nbsp; F = NO</p>
        ","f","html-keyboard-response","225","2.1.0","272143","J=YES, F=NO","mxdoyrbeh9","2","79","83","75","","","","","","","","","tirlike","pig","pseudoword","pseudoword","f","true","",""
"null","<p style=""font-size: 50px;"">+</p>","null","html-keyboard-response","226","2.1.0","272451","J=YES, F=NO","mxdoyrbeh9","2","79","83","75","","","","","","","","","","","","","","","",""
"null","audio/beep-329314.mp3","null","audio-keyboard-response","227","2.1.0","273986","J=YES, F=NO","mxdoyrbeh9","2","79","83","75","","","","","","","","","","","","","","","",""
"null","audio/pride1.wav","null","audio-keyboard-response","228","2.1.0","274562","J=YES, F=NO","mxdoyrbeh9","2","79","83","75","","","","","","","","","","","","","","","",""
"634","
          <p id=""word"" style=""font-size: 40px;"">hurt</p>
          <p style=""font-size: 16px;"">J = YES &nbsp;&nbsp;&nbsp; F = NO</p>
        ","j","html-keyboard-response","229","2.1.0","275197","J=YES, F=NO","mxdoyrbeh9","2","79","83","75","","","","","","","","","hurt","pride1","metaphor","experimental","j","true","",""
"1752","<p>Excellent! You have finished block 1 of 8.</p>
                     <p>Feel free to take a 30 second break.</p>
                     <p>Press any key when you're ready to continue.</p>"," ","html-keyboard-response","230","2.1.0","276950","J=YES, F=NO","mxdoyrbeh9","2","79","83","75","","","","","","","","","","","","","","","",""
"768","<p>Starting main block 2 of 8. Press any key to continue.</p>"," ","html-keyboard-response","231","2.1.0","277718","J=YES, F=NO","mxdoyrbeh9","2","79","83","75","","","","","","","","","","","","","","","",""
"null","<p style=""font-size: 50px;"">+</p>","null","html-keyboard-response","232","2.1.0","278031","J=YES, F=NO","mxdoyrbeh9","2","79","83","75","","","","","","","","","","","","","","","",""
"null","audio/beep-329314.mp3","null","audio-keyboard-response","233","2.1.0","279564","J=YES, F=NO","mxdoyrbeh9","2","79","83","75","","","","","","","","","","","","","","","",""
"null","audio/train.wav","null","audio-keyboard-response","234","2.1.0","280104","J=YES, F=NO","mxdoyrbeh9","2","79","83","75","","","","","","","","","","","","","","","",""
"680","
          <p id=""word"" style=""font-size: 40px;"">catch</p>
          <p style=""font-size: 16px;"">J = YES &nbsp;&nbsp;&nbsp; F = NO</p>
        ","j","html-keyboard-response","235","2.1.0","280786","J=YES, F=NO","mxdoyrbeh9","2","79","83","75","","","","","","","","","catch","train","metaphor","experimental","j","true","",""
"null","<p style=""font-size: 50px;"">+</p>","null","html-keyboard-response","236","2.1.0","281103","J=YES, F=NO","mxdoyrbeh9","2","79","83","75","","","","","","","","","","","","","","","",""
"null","audio/beep-329314.mp3","null","audio-keyboard-response","237","2.1.0","282644","J=YES, F=NO","mxdoyrbeh9","2","79","83","75","","","","","","","","","","","","","","","",""
"null","audio/stain.wav","null","audio-keyboard-response","238","2.1.0","283324","J=YES, F=NO","mxdoyrbeh9","2","79","83","75","","","","","","","","","","","","","","","",""
"561","
          <p id=""word"" style=""font-size: 40px;"">wipe</p>
          <p style=""font-size: 16px;"">J = YES &nbsp;&nbsp;&nbsp; F = NO</p>
        ","j","html-keyboard-response","239","2.1.0","283887","J=YES, F=NO","mxdoyrbeh9","2","79","83","75","","","","","","","","","wipe","stain","literal","experimental","j","true","",""
"null","<p style=""font-size: 50px;"">+</p>","null","html-keyboard-response","240","2.1.0","284196","J=YES, F=NO","mxdoyrbeh9","2","79","83","75","","","","","","","","","","","","","","","",""
"null","audio/beep-329314.mp3","null","audio-keyboard-response","241","2.1.0","285724","J=YES, F=NO","mxdoyrbeh9","2","79","83","75","","","","","","","","","","","","","","","",""
"null","audio/age1.wav","null","audio-keyboard-response","242","2.1.0","286323","J=YES, F=NO","mxdoyrbeh9","2","79","83","75","","","","","","","","","","","","","","","",""
"683","
          <p id=""word"" style=""font-size: 40px;"">bake</p>
          <p style=""font-size: 16px;"">J = YES &nbsp;&nbsp;&nbsp; F = NO</p>
        ","j","html-keyboard-response","243","2.1.0","287007","J=YES, F=NO","mxdoyrbeh9","2","79","83","75","","","","","","","","","bake","age1","filler","filler","j","true","",""
"null","<p style=""font-size: 50px;"">+</p>","null","html-keyboard-response","244","2.1.0","287325","J=YES, F=NO","mxdoyrbeh9","2","79","83","75","","","","","","","","","","","","","","","",""
"null","audio/beep-329314.mp3","null","audio-keyboard-response","245","2.1.0","288864","J=YES, F=NO","mxdoyrbeh9","2","79","83","75","","","","","","","","","","","","","","","",""
"null","audio/sand.wav","null","audio-keyboard-response","246","2.1.0","289564","J=YES, F=NO","mxdoyrbeh9","2","79","83","75","","","","","","","","","","","","","","","",""
"1089","
          <p id=""word"" style=""font-size: 40px;"">proted</p>
          <p style=""font-size: 16px;"">J = YES &nbsp;&nbsp;&nbsp; F = NO</p>
        ","f","html-keyboard-response","247","2.1.0","290655","J=YES, F=NO","mxdoyrbeh9","2","79","83","75","","","","","","","","","proted","sand","pseudoword","pseudoword","f","true","",""
"null","<p style=""font-size: 50px;"">+</p>","null","html-keyboard-response","248","2.1.0","290974","J=YES, F=NO","mxdoyrbeh9","2","79","83","75","","","","","","","","","","","","","","","",""
"null","audio/beep-329314.mp3","null","audio-keyboard-response","249","2.1.0","292504","J=YES, F=NO","mxdoyrbeh9","2","79","83","75","","","","","","","","","","","","","","","",""
"null","audio/butter1.wav","null","audio-keyboard-response","250","2.1.0","292944","J=YES, F=NO","mxdoyrbeh9","2","79","83","75","","","","","","","","","","","","","","","",""
"645","
          <p id=""word"" style=""font-size: 40px;"">spread</p>
          <p style=""font-size: 16px;"">J = YES &nbsp;&nbsp;&nbsp; F = NO</p>
        ","j","html-keyboard-response","251","2.1.0","293592","J=YES, F=NO","mxdoyrbeh9","2","79","83","75","","","","","","","","","spread","butter1","literal","experimental","j","true","",""
"null","<p style=""font-size: 50px;"">+</p>","null","html-keyboard-response","252","2.1.0","293909","J=YES, F=NO","mxdoyrbeh9","2","79","83","75","","","","","","","","","","","","","","","",""
"null","audio/beep-329314.mp3","null","audio-keyboard-response","253","2.1.0","295445","J=YES, F=NO","mxdoyrbeh9","2","79","83","75","","","","","","","","","","","","","","","",""
"null","audio/heart1.wav","null","audio-keyboard-response","254","2.1.0","296064","J=YES, F=NO","mxdoyrbeh9","2","79","83","75","","","","","","","","","","","","","","","",""
"794","
          <p id=""word"" style=""font-size: 40px;"">dralm</p>
          <p style=""font-size: 16px;"">J = YES &nbsp;&nbsp;&nbsp; F = NO</p>
        ","f","html-keyboard-response","255","2.1.0","296861","J=YES, F=NO","mxdoyrbeh9","2","79","83","75","","","","","","","","","dralm","heart1","pseudoword","pseudoword","f","true","",""
"null","<p style=""font-size: 50px;"">+</p>","null","html-keyboard-response","256","2.1.0","297166","J=YES, F=NO","mxdoyrbeh9","2","79","83","75","","","","","","","","","","","","","","","",""
"null","audio/beep-329314.mp3","null","audio-keyboard-response","257","2.1.0","298704","J=YES, F=NO","mxdoyrbeh9","2","79","83","75","","","","","","","","","","","","","","","",""
"null","audio/ankle1.wav","null","audio-keyboard-response","258","2.1.0","299224","J=YES, F=NO","mxdoyrbeh9","2","79","83","75","","","","","","","","","","","","","","","",""
"750","
          <p id=""word"" style=""font-size: 40px;"">switm</p>
          <p style=""font-size: 16px;"">J = YES &nbsp;&nbsp;&nbsp; F = NO</p>
        ","f","html-keyboard-response","259","2.1.0","299978","J=YES, F=NO","mxdoyrbeh9","2","79","83","75","","","","","","","","","switm","ankle1","pseudoword","pseudoword","f","true","",""
"null","<p style=""font-size: 50px;"">+</p>","null","html-keyboard-response","260","2.1.0","300280","J=YES, F=NO","mxdoyrbeh9","2","79","83","75","","","","","","","","","","","","","","","",""
"null","audio/beep-329314.mp3","null","audio-keyboard-response","261","2.1.0","301824","J=YES, F=NO","mxdoyrbeh9","2","79","83","75","","","","","","","","","","","","","","","",""
"null","audio/voice.wav","null","audio-keyboard-response","262","2.1.0","302484","J=YES, F=NO","mxdoyrbeh9","2","79","83","75","","","","","","","","","","","","","","","",""
"740","
          <p id=""word"" style=""font-size: 40px;"">grintle</p>
          <p style=""font-size: 16px;"">J = YES &nbsp;&nbsp;&nbsp; F = NO</p>
        ","f","html-keyboard-response","263","2.1.0","303226","J=YES, F=NO","mxdoyrbeh9","2","79","83","75","","","","","","","","","grintle","voice","pseudoword","pseudoword","f","true","",""
"null","<p style=""font-size: 50px;"">+</p>","null","html-keyboard-response","264","2.1.0","303545","J=YES, F=NO","mxdoyrbeh9","2","79","83","75","","","","","","","","","","","","","","","",""
"null","audio/beep-329314.mp3","null","audio-keyboard-response","265","2.1.0","305084","J=YES, F=NO","mxdoyrbeh9","2","79","83","75","","","","","","","","","","","","","","","",""
"null","audio/roof1.wav","null","audio-keyboard-response","266","2.1.0","305644","J=YES, F=NO","mxdoyrbeh9","2","79","83","75","","","","","","","","","","","","","","","",""
"909","
          <p id=""word"" style=""font-size: 40px;"">wronb</p>
          <p style=""font-size: 16px;"">J = YES &nbsp;&nbsp;&nbsp; F = NO</p>
        ","f","html-keyboard-response","267","2.1.0","306556","J=YES, F=NO","mxdoyrbeh9","2","79","83","75","","","","","","","","","wronb","roof1","pseudoword","pseudoword","f","true","",""
"null","<p style=""font-size: 50px;"">+</p>","null","html-keyboard-response","268","2.1.0","306874","J=YES, F=NO","mxdoyrbeh9","2","79","83","75","","","","","","","","","","","","","","","",""
"null","audio/beep-329314.mp3","null","audio-keyboard-response","269","2.1.0","308404","J=YES, F=NO","mxdoyrbeh9","2","79","83","75","","","","","","","","","","","","","","","",""
"null","audio/age1.wav","null","audio-keyboard-response","270","2.1.0","308944","J=YES, F=NO","mxdoyrbeh9","2","79","83","75","","","","","","","","","","","","","","","",""
"762","
          <p id=""word"" style=""font-size: 40px;"">seize</p>
          <p style=""font-size: 16px;"">J = YES &nbsp;&nbsp;&nbsp; F = NO</p>
        ","f","html-keyboard-response","271","2.1.0","309710","J=YES, F=NO","mxdoyrbeh9","2","79","83","75","","","","","","","","","seize","age1","unrelated","experimental","j","false","",""
"null","<p style=""font-size: 50px;"">+</p>","null","html-keyboard-response","272","2.1.0","310013","J=YES, F=NO","mxdoyrbeh9","2","79","83","75","","","","","","","","","","","","","","","",""
"null","audio/beep-329314.mp3","null","audio-keyboard-response","273","2.1.0","311542","J=YES, F=NO","mxdoyrbeh9","2","79","83","75","","","","","","","","","","","","","","","",""
"null","audio/emotion.wav","null","audio-keyboard-response","274","2.1.0","312242","J=YES, F=NO","mxdoyrbeh9","2","79","83","75","","","","","","","","","","","","","","","",""
"1261","
          <p id=""word"" style=""font-size: 40px;"">devering</p>
          <p style=""font-size: 16px;"">J = YES &nbsp;&nbsp;&nbsp; F = NO</p>
        ","f","html-keyboard-response","275","2.1.0","313504","J=YES, F=NO","mxdoyrbeh9","2","79","83","75","","","","","","","","","devering","emotion","pseudoword","pseudoword","f","true","",""
"null","<p style=""font-size: 50px;"">+</p>","null","html-keyboard-response","276","2.1.0","313817","J=YES, F=NO","mxdoyrbeh9","2","79","83","75","","","","","","","","","","","","","","","",""
"null","audio/beep-329314.mp3","null","audio-keyboard-response","277","2.1.0","315345","J=YES, F=NO","mxdoyrbeh9","2","79","83","75","","","","","","","","","","","","","","","",""
"null","audio/mile1.wav","null","audio-keyboard-response","278","2.1.0","315863","J=YES, F=NO","mxdoyrbeh9","2","79","83","75","","","","","","","","","","","","","","","",""
"953","
          <p id=""word"" style=""font-size: 40px;"">writch</p>
          <p style=""font-size: 16px;"">J = YES &nbsp;&nbsp;&nbsp; F = NO</p>
        ","f","html-keyboard-response","279","2.1.0","316817","J=YES, F=NO","mxdoyrbeh9","2","79","83","75","","","","","","","","","writch","mile1","pseudoword","pseudoword","f","true","",""
"null","<p style=""font-size: 50px;"">+</p>","null","html-keyboard-response","280","2.1.0","317133","J=YES, F=NO","mxdoyrbeh9","2","79","83","75","","","","","","","","","","","","","","","",""
"null","audio/beep-329314.mp3","null","audio-keyboard-response","281","2.1.0","318663","J=YES, F=NO","mxdoyrbeh9","2","79","83","75","","","","","","","","","","","","","","","",""
"null","audio/weight1.wav","null","audio-keyboard-response","282","2.1.0","319224","J=YES, F=NO","mxdoyrbeh9","2","79","83","75","","","","","","","","","","","","","","","",""
"856","
          <p id=""word"" style=""font-size: 40px;"">crimsh</p>
          <p style=""font-size: 16px;"">J = YES &nbsp;&nbsp;&nbsp; F = NO</p>
        ","f","html-keyboard-response","283","2.1.0","320083","J=YES, F=NO","mxdoyrbeh9","2","79","83","75","","","","","","","","","crimsh","weight1","pseudoword","pseudoword","f","true","",""
"null","<p style=""font-size: 50px;"">+</p>","null","html-keyboard-response","284","2.1.0","320397","J=YES, F=NO","mxdoyrbeh9","2","79","83","75","","","","","","","","","","","","","","","",""
"null","audio/beep-329314.mp3","null","audio-keyboard-response","285","2.1.0","321924","J=YES, F=NO","mxdoyrbeh9","2","79","83","75","","","","","","","","","","","","","","","",""
"null","audio/desire.wav","null","audio-keyboard-response","286","2.1.0","322544","J=YES, F=NO","mxdoyrbeh9","2","79","83","75","","","","","","","","","","","","","","","",""
"1102","
          <p id=""word"" style=""font-size: 40px;"">open</p>
          <p style=""font-size: 16px;"">J = YES &nbsp;&nbsp;&nbsp; F = NO</p>
        ","j","html-keyboard-response","287","2.1.0","323649","J=YES, F=NO","mxdoyrbeh9","2","79","83","75","","","","","","","","","open","desire","unrelated","experimental","j","true","",""
"null","<p style=""font-size: 50px;"">+</p>","null","html-keyboard-response","288","2.1.0","323963","J=YES, F=NO","mxdoyrbeh9","2","79","83","75","","","","","","","","","","","","","","","",""
"null","audio/beep-329314.mp3","null","audio-keyboard-response","289","2.1.0","325505","J=YES, F=NO","mxdoyrbeh9","2","79","83","75","","","","","","","","","","","","","","","",""
"null","audio/gossip1.wav","null","audio-keyboard-response","290","2.1.0","326184","J=YES, F=NO","mxdoyrbeh9","2","79","83","75","","","","","","","","","","","","","","","",""
"973","
          <p id=""word"" style=""font-size: 40px;"">camerish</p>
          <p style=""font-size: 16px;"">J = YES &nbsp;&nbsp;&nbsp; F = NO</p>
        ","f","html-keyboard-response","291","2.1.0","327160","J=YES, F=NO","mxdoyrbeh9","2","79","83","75","","","","","","","","","camerish","gossip1","pseudoword","pseudoword","f","true","",""
"null","<p style=""font-size: 50px;"">+</p>","null","html-keyboard-response","292","2.1.0","327474","J=YES, F=NO","mxdoyrbeh9","2","79","83","75","","","","","","","","","","","","","","","",""
"null","audio/beep-329314.mp3","null","audio-keyboard-response","293","2.1.0","329005","J=YES, F=NO","mxdoyrbeh9","2","79","83","75","","","","","","","","","","","","","","","",""
"null","audio/road.wav","null","audio-keyboard-response","294","2.1.0","329483","J=YES, F=NO","mxdoyrbeh9","2","79","83","75","","","","","","","","","","","","","","","",""
"934","
          <p id=""word"" style=""font-size: 40px;"">wappings</p>
          <p style=""font-size: 16px;"">J = YES &nbsp;&nbsp;&nbsp; F = NO</p>
        ","f","html-keyboard-response","295","2.1.0","330420","J=YES, F=NO","mxdoyrbeh9","2","79","83","75","","","","","","","","","wappings","road","pseudoword","pseudoword","f","true","",""
"2213","<p>Excellent! You have finished block 2 of 8.</p>
                     <p>Feel free to take a 30 second break.</p>
                     <p>Press any key when you're ready to continue.</p>"," ","html-keyboard-response","296","2.1.0","332635","J=YES, F=NO","mxdoyrbeh9","2","79","83","75","","","","","","","","","","","","","","","",""
"602","<p>Starting main block 3 of 8. Press any key to continue.</p>"," ","html-keyboard-response","297","2.1.0","333239","J=YES, F=NO","mxdoyrbeh9","2","79","83","75","","","","","","","","","","","","","","","",""
"null","<p style=""font-size: 50px;"">+</p>","null","html-keyboard-response","298","2.1.0","333551","J=YES, F=NO","mxdoyrbeh9","2","79","83","75","","","","","","","","","","","","","","","",""
"null","audio/beep-329314.mp3","null","audio-keyboard-response","299","2.1.0","335082","J=YES, F=NO","mxdoyrbeh9","2","79","83","75","","","","","","","","","","","","","","","",""
"null","audio/show.wav","null","audio-keyboard-response","300","2.1.0","335662","J=YES, F=NO","mxdoyrbeh9","2","79","83","75","","","","","","","","","","","","","","","",""
"824","
          <p id=""word"" style=""font-size: 40px;"">hold</p>
          <p style=""font-size: 16px;"">J = YES &nbsp;&nbsp;&nbsp; F = NO</p>
        ","j","html-keyboard-response","301","2.1.0","336487","J=YES, F=NO","mxdoyrbeh9","2","79","83","75","","","","","","","","","hold","show","metaphor","experimental","j","true","",""
"null","<p style=""font-size: 50px;"">+</p>","null","html-keyboard-response","302","2.1.0","336792","J=YES, F=NO","mxdoyrbeh9","2","79","83","75","","","","","","","","","","","","","","","",""
"null","audio/beep-329314.mp3","null","audio-keyboard-response","303","2.1.0","338324","J=YES, F=NO","mxdoyrbeh9","2","79","83","75","","","","","","","","","","","","","","","",""
"null","audio/handle.wav","null","audio-keyboard-response","304","2.1.0","339443","J=YES, F=NO","mxdoyrbeh9","2","79","83","75","","","","","","","","","","","","","","","",""
"629","
          <p id=""word"" style=""font-size: 40px;"">moutes</p>
          <p style=""font-size: 16px;"">J = YES &nbsp;&nbsp;&nbsp; F = NO</p>
        ","f","html-keyboard-response","305","2.1.0","340073","J=YES, F=NO","mxdoyrbeh9","2","79","83","75","","","","","","","","","moutes","handle","pseudoword","pseudoword","f","true","",""
"null","<p style=""font-size: 50px;"">+</p>","null","html-keyboard-response","306","2.1.0","340385","J=YES, F=NO","mxdoyrbeh9","2","79","83","75","","","","","","","","","","","","","","","",""
"null","audio/beep-329314.mp3","null","audio-keyboard-response","307","2.1.0","341933","J=YES, F=NO","mxdoyrbeh9","2","79","83","75","","","","","","","","","","","","","","","",""
"null","audio/relief.wav","null","audio-keyboard-response","308","2.1.0","342663","J=YES, F=NO","mxdoyrbeh9","2","79","83","75","","","","","","","","","","","","","","","",""
"630","
          <p id=""word"" style=""font-size: 40px;"">grigg</p>
          <p style=""font-size: 16px;"">J = YES &nbsp;&nbsp;&nbsp; F = NO</p>
        ","f","html-keyboard-response","309","2.1.0","343295","J=YES, F=NO","mxdoyrbeh9","2","79","83","75","","","","","","","","","grigg","relief","pseudoword","pseudoword","f","true","",""
"null","<p style=""font-size: 50px;"">+</p>","null","html-keyboard-response","310","2.1.0","343603","J=YES, F=NO","mxdoyrbeh9","2","79","83","75","","","","","","","","","","","","","","","",""
"null","audio/beep-329314.mp3","null","audio-keyboard-response","311","2.1.0","345145","J=YES, F=NO","mxdoyrbeh9","2","79","83","75","","","","","","","","","","","","","","","",""
"null","audio/golf1.wav","null","audio-keyboard-response","312","2.1.0","345922","J=YES, F=NO","mxdoyrbeh9","2","79","83","75","","","","","","","","","","","","","","","",""
"null","
          <p id=""word"" style=""font-size: 40px;"">bury</p>
          <p style=""font-size: 16px;"">J = YES &nbsp;&nbsp;&nbsp; F = NO</p>
        ","null","html-keyboard-response","313","2.1.0","347430","J=YES, F=NO","mxdoyrbeh9","2","79","83","75","","","","","","","","","bury","golf1","unrelated","experimental","j","false","",""
"null","<p style=""font-size: 50px;"">+</p>","null","html-keyboard-response","314","2.1.0","347737","J=YES, F=NO","mxdoyrbeh9","2","79","83","75","","","","","","","","","","","","","","","",""
"null","audio/beep-329314.mp3","null","audio-keyboard-response","315","2.1.0","349263","J=YES, F=NO","mxdoyrbeh9","2","79","83","75","","","","","","","","","","","","","","","",""
"null","audio/noise1.wav","null","audio-keyboard-response","316","2.1.0","349904","J=YES, F=NO","mxdoyrbeh9","2","79","83","75","","","","","","","","","","","","","","","",""
"840","
          <p id=""word"" style=""font-size: 40px;"">slintered</p>
          <p style=""font-size: 16px;"">J = YES &nbsp;&nbsp;&nbsp; F = NO</p>
        ","f","html-keyboard-response","317","2.1.0","350747","J=YES, F=NO","mxdoyrbeh9","2","79","83","75","","","","","","","","","slintered","noise1","pseudoword","pseudoword","f","true","",""
"null","<p style=""font-size: 50px;"">+</p>","null","html-keyboard-response","318","2.1.0","351063","J=YES, F=NO","mxdoyrbeh9","2","79","83","75","","","","","","","","","","","","","","","",""
"null","audio/beep-329314.mp3","null","audio-keyboard-response","319","2.1.0","352602","J=YES, F=NO","mxdoyrbeh9","2","79","83","75","","","","","","","","","","","","","","","",""
"null","audio/battle1.wav","null","audio-keyboard-response","320","2.1.0","353104","J=YES, F=NO","mxdoyrbeh9","2","79","83","75","","","","","","","","","","","","","","","",""
"639","
          <p id=""word"" style=""font-size: 40px;"">boil</p>
          <p style=""font-size: 16px;"">J = YES &nbsp;&nbsp;&nbsp; F = NO</p>
        ","j","html-keyboard-response","321","2.1.0","353746","J=YES, F=NO","mxdoyrbeh9","2","79","83","75","","","","","","","","","boil","battle1","filler","filler","j","true","",""
"null","<p style=""font-size: 50px;"">+</p>","null","html-keyboard-response","322","2.1.0","354064","J=YES, F=NO","mxdoyrbeh9","2","79","83","75","","","","","","","","","","","","","","","",""
"null","audio/beep-329314.mp3","null","audio-keyboard-response","323","2.1.0","355604","J=YES, F=NO","mxdoyrbeh9","2","79","83","75","","","","","","","","","","","","","","","",""
"null","audio/show.wav","null","audio-keyboard-response","324","2.1.0","356142","J=YES, F=NO","mxdoyrbeh9","2","79","83","75","","","","","","","","","","","","","","","",""
"782","
          <p id=""word"" style=""font-size: 40px;"">smark</p>
          <p style=""font-size: 16px;"">J = YES &nbsp;&nbsp;&nbsp; F = NO</p>
        ","j","html-keyboard-response","325","2.1.0","356926","J=YES, F=NO","mxdoyrbeh9","2","79","83","75","","","","","","","","","smark","show","pseudoword","pseudoword","f","false","",""
"null","<p style=""font-size: 50px;"">+</p>","null","html-keyboard-response","326","2.1.0","357243","J=YES, F=NO","mxdoyrbeh9","2","79","83","75","","","","","","","","","","","","","","","",""
"null","audio/beep-329314.mp3","null","audio-keyboard-response","327","2.1.0","358784","J=YES, F=NO","mxdoyrbeh9","2","79","83","75","","","","","","","","","","","","","","","",""
"null","audio/haste1.wav","null","audio-keyboard-response","328","2.1.0","359383","J=YES, F=NO","mxdoyrbeh9","2","79","83","75","","","","","","","","","","","","","","","",""
"710","
          <p id=""word"" style=""font-size: 40px;"">coraconate</p>
          <p style=""font-size: 16px;"">J = YES &nbsp;&nbsp;&nbsp; F = NO</p>
        ","f","html-keyboard-response","329","2.1.0","360096","J=YES, F=NO","mxdoyrbeh9","2","79","83","75","","","","","","","","","coraconate","haste1","pseudoword","pseudoword","f","true","",""
"null","<p style=""font-size: 50px;"">+</p>","null","html-keyboard-response","330","2.1.0","360408","J=YES, F=NO","mxdoyrbeh9","2","79","83","75","","","","","","","","","","","","","","","",""
"null","audio/beep-329314.mp3","null","audio-keyboard-response","331","2.1.0","361944","J=YES, F=NO","mxdoyrbeh9","2","79","83","75","","","","","","","","","","","","","","","",""
"null","audio/foot1.wav","null","audio-keyboard-response","332","2.1.0","362544","J=YES, F=NO","mxdoyrbeh9","2","79","83","75","","","","","","","","","","","","","","","",""
"847","
          <p id=""word"" style=""font-size: 40px;"">thrutt</p>
          <p style=""font-size: 16px;"">J = YES &nbsp;&nbsp;&nbsp; F = NO</p>
        ","f","html-keyboard-response","333","2.1.0","363393","J=YES, F=NO","mxdoyrbeh9","2","79","83","75","","","","","","","","","thrutt","foot1","pseudoword","pseudoword","f","true","",""
"null","<p style=""font-size: 50px;"">+</p>","null","html-keyboard-response","334","2.1.0","363706","J=YES, F=NO","mxdoyrbeh9","2","79","83","75","","","","","","","","","","","","","","","",""
"null","audio/beep-329314.mp3","null","audio-keyboard-response","335","2.1.0","365244","J=YES, F=NO","mxdoyrbeh9","2","79","83","75","","","","","","","","","","","","","","","",""
"null","audio/scar.wav","null","audio-keyboard-response","336","2.1.0","365882","J=YES, F=NO","mxdoyrbeh9","2","79","83","75","","","","","","","","","","","","","","","",""
"736","
          <p id=""word"" style=""font-size: 40px;"">hide</p>
          <p style=""font-size: 16px;"">J = YES &nbsp;&nbsp;&nbsp; F = NO</p>
        ","j","html-keyboard-response","337","2.1.0","366619","J=YES, F=NO","mxdoyrbeh9","2","79","83","75","","","","","","","","","hide","scar","literal","experimental","j","true","",""
"null","<p style=""font-size: 50px;"">+</p>","null","html-keyboard-response","338","2.1.0","366936","J=YES, F=NO","mxdoyrbeh9","2","79","83","75","","","","","","","","","","","","","","","",""
"null","audio/beep-329314.mp3","null","audio-keyboard-response","339","2.1.0","368464","J=YES, F=NO","mxdoyrbeh9","2","79","83","75","","","","","","","","","","","","","","","",""
"null","audio/cancer1.wav","null","audio-keyboard-response","340","2.1.0","369002","J=YES, F=NO","mxdoyrbeh9","2","79","83","75","","","","","","","","","","","","","","","",""
"636","
          <p id=""word"" style=""font-size: 40px;"">fight</p>
          <p style=""font-size: 16px;"">J = YES &nbsp;&nbsp;&nbsp; F = NO</p>
        ","j","html-keyboard-response","341","2.1.0","369639","J=YES, F=NO","mxdoyrbeh9","2","79","83","75","","","","","","","","","fight","cancer1","metaphor","experimental","j","true","",""
"null","<p style=""font-size: 50px;"">+</p>","null","html-keyboard-response","342","2.1.0","369945","J=YES, F=NO","mxdoyrbeh9","2","79","83","75","","","","","","","","","","","","","","","",""
"null","audio/beep-329314.mp3","null","audio-keyboard-response","343","2.1.0","371484","J=YES, F=NO","mxdoyrbeh9","2","79","83","75","","","","","","","","","","","","","","","",""
"null","audio/dome.wav","null","audio-keyboard-response","344","2.1.0","371962","J=YES, F=NO","mxdoyrbeh9","2","79","83","75","","","","","","","","","","","","","","","",""
"646","
          <p id=""word"" style=""font-size: 40px;"">scrupliness</p>
          <p style=""font-size: 16px;"">J = YES &nbsp;&nbsp;&nbsp; F = NO</p>
        ","f","html-keyboard-response","345","2.1.0","372609","J=YES, F=NO","mxdoyrbeh9","2","79","83","75","","","","","","","","","scrupliness","dome","pseudoword","pseudoword","f","true","",""
"null","<p style=""font-size: 50px;"">+</p>","null","html-keyboard-response","346","2.1.0","372917","J=YES, F=NO","mxdoyrbeh9","2","79","83","75","","","","","","","","","","","","","","","",""
"null","audio/beep-329314.mp3","null","audio-keyboard-response","347","2.1.0","374445","J=YES, F=NO","mxdoyrbeh9","2","79","83","75","","","","","","","","","","","","","","","",""
"null","audio/enemy1.wav","null","audio-keyboard-response","348","2.1.0","374963","J=YES, F=NO","mxdoyrbeh9","2","79","83","75","","","","","","","","","","","","","","","",""
"546","
          <p id=""word"" style=""font-size: 40px;"">defeat</p>
          <p style=""font-size: 16px;"">J = YES &nbsp;&nbsp;&nbsp; F = NO</p>
        ","j","html-keyboard-response","349","2.1.0","375511","J=YES, F=NO","mxdoyrbeh9","2","79","83","75","","","","","","","","","defeat","enemy1","literal","experimental","j","true","",""
"null","<p style=""font-size: 50px;"">+</p>","null","html-keyboard-response","350","2.1.0","375826","J=YES, F=NO","mxdoyrbeh9","2","79","83","75","","","","","","","","","","","","","","","",""
"null","audio/beep-329314.mp3","null","audio-keyboard-response","351","2.1.0","377364","J=YES, F=NO","mxdoyrbeh9","2","79","83","75","","","","","","","","","","","","","","","",""
"null","audio/key1.wav","null","audio-keyboard-response","352","2.1.0","377764","J=YES, F=NO","mxdoyrbeh9","2","79","83","75","","","","","","","","","","","","","","","",""
"573","
          <p id=""word"" style=""font-size: 40px;"">lose</p>
          <p style=""font-size: 16px;"">J = YES &nbsp;&nbsp;&nbsp; F = NO</p>
        ","j","html-keyboard-response","353","2.1.0","378340","J=YES, F=NO","mxdoyrbeh9","2","79","83","75","","","","","","","","","lose","key1","literal","experimental","j","true","",""
"null","<p style=""font-size: 50px;"">+</p>","null","html-keyboard-response","354","2.1.0","378655","J=YES, F=NO","mxdoyrbeh9","2","79","83","75","","","","","","","","","","","","","","","",""
"null","audio/beep-329314.mp3","null","audio-keyboard-response","355","2.1.0","380184","J=YES, F=NO","mxdoyrbeh9","2","79","83","75","","","","","","","","","","","","","","","",""
"null","audio/hotel1.wav","null","audio-keyboard-response","356","2.1.0","380862","J=YES, F=NO","mxdoyrbeh9","2","79","83","75","","","","","","","","","","","","","","","",""
"null","
          <p id=""word"" style=""font-size: 40px;"">flanter</p>
          <p style=""font-size: 16px;"">J = YES &nbsp;&nbsp;&nbsp; F = NO</p>
        ","null","html-keyboard-response","357","2.1.0","382377","J=YES, F=NO","mxdoyrbeh9","2","79","83","75","","","","","","","","","flanter","hotel1","pseudoword","pseudoword","f","false","",""
"null","<p style=""font-size: 50px;"">+</p>","null","html-keyboard-response","358","2.1.0","382683","J=YES, F=NO","mxdoyrbeh9","2","79","83","75","","","","","","","","","","","","","","","",""
"null","audio/beep-329314.mp3","null","audio-keyboard-response","359","2.1.0","384225","J=YES, F=NO","mxdoyrbeh9","2","79","83","75","","","","","","","","","","","","","","","",""
"null","audio/terrain.wav","null","audio-keyboard-response","360","2.1.0","384864","J=YES, F=NO","mxdoyrbeh9","2","79","83","75","","","","","","","","","","","","","","","",""
"988","
          <p id=""word"" style=""font-size: 40px;"">twist</p>
          <p style=""font-size: 16px;"">J = YES &nbsp;&nbsp;&nbsp; F = NO</p>
        ","j","html-keyboard-response","361","2.1.0","385855","J=YES, F=NO","mxdoyrbeh9","2","79","83","75","","","","","","","","","twist","terrain","filler","filler","j","true","",""
"1194","<p>Excellent! You have finished block 3 of 8.</p>
                     <p>Feel free to take a 30 second break.</p>
                     <p>Press any key when you're ready to continue.</p>"," ","html-keyboard-response","362","2.1.0","387051","J=YES, F=NO","mxdoyrbeh9","2","79","83","75","","","","","","","","","","","","","","","",""
"491","<p>Starting main block 4 of 8. Press any key to continue.</p>"," ","html-keyboard-response","363","2.1.0","387543","J=YES, F=NO","mxdoyrbeh9","2","79","83","75","","","","","","","","","","","","","","","",""
"null","<p style=""font-size: 50px;"">+</p>","null","html-keyboard-response","364","2.1.0","387857","J=YES, F=NO","mxdoyrbeh9","2","79","83","75","","","","","","","","","","","","","","","",""
"null","audio/beep-329314.mp3","null","audio-keyboard-response","365","2.1.0","389386","J=YES, F=NO","mxdoyrbeh9","2","79","83","75","","","","","","","","","","","","","","","",""
"null","audio/trust.wav","null","audio-keyboard-response","366","2.1.0","390043","J=YES, F=NO","mxdoyrbeh9","2","79","83","75","","","","","","","","","","","","","","","",""
"1149","
          <p id=""word"" style=""font-size: 40px;"">swint</p>
          <p style=""font-size: 16px;"">J = YES &nbsp;&nbsp;&nbsp; F = NO</p>
        ","j","html-keyboard-response","367","2.1.0","391195","J=YES, F=NO","mxdoyrbeh9","2","79","83","75","","","","","","","","","swint","trust","pseudoword","pseudoword","f","false","",""
"null","<p style=""font-size: 50px;"">+</p>","null","html-keyboard-response","368","2.1.0","391511","J=YES, F=NO","mxdoyrbeh9","2","79","83","75","","","","","","","","","","","","","","","",""
"null","audio/beep-329314.mp3","null","audio-keyboard-response","369","2.1.0","393043","J=YES, F=NO","mxdoyrbeh9","2","79","83","75","","","","","","","","","","","","","","","",""
"null","audio/bush1.wav","null","audio-keyboard-response","370","2.1.0","393544","J=YES, F=NO","mxdoyrbeh9","2","79","83","75","","","","","","","","","","","","","","","",""
"897","
          <p id=""word"" style=""font-size: 40px;"">platined</p>
          <p style=""font-size: 16px;"">J = YES &nbsp;&nbsp;&nbsp; F = NO</p>
        ","j","html-keyboard-response","371","2.1.0","394443","J=YES, F=NO","mxdoyrbeh9","2","79","83","75","","","","","","","","","platined","bush1","pseudoword","pseudoword","f","false","",""
"null","<p style=""font-size: 50px;"">+</p>","null","html-keyboard-response","372","2.1.0","394756","J=YES, F=NO","mxdoyrbeh9","2","79","83","75","","","","","","","","","","","","","","","",""
"null","audio/beep-329314.mp3","null","audio-keyboard-response","373","2.1.0","396283","J=YES, F=NO","mxdoyrbeh9","2","79","83","75","","","","","","","","","","","","","","","",""
"null","audio/tunnel.wav","null","audio-keyboard-response","374","2.1.0","396725","J=YES, F=NO","mxdoyrbeh9","2","79","83","75","","","","","","","","","","","","","","","",""
"742","
          <p id=""word"" style=""font-size: 40px;"">grasp</p>
          <p style=""font-size: 16px;"">J = YES &nbsp;&nbsp;&nbsp; F = NO</p>
        ","j","html-keyboard-response","375","2.1.0","397469","J=YES, F=NO","mxdoyrbeh9","2","79","83","75","","","","","","","","","grasp","tunnel","unrelated","experimental","j","true","",""
"null","<p style=""font-size: 50px;"">+</p>","null","html-keyboard-response","376","2.1.0","397773","J=YES, F=NO","mxdoyrbeh9","2","79","83","75","","","","","","","","","","","","","","","",""
"null","audio/beep-329314.mp3","null","audio-keyboard-response","377","2.1.0","399304","J=YES, F=NO","mxdoyrbeh9","2","79","83","75","","","","","","","","","","","","","","","",""
"null","audio/pine.wav","null","audio-keyboard-response","378","2.1.0","399824","J=YES, F=NO","mxdoyrbeh9","2","79","83","75","","","","","","","","","","","","","","","",""
"741","
          <p id=""word"" style=""font-size: 40px;"">crebble</p>
          <p style=""font-size: 16px;"">J = YES &nbsp;&nbsp;&nbsp; F = NO</p>
        ","f","html-keyboard-response","379","2.1.0","400568","J=YES, F=NO","mxdoyrbeh9","2","79","83","75","","","","","","","","","crebble","pine","pseudoword","pseudoword","f","true","",""
"null","<p style=""font-size: 50px;"">+</p>","null","html-keyboard-response","380","2.1.0","400878","J=YES, F=NO","mxdoyrbeh9","2","79","83","75","","","","","","","","","","","","","","","",""
"null","audio/beep-329314.mp3","null","audio-keyboard-response","381","2.1.0","402443","J=YES, F=NO","mxdoyrbeh9","2","79","83","75","","","","","","","","","","","","","","","",""
"null","audio/scar.wav","null","audio-keyboard-response","382","2.1.0","403025","J=YES, F=NO","mxdoyrbeh9","2","79","83","75","","","","","","","","","","","","","","","",""
"903","
          <p id=""word"" style=""font-size: 40px;"">adelineate</p>
          <p style=""font-size: 16px;"">J = YES &nbsp;&nbsp;&nbsp; F = NO</p>
        ","f","html-keyboard-response","383","2.1.0","403930","J=YES, F=NO","mxdoyrbeh9","2","79","83","75","","","","","","","","","adelineate","scar","pseudoword","pseudoword","f","true","",""
"null","<p style=""font-size: 50px;"">+</p>","null","html-keyboard-response","384","2.1.0","404248","J=YES, F=NO","mxdoyrbeh9","2","79","83","75","","","","","","","","","","","","","","","",""
"null","audio/beep-329314.mp3","null","audio-keyboard-response","385","2.1.0","405785","J=YES, F=NO","mxdoyrbeh9","2","79","83","75","","","","","","","","","","","","","","","",""
"null","audio/table1.wav","null","audio-keyboard-response","386","2.1.0","406304","J=YES, F=NO","mxdoyrbeh9","2","79","83","75","","","","","","","","","","","","","","","",""
"990","
          <p id=""word"" style=""font-size: 40px;"">stimb</p>
          <p style=""font-size: 16px;"">J = YES &nbsp;&nbsp;&nbsp; F = NO</p>
        ","f","html-keyboard-response","387","2.1.0","407296","J=YES, F=NO","mxdoyrbeh9","2","79","83","75","","","","","","","","","stimb","table1","pseudoword","pseudoword","f","true","",""
"null","<p style=""font-size: 50px;"">+</p>","null","html-keyboard-response","388","2.1.0","407615","J=YES, F=NO","mxdoyrbeh9","2","79","83","75","","","","","","","","","","","","","","","",""
"null","audio/beep-329314.mp3","null","audio-keyboard-response","389","2.1.0","409145","J=YES, F=NO","mxdoyrbeh9","2","79","83","75","","","","","","","","","","","","","","","",""
"null","audio/survey1.wav","null","audio-keyboard-response","390","2.1.0","409944","J=YES, F=NO","mxdoyrbeh9","2","79","83","75","","","","","","","","","","","","","","","",""
"948","
          <p id=""word"" style=""font-size: 40px;"">imploth</p>
          <p style=""font-size: 16px;"">J = YES &nbsp;&nbsp;&nbsp; F = NO</p>
