"rt","stimulus","response","trial_type","trial_index","plugin_version","time_elapsed","response_mapping","subject_id","list_index","lextale_score","lextale_word_score","lextale_nonword_score","success","timeout","failed_images","failed_audio","failed_video","task","isWord","isDummy","target","prime","prime_type","stimulus_type","correct_response","correct","section","question_order"
"7277","
    <div style=""max-width: 800px; margin: auto; text-align: left;"">
      <h2>STANFORD UNIVERSITY</h2>
      <h3>Research Information Sheet</h3>
      <p><strong>Protocol Director:</strong> Robert Hawkins<br>
      <strong>Protocol Title:</strong> Communication and social cognition in natural audiovisual contexts<br>
      <strong>IRB#:</strong> 77226</p>

      <p><strong>DESCRIPTION:</strong> You are invited to participate in a research study about language and communication. The purpose of the research is to understand how you interact and communicate with other people in naturalistic settings as a fluent English speaker. This research will be conducted through the Prolific platform, including participants from the US, UK, and Canada. If you decide to participate in this research, you will play a communication game in a group with one or more partners.</p>

      <p><strong>TIME INVOLVEMENT:</strong> The task will last the amount of time advertised on Prolific. You are free to withdraw from the study at any time.</p>

      <p><strong>RISKS AND BENEFITS:</strong> You may become frustrated if your partner gets distracted, or experience discomfort if other participants in your group send text that is inappropriate for the task. We ask you to please be respectful of other participants you might be interacting with to mitigate these risks. You may also experience discomfort when being asked to discuss or challenge emotionally salient political beliefs. Study data will be stored securely, in compliance with Stanford University standards, minimizing the risk of confidentiality breach. This study advances our scientific understanding of how people communicate and collaborate in naturalistic settings. This study may lead to further insights about what can go wrong in teamwork, suggest potential interventions to overcome these barriers, and help to develop assistive technologies that collaborate with human partners. We cannot and do not guarantee or promise that you will receive any benefits from this study.</p>

      <p><strong>PAYMENTS:</strong> You will receive payment in the amount advertised on Prolific. If you do not complete this study, you will receive prorated payment based on the time that you have spent. Additionally, you may be eligible for bonus payments as described in the instructions.</p>

      <p><strong>PARTICIPANT’S RIGHTS:</strong> If you have read this form and have decided to participate in this project, please understand your participation is voluntary and you have the right to withdraw your consent or discontinue participation at any time without penalty or loss of benefits to which you are otherwise entitled. The alternative is not to participate. You have the right to refuse to answer particular questions. The results of this research study may be presented at scientific or professional meetings or published in scientific journals. Your individual privacy will be maintained in all published and written data resulting from the study. In accordance with scientific norms, the data from this study may be used or shared with other researchers for future research (after removing personally identifying information) without additional consent from you.</p>

      <p><strong>CONTACT INFORMATION:</strong><br>
      Questions: If you have any questions, concerns or complaints about this research, its procedures, risks and benefits, contact the Protocol Director, Robert Hawkins (<a href=""mailto:rdhawkins@stanford.edu"">rdhawkins@stanford.edu</a>, 217-549-6923).<br>
      Independent Contact: If you are not satisfied with how this study is being conducted, or if you have any concerns, complaints, or general questions about the research or your rights as a participant, please contact the Stanford Institutional Review Board (IRB) to speak to someone independent of the research team at 650-723-2480 or toll free at 1-866-680-2906, or email at <a href=""mailto:irbnon-med@stanford.edu"">irbnon-med@stanford.edu</a>. You can also write to the Stanford IRB, Stanford University, 1705 El Camino Real, Palo Alto, CA 94306.</p>

      <p><strong>Please save or print a copy of this page for your records.</strong></p>
      <p>If you agree to participate in this research, click ""Continue"" below.</p>
    </div>
  ","0","html-button-response","0","2.1.0","7283","J=YES, F=NO","namejq4jm2","1","76","73","80","","","","","","","","","","","","","","","",""
"6004","
    <div style=""max-width: 800px; margin: auto; text-align: left;"">
      <h2>Welcome!</h2>
      <p>Thank you for participating in this study. The experiment consists of three parts:</p>
      <ol>
        <li>An English vocabulary test</li>
        <li>A main task in which you will hear and see words, and decide whether the written word is a real English word</li>
        <li>A brief survey about your background</li>
      </ol>
      <p>Each part will be introduced before it begins.</p>
      <p>Please make sure you are in a quiet environment and can hear audio clearly for the final task.</p>
      <p style=""margin-top: 2em;"">Press any key to begin.</p>
    </div>
  ","ArrowRight","html-keyboard-response","1","2.1.0","13289","J=YES, F=NO","namejq4jm2","1","76","73","80","","","","","","","","","","","","","","","",""
"","","","preload","2","2.1.0","13950","J=YES, F=NO","namejq4jm2","1","76","73","80","true","false","[]","[]","[]","","","","","","","","","","",""
"3956","
    <div style=""max-width: 800px; margin: auto; text-align: left;"">
      <h2>Part 1: Vocabulary Test</h2>
      <p>You will now complete the first part of the study: a short English vocabulary test.</p>
      <p>This test is called <strong>LexTALE</strong> and helps us get a general sense of your English proficiency.</p>
      <p style=""margin-top: 2em;"">Press any key to continue.</p>
    </div>
  ","ArrowRight","html-keyboard-response","3","2.1.0","17907","J=YES, F=NO","namejq4jm2","1","76","73","80","","","","","","","","","","","","","","","",""
"6696","
    <div style=""max-width: 800px; margin: auto; text-align: left;"">
      <h2>LexTALE Vocabulary Test</h2>
      <p>In this test, you will see a series of letter strings—one at a time.</p>
      <p>Your task is to decide whether each string is a real English word.</p>
      <p><strong>Key responses:</strong></p>
      <ul>
        <li><strong>J</strong> = YES (real English word)</li>
        <li><strong>F</strong> = NO (not a real English word)</li>
      </ul>
      <p>There is no time limit, but please try to be accurate.</p>
      <p style=""margin-top: 2em;"">Press any key to begin.</p>
    </div>
  ","ArrowRight","html-keyboard-response","4","2.1.0","24603","J=YES, F=NO","namejq4jm2","1","76","73","80","","","","","","","","","","","","","","","",""
"3137","
  <p style=""font-size: 40px;"">platery</p>
  <p style=""font-size: 16px;"">J = YES &nbsp;&nbsp;&nbsp; F = NO</p>
","j","html-keyboard-response","5","2.1.0","27741","J=YES, F=NO","namejq4jm2","1","76","73","80","","","","","","lextale","false","true","","","","","","","",""
"953","
  <p style=""font-size: 40px;"">denial</p>
  <p style=""font-size: 16px;"">J = YES &nbsp;&nbsp;&nbsp; F = NO</p>
","j","html-keyboard-response","6","2.1.0","28695","J=YES, F=NO","namejq4jm2","1","76","73","80","","","","","","lextale","true","true","","","","","","","",""
"839","
  <p style=""font-size: 40px;"">marrit</p>
  <p style=""font-size: 16px;"">J = YES &nbsp;&nbsp;&nbsp; F = NO</p>
","f","html-keyboard-response","7","2.1.0","29535","J=YES, F=NO","namejq4jm2","1","76","73","80","","","","","","lextale","false","true","","","","","","","",""
"19718","
  <p style=""font-size: 40px;"">bottle</p>
  <p style=""font-size: 16px;"">J = YES &nbsp;&nbsp;&nbsp; F = NO</p>
","j","html-keyboard-response","8","2.1.0","49254","J=YES, F=NO","namejq4jm2","1","76","73","80","","","","","","lextale","true","false","","","","","","","",""
"1419","
  <p style=""font-size: 40px;"">birst</p>
  <p style=""font-size: 16px;"">J = YES &nbsp;&nbsp;&nbsp; F = NO</p>
","f","html-keyboard-response","9","2.1.0","50674","J=YES, F=NO","namejq4jm2","1","76","73","80","","","","","","lextale","false","false","","","","","","","",""
"978","
  <p style=""font-size: 40px;"">envy</p>
  <p style=""font-size: 16px;"">J = YES &nbsp;&nbsp;&nbsp; F = NO</p>
","j","html-keyboard-response","10","2.1.0","51653","J=YES, F=NO","namejq4jm2","1","76","73","80","","","","","","lextale","true","false","","","","","","","",""
"838","
  <p style=""font-size: 40px;"">brang</p>
  <p style=""font-size: 16px;"">J = YES &nbsp;&nbsp;&nbsp; F = NO</p>
","f","html-keyboard-response","11","2.1.0","52491","J=YES, F=NO","namejq4jm2","1","76","73","80","","","","","","lextale","false","false","","","","","","","",""
"747","
  <p style=""font-size: 40px;"">huge</p>
  <p style=""font-size: 16px;"">J = YES &nbsp;&nbsp;&nbsp; F = NO</p>
","j","html-keyboard-response","12","2.1.0","53239","J=YES, F=NO","namejq4jm2","1","76","73","80","","","","","","lextale","true","false","","","","","","","",""
"2375","
  <p style=""font-size: 40px;"">plove</p>
  <p style=""font-size: 16px;"">J = YES &nbsp;&nbsp;&nbsp; F = NO</p>
","f","html-keyboard-response","13","2.1.0","55614","J=YES, F=NO","namejq4jm2","1","76","73","80","","","","","","lextale","false","false","","","","","","","",""
"732","
  <p style=""font-size: 40px;"">border</p>
  <p style=""font-size: 16px;"">J = YES &nbsp;&nbsp;&nbsp; F = NO</p>
","j","html-keyboard-response","14","2.1.0","56347","J=YES, F=NO","namejq4jm2","1","76","73","80","","","","","","lextale","true","false","","","","","","","",""
"8573","
  <p style=""font-size: 40px;"">flimsy</p>
  <p style=""font-size: 16px;"">J = YES &nbsp;&nbsp;&nbsp; F = NO</p>
","j","html-keyboard-response","15","2.1.0","64920","J=YES, F=NO","namejq4jm2","1","76","73","80","","","","","","lextale","true","false","","","","","","","",""
"1320","
  <p style=""font-size: 40px;"">drain</p>
  <p style=""font-size: 16px;"">J = YES &nbsp;&nbsp;&nbsp; F = NO</p>
","j","html-keyboard-response","16","2.1.0","66241","J=YES, F=NO","namejq4jm2","1","76","73","80","","","","","","lextale","true","false","","","","","","","",""
"11543","
  <p style=""font-size: 40px;"">twindle</p>
  <p style=""font-size: 16px;"">J = YES &nbsp;&nbsp;&nbsp; F = NO</p>
","j","html-keyboard-response","17","2.1.0","77784","J=YES, F=NO","namejq4jm2","1","76","73","80","","","","","","lextale","false","false","","","","","","","",""
"633","
  <p style=""font-size: 40px;"">propose</p>
  <p style=""font-size: 16px;"">J = YES &nbsp;&nbsp;&nbsp; F = NO</p>
","j","html-keyboard-response","18","2.1.0","78418","J=YES, F=NO","namejq4jm2","1","76","73","80","","","","","","lextale","true","false","","","","","","","",""
"847","
  <p style=""font-size: 40px;"">forlay</p>
  <p style=""font-size: 16px;"">J = YES &nbsp;&nbsp;&nbsp; F = NO</p>
","f","html-keyboard-response","19","2.1.0","79265","J=YES, F=NO","namejq4jm2","1","76","73","80","","","","","","lextale","false","false","","","","","","","",""
"839","
  <p style=""font-size: 40px;"">tenant</p>
  <p style=""font-size: 16px;"">J = YES &nbsp;&nbsp;&nbsp; F = NO</p>
","j","html-keyboard-response","20","2.1.0","80105","J=YES, F=NO","namejq4jm2","1","76","73","80","","","","","","lextale","true","false","","","","","","","",""
"686","
  <p style=""font-size: 40px;"">strain</p>
  <p style=""font-size: 16px;"">J = YES &nbsp;&nbsp;&nbsp; F = NO</p>
","j","html-keyboard-response","21","2.1.0","80792","J=YES, F=NO","namejq4jm2","1","76","73","80","","","","","","lextale","true","false","","","","","","","",""
"12070","
  <p style=""font-size: 40px;"">holster</p>
  <p style=""font-size: 16px;"">J = YES &nbsp;&nbsp;&nbsp; F = NO</p>
","f","html-keyboard-response","22","2.1.0","92863","J=YES, F=NO","namejq4jm2","1","76","73","80","","","","","","lextale","true","false","","","","","","","",""
"983","
  <p style=""font-size: 40px;"">hinder</p>
  <p style=""font-size: 16px;"">J = YES &nbsp;&nbsp;&nbsp; F = NO</p>
","f","html-keyboard-response","23","2.1.0","93846","J=YES, F=NO","namejq4jm2","1","76","73","80","","","","","","lextale","true","false","","","","","","","",""
"13864","
  <p style=""font-size: 40px;"">swindle</p>
  <p style=""font-size: 16px;"">J = YES &nbsp;&nbsp;&nbsp; F = NO</p>
","j","html-keyboard-response","24","2.1.0","107711","J=YES, F=NO","namejq4jm2","1","76","73","80","","","","","","lextale","true","false","","","","","","","",""
"899","
  <p style=""font-size: 40px;"">nuder</p>
  <p style=""font-size: 16px;"">J = YES &nbsp;&nbsp;&nbsp; F = NO</p>
","f","html-keyboard-response","25","2.1.0","108611","J=YES, F=NO","namejq4jm2","1","76","73","80","","","","","","lextale","false","false","","","","","","","",""
"556","
  <p style=""font-size: 40px;"">pillow</p>
  <p style=""font-size: 16px;"">J = YES &nbsp;&nbsp;&nbsp; F = NO</p>
","j","html-keyboard-response","26","2.1.0","109168","J=YES, F=NO","namejq4jm2","1","76","73","80","","","","","","lextale","true","false","","","","","","","",""
"21246","
  <p style=""font-size: 40px;"">shumble</p>
  <p style=""font-size: 16px;"">J = YES &nbsp;&nbsp;&nbsp; F = NO</p>
","f","html-keyboard-response","27","2.1.0","130415","J=YES, F=NO","namejq4jm2","1","76","73","80","","","","","","lextale","false","false","","","","","","","",""
"869","
  <p style=""font-size: 40px;"">thirst</p>
  <p style=""font-size: 16px;"">J = YES &nbsp;&nbsp;&nbsp; F = NO</p>
","j","html-keyboard-response","28","2.1.0","131284","J=YES, F=NO","namejq4jm2","1","76","73","80","","","","","","lextale","true","false","","","","","","","",""
"1488","
  <p style=""font-size: 40px;"">unsail</p>
  <p style=""font-size: 16px;"">J = YES &nbsp;&nbsp;&nbsp; F = NO</p>
","j","html-keyboard-response","29","2.1.0","132773","J=YES, F=NO","namejq4jm2","1","76","73","80","","","","","","lextale","false","false","","","","","","","",""
"1251","
  <p style=""font-size: 40px;"">rifle</p>
  <p style=""font-size: 16px;"">J = YES &nbsp;&nbsp;&nbsp; F = NO</p>
","j","html-keyboard-response","30","2.1.0","134025","J=YES, F=NO","namejq4jm2","1","76","73","80","","","","","","lextale","true","false","","","","","","","",""
"12756","
  <p style=""font-size: 40px;"">mush</p>
  <p style=""font-size: 16px;"">J = YES &nbsp;&nbsp;&nbsp; F = NO</p>
","j","html-keyboard-response","31","2.1.0","146782","J=YES, F=NO","namejq4jm2","1","76","73","80","","","","","","lextale","false","false","","","","","","","",""
"770","
  <p style=""font-size: 40px;"">drench</p>
  <p style=""font-size: 16px;"">J = YES &nbsp;&nbsp;&nbsp; F = NO</p>
","j","html-keyboard-response","32","2.1.0","147552","J=YES, F=NO","namejq4jm2","1","76","73","80","","","","","","lextale","true","false","","","","","","","",""
"1703","
  <p style=""font-size: 40px;"">snirt</p>
  <p style=""font-size: 16px;"">J = YES &nbsp;&nbsp;&nbsp; F = NO</p>
","f","html-keyboard-response","33","2.1.0","149255","J=YES, F=NO","namejq4jm2","1","76","73","80","","","","","","lextale","false","false","","","","","","","",""
"632","
  <p style=""font-size: 40px;"">bitter</p>
  <p style=""font-size: 16px;"">J = YES &nbsp;&nbsp;&nbsp; F = NO</p>
","j","html-keyboard-response","34","2.1.0","149888","J=YES, F=NO","namejq4jm2","1","76","73","80","","","","","","lextale","true","false","","","","","","","",""
"2328","
  <p style=""font-size: 40px;"">pliff</p>
  <p style=""font-size: 16px;"">J = YES &nbsp;&nbsp;&nbsp; F = NO</p>
","f","html-keyboard-response","35","2.1.0","152217","J=YES, F=NO","namejq4jm2","1","76","73","80","","","","","","lextale","false","false","","","","","","","",""
"770","
  <p style=""font-size: 40px;"">tablet</p>
  <p style=""font-size: 16px;"">J = YES &nbsp;&nbsp;&nbsp; F = NO</p>
","j","html-keyboard-response","36","2.1.0","152988","J=YES, F=NO","namejq4jm2","1","76","73","80","","","","","","lextale","true","false","","","","","","","",""
"9863","
  <p style=""font-size: 40px;"">glimmer</p>
  <p style=""font-size: 16px;"">J = YES &nbsp;&nbsp;&nbsp; F = NO</p>
","j","html-keyboard-response","37","2.1.0","162851","J=YES, F=NO","namejq4jm2","1","76","73","80","","","","","","lextale","true","false","","","","","","","",""
"1198","
  <p style=""font-size: 40px;"">slink</p>
  <p style=""font-size: 16px;"">J = YES &nbsp;&nbsp;&nbsp; F = NO</p>
","f","html-keyboard-response","38","2.1.0","164050","J=YES, F=NO","namejq4jm2","1","76","73","80","","","","","","lextale","true","false","","","","","","","",""
"518","
  <p style=""font-size: 40px;"">clever</p>
  <p style=""font-size: 16px;"">J = YES &nbsp;&nbsp;&nbsp; F = NO</p>
","j","html-keyboard-response","39","2.1.0","164569","J=YES, F=NO","namejq4jm2","1","76","73","80","","","","","","lextale","true","false","","","","","","","",""
"9168","
  <p style=""font-size: 40px;"">grum</p>
  <p style=""font-size: 16px;"">J = YES &nbsp;&nbsp;&nbsp; F = NO</p>
","f","html-keyboard-response","40","2.1.0","173738","J=YES, F=NO","namejq4jm2","1","76","73","80","","","","","","lextale","false","false","","","","","","","",""
"540","
  <p style=""font-size: 40px;"">string</p>
  <p style=""font-size: 16px;"">J = YES &nbsp;&nbsp;&nbsp; F = NO</p>
","j","html-keyboard-response","41","2.1.0","174279","J=YES, F=NO","namejq4jm2","1","76","73","80","","","","","","lextale","true","false","","","","","","","",""
"6673","
  <p style=""font-size: 40px;"">plim</p>
  <p style=""font-size: 16px;"">J = YES &nbsp;&nbsp;&nbsp; F = NO</p>
","f","html-keyboard-response","42","2.1.0","180952","J=YES, F=NO","namejq4jm2","1","76","73","80","","","","","","lextale","false","false","","","","","","","",""
"663","
  <p style=""font-size: 40px;"">cable</p>
  <p style=""font-size: 16px;"">J = YES &nbsp;&nbsp;&nbsp; F = NO</p>
","j","html-keyboard-response","43","2.1.0","181616","J=YES, F=NO","namejq4jm2","1","76","73","80","","","","","","lextale","true","false","","","","","","","",""
"2344","
  <p style=""font-size: 40px;"">shrivel</p>
  <p style=""font-size: 16px;"">J = YES &nbsp;&nbsp;&nbsp; F = NO</p>
","f","html-keyboard-response","44","2.1.0","183961","J=YES, F=NO","namejq4jm2","1","76","73","80","","","","","","lextale","true","false","","","","","","","",""
"1098","
  <p style=""font-size: 40px;"">tarnish</p>
  <p style=""font-size: 16px;"">J = YES &nbsp;&nbsp;&nbsp; F = NO</p>
","j","html-keyboard-response","45","2.1.0","185059","J=YES, F=NO","namejq4jm2","1","76","73","80","","","","","","lextale","true","false","","","","","","","",""
"1533","
  <p style=""font-size: 40px;"">blim</p>
  <p style=""font-size: 16px;"">J = YES &nbsp;&nbsp;&nbsp; F = NO</p>
","f","html-keyboard-response","46","2.1.0","186593","J=YES, F=NO","namejq4jm2","1","76","73","80","","","","","","lextale","false","false","","","","","","","",""
"10543","
  <p style=""font-size: 40px;"">stifle</p>
  <p style=""font-size: 16px;"">J = YES &nbsp;&nbsp;&nbsp; F = NO</p>
","j","html-keyboard-response","47","2.1.0","197136","J=YES, F=NO","namejq4jm2","1","76","73","80","","","","","","lextale","true","false","","","","","","","",""
"2106","
  <p style=""font-size: 40px;"">bint</p>
  <p style=""font-size: 16px;"">J = YES &nbsp;&nbsp;&nbsp; F = NO</p>
","f","html-keyboard-response","48","2.1.0","199243","J=YES, F=NO","namejq4jm2","1","76","73","80","","","","","","lextale","false","false","","","","","","","",""
"526","
  <p style=""font-size: 40px;"">purple</p>
  <p style=""font-size: 16px;"">J = YES &nbsp;&nbsp;&nbsp; F = NO</p>
","j","html-keyboard-response","49","2.1.0","199770","J=YES, F=NO","namejq4jm2","1","76","73","80","","","","","","lextale","true","false","","","","","","","",""
"794","
  <p style=""font-size: 40px;"">wriggle</p>
  <p style=""font-size: 16px;"">J = YES &nbsp;&nbsp;&nbsp; F = NO</p>
","j","html-keyboard-response","50","2.1.0","200564","J=YES, F=NO","namejq4jm2","1","76","73","80","","","","","","lextale","true","false","","","","","","","",""
"1214","
  <p style=""font-size: 40px;"">mangle</p>
  <p style=""font-size: 16px;"">J = YES &nbsp;&nbsp;&nbsp; F = NO</p>
","f","html-keyboard-response","51","2.1.0","201778","J=YES, F=NO","namejq4jm2","1","76","73","80","","","","","","lextale","true","false","","","","","","","",""
"8588","
  <p style=""font-size: 40px;"">shramp</p>
  <p style=""font-size: 16px;"">J = YES &nbsp;&nbsp;&nbsp; F = NO</p>
","f","html-keyboard-response","52","2.1.0","210366","J=YES, F=NO","namejq4jm2","1","76","73","80","","","","","","lextale","false","false","","","","","","","",""
"671","
  <p style=""font-size: 40px;"">flirt</p>
  <p style=""font-size: 16px;"">J = YES &nbsp;&nbsp;&nbsp; F = NO</p>
","j","html-keyboard-response","53","2.1.0","211038","J=YES, F=NO","namejq4jm2","1","76","73","80","","","","","","lextale","true","false","","","","","","","",""
"6573","
  <p style=""font-size: 40px;"">frip</p>
  <p style=""font-size: 16px;"">J = YES &nbsp;&nbsp;&nbsp; F = NO</p>
","f","html-keyboard-response","54","2.1.0","217611","J=YES, F=NO","namejq4jm2","1","76","73","80","","","","","","lextale","false","false","","","","","","","",""
"1877","
  <p style=""font-size: 40px;"">tangle</p>
  <p style=""font-size: 16px;"">J = YES &nbsp;&nbsp;&nbsp; F = NO</p>
","j","html-keyboard-response","55","2.1.0","219489","J=YES, F=NO","namejq4jm2","1","76","73","80","","","","","","lextale","true","false","","","","","","","",""
"954","
  <p style=""font-size: 40px;"">crumble</p>
  <p style=""font-size: 16px;"">J = YES &nbsp;&nbsp;&nbsp; F = NO</p>
","j","html-keyboard-response","56","2.1.0","220443","J=YES, F=NO","namejq4jm2","1","76","73","80","","","","","","lextale","true","false","","","","","","","",""
"1106","
  <p style=""font-size: 40px;"">wrinkle</p>
  <p style=""font-size: 16px;"">J = YES &nbsp;&nbsp;&nbsp; F = NO</p>
","j","html-keyboard-response","57","2.1.0","221550","J=YES, F=NO","namejq4jm2","1","76","73","80","","","","","","lextale","true","false","","","","","","","",""
"8244","
  <p style=""font-size: 40px;"">slumb</p>
  <p style=""font-size: 16px;"">J = YES &nbsp;&nbsp;&nbsp; F = NO</p>
","f","html-keyboard-response","58","2.1.0","229795","J=YES, F=NO","namejq4jm2","1","76","73","80","","","","","","lextale","false","false","","","","","","","",""
"786","
  <p style=""font-size: 40px;"">jungle</p>
  <p style=""font-size: 16px;"">J = YES &nbsp;&nbsp;&nbsp; F = NO</p>
","j","html-keyboard-response","59","2.1.0","230581","J=YES, F=NO","namejq4jm2","1","76","73","80","","","","","","lextale","true","false","","","","","","","",""
"14734","
  <p style=""font-size: 40px;"">frolick</p>
  <p style=""font-size: 16px;"">J = YES &nbsp;&nbsp;&nbsp; F = NO</p>
","f","html-keyboard-response","60","2.1.0","245316","J=YES, F=NO","namejq4jm2","1","76","73","80","","","","","","lextale","false","false","","","","","","","",""
"5181","
      <h2>LexTALE Test Completed</h2>
      <p>Your LexTALE vocabulary score is: <strong>76%</strong></p>
      <p>Press any key to continue.</p>
    ","j","html-keyboard-response","61","2.1.0","250499","J=YES, F=NO","namejq4jm2","1","76","73","80","","","","","","","","","","","","","","","",""
"3464","
    <div style=""max-width: 800px; margin: auto; text-align: left;"">
      <h2>Break Time</h2>
      <p>You have completed the first part of the study.</p>
      <p>You may take a short <strong>30-second break</strong> before continuing.</p>
      <p>When you’re ready, press any key to continue to the final task.</p>
    </div>
  ","j","html-keyboard-response","62","2.1.0","253964","J=YES, F=NO","namejq4jm2","1","76","73","80","","","","","","","","","","","","","","","",""
"20414","
    <div style=""max-width: 800px; margin: auto; text-align: left;"">
      <h2>Part 2: Lexical Decision Task</h2>
      <p>You will now begin the second part of the study.</p>
      <p>Each trial will follow this sequence:</p>
      <ul>
        <li>A fixation cross (+) appears at the center of the screen.</li>
        <li>You will hear a short beep followed by a spoken word.</li>
        <li>A written word will appear briefly on the screen.</li>
      </ul>
      <p>Your task is to judge whether the <strong>written word</strong> is a real English word.</p>
      <p style=""margin-top: 1em;""><strong>Key responses:</strong></p>
      <ul>
        <li><strong>J</strong> = YES (real English word)</li>
        <li><strong>F</strong> = NO (not a real English word)</li>
      </ul>
      <p>Please respond as quickly and accurately as you can.</p>
      <p style=""margin-top: 2em;"">Press any key to continue.</p>
    </div>
  ","j","html-keyboard-response","63","2.1.0","274379","J=YES, F=NO","namejq4jm2","1","76","73","80","","","","","","","","","","","","","","","",""
"8136","
    <div style=""max-width: 800px; margin: auto; text-align: left;"">
      <h2>Before You Begin</h2>
      <p>Make sure your sound is turned on.</p>
      <p>You will hear audio during each trial, but your decision should be based only on the <strong>written word</strong> you see on the screen.</p>
      <p><strong>Reminder:</strong></p>
      <ul>
        <li><strong>J</strong> = YES (real English word)</li>
        <li><strong>F</strong> = NO (not a real English word)</li>
      </ul>
      <p style=""margin-top: 2em;"">Press any key when you are ready to begin.</p>
    </div>
  ","j","html-keyboard-response","64","2.1.0","282516","J=YES, F=NO","namejq4jm2","1","76","73","80","","","","","","","","","","","","","","","",""
"6138","
    <div style=""max-width: 800px; margin: auto; text-align: left;"">
      <h2>Part 2: Practice Trials</h2>
      <p>You will now complete a few <strong>practice trials</strong> to get familiar with the task.</p>
      <p>These trials are <strong>not scored</strong> and are only to help you get used to the format.</p>
      <p style=""margin-top: 2em;"">Press any key to begin.</p>
    </div>
  ","j","html-keyboard-response","65","2.1.0","288655","J=YES, F=NO","namejq4jm2","1","76","73","80","","","","","","","","","","","","","","","",""
"1319","<p>Starting practice block 1 of 2. Press any key to continue.</p>","j","html-keyboard-response","66","2.1.0","289974","J=YES, F=NO","namejq4jm2","1","76","73","80","","","","","","","","","","","","","","","",""
"null","<p style=""font-size: 50px;"">+</p>","null","html-keyboard-response","67","2.1.0","290284","J=YES, F=NO","namejq4jm2","1","76","73","80","","","","","","","","","","","","","","","",""
"null","audio/beep-329314.mp3","null","audio-keyboard-response","68","2.1.0","292542","J=YES, F=NO","namejq4jm2","1","76","73","80","","","","","","","","","","","","","","","",""
"null","audio/planet1.wav","null","audio-keyboard-response","69","2.1.0","293131","J=YES, F=NO","namejq4jm2","1","76","73","80","","","","","","","","","","","","","","","",""
"1354","
          <p id=""word"" style=""font-size: 40px;"">cratched</p>
          <p style=""font-size: 16px;"">J = YES &nbsp;&nbsp;&nbsp; F = NO</p>
        ","f","html-keyboard-response","70","2.1.0","294486","J=YES, F=NO","namejq4jm2","1","76","73","80","","","","","","","","","cratched","planet1","pseudoword","pseudoword","f","true","",""
"null","<p style=""font-size: 50px;"">+</p>","null","html-keyboard-response","71","2.1.0","294799","J=YES, F=NO","namejq4jm2","1","76","73","80","","","","","","","","","","","","","","","",""
"null","audio/beep-329314.mp3","null","audio-keyboard-response","72","2.1.0","296321","J=YES, F=NO","namejq4jm2","1","76","73","80","","","","","","","","","","","","","","","",""
"null","audio/life1.wav","null","audio-keyboard-response","73","2.1.0","297052","J=YES, F=NO","namejq4jm2","1","76","73","80","","","","","","","","","","","","","","","",""
"984","
          <p id=""word"" style=""font-size: 40px;"">flimch</p>
          <p style=""font-size: 16px;"">J = YES &nbsp;&nbsp;&nbsp; F = NO</p>
        ","f","html-keyboard-response","74","2.1.0","298036","J=YES, F=NO","namejq4jm2","1","76","73","80","","","","","","","","","flimch","life1","pseudoword","pseudoword","f","true","",""
"null","<p style=""font-size: 50px;"">+</p>","null","html-keyboard-response","75","2.1.0","298348","J=YES, F=NO","namejq4jm2","1","76","73","80","","","","","","","","","","","","","","","",""
"null","audio/beep-329314.mp3","null","audio-keyboard-response","76","2.1.0","299882","J=YES, F=NO","namejq4jm2","1","76","73","80","","","","","","","","","","","","","","","",""
"null","audio/dollar.wav","null","audio-keyboard-response","77","2.1.0","300331","J=YES, F=NO","namejq4jm2","1","76","73","80","","","","","","","","","","","","","","","",""
"1239","
          <p id=""word"" style=""font-size: 40px;"">gliptism</p>
          <p style=""font-size: 16px;"">J = YES &nbsp;&nbsp;&nbsp; F = NO</p>
        ","f","html-keyboard-response","78","2.1.0","301572","J=YES, F=NO","namejq4jm2","1","76","73","80","","","","","","","","","gliptism","dollar","pseudoword","pseudoword","f","true","",""
"null","<p style=""font-size: 50px;"">+</p>","null","html-keyboard-response","79","2.1.0","301881","J=YES, F=NO","namejq4jm2","1","76","73","80","","","","","","","","","","","","","","","",""
"null","audio/beep-329314.mp3","null","audio-keyboard-response","80","2.1.0","303422","J=YES, F=NO","namejq4jm2","1","76","73","80","","","","","","","","","","","","","","","",""
"null","audio/kettle1.wav","null","audio-keyboard-response","81","2.1.0","304071","J=YES, F=NO","namejq4jm2","1","76","73","80","","","","","","","","","","","","","","","",""
"865","
          <p id=""word"" style=""font-size: 40px;"">wrap</p>
          <p style=""font-size: 16px;"">J = YES &nbsp;&nbsp;&nbsp; F = NO</p>
        ","j","html-keyboard-response","82","2.1.0","304937","J=YES, F=NO","namejq4jm2","1","76","73","80","","","","","","","","","wrap","kettle1","filler","filler","j","true","",""
"null","<p style=""font-size: 50px;"">+</p>","null","html-keyboard-response","83","2.1.0","305251","J=YES, F=NO","namejq4jm2","1","76","73","80","","","","","","","","","","","","","","","",""
"null","audio/beep-329314.mp3","null","audio-keyboard-response","84","2.1.0","306782","J=YES, F=NO","namejq4jm2","1","76","73","80","","","","","","","","","","","","","","","",""
"null","audio/mile1.wav","null","audio-keyboard-response","85","2.1.0","307432","J=YES, F=NO","namejq4jm2","1","76","73","80","","","","","","","","","","","","","","","",""
"1002","
          <p id=""word"" style=""font-size: 40px;"">writch</p>
          <p style=""font-size: 16px;"">J = YES &nbsp;&nbsp;&nbsp; F = NO</p>
        ","j","html-keyboard-response","86","2.1.0","308434","J=YES, F=NO","namejq4jm2","1","76","73","80","","","","","","","","","writch","mile1","pseudoword","pseudoword","f","false","",""
"null","<p style=""font-size: 50px;"">+</p>","null","html-keyboard-response","87","2.1.0","308741","J=YES, F=NO","namejq4jm2","1","76","73","80","","","","","","","","","","","","","","","",""
"null","audio/beep-329314.mp3","null","audio-keyboard-response","88","2.1.0","310262","J=YES, F=NO","namejq4jm2","1","76","73","80","","","","","","","","","","","","","","","",""
"null","audio/arm.wav","null","audio-keyboard-response","89","2.1.0","310832","J=YES, F=NO","namejq4jm2","1","76","73","80","","","","","","","","","","","","","","","",""
"755","
          <p id=""word"" style=""font-size: 40px;"">fold</p>
          <p style=""font-size: 16px;"">J = YES &nbsp;&nbsp;&nbsp; F = NO</p>
        ","j","html-keyboard-response","90","2.1.0","311588","J=YES, F=NO","namejq4jm2","1","76","73","80","","","","","","","","","fold","arm","filler","filler","j","true","",""
"null","<p style=""font-size: 50px;"">+</p>","null","html-keyboard-response","91","2.1.0","311902","J=YES, F=NO","namejq4jm2","1","76","73","80","","","","","","","","","","","","","","","",""
"null","audio/beep-329314.mp3","null","audio-keyboard-response","92","2.1.0","313442","J=YES, F=NO","namejq4jm2","1","76","73","80","","","","","","","","","","","","","","","",""
"null","audio/bomb1.wav","null","audio-keyboard-response","93","2.1.0","313892","J=YES, F=NO","namejq4jm2","1","76","73","80","","","","","","","","","","","","","","","",""
"565","
          <p id=""word"" style=""font-size: 40px;"">clean</p>
          <p style=""font-size: 16px;"">J = YES &nbsp;&nbsp;&nbsp; F = NO</p>
        ","j","html-keyboard-response","94","2.1.0","314457","J=YES, F=NO","namejq4jm2","1","76","73","80","","","","","","","","","clean","bomb1","filler","filler","j","true","",""
"null","<p style=""font-size: 50px;"">+</p>","null","html-keyboard-response","95","2.1.0","314770","J=YES, F=NO","namejq4jm2","1","76","73","80","","","","","","","","","","","","","","","",""
"null","audio/beep-329314.mp3","null","audio-keyboard-response","96","2.1.0","316302","J=YES, F=NO","namejq4jm2","1","76","73","80","","","","","","","","","","","","","","","",""
"null","audio/bush1.wav","null","audio-keyboard-response","97","2.1.0","316951","J=YES, F=NO","namejq4jm2","1","76","73","80","","","","","","","","","","","","","","","",""
"1444","
          <p id=""word"" style=""font-size: 40px;"">platined</p>
          <p style=""font-size: 16px;"">J = YES &nbsp;&nbsp;&nbsp; F = NO</p>
        ","j","html-keyboard-response","98","2.1.0","318396","J=YES, F=NO","namejq4jm2","1","76","73","80","","","","","","","","","platined","bush1","pseudoword","pseudoword","f","false","",""
"null","<p style=""font-size: 50px;"">+</p>","null","html-keyboard-response","99","2.1.0","318706","J=YES, F=NO","namejq4jm2","1","76","73","80","","","","","","","","","","","","","","","",""
"null","audio/beep-329314.mp3","null","audio-keyboard-response","100","2.1.0","320241","J=YES, F=NO","namejq4jm2","1","76","73","80","","","","","","","","","","","","","","","",""
"null","audio/handle.wav","null","audio-keyboard-response","101","2.1.0","320932","J=YES, F=NO","namejq4jm2","1","76","73","80","","","","","","","","","","","","","","","",""
"1220","
          <p id=""word"" style=""font-size: 40px;"">moutes</p>
          <p style=""font-size: 16px;"">J = YES &nbsp;&nbsp;&nbsp; F = NO</p>
        ","f","html-keyboard-response","102","2.1.0","322153","J=YES, F=NO","namejq4jm2","1","76","73","80","","","","","","","","","moutes","handle","pseudoword","pseudoword","f","true","",""
"null","<p style=""font-size: 50px;"">+</p>","null","html-keyboard-response","103","2.1.0","322466","J=YES, F=NO","namejq4jm2","1","76","73","80","","","","","","","","","","","","","","","",""
"null","audio/beep-329314.mp3","null","audio-keyboard-response","104","2.1.0","324001","J=YES, F=NO","namejq4jm2","1","76","73","80","","","","","","","","","","","","","","","",""
"null","audio/floor.wav","null","audio-keyboard-response","105","2.1.0","324572","J=YES, F=NO","namejq4jm2","1","76","73","80","","","","","","","","","","","","","","","",""
"1160","
          <p id=""word"" style=""font-size: 40px;"">mop</p>
          <p style=""font-size: 16px;"">J = YES &nbsp;&nbsp;&nbsp; F = NO</p>
        ","j","html-keyboard-response","106","2.1.0","325732","J=YES, F=NO","namejq4jm2","1","76","73","80","","","","","","","","","mop","floor","filler","filler","j","true","",""
"null","<p style=""font-size: 50px;"">+</p>","null","html-keyboard-response","107","2.1.0","326047","J=YES, F=NO","namejq4jm2","1","76","73","80","","","","","","","","","","","","","","","",""
"null","audio/beep-329314.mp3","null","audio-keyboard-response","108","2.1.0","327582","J=YES, F=NO","namejq4jm2","1","76","73","80","","","","","","","","","","","","","","","",""
"null","audio/butter1.wav","null","audio-keyboard-response","109","2.1.0","328092","J=YES, F=NO","namejq4jm2","1","76","73","80","","","","","","","","","","","","","","","",""
"685","
          <p id=""word"" style=""font-size: 40px;"">chew</p>
          <p style=""font-size: 16px;"">J = YES &nbsp;&nbsp;&nbsp; F = NO</p>
        ","j","html-keyboard-response","110","2.1.0","328778","J=YES, F=NO","namejq4jm2","1","76","73","80","","","","","","","","","chew","butter1","filler","filler","j","true","",""
"null","<p style=""font-size: 50px;"">+</p>","null","html-keyboard-response","111","2.1.0","329091","J=YES, F=NO","namejq4jm2","1","76","73","80","","","","","","","","","","","","","","","",""
"null","audio/beep-329314.mp3","null","audio-keyboard-response","112","2.1.0","330622","J=YES, F=NO","namejq4jm2","1","76","73","80","","","","","","","","","","","","","","","",""
"null","audio/bottle.wav","null","audio-keyboard-response","113","2.1.0","331112","J=YES, F=NO","namejq4jm2","1","76","73","80","","","","","","","","","","","","","","","",""
"651","
          <p id=""word"" style=""font-size: 40px;"">watch</p>
          <p style=""font-size: 16px;"">J = YES &nbsp;&nbsp;&nbsp; F = NO</p>
        ","j","html-keyboard-response","114","2.1.0","331763","J=YES, F=NO","namejq4jm2","1","76","73","80","","","","","","","","","watch","bottle","filler","filler","j","true","",""
"1832","<p>Starting practice block 2 of 2. Press any key to continue.</p>","j","html-keyboard-response","115","2.1.0","333596","J=YES, F=NO","namejq4jm2","1","76","73","80","","","","","","","","","","","","","","","",""
"null","<p style=""font-size: 50px;"">+</p>","null","html-keyboard-response","116","2.1.0","333898","J=YES, F=NO","namejq4jm2","1","76","73","80","","","","","","","","","","","","","","","",""
"null","audio/beep-329314.mp3","null","audio-keyboard-response","117","2.1.0","335422","J=YES, F=NO","namejq4jm2","1","76","73","80","","","","","","","","","","","","","","","",""
"null","audio/brain.wav","null","audio-keyboard-response","118","2.1.0","335972","J=YES, F=NO","namejq4jm2","1","76","73","80","","","","","","","","","","","","","","","",""
"555","
          <p id=""word"" style=""font-size: 40px;"">throw</p>
          <p style=""font-size: 16px;"">J = YES &nbsp;&nbsp;&nbsp; F = NO</p>
        ","j","html-keyboard-response","119","2.1.0","336527","J=YES, F=NO","namejq4jm2","1","76","73","80","","","","","","","","","throw","brain","filler","filler","j","true","",""
"null","<p style=""font-size: 50px;"">+</p>","null","html-keyboard-response","120","2.1.0","336833","J=YES, F=NO","namejq4jm2","1","76","73","80","","","","","","","","","","","","","","","",""
"null","audio/beep-329314.mp3","null","audio-keyboard-response","121","2.1.0","338363","J=YES, F=NO","namejq4jm2","1","76","73","80","","","","","","","","","","","","","","","",""
"null","audio/birth1.wav","null","audio-keyboard-response","122","2.1.0","338952","J=YES, F=NO","namejq4jm2","1","76","73","80","","","","","","","","","","","","","","","",""
"696","
          <p id=""word"" style=""font-size: 40px;"">peel</p>
          <p style=""font-size: 16px;"">J = YES &nbsp;&nbsp;&nbsp; F = NO</p>
        ","j","html-keyboard-response","123","2.1.0","339649","J=YES, F=NO","namejq4jm2","1","76","73","80","","","","","","","","","peel","birth1","filler","filler","j","true","",""
"null","<p style=""font-size: 50px;"">+</p>","null","html-keyboard-response","124","2.1.0","339956","J=YES, F=NO","namejq4jm2","1","76","73","80","","","","","","","","","","","","","","","",""
"null","audio/beep-329314.mp3","null","audio-keyboard-response","125","2.1.0","341482","J=YES, F=NO","namejq4jm2","1","76","73","80","","","","","","","","","","","","","","","",""
"null","audio/account1.wav","null","audio-keyboard-response","126","2.1.0","342212","J=YES, F=NO","namejq4jm2","1","76","73","80","","","","","","","","","","","","","","","",""
"544","
          <p id=""word"" style=""font-size: 40px;"">paint</p>
          <p style=""font-size: 16px;"">J = YES &nbsp;&nbsp;&nbsp; F = NO</p>
        ","j","html-keyboard-response","127","2.1.0","342756","J=YES, F=NO","namejq4jm2","1","76","73","80","","","","","","","","","paint","account1","filler","filler","j","true","",""
"null","<p style=""font-size: 50px;"">+</p>","null","html-keyboard-response","128","2.1.0","343068","J=YES, F=NO","namejq4jm2","1","76","73","80","","","","","","","","","","","","","","","",""
"null","audio/beep-329314.mp3","null","audio-keyboard-response","129","2.1.0","344602","J=YES, F=NO","namejq4jm2","1","76","73","80","","","","","","","","","","","","","","","",""
"null","audio/stain.wav","null","audio-keyboard-response","130","2.1.0","345312","J=YES, F=NO","namejq4jm2","1","76","73","80","","","","","","","","","","","","","","","",""
"1101","
          <p id=""word"" style=""font-size: 40px;"">rumpsied</p>
          <p style=""font-size: 16px;"">J = YES &nbsp;&nbsp;&nbsp; F = NO</p>
        ","f","html-keyboard-response","131","2.1.0","346414","J=YES, F=NO","namejq4jm2","1","76","73","80","","","","","","","","","rumpsied","stain","pseudoword","pseudoword","f","true","",""
"null","<p style=""font-size: 50px;"">+</p>","null","html-keyboard-response","132","2.1.0","346718","J=YES, F=NO","namejq4jm2","1","76","73","80","","","","","","","","","","","","","","","",""
"null","audio/beep-329314.mp3","null","audio-keyboard-response","133","2.1.0","348242","J=YES, F=NO","namejq4jm2","1","76","73","80","","","","","","","","","","","","","","","",""
"null","audio/cancer1.wav","null","audio-keyboard-response","134","2.1.0","348852","J=YES, F=NO","namejq4jm2","1","76","73","80","","","","","","","","","","","","","","","",""
"529","
          <p id=""word"" style=""font-size: 40px;"">draw</p>
          <p style=""font-size: 16px;"">J = YES &nbsp;&nbsp;&nbsp; F = NO</p>
        ","j","html-keyboard-response","135","2.1.0","349382","J=YES, F=NO","namejq4jm2","1","76","73","80","","","","","","","","","draw","cancer1","filler","filler","j","true","",""
"null","<p style=""font-size: 50px;"">+</p>","null","html-keyboard-response","136","2.1.0","349697","J=YES, F=NO","namejq4jm2","1","76","73","80","","","","","","","","","","","","","","","",""
"null","audio/beep-329314.mp3","null","audio-keyboard-response","137","2.1.0","351221","J=YES, F=NO","namejq4jm2","1","76","73","80","","","","","","","","","","","","","","","",""
"null","audio/effort.wav","null","audio-keyboard-response","138","2.1.0","351991","J=YES, F=NO","namejq4jm2","1","76","73","80","","","","","","","","","","","","","","","",""
"826","
          <p id=""word"" style=""font-size: 40px;"">whonk</p>
          <p style=""font-size: 16px;"">J = YES &nbsp;&nbsp;&nbsp; F = NO</p>
        ","f","html-keyboard-response","139","2.1.0","352818","J=YES, F=NO","namejq4jm2","1","76","73","80","","","","","","","","","whonk","effort","pseudoword","pseudoword","f","true","",""
"null","<p style=""font-size: 50px;"">+</p>","null","html-keyboard-response","140","2.1.0","353129","J=YES, F=NO","namejq4jm2","1","76","73","80","","","","","","","","","","","","","","","",""
"null","audio/beep-329314.mp3","null","audio-keyboard-response","141","2.1.0","354662","J=YES, F=NO","namejq4jm2","1","76","73","80","","","","","","","","","","","","","","","",""
"null","audio/mouth1.wav","null","audio-keyboard-response","142","2.1.0","355252","J=YES, F=NO","namejq4jm2","1","76","73","80","","","","","","","","","","","","","","","",""
"1230","
          <p id=""word"" style=""font-size: 40px;"">spolial</p>
          <p style=""font-size: 16px;"">J = YES &nbsp;&nbsp;&nbsp; F = NO</p>
        ","j","html-keyboard-response","143","2.1.0","356483","J=YES, F=NO","namejq4jm2","1","76","73","80","","","","","","","","","spolial","mouth1","pseudoword","pseudoword","f","false","",""
"null","<p style=""font-size: 50px;"">+</p>","null","html-keyboard-response","144","2.1.0","356785","J=YES, F=NO","namejq4jm2","1","76","73","80","","","","","","","","","","","","","","","",""
"null","audio/beep-329314.mp3","null","audio-keyboard-response","145","2.1.0","358322","J=YES, F=NO","namejq4jm2","1","76","73","80","","","","","","","","","","","","","","","",""
"null","audio/uncle1.wav","null","audio-keyboard-response","146","2.1.0","358972","J=YES, F=NO","namejq4jm2","1","76","73","80","","","","","","","","","","","","","","","",""
"1151","
          <p id=""word"" style=""font-size: 40px;"">dramble</p>
          <p style=""font-size: 16px;"">J = YES &nbsp;&nbsp;&nbsp; F = NO</p>
        ","f","html-keyboard-response","147","2.1.0","360123","J=YES, F=NO","namejq4jm2","1","76","73","80","","","","","","","","","dramble","uncle1","pseudoword","pseudoword","f","true","",""
"null","<p style=""font-size: 50px;"">+</p>","null","html-keyboard-response","148","2.1.0","360436","J=YES, F=NO","namejq4jm2","1","76","73","80","","","","","","","","","","","","","","","",""
"null","audio/beep-329314.mp3","null","audio-keyboard-response","149","2.1.0","361962","J=YES, F=NO","namejq4jm2","1","76","73","80","","","","","","","","","","","","","","","",""
"null","audio/novel.wav","null","audio-keyboard-response","150","2.1.0","362512","J=YES, F=NO","namejq4jm2","1","76","73","80","","","","","","","","","","","","","","","",""
"558","
          <p id=""word"" style=""font-size: 40px;"">type</p>
          <p style=""font-size: 16px;"">J = YES &nbsp;&nbsp;&nbsp; F = NO</p>
        ","j","html-keyboard-response","151","2.1.0","363070","J=YES, F=NO","namejq4jm2","1","76","73","80","","","","","","","","","type","novel","filler","filler","j","true","",""
"null","<p style=""font-size: 50px;"">+</p>","null","html-keyboard-response","152","2.1.0","363377","J=YES, F=NO","namejq4jm2","1","76","73","80","","","","","","","","","","","","","","","",""
"null","audio/beep-329314.mp3","null","audio-keyboard-response","153","2.1.0","364902","J=YES, F=NO","namejq4jm2","1","76","73","80","","","","","","","","","","","","","","","",""
"null","audio/golf1.wav","null","audio-keyboard-response","154","2.1.0","365512","J=YES, F=NO","namejq4jm2","1","76","73","80","","","","","","","","","","","","","","","",""
"749","
          <p id=""word"" style=""font-size: 40px;"">drabble</p>
          <p style=""font-size: 16px;"">J = YES &nbsp;&nbsp;&nbsp; F = NO</p>
        ","f","html-keyboard-response","155","2.1.0","366261","J=YES, F=NO","namejq4jm2","1","76","73","80","","","","","","","","","drabble","golf1","pseudoword","pseudoword","f","true","",""
"null","<p style=""font-size: 50px;"">+</p>","null","html-keyboard-response","156","2.1.0","366567","J=YES, F=NO","namejq4jm2","1","76","73","80","","","","","","","","","","","","","","","",""
"null","audio/beep-329314.mp3","null","audio-keyboard-response","157","2.1.0","368102","J=YES, F=NO","namejq4jm2","1","76","73","80","","","","","","","","","","","","","","","",""
"null","audio/ankle1.wav","null","audio-keyboard-response","158","2.1.0","368672","J=YES, F=NO","namejq4jm2","1","76","73","80","","","","","","","","","","","","","","","",""
"544","
          <p id=""word"" style=""font-size: 40px;"">kick</p>
          <p style=""font-size: 16px;"">J = YES &nbsp;&nbsp;&nbsp; F = NO</p>
        ","j","html-keyboard-response","159","2.1.0","369216","J=YES, F=NO","namejq4jm2","1","76","73","80","","","","","","","","","kick","ankle1","filler","filler","j","true","",""
"null","<p style=""font-size: 50px;"">+</p>","null","html-keyboard-response","160","2.1.0","369520","J=YES, F=NO","namejq4jm2","1","76","73","80","","","","","","","","","","","","","","","",""
"null","audio/beep-329314.mp3","null","audio-keyboard-response","161","2.1.0","371042","J=YES, F=NO","namejq4jm2","1","76","73","80","","","","","","","","","","","","","","","",""
"null","audio/ego.wav","null","audio-keyboard-response","162","2.1.0","371771","J=YES, F=NO","namejq4jm2","1","76","73","80","","","","","","","","","","","","","","","",""
"1215","
          <p id=""word"" style=""font-size: 40px;"">bruite</p>
          <p style=""font-size: 16px;"">J = YES &nbsp;&nbsp;&nbsp; F = NO</p>
        ","f","html-keyboard-response","163","2.1.0","372987","J=YES, F=NO","namejq4jm2","1","76","73","80","","","","","","","","","bruite","ego","pseudoword","pseudoword","f","true","",""
"6916","
    <div style=""max-width: 800px; margin: auto; text-align: left;"">
      <h2>Part 2: Main Trials</h2>
      <p>Great job on the practice trials!</p>
      <p>You will now begin the <strong>main set of trials</strong>.</p>
      <p>Remember your key assignments:</p>
      <ul>
        <li><strong>J</strong> = YES (real English word)</li>
        <li><strong>F</strong> = NO (not a real English word)</li>
      </ul>
      <p>Try to respond as <strong>quickly and accurately</strong> as possible.</p>
      <p style=""margin-top: 2em;"">Press any key to begin the main trials.</p>
    </div>
  ","j","html-keyboard-response","164","2.1.0","379904","J=YES, F=NO","namejq4jm2","1","76","73","80","","","","","","","","","","","","","","","",""
"1251","<p>Starting main block 1 of 8. Press any key to continue.</p>","j","html-keyboard-response","165","2.1.0","381155","J=YES, F=NO","namejq4jm2","1","76","73","80","","","","","","","","","","","","","","","",""
"null","<p style=""font-size: 50px;"">+</p>","null","html-keyboard-response","166","2.1.0","381458","J=YES, F=NO","namejq4jm2","1","76","73","80","","","","","","","","","","","","","","","",""
"null","audio/beep-329314.mp3","null","audio-keyboard-response","167","2.1.0","382962","J=YES, F=NO","namejq4jm2","1","76","73","80","","","","","","","","","","","","","","","",""
"null","audio/corpse1.wav","null","audio-keyboard-response","168","2.1.0","383742","J=YES, F=NO","namejq4jm2","1","76","73","80","","","","","","","","","","","","","","","",""
"734","
          <p id=""word"" style=""font-size: 40px;"">glonet</p>
          <p style=""font-size: 16px;"">J = YES &nbsp;&nbsp;&nbsp; F = NO</p>
        ","f","html-keyboard-response","169","2.1.0","384476","J=YES, F=NO","namejq4jm2","1","76","73","80","","","","","","","","","glonet","corpse1","pseudoword","pseudoword","f","true","",""
"null","<p style=""font-size: 50px;"">+</p>","null","html-keyboard-response","170","2.1.0","384778","J=YES, F=NO","namejq4jm2","1","76","73","80","","","","","","","","","","","","","","","",""
"null","audio/beep-329314.mp3","null","audio-keyboard-response","171","2.1.0","386302","J=YES, F=NO","namejq4jm2","1","76","73","80","","","","","","","","","","","","","","","",""
"null","audio/purpose.wav","null","audio-keyboard-response","172","2.1.0","386981","J=YES, F=NO","namejq4jm2","1","76","73","80","","","","","","","","","","","","","","","",""
"822","
          <p id=""word"" style=""font-size: 40px;"">whigm</p>
          <p style=""font-size: 16px;"">J = YES &nbsp;&nbsp;&nbsp; F = NO</p>
        ","f","html-keyboard-response","173","2.1.0","387804","J=YES, F=NO","namejq4jm2","1","76","73","80","","","","","","","","","whigm","purpose","pseudoword","pseudoword","f","true","",""
"null","<p style=""font-size: 50px;"">+</p>","null","html-keyboard-response","174","2.1.0","388116","J=YES, F=NO","namejq4jm2","1","76","73","80","","","","","","","","","","","","","","","",""
"null","audio/beep-329314.mp3","null","audio-keyboard-response","175","2.1.0","389642","J=YES, F=NO","namejq4jm2","1","76","73","80","","","","","","","","","","","","","","","",""
"null","audio/price.wav","null","audio-keyboard-response","176","2.1.0","390282","J=YES, F=NO","namejq4jm2","1","76","73","80","","","","","","","","","","","","","","","",""
"577","
          <p id=""word"" style=""font-size: 40px;"">drop</p>
          <p style=""font-size: 16px;"">J = YES &nbsp;&nbsp;&nbsp; F = NO</p>
        ","j","html-keyboard-response","177","2.1.0","390859","J=YES, F=NO","namejq4jm2","1","76","73","80","","","","","","","","","drop","price","metaphor","experimental","j","true","",""
"null","<p style=""font-size: 50px;"">+</p>","null","html-keyboard-response","178","2.1.0","391161","J=YES, F=NO","namejq4jm2","1","76","73","80","","","","","","","","","","","","","","","",""
"null","audio/beep-329314.mp3","null","audio-keyboard-response","179","2.1.0","392702","J=YES, F=NO","namejq4jm2","1","76","73","80","","","","","","","","","","","","","","","",""
"null","audio/breath.wav","null","audio-keyboard-response","180","2.1.0","393263","J=YES, F=NO","namejq4jm2","1","76","73","80","","","","","","","","","","","","","","","",""
"null","
          <p id=""word"" style=""font-size: 40px;"">twets</p>
          <p style=""font-size: 16px;"">J = YES &nbsp;&nbsp;&nbsp; F = NO</p>
        ","null","html-keyboard-response","181","2.1.0","394765","J=YES, F=NO","namejq4jm2","1","76","73","80","","","","","","","","","twets","breath","pseudoword","pseudoword","f","false","",""
"null","<p style=""font-size: 50px;"">+</p>","null","html-keyboard-response","182","2.1.0","395075","J=YES, F=NO","namejq4jm2","1","76","73","80","","","","","","","","","","","","","","","",""
"null","audio/beep-329314.mp3","null","audio-keyboard-response","183","2.1.0","396602","J=YES, F=NO","namejq4jm2","1","76","73","80","","","","","","","","","","","","","","","",""
"null","audio/life1.wav","null","audio-keyboard-response","184","2.1.0","397161","J=YES, F=NO","namejq4jm2","1","76","73","80","","","","","","","","","","","","","","","",""
"604","
          <p id=""word"" style=""font-size: 40px;"">give</p>
          <p style=""font-size: 16px;"">J = YES &nbsp;&nbsp;&nbsp; F = NO</p>
        ","j","html-keyboard-response","185","2.1.0","397766","J=YES, F=NO","namejq4jm2","1","76","73","80","","","","","","","","","give","life1","metaphor","experimental","j","true","",""
"null","<p style=""font-size: 50px;"">+</p>","null","html-keyboard-response","186","2.1.0","398080","J=YES, F=NO","namejq4jm2","1","76","73","80","","","","","","","","","","","","","","","",""
"null","audio/beep-329314.mp3","null","audio-keyboard-response","187","2.1.0","399602","J=YES, F=NO","namejq4jm2","1","76","73","80","","","","","","","","","","","","","","","",""
"null","audio/rain.wav","null","audio-keyboard-response","188","2.1.0","400062","J=YES, F=NO","namejq4jm2","1","76","73","80","","","","","","","","","","","","","","","",""
"552","
          <p id=""word"" style=""font-size: 40px;"">lose</p>
          <p style=""font-size: 16px;"">J = YES &nbsp;&nbsp;&nbsp; F = NO</p>
        ","j","html-keyboard-response","189","2.1.0","400614","J=YES, F=NO","namejq4jm2","1","76","73","80","","","","","","","","","lose","rain","unrelated","experimental","j","true","",""
"null","<p style=""font-size: 50px;"">+</p>","null","html-keyboard-response","190","2.1.0","400927","J=YES, F=NO","namejq4jm2","1","76","73","80","","","","","","","","","","","","","","","",""
"null","audio/beep-329314.mp3","null","audio-keyboard-response","191","2.1.0","402462","J=YES, F=NO","namejq4jm2","1","76","73","80","","","","","","","","","","","","","","","",""
"null","audio/fear.wav","null","audio-keyboard-response","192","2.1.0","403182","J=YES, F=NO","namejq4jm2","1","76","73","80","","","","","","","","","","","","","","","",""
"700","
          <p id=""word"" style=""font-size: 40px;"">spread</p>
          <p style=""font-size: 16px;"">J = YES &nbsp;&nbsp;&nbsp; F = NO</p>
        ","j","html-keyboard-response","193","2.1.0","403882","J=YES, F=NO","namejq4jm2","1","76","73","80","","","","","","","","","spread","fear","metaphor","experimental","j","true","",""
"null","<p style=""font-size: 50px;"">+</p>","null","html-keyboard-response","194","2.1.0","404196","J=YES, F=NO","namejq4jm2","1","76","73","80","","","","","","","","","","","","","","","",""
"null","audio/beep-329314.mp3","null","audio-keyboard-response","195","2.1.0","405722","J=YES, F=NO","namejq4jm2","1","76","73","80","","","","","","","","","","","","","","","",""
"null","audio/truth1.wav","null","audio-keyboard-response","196","2.1.0","406282","J=YES, F=NO","namejq4jm2","1","76","73","80","","","","","","","","","","","","","","","",""
"752","
          <p id=""word"" style=""font-size: 40px;"">calitom</p>
          <p style=""font-size: 16px;"">J = YES &nbsp;&nbsp;&nbsp; F = NO</p>
        ","f","html-keyboard-response","197","2.1.0","407034","J=YES, F=NO","namejq4jm2","1","76","73","80","","","","","","","","","calitom","truth1","pseudoword","pseudoword","f","true","",""
"null","<p style=""font-size: 50px;"">+</p>","null","html-keyboard-response","198","2.1.0","407345","J=YES, F=NO","namejq4jm2","1","76","73","80","","","","","","","","","","","","","","","",""
"null","audio/beep-329314.mp3","null","audio-keyboard-response","199","2.1.0","408882","J=YES, F=NO","namejq4jm2","1","76","73","80","","","","","","","","","","","","","","","",""
"null","audio/trust.wav","null","audio-keyboard-response","200","2.1.0","409522","J=YES, F=NO","namejq4jm2","1","76","73","80","","","","","","","","","","","","","","","",""
"924","
          <p id=""word"" style=""font-size: 40px;"">swint</p>
          <p style=""font-size: 16px;"">J = YES &nbsp;&nbsp;&nbsp; F = NO</p>
        ","f","html-keyboard-response","201","2.1.0","410446","J=YES, F=NO","namejq4jm2","1","76","73","80","","","","","","","","","swint","trust","pseudoword","pseudoword","f","true","",""
"null","<p style=""font-size: 50px;"">+</p>","null","html-keyboard-response","202","2.1.0","410753","J=YES, F=NO","namejq4jm2","1","76","73","80","","","","","","","","","","","","","","","",""
"null","audio/beep-329314.mp3","null","audio-keyboard-response","203","2.1.0","412281","J=YES, F=NO","namejq4jm2","1","76","73","80","","","","","","","","","","","","","","","",""
"null","audio/gossip1.wav","null","audio-keyboard-response","204","2.1.0","412921","J=YES, F=NO","namejq4jm2","1","76","73","80","","","","","","","","","","","","","","","",""
"1159","
          <p id=""word"" style=""font-size: 40px;"">camerish</p>
          <p style=""font-size: 16px;"">J = YES &nbsp;&nbsp;&nbsp; F = NO</p>
        ","j","html-keyboard-response","205","2.1.0","414081","J=YES, F=NO","namejq4jm2","1","76","73","80","","","","","","","","","camerish","gossip1","pseudoword","pseudoword","f","false","",""
"null","<p style=""font-size: 50px;"">+</p>","null","html-keyboard-response","206","2.1.0","414390","J=YES, F=NO","namejq4jm2","1","76","73","80","","","","","","","","","","","","","","","",""
"null","audio/beep-329314.mp3","null","audio-keyboard-response","207","2.1.0","415921","J=YES, F=NO","namejq4jm2","1","76","73","80","","","","","","","","","","","","","","","",""
"null","audio/floor.wav","null","audio-keyboard-response","208","2.1.0","416482","J=YES, F=NO","namejq4jm2","1","76","73","80","","","","","","","","","","","","","","","",""
"751","
          <p id=""word"" style=""font-size: 40px;"">cover</p>
          <p style=""font-size: 16px;"">J = YES &nbsp;&nbsp;&nbsp; F = NO</p>
        ","j","html-keyboard-response","209","2.1.0","417233","J=YES, F=NO","namejq4jm2","1","76","73","80","","","","","","","","","cover","floor","literal","experimental","j","true","",""
"null","<p style=""font-size: 50px;"">+</p>","null","html-keyboard-response","210","2.1.0","417540","J=YES, F=NO","namejq4jm2","1","76","73","80","","","","","","","","","","","","","","","",""
"null","audio/beep-329314.mp3","null","audio-keyboard-response","211","2.1.0","419062","J=YES, F=NO","namejq4jm2","1","76","73","80","","","","","","","","","","","","","","","",""
"null","audio/breath.wav","null","audio-keyboard-response","212","2.1.0","419622","J=YES, F=NO","namejq4jm2","1","76","73","80","","","","","","","","","","","","","","","",""
"810","
          <p id=""word"" style=""font-size: 40px;"">pack</p>
          <p style=""font-size: 16px;"">J = YES &nbsp;&nbsp;&nbsp; F = NO</p>
        ","j","html-keyboard-response","213","2.1.0","420432","J=YES, F=NO","namejq4jm2","1","76","73","80","","","","","","","","","pack","breath","filler","filler","j","true","",""
"null","<p style=""font-size: 50px;"">+</p>","null","html-keyboard-response","214","2.1.0","420746","J=YES, F=NO","namejq4jm2","1","76","73","80","","","","","","","","","","","","","","","",""
"null","audio/beep-329314.mp3","null","audio-keyboard-response","215","2.1.0","422282","J=YES, F=NO","namejq4jm2","1","76","73","80","","","","","","","","","","","","","","","",""
"null","audio/ankle1.wav","null","audio-keyboard-response","216","2.1.0","422822","J=YES, F=NO","namejq4jm2","1","76","73","80","","","","","","","","","","","","","","","",""
"663","
          <p id=""word"" style=""font-size: 40px;"">switm</p>
          <p style=""font-size: 16px;"">J = YES &nbsp;&nbsp;&nbsp; F = NO</p>
        ","f","html-keyboard-response","217","2.1.0","423485","J=YES, F=NO","namejq4jm2","1","76","73","80","","","","","","","","","switm","ankle1","pseudoword","pseudoword","f","true","",""
"null","<p style=""font-size: 50px;"">+</p>","null","html-keyboard-response","218","2.1.0","423787","J=YES, F=NO","namejq4jm2","1","76","73","80","","","","","","","","","","","","","","","",""
"null","audio/beep-329314.mp3","null","audio-keyboard-response","219","2.1.0","425322","J=YES, F=NO","namejq4jm2","1","76","73","80","","","","","","","","","","","","","","","",""
"null","audio/sugar1.wav","null","audio-keyboard-response","220","2.1.0","426002","J=YES, F=NO","namejq4jm2","1","76","73","80","","","","","","","","","","","","","","","",""
"null","
          <p id=""word"" style=""font-size: 40px;"">approach</p>
          <p style=""font-size: 16px;"">J = YES &nbsp;&nbsp;&nbsp; F = NO</p>
        ","null","html-keyboard-response","221","2.1.0","427512","J=YES, F=NO","namejq4jm2","1","76","73","80","","","","","","","","","approach","sugar1","unrelated","experimental","j","false","",""
"null","<p style=""font-size: 50px;"">+</p>","null","html-keyboard-response","222","2.1.0","427820","J=YES, F=NO","namejq4jm2","1","76","73","80","","","","","","","","","","","","","","","",""
"null","audio/beep-329314.mp3","null","audio-keyboard-response","223","2.1.0","429342","J=YES, F=NO","namejq4jm2","1","76","73","80","","","","","","","","","","","","","","","",""
"null","audio/emotion.wav","null","audio-keyboard-response","224","2.1.0","430042","J=YES, F=NO","namejq4jm2","1","76","73","80","","","","","","","","","","","","","","","",""
"833","
          <p id=""word"" style=""font-size: 40px;"">devering</p>
          <p style=""font-size: 16px;"">J = YES &nbsp;&nbsp;&nbsp; F = NO</p>
        ","j","html-keyboard-response","225","2.1.0","430875","J=YES, F=NO","namejq4jm2","1","76","73","80","","","","","","","","","devering","emotion","pseudoword","pseudoword","f","false","",""
"null","<p style=""font-size: 50px;"">+</p>","null","html-keyboard-response","226","2.1.0","431188","J=YES, F=NO","namejq4jm2","1","76","73","80","","","","","","","","","","","","","","","",""
"null","audio/beep-329314.mp3","null","audio-keyboard-response","227","2.1.0","432722","J=YES, F=NO","namejq4jm2","1","76","73","80","","","","","","","","","","","","","","","",""
"null","audio/pine.wav","null","audio-keyboard-response","228","2.1.0","433222","J=YES, F=NO","namejq4jm2","1","76","73","80","","","","","","","","","","","","","","","",""
"1096","
          <p id=""word"" style=""font-size: 40px;"">crebble</p>
          <p style=""font-size: 16px;"">J = YES &nbsp;&nbsp;&nbsp; F = NO</p>
        ","f","html-keyboard-response","229","2.1.0","434318","J=YES, F=NO","namejq4jm2","1","76","73","80","","","","","","","","","crebble","pine","pseudoword","pseudoword","f","true","",""
"9313","<p>Excellent! You have finished block 1 of 8.</p>
                     <p>Feel free to take a 30 second break.</p>
                     <p>Press any key when you're ready to continue.</p>","j","html-keyboard-response","230","2.1.0","443631","J=YES, F=NO","namejq4jm2","1","76","73","80","","","","","","","","","","","","","","","",""
"1267","<p>Starting main block 2 of 8. Press any key to continue.</p>","j","html-keyboard-response","231","2.1.0","444898","J=YES, F=NO","namejq4jm2","1","76","73","80","","","","","","","","","","","","","","","",""
"null","<p style=""font-size: 50px;"">+</p>","null","html-keyboard-response","232","2.1.0","445205","J=YES, F=NO","namejq4jm2","1","76","73","80","","","","","","","","","","","","","","","",""
"null","audio/beep-329314.mp3","null","audio-keyboard-response","233","2.1.0","446704","J=YES, F=NO","namejq4jm2","1","76","73","80","","","","","","","","","","","","","","","",""
"null","audio/hawk1.wav","null","audio-keyboard-response","234","2.1.0","447454","J=YES, F=NO","namejq4jm2","1","76","73","80","","","","","","","","","","","","","","","",""
"582","
          <p id=""word"" style=""font-size: 40px;"">wipe</p>
          <p style=""font-size: 16px;"">J = YES &nbsp;&nbsp;&nbsp; F = NO</p>
        ","j","html-keyboard-response","235","2.1.0","448036","J=YES, F=NO","namejq4jm2","1","76","73","80","","","","","","","","","wipe","hawk1","unrelated","experimental","j","true","",""
"null","<p style=""font-size: 50px;"">+</p>","null","html-keyboard-response","236","2.1.0","448349","J=YES, F=NO","namejq4jm2","1","76","73","80","","","","","","","","","","","","","","","",""
"null","audio/beep-329314.mp3","null","audio-keyboard-response","237","2.1.0","449884","J=YES, F=NO","namejq4jm2","1","76","73","80","","","","","","","","","","","","","","","",""
"null","audio/plot1.wav","null","audio-keyboard-response","238","2.1.0","450435","J=YES, F=NO","namejq4jm2","1","76","73","80","","","","","","","","","","","","","","","",""
"746","
          <p id=""word"" style=""font-size: 40px;"">glenter</p>
          <p style=""font-size: 16px;"">J = YES &nbsp;&nbsp;&nbsp; F = NO</p>
        ","f","html-keyboard-response","239","2.1.0","451181","J=YES, F=NO","namejq4jm2","1","76","73","80","","","","","","","","","glenter","plot1","pseudoword","pseudoword","f","true","",""
"null","<p style=""font-size: 50px;"">+</p>","null","html-keyboard-response","240","2.1.0","451493","J=YES, F=NO","namejq4jm2","1","76","73","80","","","","","","","","","","","","","","","",""
"null","audio/beep-329314.mp3","null","audio-keyboard-response","241","2.1.0","453024","J=YES, F=NO","namejq4jm2","1","76","73","80","","","","","","","","","","","","","","","",""
"null","audio/client1.wav","null","audio-keyboard-response","242","2.1.0","453714","J=YES, F=NO","namejq4jm2","1","76","73","80","","","","","","","","","","","","","","","",""
"597","
          <p id=""word"" style=""font-size: 40px;"">land</p>
          <p style=""font-size: 16px;"">J = YES &nbsp;&nbsp;&nbsp; F = NO</p>
        ","j","html-keyboard-response","243","2.1.0","454312","J=YES, F=NO","namejq4jm2","1","76","73","80","","","","","","","","","land","client1","metaphor","experimental","j","true","",""
"null","<p style=""font-size: 50px;"">+</p>","null","html-keyboard-response","244","2.1.0","454627","J=YES, F=NO","namejq4jm2","1","76","73","80","","","","","","","","","","","","","","","",""
"null","audio/beep-329314.mp3","null","audio-keyboard-response","245","2.1.0","456164","J=YES, F=NO","namejq4jm2","1","76","73","80","","","","","","","","","","","","","","","",""
"null","audio/dome.wav","null","audio-keyboard-response","246","2.1.0","456614","J=YES, F=NO","namejq4jm2","1","76","73","80","","","","","","","","","","","","","","","",""
"544","
          <p id=""word"" style=""font-size: 40px;"">feed</p>
          <p style=""font-size: 16px;"">J = YES &nbsp;&nbsp;&nbsp; F = NO</p>
        ","j","html-keyboard-response","247","2.1.0","457159","J=YES, F=NO","namejq4jm2","1","76","73","80","","","","","","","","","feed","dome","unrelated","experimental","j","true","",""
"null","<p style=""font-size: 50px;"">+</p>","null","html-keyboard-response","248","2.1.0","457460","J=YES, F=NO","namejq4jm2","1","76","73","80","","","","","","","","","","","","","","","",""
"null","audio/beep-329314.mp3","null","audio-keyboard-response","249","2.1.0","458985","J=YES, F=NO","namejq4jm2","1","76","73","80","","","","","","","","","","","","","","","",""
"null","audio/show.wav","null","audio-keyboard-response","250","2.1.0","459694","J=YES, F=NO","namejq4jm2","1","76","73","80","","","","","","","","","","","","","","","",""
"884","
          <p id=""word"" style=""font-size: 40px;"">smark</p>
          <p style=""font-size: 16px;"">J = YES &nbsp;&nbsp;&nbsp; F = NO</p>
        ","j","html-keyboard-response","251","2.1.0","460578","J=YES, F=NO","namejq4jm2","1","76","73","80","","","","","","","","","smark","show","pseudoword","pseudoword","f","false","",""
"null","<p style=""font-size: 50px;"">+</p>","null","html-keyboard-response","252","2.1.0","460885","J=YES, F=NO","namejq4jm2","1","76","73","80","","","","","","","","","","","","","","","",""
"null","audio/beep-329314.mp3","null","audio-keyboard-response","253","2.1.0","462424","J=YES, F=NO","namejq4jm2","1","76","73","80","","","","","","","","","","","","","","","",""
"null","audio/cloud1.wav","null","audio-keyboard-response","254","2.1.0","463154","J=YES, F=NO","namejq4jm2","1","76","73","80","","","","","","","","","","","","","","","",""
"531","
          <p id=""word"" style=""font-size: 40px;"">scrap</p>
          <p style=""font-size: 16px;"">J = YES &nbsp;&nbsp;&nbsp; F = NO</p>
        ","j","html-keyboard-response","255","2.1.0","463685","J=YES, F=NO","namejq4jm2","1","76","73","80","","","","","","","","","scrap","cloud1","unrelated","experimental","j","true","",""
"null","<p style=""font-size: 50px;"">+</p>","null","html-keyboard-response","256","2.1.0","464001","J=YES, F=NO","namejq4jm2","1","76","73","80","","","","","","","","","","","","","","","",""
"null","audio/beep-329314.mp3","null","audio-keyboard-response","257","2.1.0","465524","J=YES, F=NO","namejq4jm2","1","76","73","80","","","","","","","","","","","","","","","",""
"null","audio/trust.wav","null","audio-keyboard-response","258","2.1.0","466154","J=YES, F=NO","namejq4jm2","1","76","73","80","","","","","","","","","","","","","","","",""
"455","
          <p id=""word"" style=""font-size: 40px;"">build</p>
          <p style=""font-size: 16px;"">J = YES &nbsp;&nbsp;&nbsp; F = NO</p>
        ","j","html-keyboard-response","259","2.1.0","466610","J=YES, F=NO","namejq4jm2","1","76","73","80","","","","","","","","","build","trust","metaphor","experimental","j","true","",""
"null","<p style=""font-size: 50px;"">+</p>","null","html-keyboard-response","260","2.1.0","466918","J=YES, F=NO","namejq4jm2","1","76","73","80","","","","","","","","","","","","","","","",""
"null","audio/beep-329314.mp3","null","audio-keyboard-response","261","2.1.0","468444","J=YES, F=NO","namejq4jm2","1","76","73","80","","","","","","","","","","","","","","","",""
"null","audio/table1.wav","null","audio-keyboard-response","262","2.1.0","468955","J=YES, F=NO","namejq4jm2","1","76","73","80","","","","","","","","","","","","","","","",""
"662","
          <p id=""word"" style=""font-size: 40px;"">stimb</p>
          <p style=""font-size: 16px;"">J = YES &nbsp;&nbsp;&nbsp; F = NO</p>
        ","f","html-keyboard-response","263","2.1.0","469617","J=YES, F=NO","namejq4jm2","1","76","73","80","","","","","","","","","stimb","table1","pseudoword","pseudoword","f","true","",""
"null","<p style=""font-size: 50px;"">+</p>","null","html-keyboard-response","264","2.1.0","469932","J=YES, F=NO","namejq4jm2","1","76","73","80","","","","","","","","","","","","","","","",""
"null","audio/beep-329314.mp3","null","audio-keyboard-response","265","2.1.0","471464","J=YES, F=NO","namejq4jm2","1","76","73","80","","","","","","","","","","","","","","","",""
"null","audio/empire.wav","null","audio-keyboard-response","266","2.1.0","472274","J=YES, F=NO","namejq4jm2","1","76","73","80","","","","","","","","","","","","","","","",""
"533","
          <p id=""word"" style=""font-size: 40px;"">bring</p>
          <p style=""font-size: 16px;"">J = YES &nbsp;&nbsp;&nbsp; F = NO</p>
        ","j","html-keyboard-response","267","2.1.0","472807","J=YES, F=NO","namejq4jm2","1","76","73","80","","","","","","","","","bring","empire","unrelated","experimental","j","true","",""
"null","<p style=""font-size: 50px;"">+</p>","null","html-keyboard-response","268","2.1.0","473115","J=YES, F=NO","namejq4jm2","1","76","73","80","","","","","","","","","","","","","","","",""
"null","audio/beep-329314.mp3","null","audio-keyboard-response","269","2.1.0","474644","J=YES, F=NO","namejq4jm2","1","76","73","80","","","","","","","","","","","","","","","",""
"null","audio/cave1.wav","null","audio-keyboard-response","270","2.1.0","475374","J=YES, F=NO","namejq4jm2","1","76","73","80","","","","","","","","","","","","","","","",""
"914","
          <p id=""word"" style=""font-size: 40px;"">blacket</p>
          <p style=""font-size: 16px;"">J = YES &nbsp;&nbsp;&nbsp; F = NO</p>
        ","j","html-keyboard-response","271","2.1.0","476288","J=YES, F=NO","namejq4jm2","1","76","73","80","","","","","","","","","blacket","cave1","pseudoword","pseudoword","f","false","",""
"null","<p style=""font-size: 50px;"">+</p>","null","html-keyboard-response","272","2.1.0","476600","J=YES, F=NO","namejq4jm2","1","76","73","80","","","","","","","","","","","","","","","",""
"null","audio/beep-329314.mp3","null","audio-keyboard-response","273","2.1.0","478124","J=YES, F=NO","namejq4jm2","1","76","73","80","","","","","","","","","","","","","","","",""
"null","audio/terrain.wav","null","audio-keyboard-response","274","2.1.0","478734","J=YES, F=NO","namejq4jm2","1","76","73","80","","","","","","","","","","","","","","","",""
"624","
          <p id=""word"" style=""font-size: 40px;"">navigate</p>
          <p style=""font-size: 16px;"">J = YES &nbsp;&nbsp;&nbsp; F = NO</p>
        ","j","html-keyboard-response","275","2.1.0","479358","J=YES, F=NO","namejq4jm2","1","76","73","80","","","","","","","","","navigate","terrain","literal","experimental","j","true","",""
"null","<p style=""font-size: 50px;"">+</p>","null","html-keyboard-response","276","2.1.0","479659","J=YES, F=NO","namejq4jm2","1","76","73","80","","","","","","","","","","","","","","","",""
"null","audio/beep-329314.mp3","null","audio-keyboard-response","277","2.1.0","481184","J=YES, F=NO","namejq4jm2","1","76","73","80","","","","","","","","","","","","","","","",""
"null","audio/weight1.wav","null","audio-keyboard-response","278","2.1.0","481774","J=YES, F=NO","namejq4jm2","1","76","73","80","","","","","","","","","","","","","","","",""
"690","
          <p id=""word"" style=""font-size: 40px;"">crimsh</p>
          <p style=""font-size: 16px;"">J = YES &nbsp;&nbsp;&nbsp; F = NO</p>
        ","f","html-keyboard-response","279","2.1.0","482464","J=YES, F=NO","namejq4jm2","1","76","73","80","","","","","","","","","crimsh","weight1","pseudoword","pseudoword","f","true","",""
"null","<p style=""font-size: 50px;"">+</p>","null","html-keyboard-response","280","2.1.0","482779","J=YES, F=NO","namejq4jm2","1","76","73","80","","","","","","","","","","","","","","","",""
"null","audio/beep-329314.mp3","null","audio-keyboard-response","281","2.1.0","484304","J=YES, F=NO","namejq4jm2","1","76","73","80","","","","","","","","","","","","","","","",""
"null","audio/theory1.wav","null","audio-keyboard-response","282","2.1.0","484954","J=YES, F=NO","namejq4jm2","1","76","73","80","","","","","","","","","","","","","","","",""
"914","
          <p id=""word"" style=""font-size: 40px;"">scolve</p>
          <p style=""font-size: 16px;"">J = YES &nbsp;&nbsp;&nbsp; F = NO</p>
        ","j","html-keyboard-response","283","2.1.0","485869","J=YES, F=NO","namejq4jm2","1","76","73","80","","","","","","","","","scolve","theory1","pseudoword","pseudoword","f","false","",""
"null","<p style=""font-size: 50px;"">+</p>","null","html-keyboard-response","284","2.1.0","486174","J=YES, F=NO","namejq4jm2","1","76","73","80","","","","","","","","","","","","","","","",""
"null","audio/beep-329314.mp3","null","audio-keyboard-response","285","2.1.0","487704","J=YES, F=NO","namejq4jm2","1","76","73","80","","","","","","","","","","","","","","","",""
"null","audio/burden.wav","null","audio-keyboard-response","286","2.1.0","488234","J=YES, F=NO","namejq4jm2","1","76","73","80","","","","","","","","","","","","","","","",""
"619","
          <p id=""word"" style=""font-size: 40px;"">whotth</p>
          <p style=""font-size: 16px;"">J = YES &nbsp;&nbsp;&nbsp; F = NO</p>
        ","f","html-keyboard-response","287","2.1.0","488853","J=YES, F=NO","namejq4jm2","1","76","73","80","","","","","","","","","whotth","burden","pseudoword","pseudoword","f","true","",""
"null","<p style=""font-size: 50px;"">+</p>","null","html-keyboard-response","288","2.1.0","489168","J=YES, F=NO","namejq4jm2","1","76","73","80","","","","","","","","","","","","","","","",""
"null","audio/beep-329314.mp3","null","audio-keyboard-response","289","2.1.0","490704","J=YES, F=NO","namejq4jm2","1","76","73","80","","","","","","","","","","","","","","","",""
"null","audio/window1.wav","null","audio-keyboard-response","290","2.1.0","491334","J=YES, F=NO","namejq4jm2","1","76","73","80","","","","","","","","","","","","","","","",""
"535","
          <p id=""word"" style=""font-size: 40px;"">break</p>
          <p style=""font-size: 16px;"">J = YES &nbsp;&nbsp;&nbsp; F = NO</p>
        ","j","html-keyboard-response","291","2.1.0","491870","J=YES, F=NO","namejq4jm2","1","76","73","80","","","","","","","","","break","window1","literal","experimental","j","true","",""
"null","<p style=""font-size: 50px;"">+</p>","null","html-keyboard-response","292","2.1.0","492173","J=YES, F=NO","namejq4jm2","1","76","73","80","","","","","","","","","","","","","","","",""
"null","audio/beep-329314.mp3","null","audio-keyboard-response","293","2.1.0","493704","J=YES, F=NO","namejq4jm2","1","76","73","80","","","","","","","","","","","","","","","",""
"null","audio/pride1.wav","null","audio-keyboard-response","294","2.1.0","494274","J=YES, F=NO","namejq4jm2","1","76","73","80","","","","","","","","","","","","","","","",""
"534","
          <p id=""word"" style=""font-size: 40px;"">hurt</p>
          <p style=""font-size: 16px;"">J = YES &nbsp;&nbsp;&nbsp; F = NO</p>
        ","j","html-keyboard-response","295","2.1.0","494808","J=YES, F=NO","namejq4jm2","1","76","73","80","","","","","","","","","hurt","pride1","metaphor","experimental","j","true","",""
"946","<p>Excellent! You have finished block 2 of 8.</p>
                     <p>Feel free to take a 30 second break.</p>
                     <p>Press any key when you're ready to continue.</p>","j","html-keyboard-response","296","2.1.0","495754","J=YES, F=NO","namejq4jm2","1","76","73","80","","","","","","","","","","","","","","","",""
"526","<p>Starting main block 3 of 8. Press any key to continue.</p>","j","html-keyboard-response","297","2.1.0","496281","J=YES, F=NO","namejq4jm2","1","76","73","80","","","","","","","","","","","","","","","",""
"null","<p style=""font-size: 50px;"">+</p>","null","html-keyboard-response","298","2.1.0","496584","J=YES, F=NO","namejq4jm2","1","76","73","80","","","","","","","","","","","","","","","",""
"null","audio/beep-329314.mp3","null","audio-keyboard-response","299","2.1.0","498125","J=YES, F=NO","namejq4jm2","1","76","73","80","","","","","","","","","","","","","","","",""
"null","audio/planet1.wav","null","audio-keyboard-response","300","2.1.0","498714","J=YES, F=NO","namejq4jm2","1","76","73","80","","","","","","","","","","","","","","","",""
"476","
          <p id=""word"" style=""font-size: 40px;"">save</p>
          <p style=""font-size: 16px;"">J = YES &nbsp;&nbsp;&nbsp; F = NO</p>
        ","j","html-keyboard-response","301","2.1.0","499190","J=YES, F=NO","namejq4jm2","1","76","73","80","","","","","","","","","save","planet1","metaphor","experimental","j","true","",""
"null","<p style=""font-size: 50px;"">+</p>","null","html-keyboard-response","302","2.1.0","499498","J=YES, F=NO","namejq4jm2","1","76","73","80","","","","","","","","","","","","","","","",""
"null","audio/beep-329314.mp3","null","audio-keyboard-response","303","2.1.0","501024","J=YES, F=NO","namejq4jm2","1","76","73","80","","","","","","","","","","","","","","","",""
"null","audio/cash1.wav","null","audio-keyboard-response","304","2.1.0","501635","J=YES, F=NO","namejq4jm2","1","76","73","80","","","","","","","","","","","","","","","",""
"678","
          <p id=""word"" style=""font-size: 40px;"">splear</p>
          <p style=""font-size: 16px;"">J = YES &nbsp;&nbsp;&nbsp; F = NO</p>
        ","f","html-keyboard-response","305","2.1.0","502313","J=YES, F=NO","namejq4jm2","1","76","73","80","","","","","","","","","splear","cash1","pseudoword","pseudoword","f","true","",""
"null","<p style=""font-size: 50px;"">+</p>","null","html-keyboard-response","306","2.1.0","502616","J=YES, F=NO","namejq4jm2","1","76","73","80","","","","","","","","","","","","","","","",""
"null","audio/beep-329314.mp3","null","audio-keyboard-response","307","2.1.0","504144","J=YES, F=NO","namejq4jm2","1","76","73","80","","","","","","","","","","","","","","","",""
"null","audio/holiday1.wav","null","audio-keyboard-response","308","2.1.0","504794","J=YES, F=NO","namejq4jm2","1","76","73","80","","","","","","","","","","","","","","","",""
"793","
          <p id=""word"" style=""font-size: 40px;"">drivets</p>
          <p style=""font-size: 16px;"">J = YES &nbsp;&nbsp;&nbsp; F = NO</p>
        ","f","html-keyboard-response","309","2.1.0","505587","J=YES, F=NO","namejq4jm2","1","76","73","80","","","","","","","","","drivets","holiday1","pseudoword","pseudoword","f","true","",""
"null","<p style=""font-size: 50px;"">+</p>","null","html-keyboard-response","310","2.1.0","505894","J=YES, F=NO","namejq4jm2","1","76","73","80","","","","","","","","","","","","","","","",""
"null","audio/beep-329314.mp3","null","audio-keyboard-response","311","2.1.0","507424","J=YES, F=NO","namejq4jm2","1","76","73","80","","","","","","","","","","","","","","","",""
"null","audio/hotel1.wav","null","audio-keyboard-response","312","2.1.0","508214","J=YES, F=NO","namejq4jm2","1","76","73","80","","","","","","","","","","","","","","","",""
"930","
          <p id=""word"" style=""font-size: 40px;"">flanter</p>
          <p style=""font-size: 16px;"">J = YES &nbsp;&nbsp;&nbsp; F = NO</p>
        ","j","html-keyboard-response","313","2.1.0","509144","J=YES, F=NO","namejq4jm2","1","76","73","80","","","","","","","","","flanter","hotel1","pseudoword","pseudoword","f","false","",""
"null","<p style=""font-size: 50px;"">+</p>","null","html-keyboard-response","314","2.1.0","509448","J=YES, F=NO","namejq4jm2","1","76","73","80","","","","","","","","","","","","","","","",""
"null","audio/beep-329314.mp3","null","audio-keyboard-response","315","2.1.0","510984","J=YES, F=NO","namejq4jm2","1","76","73","80","","","","","","","","","","","","","","","",""
"null","audio/heart1.wav","null","audio-keyboard-response","316","2.1.0","511674","J=YES, F=NO","namejq4jm2","1","76","73","80","","","","","","","","","","","","","","","",""
"761","
          <p id=""word"" style=""font-size: 40px;"">dralm</p>
          <p style=""font-size: 16px;"">J = YES &nbsp;&nbsp;&nbsp; F = NO</p>
        ","f","html-keyboard-response","317","2.1.0","512435","J=YES, F=NO","namejq4jm2","1","76","73","80","","","","","","","","","dralm","heart1","pseudoword","pseudoword","f","true","",""
"null","<p style=""font-size: 50px;"">+</p>","null","html-keyboard-response","318","2.1.0","512747","J=YES, F=NO","namejq4jm2","1","76","73","80","","","","","","","","","","","","","","","",""
"null","audio/beep-329314.mp3","null","audio-keyboard-response","319","2.1.0","514284","J=YES, F=NO","namejq4jm2","1","76","73","80","","","","","","","","","","","","","","","",""
"null","audio/survey1.wav","null","audio-keyboard-response","320","2.1.0","515034","J=YES, F=NO","namejq4jm2","1","76","73","80","","","","","","","","","","","","","","","",""
"980","
          <p id=""word"" style=""font-size: 40px;"">imploth</p>
          <p style=""font-size: 16px;"">J = YES &nbsp;&nbsp;&nbsp; F = NO</p>
        ","j","html-keyboard-response","321","2.1.0","516015","J=YES, F=NO","namejq4jm2","1","76","73","80","","","","","","","","","imploth","survey1","pseudoword","pseudoword","f","false","",""
"null","<p style=""font-size: 50px;"">+</p>","null","html-keyboard-response","322","2.1.0","516330","J=YES, F=NO","namejq4jm2","1","76","73","80","","","","","","","","","","","","","","","",""
"null","audio/beep-329314.mp3","null","audio-keyboard-response","323","2.1.0","517864","J=YES, F=NO","namejq4jm2","1","76","73","80","","","","","","","","","","","","","","","",""
"null","audio/voice.wav","null","audio-keyboard-response","324","2.1.0","518494","J=YES, F=NO","namejq4jm2","1","76","73","80","","","","","","","","","","","","","","","",""
"948","
          <p id=""word"" style=""font-size: 40px;"">grintle</p>
          <p style=""font-size: 16px;"">J = YES &nbsp;&nbsp;&nbsp; F = NO</p>
        ","f","html-keyboard-response","325","2.1.0","519442","J=YES, F=NO","namejq4jm2","1","76","73","80","","","","","","","","","grintle","voice","pseudoword","pseudoword","f","true","",""
"null","<p style=""font-size: 50px;"">+</p>","null","html-keyboard-response","326","2.1.0","519748","J=YES, F=NO","namejq4jm2","1","76","73","80","","","","","","","","","","","","","","","",""
"null","audio/beep-329314.mp3","null","audio-keyboard-response","327","2.1.0","521284","J=YES, F=NO","namejq4jm2","1","76","73","80","","","","","","","","","","","","","","","",""
"null","audio/pizza1.wav","null","audio-keyboard-response","328","2.1.0","522034","J=YES, F=NO","namejq4jm2","1","76","73","80","","","","","","","","","","","","","","","",""
"798","
          <p id=""word"" style=""font-size: 40px;"">devour</p>
          <p style=""font-size: 16px;"">J = YES &nbsp;&nbsp;&nbsp; F = NO</p>
        ","j","html-keyboard-response","329","2.1.0","522832","J=YES, F=NO","namejq4jm2","1","76","73","80","","","","","","","","","devour","pizza1","literal","experimental","j","true","",""
"null","<p style=""font-size: 50px;"">+</p>","null","html-keyboard-response","330","2.1.0","523134","J=YES, F=NO","namejq4jm2","1","76","73","80","","","","","","","","","","","","","","","",""
"null","audio/beep-329314.mp3","null","audio-keyboard-response","331","2.1.0","524664","J=YES, F=NO","namejq4jm2","1","76","73","80","","","","","","","","","","","","","","","",""
"null","audio/pig.wav","null","audio-keyboard-response","332","2.1.0","525054","J=YES, F=NO","namejq4jm2","1","76","73","80","","","","","","","","","","","","","","","",""
"716","
          <p id=""word"" style=""font-size: 40px;"">tirlike</p>
          <p style=""font-size: 16px;"">J = YES &nbsp;&nbsp;&nbsp; F = NO</p>
        ","f","html-keyboard-response","333","2.1.0","525770","J=YES, F=NO","namejq4jm2","1","76","73","80","","","","","","","","","tirlike","pig","pseudoword","pseudoword","f","true","",""
"null","<p style=""font-size: 50px;"">+</p>","null","html-keyboard-response","334","2.1.0","526077","J=YES, F=NO","namejq4jm2","1","76","73","80","","","","","","","","","","","","","","","",""
"null","audio/beep-329314.mp3","null","audio-keyboard-response","335","2.1.0","527604","J=YES, F=NO","namejq4jm2","1","76","73","80","","","","","","","","","","","","","","","",""
"null","audio/cash1.wav","null","audio-keyboard-response","336","2.1.0","528154","J=YES, F=NO","namejq4jm2","1","76","73","80","","","","","","","","","","","","","","","",""
"486","
          <p id=""word"" style=""font-size: 40px;"">invest</p>
          <p style=""font-size: 16px;"">J = YES &nbsp;&nbsp;&nbsp; F = NO</p>
        ","j","html-keyboard-response","337","2.1.0","528641","J=YES, F=NO","namejq4jm2","1","76","73","80","","","","","","","","","invest","cash1","literal","experimental","j","true","",""
"null","<p style=""font-size: 50px;"">+</p>","null","html-keyboard-response","338","2.1.0","528950","J=YES, F=NO","namejq4jm2","1","76","73","80","","","","","","","","","","","","","","","",""
"null","audio/beep-329314.mp3","null","audio-keyboard-response","339","2.1.0","530484","J=YES, F=NO","namejq4jm2","1","76","73","80","","","","","","","","","","","","","","","",""
"null","audio/news.wav","null","audio-keyboard-response","340","2.1.0","531154","J=YES, F=NO","namejq4jm2","1","76","73","80","","","","","","","","","","","","","","","",""
"929","
          <p id=""word"" style=""font-size: 40px;"">digest</p>
          <p style=""font-size: 16px;"">J = YES &nbsp;&nbsp;&nbsp; F = NO</p>
        ","j","html-keyboard-response","341","2.1.0","532083","J=YES, F=NO","namejq4jm2","1","76","73","80","","","","","","","","","digest","news","metaphor","experimental","j","true","",""
"null","<p style=""font-size: 50px;"">+</p>","null","html-keyboard-response","342","2.1.0","532390","J=YES, F=NO","namejq4jm2","1","76","73","80","","","","","","","","","","","","","","","",""
"null","audio/beep-329314.mp3","null","audio-keyboard-response","343","2.1.0","533924","J=YES, F=NO","namejq4jm2","1","76","73","80","","","","","","","","","","","","","","","",""
"null","audio/purpose.wav","null","audio-keyboard-response","344","2.1.0","534594","J=YES, F=NO","namejq4jm2","1","76","73","80","","","","","","","","","","","","","","","",""
"521","
          <p id=""word"" style=""font-size: 40px;"">defeat</p>
          <p style=""font-size: 16px;"">J = YES &nbsp;&nbsp;&nbsp; F = NO</p>
        ","j","html-keyboard-response","345","2.1.0","535115","J=YES, F=NO","namejq4jm2","1","76","73","80","","","","","","","","","defeat","purpose","metaphor","experimental","j","true","",""
"null","<p style=""font-size: 50px;"">+</p>","null","html-keyboard-response","346","2.1.0","535425","J=YES, F=NO","namejq4jm2","1","76","73","80","","","","","","","","","","","","","","","",""
"null","audio/beep-329314.mp3","null","audio-keyboard-response","347","2.1.0","536964","J=YES, F=NO","namejq4jm2","1","76","73","80","","","","","","","","","","","","","","","",""
"null","audio/road.wav","null","audio-keyboard-response","348","2.1.0","537414","J=YES, F=NO","namejq4jm2","1","76","73","80","","","","","","","","","","","","","","","",""
"684","
          <p id=""word"" style=""font-size: 40px;"">wappings</p>
          <p style=""font-size: 16px;"">J = YES &nbsp;&nbsp;&nbsp; F = NO</p>
        ","f","html-keyboard-response","349","2.1.0","538098","J=YES, F=NO","namejq4jm2","1","76","73","80","","","","","","","","","wappings","road","pseudoword","pseudoword","f","true","",""
"null","<p style=""font-size: 50px;"">+</p>","null","html-keyboard-response","350","2.1.0","538402","J=YES, F=NO","namejq4jm2","1","76","73","80","","","","","","","","","","","","","","","",""
"null","audio/beep-329314.mp3","null","audio-keyboard-response","351","2.1.0","539924","J=YES, F=NO","namejq4jm2","1","76","73","80","","","","","","","","","","","","","","","",""
"null","audio/prisoner.wav","null","audio-keyboard-response","352","2.1.0","540454","J=YES, F=NO","namejq4jm2","1","76","73","80","","","","","","","","","","","","","","","",""
"606","
          <p id=""word"" style=""font-size: 40px;"">egotian</p>
          <p style=""font-size: 16px;"">J = YES &nbsp;&nbsp;&nbsp; F = NO</p>
        ","j","html-keyboard-response","353","2.1.0","541061","J=YES, F=NO","namejq4jm2","1","76","73","80","","","","","","","","","egotian","prisoner","pseudoword","pseudoword","f","false","",""
"null","<p style=""font-size: 50px;"">+</p>","null","html-keyboard-response","354","2.1.0","541375","J=YES, F=NO","namejq4jm2","1","76","73","80","","","","","","","","","","","","","","","",""
"null","audio/beep-329314.mp3","null","audio-keyboard-response","355","2.1.0","542904","J=YES, F=NO","namejq4jm2","1","76","73","80","","","","","","","","","","","","","","","",""
"null","audio/camera1.wav","null","audio-keyboard-response","356","2.1.0","543454","J=YES, F=NO","namejq4jm2","1","76","73","80","","","","","","","","","","","","","","","",""
"583","
          <p id=""word"" style=""font-size: 40px;"">stir</p>
          <p style=""font-size: 16px;"">J = YES &nbsp;&nbsp;&nbsp; F = NO</p>
        ","j","html-keyboard-response","357","2.1.0","544037","J=YES, F=NO","namejq4jm2","1","76","73","80","","","","","","","","","stir","camera1","filler","filler","j","true","",""
"null","<p style=""font-size: 50px;"">+</p>","null","html-keyboard-response","358","2.1.0","544346","J=YES, F=NO","namejq4jm2","1","76","73","80","","","","","","","","","","","","","","","",""
"null","audio/beep-329314.mp3","null","audio-keyboard-response","359","2.1.0","545884","J=YES, F=NO","namejq4jm2","1","76","73","80","","","","","","","","","","","","","","","",""
"null","audio/grass.wav","null","audio-keyboard-response","360","2.1.0","546595","J=YES, F=NO","namejq4jm2","1","76","73","80","","","","","","","","","","","","","","","",""
"603","
          <p id=""word"" style=""font-size: 40px;"">milames</p>
          <p style=""font-size: 16px;"">J = YES &nbsp;&nbsp;&nbsp; F = NO</p>
        ","f","html-keyboard-response","361","2.1.0","547199","J=YES, F=NO","namejq4jm2","1","76","73","80","","","","","","","","","milames","grass","pseudoword","pseudoword","f","true","",""
"1037","<p>Excellent! You have finished block 3 of 8.</p>
                     <p>Feel free to take a 30 second break.</p>
                     <p>Press any key when you're ready to continue.</p>","j","html-keyboard-response","362","2.1.0","548237","J=YES, F=NO","namejq4jm2","1","76","73","80","","","","","","","","","","","","","","","",""
"482","<p>Starting main block 4 of 8. Press any key to continue.</p>","j","html-keyboard-response","363","2.1.0","548719","J=YES, F=NO","namejq4jm2","1","76","73","80","","","","","","","","","","","","","","","",""
"null","<p style=""font-size: 50px;"">+</p>","null","html-keyboard-response","364","2.1.0","549021","J=YES, F=NO","namejq4jm2","1","76","73","80","","","","","","","","","","","","","","","",""
"null","audio/beep-329314.mp3","null","audio-keyboard-response","365","2.1.0","550544","J=YES, F=NO","namejq4jm2","1","76","73","80","","","","","","","","","","","","","","","",""
"null","audio/baby.wav","null","audio-keyboard-response","366","2.1.0","551054","J=YES, F=NO","namejq4jm2","1","76","73","80","","","","","","","","","","","","","","","",""
"556","
          <p id=""word"" style=""font-size: 40px;"">lift</p>
          <p style=""font-size: 16px;"">J = YES &nbsp;&nbsp;&nbsp; F = NO</p>
        ","j","html-keyboard-response","367","2.1.0","551611","J=YES, F=NO","namejq4jm2","1","76","73","80","","","","","","","","","lift","baby","filler","filler","j","true","",""
"null","<p style=""font-size: 50px;"">+</p>","null","html-keyboard-response","368","2.1.0","551918","J=YES, F=NO","namejq4jm2","1","76","73","80","","","","","","","","","","","","","","","",""
"null","audio/beep-329314.mp3","null","audio-keyboard-response","369","2.1.0","553445","J=YES, F=NO","namejq4jm2","1","76","73","80","","","","","","","","","","","","","","","",""
"null","audio/strength.wav","null","audio-keyboard-response","370","2.1.0","554195","J=YES, F=NO","namejq4jm2","1","76","73","80","","","","","","","","","","","","","","","",""
"636","
          <p id=""word"" style=""font-size: 40px;"">plabet</p>
          <p style=""font-size: 16px;"">J = YES &nbsp;&nbsp;&nbsp; F = NO</p>
        ","f","html-keyboard-response","371","2.1.0","554831","J=YES, F=NO","namejq4jm2","1","76","73","80","","","","","","","","","plabet","strength","pseudoword","pseudoword","f","true","",""
"null","<p style=""font-size: 50px;"">+</p>","null","html-keyboard-response","372","2.1.0","555140","J=YES, F=NO","namejq4jm2","1","76","73","80","","","","","","","","","","","","","","","",""
"null","audio/beep-329314.mp3","null","audio-keyboard-response","373","2.1.0","556664","J=YES, F=NO","namejq4jm2","1","76","73","80","","","","","","","","","","","","","","","",""
"null","audio/window1.wav","null","audio-keyboard-response","374","2.1.0","557274","J=YES, F=NO","namejq4jm2","1","76","73","80","","","","","","","","","","","","","","","",""
"733","
          <p id=""word"" style=""font-size: 40px;"">toss</p>
          <p style=""font-size: 16px;"">J = YES &nbsp;&nbsp;&nbsp; F = NO</p>
        ","j","html-keyboard-response","375","2.1.0","558008","J=YES, F=NO","namejq4jm2","1","76","73","80","","","","","","","","","toss","window1","filler","filler","j","true","",""
"null","<p style=""font-size: 50px;"">+</p>","null","html-keyboard-response","376","2.1.0","558317","J=YES, F=NO","namejq4jm2","1","76","73","80","","","","","","","","","","","","","","","",""
"null","audio/beep-329314.mp3","null","audio-keyboard-response","377","2.1.0","559844","J=YES, F=NO","namejq4jm2","1","76","73","80","","","","","","","","","","","","","","","",""
"null","audio/camp.wav","null","audio-keyboard-response","378","2.1.0","560394","J=YES, F=NO","namejq4jm2","1","76","73","80","","","","","","","","","","","","","","","",""
"453","
          <p id=""word"" style=""font-size: 40px;"">touch</p>
          <p style=""font-size: 16px;"">J = YES &nbsp;&nbsp;&nbsp; F = NO</p>
        ","j","html-keyboard-response","379","2.1.0","560847","J=YES, F=NO","namejq4jm2","1","76","73","80","","","","","","","","","touch","camp","unrelated","experimental","j","true","",""
"null","<p style=""font-size: 50px;"">+</p>","null","html-keyboard-response","380","2.1.0","561157","J=YES, F=NO","namejq4jm2","1","76","73","80","","","","","","","","","","","","","","","",""
"null","audio/beep-329314.mp3","null","audio-keyboard-response","381","2.1.0","562684","J=YES, F=NO","namejq4jm2","1","76","73","80","","","","","","","","","","","","","","","",""
"null","audio/neck.wav","null","audio-keyboard-response","382","2.1.0","563294","J=YES, F=NO","namejq4jm2","1","76","73","80","","","","","","","","","","","","","","","",""
"606","
          <p id=""word"" style=""font-size: 40px;"">werling</p>
          <p style=""font-size: 16px;"">J = YES &nbsp;&nbsp;&nbsp; F = NO</p>
        ","f","html-keyboard-response","383","2.1.0","563900","J=YES, F=NO","namejq4jm2","1","76","73","80","","","","","","","","","werling","neck","pseudoword","pseudoword","f","true","",""
"null","<p style=""font-size: 50px;"">+</p>","null","html-keyboard-response","384","2.1.0","564215","J=YES, F=NO","namejq4jm2","1","76","73","80","","","","","","","","","","","","","","","",""
"null","audio/beep-329314.mp3","null","audio-keyboard-response","385","2.1.0","565744","J=YES, F=NO","namejq4jm2","1","76","73","80","","","","","","","","","","","","","","","",""
"null","audio/truth1.wav","null","audio-keyboard-response","386","2.1.0","566294","J=YES, F=NO","namejq4jm2","1","76","73","80","","","","","","","","","","","","","","","",""
"499","
          <p id=""word"" style=""font-size: 40px;"">expose</p>
          <p style=""font-size: 16px;"">J = YES &nbsp;&nbsp;&nbsp; F = NO</p>
        ","j","html-keyboard-response","387","2.1.0","566793","J=YES, F=NO","namejq4jm2","1","76","73","80","","","","","","","","","expose","truth1","metaphor","experimental","j","true","",""
"null","<p style=""font-size: 50px;"">+</p>","null","html-keyboard-response","388","2.1.0","567098","J=YES, F=NO","namejq4jm2","1","76","73","80","","","","","","","","","","","","","","","",""
"null","audio/beep-329314.mp3","null","audio-keyboard-response","389","2.1.0","568624","J=YES, F=NO","namejq4jm2","1","76","73","80","","","","","","","","","","","","","","","",""
"null","audio/cloud1.wav","null","audio-keyboard-response","390","2.1.0","569174","J=YES, F=NO","namejq4jm2","1","76","73","80","","","","","","","","","","","","","","","",""
"536","
          <p id=""word"" style=""font-size: 40px;"">brotant</p>
          <p style=""font-size: 16px;"">J = YES &nbsp;&nbsp;&nbsp; F = NO</p>
