"rt","stimulus","response","trial_type","trial_index","plugin_version","time_elapsed","response_mapping","subject_id","list_index","lextale_score","lextale_word_score","lextale_nonword_score","success","timeout","failed_images","failed_audio","failed_video","task","isWord","isDummy","target","prime","prime_type","stimulus_type","correct_response","correct","section","question_order"
"30948","
    <div style=""max-width: 800px; margin: auto; text-align: left;"">
      <h2>STANFORD UNIVERSITY</h2>
      <h3>Research Information Sheet</h3>
      <p><strong>Protocol Director:</strong> Robert Hawkins<br>
      <strong>Protocol Title:</strong> Communication and social cognition in natural audiovisual contexts<br>
      <strong>IRB#:</strong> 77226</p>

      <p><strong>DESCRIPTION:</strong> You are invited to participate in a research study about language and communication. The purpose of the research is to understand how you interact and communicate with other people in naturalistic settings as a fluent English speaker. This research will be conducted through the Prolific platform, including participants from the US, UK, and Canada. If you decide to participate in this research, you will play a communication game in a group with one or more partners.</p>

      <p><strong>TIME INVOLVEMENT:</strong> The task will last the amount of time advertised on Prolific. You are free to withdraw from the study at any time.</p>

      <p><strong>RISKS AND BENEFITS:</strong> You may become frustrated if your partner gets distracted, or experience discomfort if other participants in your group send text that is inappropriate for the task. We ask you to please be respectful of other participants you might be interacting with to mitigate these risks. You may also experience discomfort when being asked to discuss or challenge emotionally salient political beliefs. Study data will be stored securely, in compliance with Stanford University standards, minimizing the risk of confidentiality breach. This study advances our scientific understanding of how people communicate and collaborate in naturalistic settings. This study may lead to further insights about what can go wrong in teamwork, suggest potential interventions to overcome these barriers, and help to develop assistive technologies that collaborate with human partners. We cannot and do not guarantee or promise that you will receive any benefits from this study.</p>

      <p><strong>PAYMENTS:</strong> You will receive payment in the amount advertised on Prolific. If you do not complete this study, you will receive prorated payment based on the time that you have spent. Additionally, you may be eligible for bonus payments as described in the instructions.</p>

      <p><strong>PARTICIPANT’S RIGHTS:</strong> If you have read this form and have decided to participate in this project, please understand your participation is voluntary and you have the right to withdraw your consent or discontinue participation at any time without penalty or loss of benefits to which you are otherwise entitled. The alternative is not to participate. You have the right to refuse to answer particular questions. The results of this research study may be presented at scientific or professional meetings or published in scientific journals. Your individual privacy will be maintained in all published and written data resulting from the study. In accordance with scientific norms, the data from this study may be used or shared with other researchers for future research (after removing personally identifying information) without additional consent from you.</p>

      <p><strong>CONTACT INFORMATION:</strong><br>
      Questions: If you have any questions, concerns or complaints about this research, its procedures, risks and benefits, contact the Protocol Director, Robert Hawkins (<a href=""mailto:rdhawkins@stanford.edu"">rdhawkins@stanford.edu</a>, 217-549-6923).<br>
      Independent Contact: If you are not satisfied with how this study is being conducted, or if you have any concerns, complaints, or general questions about the research or your rights as a participant, please contact the Stanford Institutional Review Board (IRB) to speak to someone independent of the research team at 650-723-2480 or toll free at 1-866-680-2906, or email at <a href=""mailto:irbnon-med@stanford.edu"">irbnon-med@stanford.edu</a>. You can also write to the Stanford IRB, Stanford University, 1705 El Camino Real, Palo Alto, CA 94306.</p>

      <p><strong>Please save or print a copy of this page for your records.</strong></p>
      <p>If you agree to participate in this research, click ""Continue"" below.</p>
    </div>
  ","0","html-button-response","0","2.1.0","31026","J=YES, F=NO","ndovcpb687","2","70","60","80","","","","","","","","","","","","","","","",""
"5238","
    <div style=""max-width: 800px; margin: auto; text-align: left;"">
      <h2>Welcome!</h2>
      <p>Thank you for participating in this study. The experiment consists of three parts:</p>
      <ol>
        <li>An English vocabulary test</li>
        <li>A main task in which you will hear and see words, and decide whether the written word is a real English word</li>
        <li>A brief survey about your background</li>
      </ol>
      <p>Each part will be introduced before it begins.</p>
      <p>Please make sure you are in a quiet environment and can hear audio clearly for the final task.</p>
      <p style=""margin-top: 2em;"">Press any key to begin.</p>
    </div>
  "," ","html-keyboard-response","1","2.1.0","36265","J=YES, F=NO","ndovcpb687","2","70","60","80","","","","","","","","","","","","","","","",""
"","","","preload","2","2.1.0","37576","J=YES, F=NO","ndovcpb687","2","70","60","80","true","false","[]","[]","[]","","","","","","","","","","",""
"4865","
    <div style=""max-width: 800px; margin: auto; text-align: left;"">
      <h2>Part 1: Vocabulary Test</h2>
      <p>You will now complete the first part of the study: a short English vocabulary test.</p>
      <p>This test is called <strong>LexTALE</strong> and helps us get a general sense of your English proficiency.</p>
      <p style=""margin-top: 2em;"">Press any key to continue.</p>
    </div>
  "," ","html-keyboard-response","3","2.1.0","42442","J=YES, F=NO","ndovcpb687","2","70","60","80","","","","","","","","","","","","","","","",""
"13254","
    <div style=""max-width: 800px; margin: auto; text-align: left;"">
      <h2>LexTALE Vocabulary Test</h2>
      <p>In this test, you will see a series of letter strings—one at a time.</p>
      <p>Your task is to decide whether each string is a real English word.</p>
      <p><strong>Key responses:</strong></p>
      <ul>
        <li><strong>J</strong> = YES (real English word)</li>
        <li><strong>F</strong> = NO (not a real English word)</li>
      </ul>
      <p>There is no time limit, but please try to be accurate.</p>
      <p style=""margin-top: 2em;"">Press any key to begin.</p>
    </div>
  "," ","html-keyboard-response","4","2.1.0","55696","J=YES, F=NO","ndovcpb687","2","70","60","80","","","","","","","","","","","","","","","",""
"2896","
  <p style=""font-size: 40px;"">platery</p>
  <p style=""font-size: 16px;"">J = YES &nbsp;&nbsp;&nbsp; F = NO</p>
","j","html-keyboard-response","5","2.1.0","58593","J=YES, F=NO","ndovcpb687","2","70","60","80","","","","","","lextale","false","true","","","","","","","",""
"1909","
  <p style=""font-size: 40px;"">denial</p>
  <p style=""font-size: 16px;"">J = YES &nbsp;&nbsp;&nbsp; F = NO</p>
","j","html-keyboard-response","6","2.1.0","60503","J=YES, F=NO","ndovcpb687","2","70","60","80","","","","","","lextale","true","true","","","","","","","",""
"1976","
  <p style=""font-size: 40px;"">marrit</p>
  <p style=""font-size: 16px;"">J = YES &nbsp;&nbsp;&nbsp; F = NO</p>
","f","html-keyboard-response","7","2.1.0","62479","J=YES, F=NO","ndovcpb687","2","70","60","80","","","","","","lextale","false","true","","","","","","","",""
"1483","
  <p style=""font-size: 40px;"">bottle</p>
  <p style=""font-size: 16px;"">J = YES &nbsp;&nbsp;&nbsp; F = NO</p>
","j","html-keyboard-response","8","2.1.0","63962","J=YES, F=NO","ndovcpb687","2","70","60","80","","","","","","lextale","true","false","","","","","","","",""
"1077","
  <p style=""font-size: 40px;"">birst</p>
  <p style=""font-size: 16px;"">J = YES &nbsp;&nbsp;&nbsp; F = NO</p>
","f","html-keyboard-response","9","2.1.0","65040","J=YES, F=NO","ndovcpb687","2","70","60","80","","","","","","lextale","false","false","","","","","","","",""
"1336","
  <p style=""font-size: 40px;"">envy</p>
  <p style=""font-size: 16px;"">J = YES &nbsp;&nbsp;&nbsp; F = NO</p>
","j","html-keyboard-response","10","2.1.0","66377","J=YES, F=NO","ndovcpb687","2","70","60","80","","","","","","lextale","true","false","","","","","","","",""
"1190","
  <p style=""font-size: 40px;"">brang</p>
  <p style=""font-size: 16px;"">J = YES &nbsp;&nbsp;&nbsp; F = NO</p>
","f","html-keyboard-response","11","2.1.0","67568","J=YES, F=NO","ndovcpb687","2","70","60","80","","","","","","lextale","false","false","","","","","","","",""
"708","
  <p style=""font-size: 40px;"">huge</p>
  <p style=""font-size: 16px;"">J = YES &nbsp;&nbsp;&nbsp; F = NO</p>
","j","html-keyboard-response","12","2.1.0","68276","J=YES, F=NO","ndovcpb687","2","70","60","80","","","","","","lextale","true","false","","","","","","","",""
"898","
  <p style=""font-size: 40px;"">plove</p>
  <p style=""font-size: 16px;"">J = YES &nbsp;&nbsp;&nbsp; F = NO</p>
","f","html-keyboard-response","13","2.1.0","69175","J=YES, F=NO","ndovcpb687","2","70","60","80","","","","","","lextale","false","false","","","","","","","",""
"741","
  <p style=""font-size: 40px;"">border</p>
  <p style=""font-size: 16px;"">J = YES &nbsp;&nbsp;&nbsp; F = NO</p>
","j","html-keyboard-response","14","2.1.0","69916","J=YES, F=NO","ndovcpb687","2","70","60","80","","","","","","lextale","true","false","","","","","","","",""
"1078","
  <p style=""font-size: 40px;"">flimsy</p>
  <p style=""font-size: 16px;"">J = YES &nbsp;&nbsp;&nbsp; F = NO</p>
","f","html-keyboard-response","15","2.1.0","70995","J=YES, F=NO","ndovcpb687","2","70","60","80","","","","","","lextale","true","false","","","","","","","",""
"686","
  <p style=""font-size: 40px;"">drain</p>
  <p style=""font-size: 16px;"">J = YES &nbsp;&nbsp;&nbsp; F = NO</p>
","j","html-keyboard-response","16","2.1.0","71681","J=YES, F=NO","ndovcpb687","2","70","60","80","","","","","","lextale","true","false","","","","","","","",""
"1279","
  <p style=""font-size: 40px;"">twindle</p>
  <p style=""font-size: 16px;"">J = YES &nbsp;&nbsp;&nbsp; F = NO</p>
","f","html-keyboard-response","17","2.1.0","72961","J=YES, F=NO","ndovcpb687","2","70","60","80","","","","","","lextale","false","false","","","","","","","",""
"943","
  <p style=""font-size: 40px;"">propose</p>
  <p style=""font-size: 16px;"">J = YES &nbsp;&nbsp;&nbsp; F = NO</p>
","j","html-keyboard-response","18","2.1.0","73904","J=YES, F=NO","ndovcpb687","2","70","60","80","","","","","","lextale","true","false","","","","","","","",""
"1629","
  <p style=""font-size: 40px;"">forlay</p>
  <p style=""font-size: 16px;"">J = YES &nbsp;&nbsp;&nbsp; F = NO</p>
","f","html-keyboard-response","19","2.1.0","75533","J=YES, F=NO","ndovcpb687","2","70","60","80","","","","","","lextale","false","false","","","","","","","",""
"2212","
  <p style=""font-size: 40px;"">tenant</p>
  <p style=""font-size: 16px;"">J = YES &nbsp;&nbsp;&nbsp; F = NO</p>
","f","html-keyboard-response","20","2.1.0","77746","J=YES, F=NO","ndovcpb687","2","70","60","80","","","","","","lextale","true","false","","","","","","","",""
"718","
  <p style=""font-size: 40px;"">strain</p>
  <p style=""font-size: 16px;"">J = YES &nbsp;&nbsp;&nbsp; F = NO</p>
","j","html-keyboard-response","21","2.1.0","78465","J=YES, F=NO","ndovcpb687","2","70","60","80","","","","","","lextale","true","false","","","","","","","",""
"730","
  <p style=""font-size: 40px;"">holster</p>
  <p style=""font-size: 16px;"">J = YES &nbsp;&nbsp;&nbsp; F = NO</p>
","f","html-keyboard-response","22","2.1.0","79195","J=YES, F=NO","ndovcpb687","2","70","60","80","","","","","","lextale","true","false","","","","","","","",""
"1235","
  <p style=""font-size: 40px;"">hinder</p>
  <p style=""font-size: 16px;"">J = YES &nbsp;&nbsp;&nbsp; F = NO</p>
","j","html-keyboard-response","23","2.1.0","80431","J=YES, F=NO","ndovcpb687","2","70","60","80","","","","","","lextale","true","false","","","","","","","",""
"1201","
  <p style=""font-size: 40px;"">swindle</p>
  <p style=""font-size: 16px;"">J = YES &nbsp;&nbsp;&nbsp; F = NO</p>
","f","html-keyboard-response","24","2.1.0","81633","J=YES, F=NO","ndovcpb687","2","70","60","80","","","","","","lextale","true","false","","","","","","","",""
"830","
  <p style=""font-size: 40px;"">nuder</p>
  <p style=""font-size: 16px;"">J = YES &nbsp;&nbsp;&nbsp; F = NO</p>
","f","html-keyboard-response","25","2.1.0","82464","J=YES, F=NO","ndovcpb687","2","70","60","80","","","","","","lextale","false","false","","","","","","","",""
"651","
  <p style=""font-size: 40px;"">pillow</p>
  <p style=""font-size: 16px;"">J = YES &nbsp;&nbsp;&nbsp; F = NO</p>
","j","html-keyboard-response","26","2.1.0","83115","J=YES, F=NO","ndovcpb687","2","70","60","80","","","","","","lextale","true","false","","","","","","","",""
"1112","
  <p style=""font-size: 40px;"">shumble</p>
  <p style=""font-size: 16px;"">J = YES &nbsp;&nbsp;&nbsp; F = NO</p>
","f","html-keyboard-response","27","2.1.0","84228","J=YES, F=NO","ndovcpb687","2","70","60","80","","","","","","lextale","false","false","","","","","","","",""
"1043","
  <p style=""font-size: 40px;"">thirst</p>
  <p style=""font-size: 16px;"">J = YES &nbsp;&nbsp;&nbsp; F = NO</p>
","j","html-keyboard-response","28","2.1.0","85272","J=YES, F=NO","ndovcpb687","2","70","60","80","","","","","","lextale","true","false","","","","","","","",""
"1481","
  <p style=""font-size: 40px;"">unsail</p>
  <p style=""font-size: 16px;"">J = YES &nbsp;&nbsp;&nbsp; F = NO</p>
","f","html-keyboard-response","29","2.1.0","86754","J=YES, F=NO","ndovcpb687","2","70","60","80","","","","","","lextale","false","false","","","","","","","",""
"931","
  <p style=""font-size: 40px;"">rifle</p>
  <p style=""font-size: 16px;"">J = YES &nbsp;&nbsp;&nbsp; F = NO</p>
","j","html-keyboard-response","30","2.1.0","87686","J=YES, F=NO","ndovcpb687","2","70","60","80","","","","","","lextale","true","false","","","","","","","",""
"596","
  <p style=""font-size: 40px;"">mush</p>
  <p style=""font-size: 16px;"">J = YES &nbsp;&nbsp;&nbsp; F = NO</p>
","j","html-keyboard-response","31","2.1.0","88282","J=YES, F=NO","ndovcpb687","2","70","60","80","","","","","","lextale","false","false","","","","","","","",""
"1067","
  <p style=""font-size: 40px;"">drench</p>
  <p style=""font-size: 16px;"">J = YES &nbsp;&nbsp;&nbsp; F = NO</p>
","f","html-keyboard-response","32","2.1.0","89349","J=YES, F=NO","ndovcpb687","2","70","60","80","","","","","","lextale","true","false","","","","","","","",""
"1357","
  <p style=""font-size: 40px;"">snirt</p>
  <p style=""font-size: 16px;"">J = YES &nbsp;&nbsp;&nbsp; F = NO</p>
","f","html-keyboard-response","33","2.1.0","90707","J=YES, F=NO","ndovcpb687","2","70","60","80","","","","","","lextale","false","false","","","","","","","",""
"618","
  <p style=""font-size: 40px;"">bitter</p>
  <p style=""font-size: 16px;"">J = YES &nbsp;&nbsp;&nbsp; F = NO</p>
","j","html-keyboard-response","34","2.1.0","91325","J=YES, F=NO","ndovcpb687","2","70","60","80","","","","","","lextale","true","false","","","","","","","",""
"819","
  <p style=""font-size: 40px;"">pliff</p>
  <p style=""font-size: 16px;"">J = YES &nbsp;&nbsp;&nbsp; F = NO</p>
","f","html-keyboard-response","35","2.1.0","92145","J=YES, F=NO","ndovcpb687","2","70","60","80","","","","","","lextale","false","false","","","","","","","",""
"573","
  <p style=""font-size: 40px;"">tablet</p>
  <p style=""font-size: 16px;"">J = YES &nbsp;&nbsp;&nbsp; F = NO</p>
","j","html-keyboard-response","36","2.1.0","92718","J=YES, F=NO","ndovcpb687","2","70","60","80","","","","","","lextale","true","false","","","","","","","",""
"1088","
  <p style=""font-size: 40px;"">glimmer</p>
  <p style=""font-size: 16px;"">J = YES &nbsp;&nbsp;&nbsp; F = NO</p>
","j","html-keyboard-response","37","2.1.0","93807","J=YES, F=NO","ndovcpb687","2","70","60","80","","","","","","lextale","true","false","","","","","","","",""
"1606","
  <p style=""font-size: 40px;"">slink</p>
  <p style=""font-size: 16px;"">J = YES &nbsp;&nbsp;&nbsp; F = NO</p>
","j","html-keyboard-response","38","2.1.0","95413","J=YES, F=NO","ndovcpb687","2","70","60","80","","","","","","lextale","true","false","","","","","","","",""
"865","
  <p style=""font-size: 40px;"">clever</p>
  <p style=""font-size: 16px;"">J = YES &nbsp;&nbsp;&nbsp; F = NO</p>
","j","html-keyboard-response","39","2.1.0","96278","J=YES, F=NO","ndovcpb687","2","70","60","80","","","","","","lextale","true","false","","","","","","","",""
"1021","
  <p style=""font-size: 40px;"">grum</p>
  <p style=""font-size: 16px;"">J = YES &nbsp;&nbsp;&nbsp; F = NO</p>
","f","html-keyboard-response","40","2.1.0","97300","J=YES, F=NO","ndovcpb687","2","70","60","80","","","","","","lextale","false","false","","","","","","","",""
"527","
  <p style=""font-size: 40px;"">string</p>
  <p style=""font-size: 16px;"">J = YES &nbsp;&nbsp;&nbsp; F = NO</p>
","j","html-keyboard-response","41","2.1.0","97828","J=YES, F=NO","ndovcpb687","2","70","60","80","","","","","","lextale","true","false","","","","","","","",""
"853","
  <p style=""font-size: 40px;"">plim</p>
  <p style=""font-size: 16px;"">J = YES &nbsp;&nbsp;&nbsp; F = NO</p>
","f","html-keyboard-response","42","2.1.0","98682","J=YES, F=NO","ndovcpb687","2","70","60","80","","","","","","lextale","false","false","","","","","","","",""
"662","
  <p style=""font-size: 40px;"">cable</p>
  <p style=""font-size: 16px;"">J = YES &nbsp;&nbsp;&nbsp; F = NO</p>
","j","html-keyboard-response","43","2.1.0","99344","J=YES, F=NO","ndovcpb687","2","70","60","80","","","","","","lextale","true","false","","","","","","","",""
"1291","
  <p style=""font-size: 40px;"">shrivel</p>
  <p style=""font-size: 16px;"">J = YES &nbsp;&nbsp;&nbsp; F = NO</p>
","f","html-keyboard-response","44","2.1.0","100635","J=YES, F=NO","ndovcpb687","2","70","60","80","","","","","","lextale","true","false","","","","","","","",""
"2065","
  <p style=""font-size: 40px;"">tarnish</p>
  <p style=""font-size: 16px;"">J = YES &nbsp;&nbsp;&nbsp; F = NO</p>
","f","html-keyboard-response","45","2.1.0","102701","J=YES, F=NO","ndovcpb687","2","70","60","80","","","","","","lextale","true","false","","","","","","","",""
"1898","
  <p style=""font-size: 40px;"">blim</p>
  <p style=""font-size: 16px;"">J = YES &nbsp;&nbsp;&nbsp; F = NO</p>
","f","html-keyboard-response","46","2.1.0","104599","J=YES, F=NO","ndovcpb687","2","70","60","80","","","","","","lextale","false","false","","","","","","","",""
"944","
  <p style=""font-size: 40px;"">stifle</p>
  <p style=""font-size: 16px;"">J = YES &nbsp;&nbsp;&nbsp; F = NO</p>
","f","html-keyboard-response","47","2.1.0","105543","J=YES, F=NO","ndovcpb687","2","70","60","80","","","","","","lextale","true","false","","","","","","","",""
"651","
  <p style=""font-size: 40px;"">bint</p>
  <p style=""font-size: 16px;"">J = YES &nbsp;&nbsp;&nbsp; F = NO</p>
","j","html-keyboard-response","48","2.1.0","106195","J=YES, F=NO","ndovcpb687","2","70","60","80","","","","","","lextale","false","false","","","","","","","",""
"752","
  <p style=""font-size: 40px;"">purple</p>
  <p style=""font-size: 16px;"">J = YES &nbsp;&nbsp;&nbsp; F = NO</p>
","j","html-keyboard-response","49","2.1.0","106947","J=YES, F=NO","ndovcpb687","2","70","60","80","","","","","","lextale","true","false","","","","","","","",""
"1113","
  <p style=""font-size: 40px;"">wriggle</p>
  <p style=""font-size: 16px;"">J = YES &nbsp;&nbsp;&nbsp; F = NO</p>
","f","html-keyboard-response","50","2.1.0","108060","J=YES, F=NO","ndovcpb687","2","70","60","80","","","","","","lextale","true","false","","","","","","","",""
"538","
  <p style=""font-size: 40px;"">mangle</p>
  <p style=""font-size: 16px;"">J = YES &nbsp;&nbsp;&nbsp; F = NO</p>
","j","html-keyboard-response","51","2.1.0","108599","J=YES, F=NO","ndovcpb687","2","70","60","80","","","","","","lextale","true","false","","","","","","","",""
"899","
  <p style=""font-size: 40px;"">shramp</p>
  <p style=""font-size: 16px;"">J = YES &nbsp;&nbsp;&nbsp; F = NO</p>
","j","html-keyboard-response","52","2.1.0","109498","J=YES, F=NO","ndovcpb687","2","70","60","80","","","","","","lextale","false","false","","","","","","","",""
"976","
  <p style=""font-size: 40px;"">flirt</p>
  <p style=""font-size: 16px;"">J = YES &nbsp;&nbsp;&nbsp; F = NO</p>
","f","html-keyboard-response","53","2.1.0","110475","J=YES, F=NO","ndovcpb687","2","70","60","80","","","","","","lextale","true","false","","","","","","","",""
"899","
  <p style=""font-size: 40px;"">frip</p>
  <p style=""font-size: 16px;"">J = YES &nbsp;&nbsp;&nbsp; F = NO</p>
","f","html-keyboard-response","54","2.1.0","111374","J=YES, F=NO","ndovcpb687","2","70","60","80","","","","","","lextale","false","false","","","","","","","",""
"561","
  <p style=""font-size: 40px;"">tangle</p>
  <p style=""font-size: 16px;"">J = YES &nbsp;&nbsp;&nbsp; F = NO</p>
","j","html-keyboard-response","55","2.1.0","111936","J=YES, F=NO","ndovcpb687","2","70","60","80","","","","","","lextale","true","false","","","","","","","",""
"819","
  <p style=""font-size: 40px;"">crumble</p>
  <p style=""font-size: 16px;"">J = YES &nbsp;&nbsp;&nbsp; F = NO</p>
","j","html-keyboard-response","56","2.1.0","112756","J=YES, F=NO","ndovcpb687","2","70","60","80","","","","","","lextale","true","false","","","","","","","",""
"719","
  <p style=""font-size: 40px;"">wrinkle</p>
  <p style=""font-size: 16px;"">J = YES &nbsp;&nbsp;&nbsp; F = NO</p>
","j","html-keyboard-response","57","2.1.0","113475","J=YES, F=NO","ndovcpb687","2","70","60","80","","","","","","lextale","true","false","","","","","","","",""
"785","
  <p style=""font-size: 40px;"">slumb</p>
  <p style=""font-size: 16px;"">J = YES &nbsp;&nbsp;&nbsp; F = NO</p>
","f","html-keyboard-response","58","2.1.0","114261","J=YES, F=NO","ndovcpb687","2","70","60","80","","","","","","lextale","false","false","","","","","","","",""
"1146","
  <p style=""font-size: 40px;"">jungle</p>
  <p style=""font-size: 16px;"">J = YES &nbsp;&nbsp;&nbsp; F = NO</p>
","j","html-keyboard-response","59","2.1.0","115407","J=YES, F=NO","ndovcpb687","2","70","60","80","","","","","","lextale","true","false","","","","","","","",""
"1303","
  <p style=""font-size: 40px;"">frolick</p>
  <p style=""font-size: 16px;"">J = YES &nbsp;&nbsp;&nbsp; F = NO</p>
","f","html-keyboard-response","60","2.1.0","116710","J=YES, F=NO","ndovcpb687","2","70","60","80","","","","","","lextale","false","false","","","","","","","",""
"2528","
      <h2>LexTALE Test Completed</h2>
      <p>Your LexTALE vocabulary score is: <strong>70%</strong></p>
      <p>Press any key to continue.</p>
    "," ","html-keyboard-response","61","2.1.0","119239","J=YES, F=NO","ndovcpb687","2","70","60","80","","","","","","","","","","","","","","","",""
"3482","
    <div style=""max-width: 800px; margin: auto; text-align: left;"">
      <h2>Break Time</h2>
      <p>You have completed the first part of the study.</p>
      <p>You may take a short <strong>30-second break</strong> before continuing.</p>
      <p>When you’re ready, press any key to continue to the final task.</p>
    </div>
  "," ","html-keyboard-response","62","2.1.0","122721","J=YES, F=NO","ndovcpb687","2","70","60","80","","","","","","","","","","","","","","","",""
"16238","
    <div style=""max-width: 800px; margin: auto; text-align: left;"">
      <h2>Part 2: Lexical Decision Task</h2>
      <p>You will now begin the second part of the study.</p>
      <p>Each trial will follow this sequence:</p>
      <ul>
        <li>A fixation cross (+) appears at the center of the screen.</li>
        <li>You will hear a short beep followed by a spoken word.</li>
        <li>A written word will appear briefly on the screen.</li>
      </ul>
      <p>Your task is to judge whether the <strong>written word</strong> is a real English word.</p>
      <p style=""margin-top: 1em;""><strong>Key responses:</strong></p>
      <ul>
        <li><strong>J</strong> = YES (real English word)</li>
        <li><strong>F</strong> = NO (not a real English word)</li>
      </ul>
      <p>Please respond as quickly and accurately as you can.</p>
      <p style=""margin-top: 2em;"">Press any key to continue.</p>
    </div>
  "," ","html-keyboard-response","63","2.1.0","138961","J=YES, F=NO","ndovcpb687","2","70","60","80","","","","","","","","","","","","","","","",""
"4070","
    <div style=""max-width: 800px; margin: auto; text-align: left;"">
      <h2>Before You Begin</h2>
      <p>Make sure your sound is turned on.</p>
      <p>You will hear audio during each trial, but your decision should be based only on the <strong>written word</strong> you see on the screen.</p>
      <p><strong>Reminder:</strong></p>
      <ul>
        <li><strong>J</strong> = YES (real English word)</li>
        <li><strong>F</strong> = NO (not a real English word)</li>
      </ul>
      <p style=""margin-top: 2em;"">Press any key when you are ready to begin.</p>
    </div>
  "," ","html-keyboard-response","64","2.1.0","143031","J=YES, F=NO","ndovcpb687","2","70","60","80","","","","","","","","","","","","","","","",""
"2518","
    <div style=""max-width: 800px; margin: auto; text-align: left;"">
      <h2>Part 2: Practice Trials</h2>
      <p>You will now complete a few <strong>practice trials</strong> to get familiar with the task.</p>
      <p>These trials are <strong>not scored</strong> and are only to help you get used to the format.</p>
      <p style=""margin-top: 2em;"">Press any key to begin.</p>
    </div>
  "," ","html-keyboard-response","65","2.1.0","145550","J=YES, F=NO","ndovcpb687","2","70","60","80","","","","","","","","","","","","","","","",""
"1247","<p>Starting practice block 1 of 2. Press any key to continue.</p>"," ","html-keyboard-response","66","2.1.0","146798","J=YES, F=NO","ndovcpb687","2","70","60","80","","","","","","","","","","","","","","","",""
"null","<p style=""font-size: 50px;"">+</p>","null","html-keyboard-response","67","2.1.0","147107","J=YES, F=NO","ndovcpb687","2","70","60","80","","","","","","","","","","","","","","","",""
"null","audio/beep-329314.mp3","null","audio-keyboard-response","68","2.1.0","148643","J=YES, F=NO","ndovcpb687","2","70","60","80","","","","","","","","","","","","","","","",""
"null","audio/pattern.wav","null","audio-keyboard-response","69","2.1.0","149211","J=YES, F=NO","ndovcpb687","2","70","60","80","","","","","","","","","","","","","","","",""
"null","
          <p id=""word"" style=""font-size: 40px;"">tug</p>
          <p style=""font-size: 16px;"">J = YES &nbsp;&nbsp;&nbsp; F = NO</p>
        ","null","html-keyboard-response","70","2.1.0","150720","J=YES, F=NO","ndovcpb687","2","70","60","80","","","","","","","","","tug","pattern","filler","filler","j","false","",""
"null","<p style=""font-size: 50px;"">+</p>","null","html-keyboard-response","71","2.1.0","151028","J=YES, F=NO","ndovcpb687","2","70","60","80","","","","","","","","","","","","","","","",""
"null","audio/beep-329314.mp3","null","audio-keyboard-response","72","2.1.0","152563","J=YES, F=NO","ndovcpb687","2","70","60","80","","","","","","","","","","","","","","","",""
"null","audio/ego.wav","null","audio-keyboard-response","73","2.1.0","153132","J=YES, F=NO","ndovcpb687","2","70","60","80","","","","","","","","","","","","","","","",""
"815","
          <p id=""word"" style=""font-size: 40px;"">bruite</p>
          <p style=""font-size: 16px;"">J = YES &nbsp;&nbsp;&nbsp; F = NO</p>
        ","f","html-keyboard-response","74","2.1.0","153948","J=YES, F=NO","ndovcpb687","2","70","60","80","","","","","","","","","bruite","ego","pseudoword","pseudoword","f","true","",""
"null","<p style=""font-size: 50px;"">+</p>","null","html-keyboard-response","75","2.1.0","154260","J=YES, F=NO","ndovcpb687","2","70","60","80","","","","","","","","","","","","","","","",""
"null","audio/beep-329314.mp3","null","audio-keyboard-response","76","2.1.0","155793","J=YES, F=NO","ndovcpb687","2","70","60","80","","","","","","","","","","","","","","","",""
"null","audio/cancer1.wav","null","audio-keyboard-response","77","2.1.0","156362","J=YES, F=NO","ndovcpb687","2","70","60","80","","","","","","","","","","","","","","","",""
"632","
          <p id=""word"" style=""font-size: 40px;"">draw</p>
          <p style=""font-size: 16px;"">J = YES &nbsp;&nbsp;&nbsp; F = NO</p>
        ","f","html-keyboard-response","78","2.1.0","156995","J=YES, F=NO","ndovcpb687","2","70","60","80","","","","","","","","","draw","cancer1","filler","filler","j","false","",""
"null","<p style=""font-size: 50px;"">+</p>","null","html-keyboard-response","79","2.1.0","157296","J=YES, F=NO","ndovcpb687","2","70","60","80","","","","","","","","","","","","","","","",""
"null","audio/beep-329314.mp3","null","audio-keyboard-response","80","2.1.0","158821","J=YES, F=NO","ndovcpb687","2","70","60","80","","","","","","","","","","","","","","","",""
"null","audio/battle1.wav","null","audio-keyboard-response","81","2.1.0","159329","J=YES, F=NO","ndovcpb687","2","70","60","80","","","","","","","","","","","","","","","",""
"623","
          <p id=""word"" style=""font-size: 40px;"">boil</p>
          <p style=""font-size: 16px;"">J = YES &nbsp;&nbsp;&nbsp; F = NO</p>
        ","f","html-keyboard-response","82","2.1.0","159952","J=YES, F=NO","ndovcpb687","2","70","60","80","","","","","","","","","boil","battle1","filler","filler","j","false","",""
"null","<p style=""font-size: 50px;"">+</p>","null","html-keyboard-response","83","2.1.0","160258","J=YES, F=NO","ndovcpb687","2","70","60","80","","","","","","","","","","","","","","","",""
"null","audio/beep-329314.mp3","null","audio-keyboard-response","84","2.1.0","161787","J=YES, F=NO","ndovcpb687","2","70","60","80","","","","","","","","","","","","","","","",""
"null","audio/belief.wav","null","audio-keyboard-response","85","2.1.0","162458","J=YES, F=NO","ndovcpb687","2","70","60","80","","","","","","","","","","","","","","","",""
"529","
          <p id=""word"" style=""font-size: 40px;"">read</p>
          <p style=""font-size: 16px;"">J = YES &nbsp;&nbsp;&nbsp; F = NO</p>
        ","f","html-keyboard-response","86","2.1.0","162988","J=YES, F=NO","ndovcpb687","2","70","60","80","","","","","","","","","read","belief","filler","filler","j","false","",""
"null","<p style=""font-size: 50px;"">+</p>","null","html-keyboard-response","87","2.1.0","163290","J=YES, F=NO","ndovcpb687","2","70","60","80","","","","","","","","","","","","","","","",""
"null","audio/beep-329314.mp3","null","audio-keyboard-response","88","2.1.0","164835","J=YES, F=NO","ndovcpb687","2","70","60","80","","","","","","","","","","","","","","","",""
"null","audio/effort.wav","null","audio-keyboard-response","89","2.1.0","165465","J=YES, F=NO","ndovcpb687","2","70","60","80","","","","","","","","","","","","","","","",""
"603","
          <p id=""word"" style=""font-size: 40px;"">whonk</p>
          <p style=""font-size: 16px;"">J = YES &nbsp;&nbsp;&nbsp; F = NO</p>
        ","f","html-keyboard-response","90","2.1.0","166068","J=YES, F=NO","ndovcpb687","2","70","60","80","","","","","","","","","whonk","effort","pseudoword","pseudoword","f","true","",""
"null","<p style=""font-size: 50px;"">+</p>","null","html-keyboard-response","91","2.1.0","166378","J=YES, F=NO","ndovcpb687","2","70","60","80","","","","","","","","","","","","","","","",""
"null","audio/beep-329314.mp3","null","audio-keyboard-response","92","2.1.0","167923","J=YES, F=NO","ndovcpb687","2","70","60","80","","","","","","","","","","","","","","","",""
"null","audio/breath.wav","null","audio-keyboard-response","93","2.1.0","168492","J=YES, F=NO","ndovcpb687","2","70","60","80","","","","","","","","","","","","","","","",""
"486","
          <p id=""word"" style=""font-size: 40px;"">pack</p>
          <p style=""font-size: 16px;"">J = YES &nbsp;&nbsp;&nbsp; F = NO</p>
        ","f","html-keyboard-response","94","2.1.0","168979","J=YES, F=NO","ndovcpb687","2","70","60","80","","","","","","","","","pack","breath","filler","filler","j","false","",""
"null","<p style=""font-size: 50px;"">+</p>","null","html-keyboard-response","95","2.1.0","169284","J=YES, F=NO","ndovcpb687","2","70","60","80","","","","","","","","","","","","","","","",""
"null","audio/beep-329314.mp3","null","audio-keyboard-response","96","2.1.0","170828","J=YES, F=NO","ndovcpb687","2","70","60","80","","","","","","","","","","","","","","","",""
"null","audio/radio1.wav","null","audio-keyboard-response","97","2.1.0","171478","J=YES, F=NO","ndovcpb687","2","70","60","80","","","","","","","","","","","","","","","",""
"525","
          <p id=""word"" style=""font-size: 40px;"">blanter</p>
          <p style=""font-size: 16px;"">J = YES &nbsp;&nbsp;&nbsp; F = NO</p>
        ","f","html-keyboard-response","98","2.1.0","172004","J=YES, F=NO","ndovcpb687","2","70","60","80","","","","","","","","","blanter","radio1","pseudoword","pseudoword","f","true","",""
"null","<p style=""font-size: 50px;"">+</p>","null","html-keyboard-response","99","2.1.0","172316","J=YES, F=NO","ndovcpb687","2","70","60","80","","","","","","","","","","","","","","","",""
"null","audio/beep-329314.mp3","null","audio-keyboard-response","100","2.1.0","173856","J=YES, F=NO","ndovcpb687","2","70","60","80","","","","","","","","","","","","","","","",""
"null","audio/test1.wav","null","audio-keyboard-response","101","2.1.0","174465","J=YES, F=NO","ndovcpb687","2","70","60","80","","","","","","","","","","","","","","","",""
"438","
          <p id=""word"" style=""font-size: 40px;"">twopch</p>
          <p style=""font-size: 16px;"">J = YES &nbsp;&nbsp;&nbsp; F = NO</p>
        ","f","html-keyboard-response","102","2.1.0","174904","J=YES, F=NO","ndovcpb687","2","70","60","80","","","","","","","","","twopch","test1","pseudoword","pseudoword","f","true","",""
"null","<p style=""font-size: 50px;"">+</p>","null","html-keyboard-response","103","2.1.0","175219","J=YES, F=NO","ndovcpb687","2","70","60","80","","","","","","","","","","","","","","","",""
"null","audio/beep-329314.mp3","null","audio-keyboard-response","104","2.1.0","176761","J=YES, F=NO","ndovcpb687","2","70","60","80","","","","","","","","","","","","","","","",""
"null","audio/key1.wav","null","audio-keyboard-response","105","2.1.0","177148","J=YES, F=NO","ndovcpb687","2","70","60","80","","","","","","","","","","","","","","","",""
"521","
          <p id=""word"" style=""font-size: 40px;"">sminsh</p>
          <p style=""font-size: 16px;"">J = YES &nbsp;&nbsp;&nbsp; F = NO</p>
        ","f","html-keyboard-response","106","2.1.0","177669","J=YES, F=NO","ndovcpb687","2","70","60","80","","","","","","","","","sminsh","key1","pseudoword","pseudoword","f","true","",""
"null","<p style=""font-size: 50px;"">+</p>","null","html-keyboard-response","107","2.1.0","177990","J=YES, F=NO","ndovcpb687","2","70","60","80","","","","","","","","","","","","","","","",""
"null","audio/beep-329314.mp3","null","audio-keyboard-response","108","2.1.0","179524","J=YES, F=NO","ndovcpb687","2","70","60","80","","","","","","","","","","","","","","","",""
"null","audio/neck.wav","null","audio-keyboard-response","109","2.1.0","180114","J=YES, F=NO","ndovcpb687","2","70","60","80","","","","","","","","","","","","","","","",""
"365","
          <p id=""word"" style=""font-size: 40px;"">werling</p>
          <p style=""font-size: 16px;"">J = YES &nbsp;&nbsp;&nbsp; F = NO</p>
        ","f","html-keyboard-response","110","2.1.0","180479","J=YES, F=NO","ndovcpb687","2","70","60","80","","","","","","","","","werling","neck","pseudoword","pseudoword","f","true","",""
"null","<p style=""font-size: 50px;"">+</p>","null","html-keyboard-response","111","2.1.0","180793","J=YES, F=NO","ndovcpb687","2","70","60","80","","","","","","","","","","","","","","","",""
"null","audio/beep-329314.mp3","null","audio-keyboard-response","112","2.1.0","182328","J=YES, F=NO","ndovcpb687","2","70","60","80","","","","","","","","","","","","","","","",""
"null","audio/kettle1.wav","null","audio-keyboard-response","113","2.1.0","182836","J=YES, F=NO","ndovcpb687","2","70","60","80","","","","","","","","","","","","","","","",""
"396","
          <p id=""word"" style=""font-size: 40px;"">wrap</p>
          <p style=""font-size: 16px;"">J = YES &nbsp;&nbsp;&nbsp; F = NO</p>
        ","f","html-keyboard-response","114","2.1.0","183233","J=YES, F=NO","ndovcpb687","2","70","60","80","","","","","","","","","wrap","kettle1","filler","filler","j","false","",""
"1383","<p>Starting practice block 2 of 2. Press any key to continue.</p>"," ","html-keyboard-response","115","2.1.0","184616","J=YES, F=NO","ndovcpb687","2","70","60","80","","","","","","","","","","","","","","","",""
"null","<p style=""font-size: 50px;"">+</p>","null","html-keyboard-response","116","2.1.0","184932","J=YES, F=NO","ndovcpb687","2","70","60","80","","","","","","","","","","","","","","","",""
"null","audio/beep-329314.mp3","null","audio-keyboard-response","117","2.1.0","186473","J=YES, F=NO","ndovcpb687","2","70","60","80","","","","","","","","","","","","","","","",""
"null","audio/ankle1.wav","null","audio-keyboard-response","118","2.1.0","187001","J=YES, F=NO","ndovcpb687","2","70","60","80","","","","","","","","","","","","","","","",""
"469","
          <p id=""word"" style=""font-size: 40px;"">kick</p>
          <p style=""font-size: 16px;"">J = YES &nbsp;&nbsp;&nbsp; F = NO</p>
        ","f","html-keyboard-response","119","2.1.0","187471","J=YES, F=NO","ndovcpb687","2","70","60","80","","","","","","","","","kick","ankle1","filler","filler","j","false","",""
"null","<p style=""font-size: 50px;"">+</p>","null","html-keyboard-response","120","2.1.0","187777","J=YES, F=NO","ndovcpb687","2","70","60","80","","","","","","","","","","","","","","","",""
"null","audio/beep-329314.mp3","null","audio-keyboard-response","121","2.1.0","189318","J=YES, F=NO","ndovcpb687","2","70","60","80","","","","","","","","","","","","","","","",""
"null","audio/roof1.wav","null","audio-keyboard-response","122","2.1.0","189906","J=YES, F=NO","ndovcpb687","2","70","60","80","","","","","","","","","","","","","","","",""
"418","
          <p id=""word"" style=""font-size: 40px;"">wronb</p>
          <p style=""font-size: 16px;"">J = YES &nbsp;&nbsp;&nbsp; F = NO</p>
        ","f","html-keyboard-response","123","2.1.0","190325","J=YES, F=NO","ndovcpb687","2","70","60","80","","","","","","","","","wronb","roof1","pseudoword","pseudoword","f","true","",""
"null","<p style=""font-size: 50px;"">+</p>","null","html-keyboard-response","124","2.1.0","190636","J=YES, F=NO","ndovcpb687","2","70","60","80","","","","","","","","","","","","","","","",""
"null","audio/beep-329314.mp3","null","audio-keyboard-response","125","2.1.0","192162","J=YES, F=NO","ndovcpb687","2","70","60","80","","","","","","","","","","","","","","","",""
"null","audio/bishop1.wav","null","audio-keyboard-response","126","2.1.0","192791","J=YES, F=NO","ndovcpb687","2","70","60","80","","","","","","","","","","","","","","","",""
"398","
          <p id=""word"" style=""font-size: 40px;"">play</p>
          <p style=""font-size: 16px;"">J = YES &nbsp;&nbsp;&nbsp; F = NO</p>
        ","f","html-keyboard-response","127","2.1.0","193190","J=YES, F=NO","ndovcpb687","2","70","60","80","","","","","","","","","play","bishop1","filler","filler","j","false","",""
"null","<p style=""font-size: 50px;"">+</p>","null","html-keyboard-response","128","2.1.0","193502","J=YES, F=NO","ndovcpb687","2","70","60","80","","","","","","","","","","","","","","","",""
"null","audio/beep-329314.mp3","null","audio-keyboard-response","129","2.1.0","195027","J=YES, F=NO","ndovcpb687","2","70","60","80","","","","","","","","","","","","","","","",""
"null","audio/golf1.wav","null","audio-keyboard-response","130","2.1.0","195657","J=YES, F=NO","ndovcpb687","2","70","60","80","","","","","","","","","","","","","","","",""
"376","
          <p id=""word"" style=""font-size: 40px;"">drabble</p>
          <p style=""font-size: 16px;"">J = YES &nbsp;&nbsp;&nbsp; F = NO</p>
        ","f","html-keyboard-response","131","2.1.0","196034","J=YES, F=NO","ndovcpb687","2","70","60","80","","","","","","","","","drabble","golf1","pseudoword","pseudoword","f","true","",""
"null","<p style=""font-size: 50px;"">+</p>","null","html-keyboard-response","132","2.1.0","196336","J=YES, F=NO","ndovcpb687","2","70","60","80","","","","","","","","","","","","","","","",""
"null","audio/beep-329314.mp3","null","audio-keyboard-response","133","2.1.0","197871","J=YES, F=NO","ndovcpb687","2","70","60","80","","","","","","","","","","","","","","","",""
"null","audio/flaw.wav","null","audio-keyboard-response","134","2.1.0","198562","J=YES, F=NO","ndovcpb687","2","70","60","80","","","","","","","","","","","","","","","",""
"416","
          <p id=""word"" style=""font-size: 40px;"">thwool</p>
          <p style=""font-size: 16px;"">J = YES &nbsp;&nbsp;&nbsp; F = NO</p>
        ","f","html-keyboard-response","135","2.1.0","198979","J=YES, F=NO","ndovcpb687","2","70","60","80","","","","","","","","","thwool","flaw","pseudoword","pseudoword","f","true","",""
"null","<p style=""font-size: 50px;"">+</p>","null","html-keyboard-response","136","2.1.0","199282","J=YES, F=NO","ndovcpb687","2","70","60","80","","","","","","","","","","","","","","","",""
"null","audio/beep-329314.mp3","null","audio-keyboard-response","137","2.1.0","200817","J=YES, F=NO","ndovcpb687","2","70","60","80","","","","","","","","","","","","","","","",""
"null","audio/vehicle1.wav","null","audio-keyboard-response","138","2.1.0","201528","J=YES, F=NO","ndovcpb687","2","70","60","80","","","","","","","","","","","","","","","",""
"339","
          <p id=""word"" style=""font-size: 40px;"">dropt</p>
          <p style=""font-size: 16px;"">J = YES &nbsp;&nbsp;&nbsp; F = NO</p>
        ","f","html-keyboard-response","139","2.1.0","201868","J=YES, F=NO","ndovcpb687","2","70","60","80","","","","","","","","","dropt","vehicle1","pseudoword","pseudoword","f","true","",""
"null","<p style=""font-size: 50px;"">+</p>","null","html-keyboard-response","140","2.1.0","202177","J=YES, F=NO","ndovcpb687","2","70","60","80","","","","","","","","","","","","","","","",""
"null","audio/beep-329314.mp3","null","audio-keyboard-response","141","2.1.0","203702","J=YES, F=NO","ndovcpb687","2","70","60","80","","","","","","","","","","","","","","","",""
"null","audio/butter1.wav","null","audio-keyboard-response","142","2.1.0","204210","J=YES, F=NO","ndovcpb687","2","70","60","80","","","","","","","","","","","","","","","",""
"388","
          <p id=""word"" style=""font-size: 40px;"">chew</p>
          <p style=""font-size: 16px;"">J = YES &nbsp;&nbsp;&nbsp; F = NO</p>
        ","f","html-keyboard-response","143","2.1.0","204599","J=YES, F=NO","ndovcpb687","2","70","60","80","","","","","","","","","chew","butter1","filler","filler","j","false","",""
"null","<p style=""font-size: 50px;"">+</p>","null","html-keyboard-response","144","2.1.0","204915","J=YES, F=NO","ndovcpb687","2","70","60","80","","","","","","","","","","","","","","","",""
"null","audio/beep-329314.mp3","null","audio-keyboard-response","145","2.1.0","206445","J=YES, F=NO","ndovcpb687","2","70","60","80","","","","","","","","","","","","","","","",""
"null","audio/tomato.wav","null","audio-keyboard-response","146","2.1.0","207115","J=YES, F=NO","ndovcpb687","2","70","60","80","","","","","","","","","","","","","","","",""
"327","
          <p id=""word"" style=""font-size: 40px;"">gladies</p>
          <p style=""font-size: 16px;"">J = YES &nbsp;&nbsp;&nbsp; F = NO</p>
        ","f","html-keyboard-response","147","2.1.0","207443","J=YES, F=NO","ndovcpb687","2","70","60","80","","","","","","","","","gladies","tomato","pseudoword","pseudoword","f","true","",""
"null","<p style=""font-size: 50px;"">+</p>","null","html-keyboard-response","148","2.1.0","207744","J=YES, F=NO","ndovcpb687","2","70","60","80","","","","","","","","","","","","","","","",""
"null","audio/beep-329314.mp3","null","audio-keyboard-response","149","2.1.0","209269","J=YES, F=NO","ndovcpb687","2","70","60","80","","","","","","","","","","","","","","","",""
"null","audio/menu.wav","null","audio-keyboard-response","150","2.1.0","209879","J=YES, F=NO","ndovcpb687","2","70","60","80","","","","","","","","","","","","","","","",""
"285","
          <p id=""word"" style=""font-size: 40px;"">slice</p>
          <p style=""font-size: 16px;"">J = YES &nbsp;&nbsp;&nbsp; F = NO</p>
        ","f","html-keyboard-response","151","2.1.0","210164","J=YES, F=NO","ndovcpb687","2","70","60","80","","","","","","","","","slice","menu","filler","filler","j","false","",""
"null","<p style=""font-size: 50px;"">+</p>","null","html-keyboard-response","152","2.1.0","210466","J=YES, F=NO","ndovcpb687","2","70","60","80","","","","","","","","","","","","","","","",""
"null","audio/beep-329314.mp3","null","audio-keyboard-response","153","2.1.0","211992","J=YES, F=NO","ndovcpb687","2","70","60","80","","","","","","","","","","","","","","","",""
"null","audio/account1.wav","null","audio-keyboard-response","154","2.1.0","212744","J=YES, F=NO","ndovcpb687","2","70","60","80","","","","","","","","","","","","","","","",""
"332","
          <p id=""word"" style=""font-size: 40px;"">paint</p>
          <p style=""font-size: 16px;"">J = YES &nbsp;&nbsp;&nbsp; F = NO</p>
        ","f","html-keyboard-response","155","2.1.0","213076","J=YES, F=NO","ndovcpb687","2","70","60","80","","","","","","","","","paint","account1","filler","filler","j","false","",""
"null","<p style=""font-size: 50px;"">+</p>","null","html-keyboard-response","156","2.1.0","213382","J=YES, F=NO","ndovcpb687","2","70","60","80","","","","","","","","","","","","","","","",""
"null","audio/beep-329314.mp3","null","audio-keyboard-response","157","2.1.0","214917","J=YES, F=NO","ndovcpb687","2","70","60","80","","","","","","","","","","","","","","","",""
"null","audio/cave1.wav","null","audio-keyboard-response","158","2.1.0","215507","J=YES, F=NO","ndovcpb687","2","70","60","80","","","","","","","","","","","","","","","",""
"325","
          <p id=""word"" style=""font-size: 40px;"">blacket</p>
          <p style=""font-size: 16px;"">J = YES &nbsp;&nbsp;&nbsp; F = NO</p>
        ","f","html-keyboard-response","159","2.1.0","215832","J=YES, F=NO","ndovcpb687","2","70","60","80","","","","","","","","","blacket","cave1","pseudoword","pseudoword","f","true","",""
"null","<p style=""font-size: 50px;"">+</p>","null","html-keyboard-response","160","2.1.0","216143","J=YES, F=NO","ndovcpb687","2","70","60","80","","","","","","","","","","","","","","","",""
"null","audio/beep-329314.mp3","null","audio-keyboard-response","161","2.1.0","217680","J=YES, F=NO","ndovcpb687","2","70","60","80","","","","","","","","","","","","","","","",""
"null","audio/fence.wav","null","audio-keyboard-response","162","2.1.0","218392","J=YES, F=NO","ndovcpb687","2","70","60","80","","","","","","","","","","","","","","","",""
"274","
          <p id=""word"" style=""font-size: 40px;"">trim</p>
          <p style=""font-size: 16px;"">J = YES &nbsp;&nbsp;&nbsp; F = NO</p>
        ","f","html-keyboard-response","163","2.1.0","218666","J=YES, F=NO","ndovcpb687","2","70","60","80","","","","","","","","","trim","fence","filler","filler","j","false","",""
"3373","
    <div style=""max-width: 800px; margin: auto; text-align: left;"">
      <h2>Part 2: Main Trials</h2>
      <p>Great job on the practice trials!</p>
      <p>You will now begin the <strong>main set of trials</strong>.</p>
      <p>Remember your key assignments:</p>
      <ul>
        <li><strong>J</strong> = YES (real English word)</li>
        <li><strong>F</strong> = NO (not a real English word)</li>
      </ul>
      <p>Try to respond as <strong>quickly and accurately</strong> as possible.</p>
      <p style=""margin-top: 2em;"">Press any key to begin the main trials.</p>
    </div>
  "," ","html-keyboard-response","164","2.1.0","222039","J=YES, F=NO","ndovcpb687","2","70","60","80","","","","","","","","","","","","","","","",""
"832","<p>Starting main block 1 of 8. Press any key to continue.</p>"," ","html-keyboard-response","165","2.1.0","222871","J=YES, F=NO","ndovcpb687","2","70","60","80","","","","","","","","","","","","","","","",""
"null","<p style=""font-size: 50px;"">+</p>","null","html-keyboard-response","166","2.1.0","223176","J=YES, F=NO","ndovcpb687","2","70","60","80","","","","","","","","","","","","","","","",""
"null","audio/beep-329314.mp3","null","audio-keyboard-response","167","2.1.0","224710","J=YES, F=NO","ndovcpb687","2","70","60","80","","","","","","","","","","","","","","","",""
"null","audio/gold1.wav","null","audio-keyboard-response","168","2.1.0","225463","J=YES, F=NO","ndovcpb687","2","70","60","80","","","","","","","","","","","","","","","",""
"455","
          <p id=""word"" style=""font-size: 40px;"">sell</p>
          <p style=""font-size: 16px;"">J = YES &nbsp;&nbsp;&nbsp; F = NO</p>
        ","f","html-keyboard-response","169","2.1.0","225918","J=YES, F=NO","ndovcpb687","2","70","60","80","","","","","","","","","sell","gold1","literal","experimental","j","false","",""
"null","<p style=""font-size: 50px;"">+</p>","null","html-keyboard-response","170","2.1.0","226231","J=YES, F=NO","ndovcpb687","2","70","60","80","","","","","","","","","","","","","","","",""
"null","audio/beep-329314.mp3","null","audio-keyboard-response","171","2.1.0","227759","J=YES, F=NO","ndovcpb687","2","70","60","80","","","","","","","","","","","","","","","",""
"null","audio/stain.wav","null","audio-keyboard-response","172","2.1.0","228409","J=YES, F=NO","ndovcpb687","2","70","60","80","","","","","","","","","","","","","","","",""
"410","
          <p id=""word"" style=""font-size: 40px;"">rumpsied</p>
          <p style=""font-size: 16px;"">J = YES &nbsp;&nbsp;&nbsp; F = NO</p>
        ","f","html-keyboard-response","173","2.1.0","228819","J=YES, F=NO","ndovcpb687","2","70","60","80","","","","","","","","","rumpsied","stain","pseudoword","pseudoword","f","true","",""
"null","<p style=""font-size: 50px;"">+</p>","null","html-keyboard-response","174","2.1.0","229124","J=YES, F=NO","ndovcpb687","2","70","60","80","","","","","","","","","","","","","","","",""
"null","audio/beep-329314.mp3","null","audio-keyboard-response","175","2.1.0","230664","J=YES, F=NO","ndovcpb687","2","70","60","80","","","","","","","","","","","","","","","",""
"null","audio/cancer1.wav","null","audio-keyboard-response","176","2.1.0","231232","J=YES, F=NO","ndovcpb687","2","70","60","80","","","","","","","","","","","","","","","",""
"475","
          <p id=""word"" style=""font-size: 40px;"">fight</p>
          <p style=""font-size: 16px;"">J = YES &nbsp;&nbsp;&nbsp; F = NO</p>
        ","f","html-keyboard-response","177","2.1.0","231708","J=YES, F=NO","ndovcpb687","2","70","60","80","","","","","","","","","fight","cancer1","metaphor","experimental","j","false","",""
"null","<p style=""font-size: 50px;"">+</p>","null","html-keyboard-response","178","2.1.0","232024","J=YES, F=NO","ndovcpb687","2","70","60","80","","","","","","","","","","","","","","","",""
"null","audio/beep-329314.mp3","null","audio-keyboard-response","179","2.1.0","233569","J=YES, F=NO","ndovcpb687","2","70","60","80","","","","","","","","","","","","","","","",""
"null","audio/age1.wav","null","audio-keyboard-response","180","2.1.0","234138","J=YES, F=NO","ndovcpb687","2","70","60","80","","","","","","","","","","","","","","","",""
"458","
          <p id=""word"" style=""font-size: 40px;"">lachry</p>
          <p style=""font-size: 16px;"">J = YES &nbsp;&nbsp;&nbsp; F = NO</p>
        ","f","html-keyboard-response","181","2.1.0","234597","J=YES, F=NO","ndovcpb687","2","70","60","80","","","","","","","","","lachry","age1","pseudoword","pseudoword","f","true","",""
"null","<p style=""font-size: 50px;"">+</p>","null","html-keyboard-response","182","2.1.0","234904","J=YES, F=NO","ndovcpb687","2","70","60","80","","","","","","","","","","","","","","","",""
"null","audio/beep-329314.mp3","null","audio-keyboard-response","183","2.1.0","236434","J=YES, F=NO","ndovcpb687","2","70","60","80","","","","","","","","","","","","","","","",""
"null","audio/novel.wav","null","audio-keyboard-response","184","2.1.0","236942","J=YES, F=NO","ndovcpb687","2","70","60","80","","","","","","","","","","","","","","","",""
"342","
          <p id=""word"" style=""font-size: 40px;"">devour</p>
          <p style=""font-size: 16px;"">J = YES &nbsp;&nbsp;&nbsp; F = NO</p>
        ","f","html-keyboard-response","185","2.1.0","237284","J=YES, F=NO","ndovcpb687","2","70","60","80","","","","","","","","","devour","novel","metaphor","experimental","j","false","",""
"null","<p style=""font-size: 50px;"">+</p>","null","html-keyboard-response","186","2.1.0","237601","J=YES, F=NO","ndovcpb687","2","70","60","80","","","","","","","","","","","","","","","",""
"null","audio/beep-329314.mp3","null","audio-keyboard-response","187","2.1.0","239136","J=YES, F=NO","ndovcpb687","2","70","60","80","","","","","","","","","","","","","","","",""
"null","audio/tomato.wav","null","audio-keyboard-response","188","2.1.0","239807","J=YES, F=NO","ndovcpb687","2","70","60","80","","","","","","","","","","","","","","","",""
"354","
          <p id=""word"" style=""font-size: 40px;"">grow</p>
          <p style=""font-size: 16px;"">J = YES &nbsp;&nbsp;&nbsp; F = NO</p>
        ","f","html-keyboard-response","189","2.1.0","240162","J=YES, F=NO","ndovcpb687","2","70","60","80","","","","","","","","","grow","tomato","literal","experimental","j","false","",""
"null","<p style=""font-size: 50px;"">+</p>","null","html-keyboard-response","190","2.1.0","240466","J=YES, F=NO","ndovcpb687","2","70","60","80","","","","","","","","","","","","","","","",""
"null","audio/beep-329314.mp3","null","audio-keyboard-response","191","2.1.0","242001","J=YES, F=NO","ndovcpb687","2","70","60","80","","","","","","","","","","","","","","","",""
"null","audio/window1.wav","null","audio-keyboard-response","192","2.1.0","242631","J=YES, F=NO","ndovcpb687","2","70","60","80","","","","","","","","","","","","","","","",""
"316","
          <p id=""word"" style=""font-size: 40px;"">toss</p>
          <p style=""font-size: 16px;"">J = YES &nbsp;&nbsp;&nbsp; F = NO</p>
        ","f","html-keyboard-response","193","2.1.0","242948","J=YES, F=NO","ndovcpb687","2","70","60","80","","","","","","","","","toss","window1","filler","filler","j","false","",""
"null","<p style=""font-size: 50px;"">+</p>","null","html-keyboard-response","194","2.1.0","243256","J=YES, F=NO","ndovcpb687","2","70","60","80","","","","","","","","","","","","","","","",""
"null","audio/beep-329314.mp3","null","audio-keyboard-response","195","2.1.0","244785","J=YES, F=NO","ndovcpb687","2","70","60","80","","","","","","","","","","","","","","","",""
"null","audio/beach1.wav","null","audio-keyboard-response","196","2.1.0","245394","J=YES, F=NO","ndovcpb687","2","70","60","80","","","","","","","","","","","","","","","",""
"319","
          <p id=""word"" style=""font-size: 40px;"">drive</p>
          <p style=""font-size: 16px;"">J = YES &nbsp;&nbsp;&nbsp; F = NO</p>
        ","f","html-keyboard-response","197","2.1.0","245714","J=YES, F=NO","ndovcpb687","2","70","60","80","","","","","","","","","drive","beach1","filler","filler","j","false","",""
"null","<p style=""font-size: 50px;"">+</p>","null","html-keyboard-response","198","2.1.0","246023","J=YES, F=NO","ndovcpb687","2","70","60","80","","","","","","","","","","","","","","","",""
"null","audio/beep-329314.mp3","null","audio-keyboard-response","199","2.1.0","247568","J=YES, F=NO","ndovcpb687","2","70","60","80","","","","","","","","","","","","","","","",""
"null","audio/pine.wav","null","audio-keyboard-response","200","2.1.0","248076","J=YES, F=NO","ndovcpb687","2","70","60","80","","","","","","","","","","","","","","","",""
"324","
          <p id=""word"" style=""font-size: 40px;"">crebble</p>
          <p style=""font-size: 16px;"">J = YES &nbsp;&nbsp;&nbsp; F = NO</p>
        ","f","html-keyboard-response","201","2.1.0","248400","J=YES, F=NO","ndovcpb687","2","70","60","80","","","","","","","","","crebble","pine","pseudoword","pseudoword","f","true","",""
"null","<p style=""font-size: 50px;"">+</p>","null","html-keyboard-response","202","2.1.0","248702","J=YES, F=NO","ndovcpb687","2","70","60","80","","","","","","","","","","","","","","","",""
"null","audio/beep-329314.mp3","null","audio-keyboard-response","203","2.1.0","250230","J=YES, F=NO","ndovcpb687","2","70","60","80","","","","","","","","","","","","","","","",""
"null","audio/alarm1.wav","null","audio-keyboard-response","204","2.1.0","250819","J=YES, F=NO","ndovcpb687","2","70","60","80","","","","","","","","","","","","","","","",""
"311","
          <p id=""word"" style=""font-size: 40px;"">lock</p>
          <p style=""font-size: 16px;"">J = YES &nbsp;&nbsp;&nbsp; F = NO</p>
        ","f","html-keyboard-response","205","2.1.0","251131","J=YES, F=NO","ndovcpb687","2","70","60","80","","","","","","","","","lock","alarm1","filler","filler","j","false","",""
"null","<p style=""font-size: 50px;"">+</p>","null","html-keyboard-response","206","2.1.0","251434","J=YES, F=NO","ndovcpb687","2","70","60","80","","","","","","","","","","","","","","","",""
"null","audio/beep-329314.mp3","null","audio-keyboard-response","207","2.1.0","252973","J=YES, F=NO","ndovcpb687","2","70","60","80","","","","","","","","","","","","","","","",""
"null","audio/budget1.wav","null","audio-keyboard-response","208","2.1.0","253582","J=YES, F=NO","ndovcpb687","2","70","60","80","","","","","","","","","","","","","","","",""
"324","
          <p id=""word"" style=""font-size: 40px;"">sulist</p>
          <p style=""font-size: 16px;"">J = YES &nbsp;&nbsp;&nbsp; F = NO</p>
        ","f","html-keyboard-response","209","2.1.0","253906","J=YES, F=NO","ndovcpb687","2","70","60","80","","","","","","","","","sulist","budget1","pseudoword","pseudoword","f","true","",""
"null","<p style=""font-size: 50px;"">+</p>","null","html-keyboard-response","210","2.1.0","254211","J=YES, F=NO","ndovcpb687","2","70","60","80","","","","","","","","","","","","","","","",""
"null","audio/beep-329314.mp3","null","audio-keyboard-response","211","2.1.0","255756","J=YES, F=NO","ndovcpb687","2","70","60","80","","","","","","","","","","","","","","","",""
"null","audio/bottle.wav","null","audio-keyboard-response","212","2.1.0","256223","J=YES, F=NO","ndovcpb687","2","70","60","80","","","","","","","","","","","","","","","",""
"302","
          <p id=""word"" style=""font-size: 40px;"">watch</p>
          <p style=""font-size: 16px;"">J = YES &nbsp;&nbsp;&nbsp; F = NO</p>
        ","f","html-keyboard-response","213","2.1.0","256525","J=YES, F=NO","ndovcpb687","2","70","60","80","","","","","","","","","watch","bottle","filler","filler","j","false","",""
"null","<p style=""font-size: 50px;"">+</p>","null","html-keyboard-response","214","2.1.0","256827","J=YES, F=NO","ndovcpb687","2","70","60","80","","","","","","","","","","","","","","","",""
"null","audio/beep-329314.mp3","null","audio-keyboard-response","215","2.1.0","258357","J=YES, F=NO","ndovcpb687","2","70","60","80","","","","","","","","","","","","","","","",""
"null","audio/noise1.wav","null","audio-keyboard-response","216","2.1.0","258966","J=YES, F=NO","ndovcpb687","2","70","60","80","","","","","","","","","","","","","","","",""
"403","
          <p id=""word"" style=""font-size: 40px;"">slintered</p>
          <p style=""font-size: 16px;"">J = YES &nbsp;&nbsp;&nbsp; F = NO</p>
        ","f","html-keyboard-response","217","2.1.0","259369","J=YES, F=NO","ndovcpb687","2","70","60","80","","","","","","","","","slintered","noise1","pseudoword","pseudoword","f","true","",""
"null","<p style=""font-size: 50px;"">+</p>","null","html-keyboard-response","218","2.1.0","259685","J=YES, F=NO","ndovcpb687","2","70","60","80","","","","","","","","","","","","","","","",""
"null","audio/beep-329314.mp3","null","audio-keyboard-response","219","2.1.0","261221","J=YES, F=NO","ndovcpb687","2","70","60","80","","","","","","","","","","","","","","","",""
"null","audio/corpse1.wav","null","audio-keyboard-response","220","2.1.0","261872","J=YES, F=NO","ndovcpb687","2","70","60","80","","","","","","","","","","","","","","","",""
"307","
          <p id=""word"" style=""font-size: 40px;"">bury</p>
          <p style=""font-size: 16px;"">J = YES &nbsp;&nbsp;&nbsp; F = NO</p>
        ","f","html-keyboard-response","221","2.1.0","262179","J=YES, F=NO","ndovcpb687","2","70","60","80","","","","","","","","","bury","corpse1","literal","experimental","j","false","",""
"null","<p style=""font-size: 50px;"">+</p>","null","html-keyboard-response","222","2.1.0","262489","J=YES, F=NO","ndovcpb687","2","70","60","80","","","","","","","","","","","","","","","",""
"null","audio/beep-329314.mp3","null","audio-keyboard-response","223","2.1.0","264025","J=YES, F=NO","ndovcpb687","2","70","60","80","","","","","","","","","","","","","","","",""
"null","audio/baby.wav","null","audio-keyboard-response","224","2.1.0","264492","J=YES, F=NO","ndovcpb687","2","70","60","80","","","","","","","","","","","","","","","",""
"315","
          <p id=""word"" style=""font-size: 40px;"">lift</p>
          <p style=""font-size: 16px;"">J = YES &nbsp;&nbsp;&nbsp; F = NO</p>
        ","f","html-keyboard-response","225","2.1.0","264808","J=YES, F=NO","ndovcpb687","2","70","60","80","","","","","","","","","lift","baby","filler","filler","j","false","",""
"null","<p style=""font-size: 50px;"">+</p>","null","html-keyboard-response","226","2.1.0","265112","J=YES, F=NO","ndovcpb687","2","70","60","80","","","","","","","","","","","","","","","",""
"null","audio/beep-329314.mp3","null","audio-keyboard-response","227","2.1.0","266646","J=YES, F=NO","ndovcpb687","2","70","60","80","","","","","","","","","","","","","","","",""
"null","audio/tunnel.wav","null","audio-keyboard-response","228","2.1.0","267073","J=YES, F=NO","ndovcpb687","2","70","60","80","","","","","","","","","","","","","","","",""
"445","
          <p id=""word"" style=""font-size: 40px;"">grasp</p>
          <p style=""font-size: 16px;"">J = YES &nbsp;&nbsp;&nbsp; F = NO</p>
        ","f","html-keyboard-response","229","2.1.0","267519","J=YES, F=NO","ndovcpb687","2","70","60","80","","","","","","","","","grasp","tunnel","unrelated","experimental","j","false","",""
"3888","<p>Excellent! You have finished block 1 of 8.</p>
                     <p>Feel free to take a 30 second break.</p>
                     <p>Press any key when you're ready to continue.</p>"," ","html-keyboard-response","230","2.1.0","271407","J=YES, F=NO","ndovcpb687","2","70","60","80","","","","","","","","","","","","","","","",""
"651","<p>Starting main block 2 of 8. Press any key to continue.</p>"," ","html-keyboard-response","231","2.1.0","272059","J=YES, F=NO","ndovcpb687","2","70","60","80","","","","","","","","","","","","","","","",""
"null","<p style=""font-size: 50px;"">+</p>","null","html-keyboard-response","232","2.1.0","272374","J=YES, F=NO","ndovcpb687","2","70","60","80","","","","","","","","","","","","","","","",""
"null","audio/beep-329314.mp3","null","audio-keyboard-response","233","2.1.0","273900","J=YES, F=NO","ndovcpb687","2","70","60","80","","","","","","","","","","","","","","","",""
"null","audio/birth1.wav","null","audio-keyboard-response","234","2.1.0","274448","J=YES, F=NO","ndovcpb687","2","70","60","80","","","","","","","","","","","","","","","",""
"399","
          <p id=""word"" style=""font-size: 40px;"">drop</p>
          <p style=""font-size: 16px;"">J = YES &nbsp;&nbsp;&nbsp; F = NO</p>
        ","f","html-keyboard-response","235","2.1.0","274848","J=YES, F=NO","ndovcpb687","2","70","60","80","","","","","","","","","drop","birth1","unrelated","experimental","j","false","",""
"null","<p style=""font-size: 50px;"">+</p>","null","html-keyboard-response","236","2.1.0","275168","J=YES, F=NO","ndovcpb687","2","70","60","80","","","","","","","","","","","","","","","",""
"null","audio/beep-329314.mp3","null","audio-keyboard-response","237","2.1.0","276703","J=YES, F=NO","ndovcpb687","2","70","60","80","","","","","","","","","","","","","","","",""
"null","audio/camp.wav","null","audio-keyboard-response","238","2.1.0","277394","J=YES, F=NO","ndovcpb687","2","70","60","80","","","","","","","","","","","","","","","",""
"352","
          <p id=""word"" style=""font-size: 40px;"">touch</p>
          <p style=""font-size: 16px;"">J = YES &nbsp;&nbsp;&nbsp; F = NO</p>
        ","f","html-keyboard-response","239","2.1.0","277747","J=YES, F=NO","ndovcpb687","2","70","60","80","","","","","","","","","touch","camp","unrelated","experimental","j","false","",""
"null","<p style=""font-size: 50px;"">+</p>","null","html-keyboard-response","240","2.1.0","278053","J=YES, F=NO","ndovcpb687","2","70","60","80","","","","","","","","","","","","","","","",""
"null","audio/beep-329314.mp3","null","audio-keyboard-response","241","2.1.0","279588","J=YES, F=NO","ndovcpb687","2","70","60","80","","","","","","","","","","","","","","","",""
"null","audio/bridge.wav","null","audio-keyboard-response","242","2.1.0","280137","J=YES, F=NO","ndovcpb687","2","70","60","80","","","","","","","","","","","","","","","",""
"464","
          <p id=""word"" style=""font-size: 40px;"">build</p>
          <p style=""font-size: 16px;"">J = YES &nbsp;&nbsp;&nbsp; F = NO</p>
        ","f","html-keyboard-response","243","2.1.0","280601","J=YES, F=NO","ndovcpb687","2","70","60","80","","","","","","","","","build","bridge","literal","experimental","j","false","",""
"null","<p style=""font-size: 50px;"">+</p>","null","html-keyboard-response","244","2.1.0","280910","J=YES, F=NO","ndovcpb687","2","70","60","80","","","","","","","","","","","","","","","",""
"null","audio/beep-329314.mp3","null","audio-keyboard-response","245","2.1.0","282453","J=YES, F=NO","ndovcpb687","2","70","60","80","","","","","","","","","","","","","","","",""
"null","audio/empire.wav","null","audio-keyboard-response","246","2.1.0","283083","J=YES, F=NO","ndovcpb687","2","70","60","80","","","","","","","","","","","","","","","",""
"315","
          <p id=""word"" style=""font-size: 40px;"">slorby</p>
          <p style=""font-size: 16px;"">J = YES &nbsp;&nbsp;&nbsp; F = NO</p>
        ","f","html-keyboard-response","247","2.1.0","283399","J=YES, F=NO","ndovcpb687","2","70","60","80","","","","","","","","","slorby","empire","pseudoword","pseudoword","f","true","",""
"null","<p style=""font-size: 50px;"">+</p>","null","html-keyboard-response","248","2.1.0","283706","J=YES, F=NO","ndovcpb687","2","70","60","80","","","","","","","","","","","","","","","",""
"null","audio/beep-329314.mp3","null","audio-keyboard-response","249","2.1.0","285237","J=YES, F=NO","ndovcpb687","2","70","60","80","","","","","","","","","","","","","","","",""
"null","audio/planet1.wav","null","audio-keyboard-response","250","2.1.0","285846","J=YES, F=NO","ndovcpb687","2","70","60","80","","","","","","","","","","","","","","","",""
"194","
          <p id=""word"" style=""font-size: 40px;"">cratched</p>
          <p style=""font-size: 16px;"">J = YES &nbsp;&nbsp;&nbsp; F = NO</p>
        ","f","html-keyboard-response","251","2.1.0","286040","J=YES, F=NO","ndovcpb687","2","70","60","80","","","","","","","","","cratched","planet1","pseudoword","pseudoword","f","true","",""
"null","<p style=""font-size: 50px;"">+</p>","null","html-keyboard-response","252","2.1.0","286352","J=YES, F=NO","ndovcpb687","2","70","60","80","","","","","","","","","","","","","","","",""
"null","audio/beep-329314.mp3","null","audio-keyboard-response","253","2.1.0","287878","J=YES, F=NO","ndovcpb687","2","70","60","80","","","","","","","","","","","","","","","",""
"null","audio/theory1.wav","null","audio-keyboard-response","254","2.1.0","288528","J=YES, F=NO","ndovcpb687","2","70","60","80","","","","","","","","","","","","","","","",""
"299","
          <p id=""word"" style=""font-size: 40px;"">scolve</p>
          <p style=""font-size: 16px;"">J = YES &nbsp;&nbsp;&nbsp; F = NO</p>
        ","f","html-keyboard-response","255","2.1.0","288828","J=YES, F=NO","ndovcpb687","2","70","60","80","","","","","","","","","scolve","theory1","pseudoword","pseudoword","f","true","",""
"null","<p style=""font-size: 50px;"">+</p>","null","html-keyboard-response","256","2.1.0","289138","J=YES, F=NO","ndovcpb687","2","70","60","80","","","","","","","","","","","","","","","",""
"null","audio/beep-329314.mp3","null","audio-keyboard-response","257","2.1.0","290681","J=YES, F=NO","ndovcpb687","2","70","60","80","","","","","","","","","","","","","","","",""
"null","audio/meal.wav","null","audio-keyboard-response","258","2.1.0","291129","J=YES, F=NO","ndovcpb687","2","70","60","80","","","","","","","","","","","","","","","",""
"262","
          <p id=""word"" style=""font-size: 40px;"">share</p>
          <p style=""font-size: 16px;"">J = YES &nbsp;&nbsp;&nbsp; F = NO</p>
        ","f","html-keyboard-response","259","2.1.0","291391","J=YES, F=NO","ndovcpb687","2","70","60","80","","","","","","","","","share","meal","literal","experimental","j","false","",""
"null","<p style=""font-size: 50px;"">+</p>","null","html-keyboard-response","260","2.1.0","291697","J=YES, F=NO","ndovcpb687","2","70","60","80","","","","","","","","","","","","","","","",""
"null","audio/beep-329314.mp3","null","audio-keyboard-response","261","2.1.0","293242","J=YES, F=NO","ndovcpb687","2","70","60","80","","","","","","","","","","","","","","","",""
"null","audio/breath.wav","null","audio-keyboard-response","262","2.1.0","293811","J=YES, F=NO","ndovcpb687","2","70","60","80","","","","","","","","","","","","","","","",""
"210","
          <p id=""word"" style=""font-size: 40px;"">twets</p>
          <p style=""font-size: 16px;"">J = YES &nbsp;&nbsp;&nbsp; F = NO</p>
        ","f","html-keyboard-response","263","2.1.0","294021","J=YES, F=NO","ndovcpb687","2","70","60","80","","","","","","","","","twets","breath","pseudoword","pseudoword","f","true","",""
"null","<p style=""font-size: 50px;"">+</p>","null","html-keyboard-response","264","2.1.0","294327","J=YES, F=NO","ndovcpb687","2","70","60","80","","","","","","","","","","","","","","","",""
"null","audio/beep-329314.mp3","null","audio-keyboard-response","265","2.1.0","295863","J=YES, F=NO","ndovcpb687","2","70","60","80","","","","","","","","","","","","","","","",""
"null","audio/novel.wav","null","audio-keyboard-response","266","2.1.0","296371","J=YES, F=NO","ndovcpb687","2","70","60","80","","","","","","","","","","","","","","","",""
"235","
          <p id=""word"" style=""font-size: 40px;"">type</p>
          <p style=""font-size: 16px;"">J = YES &nbsp;&nbsp;&nbsp; F = NO</p>
        ","f","html-keyboard-response","267","2.1.0","296606","J=YES, F=NO","ndovcpb687","2","70","60","80","","","","","","","","","type","novel","filler","filler","j","false","",""
"null","<p style=""font-size: 50px;"">+</p>","null","html-keyboard-response","268","2.1.0","296920","J=YES, F=NO","ndovcpb687","2","70","60","80","","","","","","","","","","","","","","","",""
"null","audio/beep-329314.mp3","null","audio-keyboard-response","269","2.1.0","298463","J=YES, F=NO","ndovcpb687","2","70","60","80","","","","","","","","","","","","","","","",""
"null","audio/floor.wav","null","audio-keyboard-response","270","2.1.0","299032","J=YES, F=NO","ndovcpb687","2","70","60","80","","","","","","","","","","","","","","","",""
"248","
          <p id=""word"" style=""font-size: 40px;"">mop</p>
          <p style=""font-size: 16px;"">J = YES &nbsp;&nbsp;&nbsp; F = NO</p>
        ","f","html-keyboard-response","271","2.1.0","299281","J=YES, F=NO","ndovcpb687","2","70","60","80","","","","","","","","","mop","floor","filler","filler","j","false","",""
"null","<p style=""font-size: 50px;"">+</p>","null","html-keyboard-response","272","2.1.0","299587","J=YES, F=NO","ndovcpb687","2","70","60","80","","","","","","","","","","","","","","","",""
"null","audio/beep-329314.mp3","null","audio-keyboard-response","273","2.1.0","301124","J=YES, F=NO","ndovcpb687","2","70","60","80","","","","","","","","","","","","","","","",""
"null","audio/alarm1.wav","null","audio-keyboard-response","274","2.1.0","301714","J=YES, F=NO","ndovcpb687","2","70","60","80","","","","","","","","","","","","","","","",""
"556","
          <p id=""word"" style=""font-size: 40px;"">swetp</p>
          <p style=""font-size: 16px;"">J = YES &nbsp;&nbsp;&nbsp; F = NO</p>
        ","f","html-keyboard-response","275","2.1.0","302270","J=YES, F=NO","ndovcpb687","2","70","60","80","","","","","","","","","swetp","alarm1","pseudoword","pseudoword","f","true","",""
"null","<p style=""font-size: 50px;"">+</p>","null","html-keyboard-response","276","2.1.0","302587","J=YES, F=NO","ndovcpb687","2","70","60","80","","","","","","","","","","","","","","","",""
"null","audio/beep-329314.mp3","null","audio-keyboard-response","277","2.1.0","304132","J=YES, F=NO","ndovcpb687","2","70","60","80","","","","","","","","","","","","","","","",""
"null","audio/truth1.wav","null","audio-keyboard-response","278","2.1.0","304701","J=YES, F=NO","ndovcpb687","2","70","60","80","","","","","","","","","","","","","","","",""
"368","
          <p id=""word"" style=""font-size: 40px;"">expose</p>
          <p style=""font-size: 16px;"">J = YES &nbsp;&nbsp;&nbsp; F = NO</p>
        ","f","html-keyboard-response","279","2.1.0","305069","J=YES, F=NO","ndovcpb687","2","70","60","80","","","","","","","","","expose","truth1","metaphor","experimental","j","false","",""
"null","<p style=""font-size: 50px;"">+</p>","null","html-keyboard-response","280","2.1.0","305380","J=YES, F=NO","ndovcpb687","2","70","60","80","","","","","","","","","","","","","","","",""
"null","audio/beep-329314.mp3","null","audio-keyboard-response","281","2.1.0","306915","J=YES, F=NO","ndovcpb687","2","70","60","80","","","","","","","","","","","","","","","",""
"null","audio/client1.wav","null","audio-keyboard-response","282","2.1.0","307606","J=YES, F=NO","ndovcpb687","2","70","60","80","","","","","","","","","","","","","","","",""
"295","
          <p id=""word"" style=""font-size: 40px;"">droothe</p>
          <p style=""font-size: 16px;"">J = YES &nbsp;&nbsp;&nbsp; F = NO</p>
        ","j","html-keyboard-response","283","2.1.0","307902","J=YES, F=NO","ndovcpb687","2","70","60","80","","","","","","","","","droothe","client1","pseudoword","pseudoword","f","false","",""
"null","<p style=""font-size: 50px;"">+</p>","null","html-keyboard-response","284","2.1.0","308205","J=YES, F=NO","ndovcpb687","2","70","60","80","","","","","","","","","","","","","","","",""
"null","audio/beep-329314.mp3","null","audio-keyboard-response","285","2.1.0","309740","J=YES, F=NO","ndovcpb687","2","70","60","80","","","","","","","","","","","","","","","",""
"null","audio/burden.wav","null","audio-keyboard-response","286","2.1.0","310268","J=YES, F=NO","ndovcpb687","2","70","60","80","","","","","","","","","","","","","","","",""
"386","
          <p id=""word"" style=""font-size: 40px;"">whotth</p>
          <p style=""font-size: 16px;"">J = YES &nbsp;&nbsp;&nbsp; F = NO</p>
        ","f","html-keyboard-response","287","2.1.0","310655","J=YES, F=NO","ndovcpb687","2","70","60","80","","","","","","","","","whotth","burden","pseudoword","pseudoword","f","true","",""
"null","<p style=""font-size: 50px;"">+</p>","null","html-keyboard-response","288","2.1.0","310970","J=YES, F=NO","ndovcpb687","2","70","60","80","","","","","","","","","","","","","","","",""
"null","audio/beep-329314.mp3","null","audio-keyboard-response","289","2.1.0","312503","J=YES, F=NO","ndovcpb687","2","70","60","80","","","","","","","","","","","","","","","",""
"null","audio/foot1.wav","null","audio-keyboard-response","290","2.1.0","313072","J=YES, F=NO","ndovcpb687","2","70","60","80","","","","","","","","","","","","","","","",""
"629","
          <p id=""word"" style=""font-size: 40px;"">thrutt</p>
          <p style=""font-size: 16px;"">J = YES &nbsp;&nbsp;&nbsp; F = NO</p>
        ","f","html-keyboard-response","291","2.1.0","313701","J=YES, F=NO","ndovcpb687","2","70","60","80","","","","","","","","","thrutt","foot1","pseudoword","pseudoword","f","true","",""
"null","<p style=""font-size: 50px;"">+</p>","null","html-keyboard-response","292","2.1.0","314015","J=YES, F=NO","ndovcpb687","2","70","60","80","","","","","","","","","","","","","","","",""
"null","audio/beep-329314.mp3","null","audio-keyboard-response","293","2.1.0","315550","J=YES, F=NO","ndovcpb687","2","70","60","80","","","","","","","","","","","","","","","",""
"null","audio/show.wav","null","audio-keyboard-response","294","2.1.0","316098","J=YES, F=NO","ndovcpb687","2","70","60","80","","","","","","","","","","","","","","","",""
"637","
          <p id=""word"" style=""font-size: 40px;"">hold</p>
          <p style=""font-size: 16px;"">J = YES &nbsp;&nbsp;&nbsp; F = NO</p>
        ","f","html-keyboard-response","295","2.1.0","316736","J=YES, F=NO","ndovcpb687","2","70","60","80","","","","","","","","","hold","show","metaphor","experimental","j","false","",""
"19057","<p>Excellent! You have finished block 2 of 8.</p>
                     <p>Feel free to take a 30 second break.</p>
                     <p>Press any key when you're ready to continue.</p>"," ","html-keyboard-response","296","2.1.0","335793","J=YES, F=NO","ndovcpb687","2","70","60","80","","","","","","","","","","","","","","","",""
"1246","<p>Starting main block 3 of 8. Press any key to continue.</p>"," ","html-keyboard-response","297","2.1.0","337040","J=YES, F=NO","ndovcpb687","2","70","60","80","","","","","","","","","","","","","","","",""
"null","<p style=""font-size: 50px;"">+</p>","null","html-keyboard-response","298","2.1.0","337344","J=YES, F=NO","ndovcpb687","2","70","60","80","","","","","","","","","","","","","","","",""
"null","audio/beep-329314.mp3","null","audio-keyboard-response","299","2.1.0","338867","J=YES, F=NO","ndovcpb687","2","70","60","80","","","","","","","","","","","","","","","",""
"null","audio/strength.wav","null","audio-keyboard-response","300","2.1.0","339598","J=YES, F=NO","ndovcpb687","2","70","60","80","","","","","","","","","","","","","","","",""
"701","
          <p id=""word"" style=""font-size: 40px;"">plabet</p>
          <p style=""font-size: 16px;"">J = YES &nbsp;&nbsp;&nbsp; F = NO</p>
        ","f","html-keyboard-response","301","2.1.0","340299","J=YES, F=NO","ndovcpb687","2","70","60","80","","","","","","","","","plabet","strength","pseudoword","pseudoword","f","true","",""
"null","<p style=""font-size: 50px;"">+</p>","null","html-keyboard-response","302","2.1.0","340603","J=YES, F=NO","ndovcpb687","2","70","60","80","","","","","","","","","","","","","","","",""
"null","audio/beep-329314.mp3","null","audio-keyboard-response","303","2.1.0","342138","J=YES, F=NO","ndovcpb687","2","70","60","80","","","","","","","","","","","","","","","",""
"null","audio/demon1.wav","null","audio-keyboard-response","304","2.1.0","342788","J=YES, F=NO","ndovcpb687","2","70","60","80","","","","","","","","","","","","","","","",""
"420","
          <p id=""word"" style=""font-size: 40px;"">wrestle</p>
          <p style=""font-size: 16px;"">J = YES &nbsp;&nbsp;&nbsp; F = NO</p>
        ","f","html-keyboard-response","305","2.1.0","343209","J=YES, F=NO","ndovcpb687","2","70","60","80","","","","","","","","","wrestle","demon1","metaphor","experimental","j","false","",""
"null","<p style=""font-size: 50px;"">+</p>","null","html-keyboard-response","306","2.1.0","343519","J=YES, F=NO","ndovcpb687","2","70","60","80","","","","","","","","","","","","","","","",""
"null","audio/beep-329314.mp3","null","audio-keyboard-response","307","2.1.0","345064","J=YES, F=NO","ndovcpb687","2","70","60","80","","","","","","","","","","","","","","","",""
"null","audio/bottle.wav","null","audio-keyboard-response","308","2.1.0","345531","J=YES, F=NO","ndovcpb687","2","70","60","80","","","","","","","","","","","","","","","",""
"317","
          <p id=""word"" style=""font-size: 40px;"">open</p>
          <p style=""font-size: 16px;"">J = YES &nbsp;&nbsp;&nbsp; F = NO</p>
        ","f","html-keyboard-response","309","2.1.0","345849","J=YES, F=NO","ndovcpb687","2","70","60","80","","","","","","","","","open","bottle","literal","experimental","j","false","",""
"null","<p style=""font-size: 50px;"">+</p>","null","html-keyboard-response","310","2.1.0","346155","J=YES, F=NO","ndovcpb687","2","70","60","80","","","","","","","","","","","","","","","",""
"null","audio/beep-329314.mp3","null","audio-keyboard-response","311","2.1.0","347684","J=YES, F=NO","ndovcpb687","2","70","60","80","","","","","","","","","","","","","","","",""
"null","audio/fortune1.wav","null","audio-keyboard-response","312","2.1.0","348457","J=YES, F=NO","ndovcpb687","2","70","60","80","","","","","","","","","","","","","","","",""
"874","
          <p id=""word"" style=""font-size: 40px;"">spend</p>
          <p style=""font-size: 16px;"">J = YES &nbsp;&nbsp;&nbsp; F = NO</p>
        ","f","html-keyboard-response","313","2.1.0","349332","J=YES, F=NO","ndovcpb687","2","70","60","80","","","","","","","","","spend","fortune1","literal","experimental","j","false","",""
"null","<p style=""font-size: 50px;"">+</p>","null","html-keyboard-response","314","2.1.0","349637","J=YES, F=NO","ndovcpb687","2","70","60","80","","","","","","","","","","","","","","","",""
"null","audio/beep-329314.mp3","null","audio-keyboard-response","315","2.1.0","351179","J=YES, F=NO","ndovcpb687","2","70","60","80","","","","","","","","","","","","","","","",""
"null","audio/sand.wav","null","audio-keyboard-response","316","2.1.0","351829","J=YES, F=NO","ndovcpb687","2","70","60","80","","","","","","","","","","","","","","","",""
"344","
          <p id=""word"" style=""font-size: 40px;"">proted</p>
          <p style=""font-size: 16px;"">J = YES &nbsp;&nbsp;&nbsp; F = NO</p>
        ","f","html-keyboard-response","317","2.1.0","352174","J=YES, F=NO","ndovcpb687","2","70","60","80","","","","","","","","","proted","sand","pseudoword","pseudoword","f","true","",""
"null","<p style=""font-size: 50px;"">+</p>","null","html-keyboard-response","318","2.1.0","352478","J=YES, F=NO","ndovcpb687","2","70","60","80","","","","","","","","","","","","","","","",""
"null","audio/beep-329314.mp3","null","audio-keyboard-response","319","2.1.0","354024","J=YES, F=NO","ndovcpb687","2","70","60","80","","","","","","","","","","","","","","","",""
"null","audio/cinema1.wav","null","audio-keyboard-response","320","2.1.0","354653","J=YES, F=NO","ndovcpb687","2","70","60","80","","","","","","","","","","","","","","","",""
"385","
          <p id=""word"" style=""font-size: 40px;"">murple</p>
          <p style=""font-size: 16px;"">J = YES &nbsp;&nbsp;&nbsp; F = NO</p>
        ","f","html-keyboard-response","321","2.1.0","355039","J=YES, F=NO","ndovcpb687","2","70","60","80","","","","","","","","","murple","cinema1","pseudoword","pseudoword","f","true","",""
"null","<p style=""font-size: 50px;"">+</p>","null","html-keyboard-response","322","2.1.0","355340","J=YES, F=NO","ndovcpb687","2","70","60","80","","","","","","","","","","","","","","","",""
"null","audio/beep-329314.mp3","null","audio-keyboard-response","323","2.1.0","356868","J=YES, F=NO","ndovcpb687","2","70","60","80","","","","","","","","","","","","","","","",""
"null","audio/mile1.wav","null","audio-keyboard-response","324","2.1.0","357355","J=YES, F=NO","ndovcpb687","2","70","60","80","","","","","","","","","","","","","","","",""
"301","
          <p id=""word"" style=""font-size: 40px;"">writch</p>
          <p style=""font-size: 16px;"">J = YES &nbsp;&nbsp;&nbsp; F = NO</p>
        ","f","html-keyboard-response","325","2.1.0","357657","J=YES, F=NO","ndovcpb687","2","70","60","80","","","","","","","","","writch","mile1","pseudoword","pseudoword","f","true","",""
"null","<p style=""font-size: 50px;"">+</p>","null","html-keyboard-response","326","2.1.0","357963","J=YES, F=NO","ndovcpb687","2","70","60","80","","","","","","","","","","","","","","","",""
"null","audio/beep-329314.mp3","null","audio-keyboard-response","327","2.1.0","359488","J=YES, F=NO","ndovcpb687","2","70","60","80","","","","","","","","","","","","","","","",""
"null","audio/train.wav","null","audio-keyboard-response","328","2.1.0","360017","J=YES, F=NO","ndovcpb687","2","70","60","80","","","","","","","","","","","","","","","",""
"256","
          <p id=""word"" style=""font-size: 40px;"">catch</p>
          <p style=""font-size: 16px;"">J = YES &nbsp;&nbsp;&nbsp; F = NO</p>
        ","f","html-keyboard-response","329","2.1.0","360273","J=YES, F=NO","ndovcpb687","2","70","60","80","","","","","","","","","catch","train","metaphor","experimental","j","false","",""
"null","<p style=""font-size: 50px;"">+</p>","null","html-keyboard-response","330","2.1.0","360586","J=YES, F=NO","ndovcpb687","2","70","60","80","","","","","","","","","","","","","","","",""
"null","audio/beep-329314.mp3","null","audio-keyboard-response","331","2.1.0","362130","J=YES, F=NO","ndovcpb687","2","70","60","80","","","","","","","","","","","","","","","",""
"null","audio/road.wav","null","audio-keyboard-response","332","2.1.0","362577","J=YES, F=NO","ndovcpb687","2","70","60","80","","","","","","","","","","","","","","","",""
"null","
          <p id=""word"" style=""font-size: 40px;"">flood</p>
          <p style=""font-size: 16px;"">J = YES &nbsp;&nbsp;&nbsp; F = NO</p>
        ","null","html-keyboard-response","333","2.1.0","364080","J=YES, F=NO","ndovcpb687","2","70","60","80","","","","","","","","","flood","road","literal","experimental","j","false","",""
"null","<p style=""font-size: 50px;"">+</p>","null","html-keyboard-response","334","2.1.0","364392","J=YES, F=NO","ndovcpb687","2","70","60","80","","","","","","","","","","","","","","","",""
"null","audio/beep-329314.mp3","null","audio-keyboard-response","335","2.1.0","365929","J=YES, F=NO","ndovcpb687","2","70","60","80","","","","","","","","","","","","","","","",""
"null","audio/survey1.wav","null","audio-keyboard-response","336","2.1.0","366661","J=YES, F=NO","ndovcpb687","2","70","60","80","","","","","","","","","","","","","","","",""
"679","
          <p id=""word"" style=""font-size: 40px;"">release</p>
          <p style=""font-size: 16px;"">J = YES &nbsp;&nbsp;&nbsp; F = NO</p>
        ","f","html-keyboard-response","337","2.1.0","367340","J=YES, F=NO","ndovcpb687","2","70","60","80","","","","","","","","","release","survey1","metaphor","experimental","j","false","",""
"null","<p style=""font-size: 50px;"">+</p>","null","html-keyboard-response","338","2.1.0","367643","J=YES, F=NO","ndovcpb687","2","70","60","80","","","","","","","","","","","","","","","",""
"null","audio/beep-329314.mp3","null","audio-keyboard-response","339","2.1.0","369180","J=YES, F=NO","ndovcpb687","2","70","60","80","","","","","","","","","","","","","","","",""
"null","audio/brain.wav","null","audio-keyboard-response","340","2.1.0","369668","J=YES, F=NO","ndovcpb687","2","70","60","80","","","","","","","","","","","","","","","",""
"526","
          <p id=""word"" style=""font-size: 40px;"">throw</p>
          <p style=""font-size: 16px;"">J = YES &nbsp;&nbsp;&nbsp; F = NO</p>
        ","f","html-keyboard-response","341","2.1.0","370194","J=YES, F=NO","ndovcpb687","2","70","60","80","","","","","","","","","throw","brain","filler","filler","j","false","",""
"null","<p style=""font-size: 50px;"">+</p>","null","html-keyboard-response","342","2.1.0","370499","J=YES, F=NO","ndovcpb687","2","70","60","80","","","","","","","","","","","","","","","",""
"null","audio/beep-329314.mp3","null","audio-keyboard-response","343","2.1.0","372024","J=YES, F=NO","ndovcpb687","2","70","60","80","","","","","","","","","","","","","","","",""
"null","audio/emotion.wav","null","audio-keyboard-response","344","2.1.0","372695","J=YES, F=NO","ndovcpb687","2","70","60","80","","","","","","","","","","","","","","","",""
"319","
          <p id=""word"" style=""font-size: 40px;"">devering</p>
          <p style=""font-size: 16px;"">J = YES &nbsp;&nbsp;&nbsp; F = NO</p>
        ","f","html-keyboard-response","345","2.1.0","373015","J=YES, F=NO","ndovcpb687","2","70","60","80","","","","","","","","","devering","emotion","pseudoword","pseudoword","f","true","",""
"null","<p style=""font-size: 50px;"">+</p>","null","html-keyboard-response","346","2.1.0","373323","J=YES, F=NO","ndovcpb687","2","70","60","80","","","","","","","","","","","","","","","",""
"null","audio/beep-329314.mp3","null","audio-keyboard-response","347","2.1.0","374849","J=YES, F=NO","ndovcpb687","2","70","60","80","","","","","","","","","","","","","","","",""
"null","audio/ego.wav","null","audio-keyboard-response","348","2.1.0","375417","J=YES, F=NO","ndovcpb687","2","70","60","80","","","","","","","","","","","","","","","",""
"248","
          <p id=""word"" style=""font-size: 40px;"">feed</p>
          <p style=""font-size: 16px;"">J = YES &nbsp;&nbsp;&nbsp; F = NO</p>
        ","f","html-keyboard-response","349","2.1.0","375666","J=YES, F=NO","ndovcpb687","2","70","60","80","","","","","","","","","feed","ego","metaphor","experimental","j","false","",""
"null","<p style=""font-size: 50px;"">+</p>","null","html-keyboard-response","350","2.1.0","375986","J=YES, F=NO","ndovcpb687","2","70","60","80","","","","","","","","","","","","","","","",""
"null","audio/beep-329314.mp3","null","audio-keyboard-response","351","2.1.0","377510","J=YES, F=NO","ndovcpb687","2","70","60","80","","","","","","","","","","","","","","","",""
"null","audio/key1.wav","null","audio-keyboard-response","352","2.1.0","377896","J=YES, F=NO","ndovcpb687","2","70","60","80","","","","","","","","","","","","","","","",""
"275","
          <p id=""word"" style=""font-size: 40px;"">lose</p>
          <p style=""font-size: 16px;"">J = YES &nbsp;&nbsp;&nbsp; F = NO</p>
        ","f","html-keyboard-response","353","2.1.0","378172","J=YES, F=NO","ndovcpb687","2","70","60","80","","","","","","","","","lose","key1","literal","experimental","j","false","",""
"null","<p style=""font-size: 50px;"">+</p>","null","html-keyboard-response","354","2.1.0","378474","J=YES, F=NO","ndovcpb687","2","70","60","80","","","","","","","","","","","","","","","",""
"null","audio/beep-329314.mp3","null","audio-keyboard-response","355","2.1.0","380009","J=YES, F=NO","ndovcpb687","2","70","60","80","","","","","","","","","","","","","","","",""
"null","audio/truth1.wav","null","audio-keyboard-response","356","2.1.0","380578","J=YES, F=NO","ndovcpb687","2","70","60","80","","","","","","","","","","","","","","","",""
"121","
          <p id=""word"" style=""font-size: 40px;"">calitom</p>
          <p style=""font-size: 16px;"">J = YES &nbsp;&nbsp;&nbsp; F = NO</p>
        ","f","html-keyboard-response","357","2.1.0","380700","J=YES, F=NO","ndovcpb687","2","70","60","80","","","","","","","","","calitom","truth1","pseudoword","pseudoword","f","true","",""
"null","<p style=""font-size: 50px;"">+</p>","null","html-keyboard-response","358","2.1.0","381015","J=YES, F=NO","ndovcpb687","2","70","60","80","","","","","","","","","","","","","","","",""
"null","audio/beep-329314.mp3","null","audio-keyboard-response","359","2.1.0","382549","J=YES, F=NO","ndovcpb687","2","70","60","80","","","","","","","","","","","","","","","",""
"null","audio/gift1.wav","null","audio-keyboard-response","360","2.1.0","383016","J=YES, F=NO","ndovcpb687","2","70","60","80","","","","","","","","","","","","","","","",""
"97","
          <p id=""word"" style=""font-size: 40px;"">protsh</p>
          <p style=""font-size: 16px;"">J = YES &nbsp;&nbsp;&nbsp; F = NO</p>
        ","f","html-keyboard-response","361","2.1.0","383114","J=YES, F=NO","ndovcpb687","2","70","60","80","","","","","","","","","protsh","gift1","pseudoword","pseudoword","f","true","",""
"40098","<p>Excellent! You have finished block 3 of 8.</p>
                     <p>Feel free to take a 30 second break.</p>
                     <p>Press any key when you're ready to continue.</p>"," ","html-keyboard-response","362","2.1.0","423213","J=YES, F=NO","ndovcpb687","2","70","60","80","","","","","","","","","","","","","","","",""
"1270","<p>Starting main block 4 of 8. Press any key to continue.</p>"," ","html-keyboard-response","363","2.1.0","424483","J=YES, F=NO","ndovcpb687","2","70","60","80","","","","","","","","","","","","","","","",""
"null","<p style=""font-size: 50px;"">+</p>","null","html-keyboard-response","364","2.1.0","424795","J=YES, F=NO","ndovcpb687","2","70","60","80","","","","","","","","","","","","","","","",""
"null","audio/beep-329314.mp3","null","audio-keyboard-response","365","2.1.0","426308","J=YES, F=NO","ndovcpb687","2","70","60","80","","","","","","","","","","","","","","","",""
"null","audio/road.wav","null","audio-keyboard-response","366","2.1.0","426724","J=YES, F=NO","ndovcpb687","2","70","60","80","","","","","","","","","","","","","","","",""
"916","
          <p id=""word"" style=""font-size: 40px;"">wappings</p>
          <p style=""font-size: 16px;"">J = YES &nbsp;&nbsp;&nbsp; F = NO</p>
        ","f","html-keyboard-response","367","2.1.0","427640","J=YES, F=NO","ndovcpb687","2","70","60","80","","","","","","","","","wappings","road","pseudoword","pseudoword","f","true","",""
"null","<p style=""font-size: 50px;"">+</p>","null","html-keyboard-response","368","2.1.0","427954","J=YES, F=NO","ndovcpb687","2","70","60","80","","","","","","","","","","","","","","","",""
"null","audio/beep-329314.mp3","null","audio-keyboard-response","369","2.1.0","429498","J=YES, F=NO","ndovcpb687","2","70","60","80","","","","","","","","","","","","","","","",""
"null","audio/foe1.wav","null","audio-keyboard-response","370","2.1.0","430036","J=YES, F=NO","ndovcpb687","2","70","60","80","","","","","","","","","","","","","","","",""
"659","
          <p id=""word"" style=""font-size: 40px;"">creth</p>
          <p style=""font-size: 16px;"">J = YES &nbsp;&nbsp;&nbsp; F = NO</p>
        ","f","html-keyboard-response","371","2.1.0","430696","J=YES, F=NO","ndovcpb687","2","70","60","80","","","","","","","","","creth","foe1","pseudoword","pseudoword","f","true","",""
"null","<p style=""font-size: 50px;"">+</p>","null","html-keyboard-response","372","2.1.0","431000","J=YES, F=NO","ndovcpb687","2","70","60","80","","","","","","","","","","","","","","","",""
"null","audio/beep-329314.mp3","null","audio-keyboard-response","373","2.1.0","432545","J=YES, F=NO","ndovcpb687","2","70","60","80","","","","","","","","","","","","","","","",""
"null","audio/sugar1.wav","null","audio-keyboard-response","374","2.1.0","433043","J=YES, F=NO","ndovcpb687","2","70","60","80","","","","","","","","","","","","","","","",""
"677","
          <p id=""word"" style=""font-size: 40px;"">glung</p>
          <p style=""font-size: 16px;"">J = YES &nbsp;&nbsp;&nbsp; F = NO</p>
        ","f","html-keyboard-response","375","2.1.0","433720","J=YES, F=NO","ndovcpb687","2","70","60","80","","","","","","","","","glung","sugar1","pseudoword","pseudoword","f","true","",""
"null","<p style=""font-size: 50px;"">+</p>","null","html-keyboard-response","376","2.1.0","434028","J=YES, F=NO","ndovcpb687","2","70","60","80","","","","","","","","","","","","","","","",""
"null","audio/beep-329314.mp3","null","audio-keyboard-response","377","2.1.0","435573","J=YES, F=NO","ndovcpb687","2","70","60","80","","","","","","","","","","","","","","","",""
"null","audio/ankle1.wav","null","audio-keyboard-response","378","2.1.0","436091","J=YES, F=NO","ndovcpb687","2","70","60","80","","","","","","","","","","","","","","","",""
"639","
          <p id=""word"" style=""font-size: 40px;"">switm</p>
          <p style=""font-size: 16px;"">J = YES &nbsp;&nbsp;&nbsp; F = NO</p>
        ","f","html-keyboard-response","379","2.1.0","436730","J=YES, F=NO","ndovcpb687","2","70","60","80","","","","","","","","","switm","ankle1","pseudoword","pseudoword","f","true","",""
"null","<p style=""font-size: 50px;"">+</p>","null","html-keyboard-response","380","2.1.0","437035","J=YES, F=NO","ndovcpb687","2","70","60","80","","","","","","","","","","","","","","","",""
"null","audio/beep-329314.mp3","null","audio-keyboard-response","381","2.1.0","438579","J=YES, F=NO","ndovcpb687","2","70","60","80","","","","","","","","","","","","","","","",""
"null","audio/gossip1.wav","null","audio-keyboard-response","382","2.1.0","439220","J=YES, F=NO","ndovcpb687","2","70","60","80","","","","","","","","","","","","","","","",""
"533","
          <p id=""word"" style=""font-size: 40px;"">camerish</p>
          <p style=""font-size: 16px;"">J = YES &nbsp;&nbsp;&nbsp; F = NO</p>
        ","f","html-keyboard-response","383","2.1.0","439753","J=YES, F=NO","ndovcpb687","2","70","60","80","","","","","","","","","camerish","gossip1","pseudoword","pseudoword","f","true","",""
"null","<p style=""font-size: 50px;"">+</p>","null","html-keyboard-response","384","2.1.0","440062","J=YES, F=NO","ndovcpb687","2","70","60","80","","","","","","","","","","","","","","","",""
"null","audio/beep-329314.mp3","null","audio-keyboard-response","385","2.1.0","441607","J=YES, F=NO","ndovcpb687","2","70","60","80","","","","","","","","","","","","","","","",""
"null","audio/bush1.wav","null","audio-keyboard-response","386","2.1.0","442246","J=YES, F=NO","ndovcpb687","2","70","60","80","","","","","","","","","","","","","","","",""
"483","
          <p id=""word"" style=""font-size: 40px;"">platined</p>
          <p style=""font-size: 16px;"">J = YES &nbsp;&nbsp;&nbsp; F = NO</p>
        ","j","html-keyboard-response","387","2.1.0","442730","J=YES, F=NO","ndovcpb687","2","70","60","80","","","","","","","","","platined","bush1","pseudoword","pseudoword","f","false","",""
"null","<p style=""font-size: 50px;"">+</p>","null","html-keyboard-response","388","2.1.0","443038","J=YES, F=NO","ndovcpb687","2","70","60","80","","","","","","","","","","","","","","","",""
"null","audio/beep-329314.mp3","null","audio-keyboard-response","389","2.1.0","444573","J=YES, F=NO","ndovcpb687","2","70","60","80","","","","","","","","","","","","","","","",""
"null","audio/weight1.wav","null","audio-keyboard-response","390","2.1.0","445132","J=YES, F=NO","ndovcpb687","2","70","60","80","","","","","","","","","","","","","","","",""
"486","
          <p id=""word"" style=""font-size: 40px;"">crimsh</p>
          <p style=""font-size: 16px;"">J = YES &nbsp;&nbsp;&nbsp; F = NO</p>
        ","f","html-keyboard-response","391","2.1.0","445618","J=YES, F=NO","ndovcpb687","2","70","60","80","","","","","","","","","crimsh","weight1","pseudoword","pseudoword","f","true","",""
