"rt","stimulus","response","trial_type","trial_index","plugin_version","time_elapsed","response_mapping","subject_id","list_index","lextale_score","lextale_word_score","lextale_nonword_score","success","timeout","failed_images","failed_audio","failed_video","task","isWord","isDummy","target","prime","prime_type","stimulus_type","correct_response","correct","section","question_order"
"101763","
    <div style=""max-width: 800px; margin: auto; text-align: left;"">
      <h2>STANFORD UNIVERSITY</h2>
      <h3>Research Information Sheet</h3>
      <p><strong>Protocol Director:</strong> Robert Hawkins<br>
      <strong>Protocol Title:</strong> Communication and social cognition in natural audiovisual contexts<br>
      <strong>IRB#:</strong> 77226</p>

      <p><strong>DESCRIPTION:</strong> You are invited to participate in a research study about language and communication. The purpose of the research is to understand how you interact and communicate with other people in naturalistic settings as a fluent English speaker. This research will be conducted through the Prolific platform, including participants from the US, UK, and Canada. If you decide to participate in this research, you will play a communication game in a group with one or more partners.</p>

      <p><strong>TIME INVOLVEMENT:</strong> The task will last the amount of time advertised on Prolific. You are free to withdraw from the study at any time.</p>

      <p><strong>RISKS AND BENEFITS:</strong> You may become frustrated if your partner gets distracted, or experience discomfort if other participants in your group send text that is inappropriate for the task. We ask you to please be respectful of other participants you might be interacting with to mitigate these risks. You may also experience discomfort when being asked to discuss or challenge emotionally salient political beliefs. Study data will be stored securely, in compliance with Stanford University standards, minimizing the risk of confidentiality breach. This study advances our scientific understanding of how people communicate and collaborate in naturalistic settings. This study may lead to further insights about what can go wrong in teamwork, suggest potential interventions to overcome these barriers, and help to develop assistive technologies that collaborate with human partners. We cannot and do not guarantee or promise that you will receive any benefits from this study.</p>

      <p><strong>PAYMENTS:</strong> You will receive payment in the amount advertised on Prolific. If you do not complete this study, you will receive prorated payment based on the time that you have spent. Additionally, you may be eligible for bonus payments as described in the instructions.</p>

      <p><strong>PARTICIPANT’S RIGHTS:</strong> If you have read this form and have decided to participate in this project, please understand your participation is voluntary and you have the right to withdraw your consent or discontinue participation at any time without penalty or loss of benefits to which you are otherwise entitled. The alternative is not to participate. You have the right to refuse to answer particular questions. The results of this research study may be presented at scientific or professional meetings or published in scientific journals. Your individual privacy will be maintained in all published and written data resulting from the study. In accordance with scientific norms, the data from this study may be used or shared with other researchers for future research (after removing personally identifying information) without additional consent from you.</p>

      <p><strong>CONTACT INFORMATION:</strong><br>
      Questions: If you have any questions, concerns or complaints about this research, its procedures, risks and benefits, contact the Protocol Director, Robert Hawkins (<a href=""mailto:rdhawkins@stanford.edu"">rdhawkins@stanford.edu</a>, 217-549-6923).<br>
      Independent Contact: If you are not satisfied with how this study is being conducted, or if you have any concerns, complaints, or general questions about the research or your rights as a participant, please contact the Stanford Institutional Review Board (IRB) to speak to someone independent of the research team at 650-723-2480 or toll free at 1-866-680-2906, or email at <a href=""mailto:irbnon-med@stanford.edu"">irbnon-med@stanford.edu</a>. You can also write to the Stanford IRB, Stanford University, 1705 El Camino Real, Palo Alto, CA 94306.</p>

      <p><strong>Please save or print a copy of this page for your records.</strong></p>
      <p>If you agree to participate in this research, click ""Continue"" below.</p>
    </div>
  ","0","html-button-response","0","2.1.0","101776","F=YES, J=NO","nxdxnujrtl","2","84","83","85","","","","","","","","","","","","","","","",""
"18637","
    <div style=""max-width: 800px; margin: auto; text-align: left;"">
      <h2>Welcome!</h2>
      <p>Thank you for participating in this study. The experiment consists of three parts:</p>
      <ol>
        <li>An English vocabulary test</li>
        <li>A main task in which you will hear and see words, and decide whether the written word is a real English word</li>
        <li>A brief survey about your background</li>
      </ol>
      <p>Each part will be introduced before it begins.</p>
      <p>Please make sure you are in a quiet environment and can hear audio clearly for the final task.</p>
      <p style=""margin-top: 2em;"">Press any key to begin.</p>
    </div>
  "," ","html-keyboard-response","1","2.1.0","120417","F=YES, J=NO","nxdxnujrtl","2","84","83","85","","","","","","","","","","","","","","","",""
"","","","preload","2","2.1.0","122326","F=YES, J=NO","nxdxnujrtl","2","84","83","85","true","false","[]","[]","[]","","","","","","","","","","",""
"27345","
    <div style=""max-width: 800px; margin: auto; text-align: left;"">
      <h2>Part 1: Vocabulary Test</h2>
      <p>You will now complete the first part of the study: a short English vocabulary test.</p>
      <p>This test is called <strong>LexTALE</strong> and helps us get a general sense of your English proficiency.</p>
      <p style=""margin-top: 2em;"">Press any key to continue.</p>
    </div>
  "," ","html-keyboard-response","3","2.1.0","149672","F=YES, J=NO","nxdxnujrtl","2","84","83","85","","","","","","","","","","","","","","","",""
"13451","
    <div style=""max-width: 800px; margin: auto; text-align: left;"">
      <h2>LexTALE Vocabulary Test</h2>
      <p>In this test, you will see a series of letter strings—one at a time.</p>
      <p>Your task is to decide whether each string is a real English word.</p>
      <p><strong>Key responses:</strong></p>
      <ul>
        <li><strong>F</strong> = YES (real English word)</li>
        <li><strong>J</strong> = NO (not a real English word)</li>
      </ul>
      <p>There is no time limit, but please try to be accurate.</p>
      <p style=""margin-top: 2em;"">Press any key to begin.</p>
    </div>
  "," ","html-keyboard-response","4","2.1.0","163124","F=YES, J=NO","nxdxnujrtl","2","84","83","85","","","","","","","","","","","","","","","",""
"4458","
  <p style=""font-size: 40px;"">platery</p>
  <p style=""font-size: 16px;"">F = YES &nbsp;&nbsp;&nbsp; J = NO</p>
","j","html-keyboard-response","5","2.1.0","167586","F=YES, J=NO","nxdxnujrtl","2","84","83","85","","","","","","lextale","false","true","","","","","","","",""
"1025","
  <p style=""font-size: 40px;"">denial</p>
  <p style=""font-size: 16px;"">F = YES &nbsp;&nbsp;&nbsp; J = NO</p>
","f","html-keyboard-response","6","2.1.0","168613","F=YES, J=NO","nxdxnujrtl","2","84","83","85","","","","","","lextale","true","true","","","","","","","",""
"2849","
  <p style=""font-size: 40px;"">marrit</p>
  <p style=""font-size: 16px;"">F = YES &nbsp;&nbsp;&nbsp; J = NO</p>
","j","html-keyboard-response","7","2.1.0","171464","F=YES, J=NO","nxdxnujrtl","2","84","83","85","","","","","","lextale","false","true","","","","","","","",""
"936","
  <p style=""font-size: 40px;"">bottle</p>
  <p style=""font-size: 16px;"">F = YES &nbsp;&nbsp;&nbsp; J = NO</p>
","f","html-keyboard-response","8","2.1.0","172402","F=YES, J=NO","nxdxnujrtl","2","84","83","85","","","","","","lextale","true","false","","","","","","","",""
"3431","
  <p style=""font-size: 40px;"">birst</p>
  <p style=""font-size: 16px;"">F = YES &nbsp;&nbsp;&nbsp; J = NO</p>
","j","html-keyboard-response","9","2.1.0","175835","F=YES, J=NO","nxdxnujrtl","2","84","83","85","","","","","","lextale","false","false","","","","","","","",""
"650","
  <p style=""font-size: 40px;"">envy</p>
  <p style=""font-size: 16px;"">F = YES &nbsp;&nbsp;&nbsp; J = NO</p>
","f","html-keyboard-response","10","2.1.0","176487","F=YES, J=NO","nxdxnujrtl","2","84","83","85","","","","","","lextale","true","false","","","","","","","",""
"1295","
  <p style=""font-size: 40px;"">brang</p>
  <p style=""font-size: 16px;"">F = YES &nbsp;&nbsp;&nbsp; J = NO</p>
","j","html-keyboard-response","11","2.1.0","177784","F=YES, J=NO","nxdxnujrtl","2","84","83","85","","","","","","lextale","false","false","","","","","","","",""
"719","
  <p style=""font-size: 40px;"">huge</p>
  <p style=""font-size: 16px;"">F = YES &nbsp;&nbsp;&nbsp; J = NO</p>
","f","html-keyboard-response","12","2.1.0","178504","F=YES, J=NO","nxdxnujrtl","2","84","83","85","","","","","","lextale","true","false","","","","","","","",""
"3661","
  <p style=""font-size: 40px;"">plove</p>
  <p style=""font-size: 16px;"">F = YES &nbsp;&nbsp;&nbsp; J = NO</p>
","j","html-keyboard-response","13","2.1.0","182167","F=YES, J=NO","nxdxnujrtl","2","84","83","85","","","","","","lextale","false","false","","","","","","","",""
"947","
  <p style=""font-size: 40px;"">border</p>
  <p style=""font-size: 16px;"">F = YES &nbsp;&nbsp;&nbsp; J = NO</p>
","f","html-keyboard-response","14","2.1.0","183116","F=YES, J=NO","nxdxnujrtl","2","84","83","85","","","","","","lextale","true","false","","","","","","","",""
"16619","
  <p style=""font-size: 40px;"">flimsy</p>
  <p style=""font-size: 16px;"">F = YES &nbsp;&nbsp;&nbsp; J = NO</p>
","f","html-keyboard-response","15","2.1.0","199737","F=YES, J=NO","nxdxnujrtl","2","84","83","85","","","","","","lextale","true","false","","","","","","","",""
"778","
  <p style=""font-size: 40px;"">drain</p>
  <p style=""font-size: 16px;"">F = YES &nbsp;&nbsp;&nbsp; J = NO</p>
","f","html-keyboard-response","16","2.1.0","200518","F=YES, J=NO","nxdxnujrtl","2","84","83","85","","","","","","lextale","true","false","","","","","","","",""
"13251","
  <p style=""font-size: 40px;"">twindle</p>
  <p style=""font-size: 16px;"">F = YES &nbsp;&nbsp;&nbsp; J = NO</p>
","j","html-keyboard-response","17","2.1.0","213770","F=YES, J=NO","nxdxnujrtl","2","84","83","85","","","","","","lextale","false","false","","","","","","","",""
"961","
  <p style=""font-size: 40px;"">propose</p>
  <p style=""font-size: 16px;"">F = YES &nbsp;&nbsp;&nbsp; J = NO</p>
","f","html-keyboard-response","18","2.1.0","214734","F=YES, J=NO","nxdxnujrtl","2","84","83","85","","","","","","lextale","true","false","","","","","","","",""
"9942","
  <p style=""font-size: 40px;"">forlay</p>
  <p style=""font-size: 16px;"">F = YES &nbsp;&nbsp;&nbsp; J = NO</p>
","j","html-keyboard-response","19","2.1.0","224678","F=YES, J=NO","nxdxnujrtl","2","84","83","85","","","","","","lextale","false","false","","","","","","","",""
"1231","
  <p style=""font-size: 40px;"">tenant</p>
  <p style=""font-size: 16px;"">F = YES &nbsp;&nbsp;&nbsp; J = NO</p>
","f","html-keyboard-response","20","2.1.0","225911","F=YES, J=NO","nxdxnujrtl","2","84","83","85","","","","","","lextale","true","false","","","","","","","",""
"947","
  <p style=""font-size: 40px;"">strain</p>
  <p style=""font-size: 16px;"">F = YES &nbsp;&nbsp;&nbsp; J = NO</p>
","f","html-keyboard-response","21","2.1.0","226860","F=YES, J=NO","nxdxnujrtl","2","84","83","85","","","","","","lextale","true","false","","","","","","","",""
"1800","
  <p style=""font-size: 40px;"">holster</p>
  <p style=""font-size: 16px;"">F = YES &nbsp;&nbsp;&nbsp; J = NO</p>
","f","html-keyboard-response","22","2.1.0","228662","F=YES, J=NO","nxdxnujrtl","2","84","83","85","","","","","","lextale","true","false","","","","","","","",""
"2050","
  <p style=""font-size: 40px;"">hinder</p>
  <p style=""font-size: 16px;"">F = YES &nbsp;&nbsp;&nbsp; J = NO</p>
","f","html-keyboard-response","23","2.1.0","230714","F=YES, J=NO","nxdxnujrtl","2","84","83","85","","","","","","lextale","true","false","","","","","","","",""
"1642","
  <p style=""font-size: 40px;"">swindle</p>
  <p style=""font-size: 16px;"">F = YES &nbsp;&nbsp;&nbsp; J = NO</p>
","f","html-keyboard-response","24","2.1.0","232358","F=YES, J=NO","nxdxnujrtl","2","84","83","85","","","","","","lextale","true","false","","","","","","","",""
"1106","
  <p style=""font-size: 40px;"">nuder</p>
  <p style=""font-size: 16px;"">F = YES &nbsp;&nbsp;&nbsp; J = NO</p>
","j","html-keyboard-response","25","2.1.0","233465","F=YES, J=NO","nxdxnujrtl","2","84","83","85","","","","","","lextale","false","false","","","","","","","",""
"754","
  <p style=""font-size: 40px;"">pillow</p>
  <p style=""font-size: 16px;"">F = YES &nbsp;&nbsp;&nbsp; J = NO</p>
","f","html-keyboard-response","26","2.1.0","234221","F=YES, J=NO","nxdxnujrtl","2","84","83","85","","","","","","lextale","true","false","","","","","","","",""
"3004","
  <p style=""font-size: 40px;"">shumble</p>
  <p style=""font-size: 16px;"">F = YES &nbsp;&nbsp;&nbsp; J = NO</p>
","j","html-keyboard-response","27","2.1.0","237227","F=YES, J=NO","nxdxnujrtl","2","84","83","85","","","","","","lextale","false","false","","","","","","","",""
"2044","
  <p style=""font-size: 40px;"">thirst</p>
  <p style=""font-size: 16px;"">F = YES &nbsp;&nbsp;&nbsp; J = NO</p>
","f","html-keyboard-response","28","2.1.0","239272","F=YES, J=NO","nxdxnujrtl","2","84","83","85","","","","","","lextale","true","false","","","","","","","",""
"12432","
  <p style=""font-size: 40px;"">unsail</p>
  <p style=""font-size: 16px;"">F = YES &nbsp;&nbsp;&nbsp; J = NO</p>
","j","html-keyboard-response","29","2.1.0","251706","F=YES, J=NO","nxdxnujrtl","2","84","83","85","","","","","","lextale","false","false","","","","","","","",""
"1260","
  <p style=""font-size: 40px;"">rifle</p>
  <p style=""font-size: 16px;"">F = YES &nbsp;&nbsp;&nbsp; J = NO</p>
","f","html-keyboard-response","30","2.1.0","252967","F=YES, J=NO","nxdxnujrtl","2","84","83","85","","","","","","lextale","true","false","","","","","","","",""
"11879","
  <p style=""font-size: 40px;"">mush</p>
  <p style=""font-size: 16px;"">F = YES &nbsp;&nbsp;&nbsp; J = NO</p>
","f","html-keyboard-response","31","2.1.0","264848","F=YES, J=NO","nxdxnujrtl","2","84","83","85","","","","","","lextale","false","false","","","","","","","",""
"10678","
  <p style=""font-size: 40px;"">drench</p>
  <p style=""font-size: 16px;"">F = YES &nbsp;&nbsp;&nbsp; J = NO</p>
","f","html-keyboard-response","32","2.1.0","275527","F=YES, J=NO","nxdxnujrtl","2","84","83","85","","","","","","lextale","true","false","","","","","","","",""
"1796","
  <p style=""font-size: 40px;"">snirt</p>
  <p style=""font-size: 16px;"">F = YES &nbsp;&nbsp;&nbsp; J = NO</p>
","j","html-keyboard-response","33","2.1.0","277325","F=YES, J=NO","nxdxnujrtl","2","84","83","85","","","","","","lextale","false","false","","","","","","","",""
"943","
  <p style=""font-size: 40px;"">bitter</p>
  <p style=""font-size: 16px;"">F = YES &nbsp;&nbsp;&nbsp; J = NO</p>
","f","html-keyboard-response","34","2.1.0","278269","F=YES, J=NO","nxdxnujrtl","2","84","83","85","","","","","","lextale","true","false","","","","","","","",""
"3285","
  <p style=""font-size: 40px;"">pliff</p>
  <p style=""font-size: 16px;"">F = YES &nbsp;&nbsp;&nbsp; J = NO</p>
","j","html-keyboard-response","35","2.1.0","281577","F=YES, J=NO","nxdxnujrtl","2","84","83","85","","","","","","lextale","false","false","","","","","","","",""
"1324","
  <p style=""font-size: 40px;"">tablet</p>
  <p style=""font-size: 16px;"">F = YES &nbsp;&nbsp;&nbsp; J = NO</p>
","f","html-keyboard-response","36","2.1.0","282903","F=YES, J=NO","nxdxnujrtl","2","84","83","85","","","","","","lextale","true","false","","","","","","","",""
"1577","
  <p style=""font-size: 40px;"">glimmer</p>
  <p style=""font-size: 16px;"">F = YES &nbsp;&nbsp;&nbsp; J = NO</p>
","f","html-keyboard-response","37","2.1.0","284483","F=YES, J=NO","nxdxnujrtl","2","84","83","85","","","","","","lextale","true","false","","","","","","","",""
"2388","
  <p style=""font-size: 40px;"">slink</p>
  <p style=""font-size: 16px;"">F = YES &nbsp;&nbsp;&nbsp; J = NO</p>
","j","html-keyboard-response","38","2.1.0","286873","F=YES, J=NO","nxdxnujrtl","2","84","83","85","","","","","","lextale","true","false","","","","","","","",""
"811","
  <p style=""font-size: 40px;"">clever</p>
  <p style=""font-size: 16px;"">F = YES &nbsp;&nbsp;&nbsp; J = NO</p>
","f","html-keyboard-response","39","2.1.0","287685","F=YES, J=NO","nxdxnujrtl","2","84","83","85","","","","","","lextale","true","false","","","","","","","",""
"987","
  <p style=""font-size: 40px;"">grum</p>
  <p style=""font-size: 16px;"">F = YES &nbsp;&nbsp;&nbsp; J = NO</p>
","j","html-keyboard-response","40","2.1.0","288674","F=YES, J=NO","nxdxnujrtl","2","84","83","85","","","","","","lextale","false","false","","","","","","","",""
"2071","
  <p style=""font-size: 40px;"">string</p>
  <p style=""font-size: 16px;"">F = YES &nbsp;&nbsp;&nbsp; J = NO</p>
","f","html-keyboard-response","41","2.1.0","290748","F=YES, J=NO","nxdxnujrtl","2","84","83","85","","","","","","lextale","true","false","","","","","","","",""
"2515","
  <p style=""font-size: 40px;"">plim</p>
  <p style=""font-size: 16px;"">F = YES &nbsp;&nbsp;&nbsp; J = NO</p>
","j","html-keyboard-response","42","2.1.0","293264","F=YES, J=NO","nxdxnujrtl","2","84","83","85","","","","","","lextale","false","false","","","","","","","",""
"639","
  <p style=""font-size: 40px;"">cable</p>
  <p style=""font-size: 16px;"">F = YES &nbsp;&nbsp;&nbsp; J = NO</p>
","f","html-keyboard-response","43","2.1.0","293905","F=YES, J=NO","nxdxnujrtl","2","84","83","85","","","","","","lextale","true","false","","","","","","","",""
"11908","
  <p style=""font-size: 40px;"">shrivel</p>
  <p style=""font-size: 16px;"">F = YES &nbsp;&nbsp;&nbsp; J = NO</p>
","f","html-keyboard-response","44","2.1.0","305815","F=YES, J=NO","nxdxnujrtl","2","84","83","85","","","","","","lextale","true","false","","","","","","","",""
"1151","
  <p style=""font-size: 40px;"">tarnish</p>
  <p style=""font-size: 16px;"">F = YES &nbsp;&nbsp;&nbsp; J = NO</p>
","f","html-keyboard-response","45","2.1.0","306968","F=YES, J=NO","nxdxnujrtl","2","84","83","85","","","","","","lextale","true","false","","","","","","","",""
"1892","
  <p style=""font-size: 40px;"">blim</p>
  <p style=""font-size: 16px;"">F = YES &nbsp;&nbsp;&nbsp; J = NO</p>
","j","html-keyboard-response","46","2.1.0","308862","F=YES, J=NO","nxdxnujrtl","2","84","83","85","","","","","","lextale","false","false","","","","","","","",""
"3037","
  <p style=""font-size: 40px;"">stifle</p>
  <p style=""font-size: 16px;"">F = YES &nbsp;&nbsp;&nbsp; J = NO</p>
","f","html-keyboard-response","47","2.1.0","311900","F=YES, J=NO","nxdxnujrtl","2","84","83","85","","","","","","lextale","true","false","","","","","","","",""
"903","
  <p style=""font-size: 40px;"">bint</p>
  <p style=""font-size: 16px;"">F = YES &nbsp;&nbsp;&nbsp; J = NO</p>
","j","html-keyboard-response","48","2.1.0","312804","F=YES, J=NO","nxdxnujrtl","2","84","83","85","","","","","","lextale","false","false","","","","","","","",""
"1156","
  <p style=""font-size: 40px;"">purple</p>
  <p style=""font-size: 16px;"">F = YES &nbsp;&nbsp;&nbsp; J = NO</p>
","f","html-keyboard-response","49","2.1.0","313962","F=YES, J=NO","nxdxnujrtl","2","84","83","85","","","","","","lextale","true","false","","","","","","","",""
"3581","
  <p style=""font-size: 40px;"">wriggle</p>
  <p style=""font-size: 16px;"">F = YES &nbsp;&nbsp;&nbsp; J = NO</p>
","f","html-keyboard-response","50","2.1.0","317544","F=YES, J=NO","nxdxnujrtl","2","84","83","85","","","","","","lextale","true","false","","","","","","","",""
"817","
  <p style=""font-size: 40px;"">mangle</p>
  <p style=""font-size: 16px;"">F = YES &nbsp;&nbsp;&nbsp; J = NO</p>
","f","html-keyboard-response","51","2.1.0","318362","F=YES, J=NO","nxdxnujrtl","2","84","83","85","","","","","","lextale","true","false","","","","","","","",""
"12214","
  <p style=""font-size: 40px;"">shramp</p>
  <p style=""font-size: 16px;"">F = YES &nbsp;&nbsp;&nbsp; J = NO</p>
","j","html-keyboard-response","52","2.1.0","330579","F=YES, J=NO","nxdxnujrtl","2","84","83","85","","","","","","lextale","false","false","","","","","","","",""
"1666","
  <p style=""font-size: 40px;"">flirt</p>
  <p style=""font-size: 16px;"">F = YES &nbsp;&nbsp;&nbsp; J = NO</p>
","f","html-keyboard-response","53","2.1.0","332247","F=YES, J=NO","nxdxnujrtl","2","84","83","85","","","","","","lextale","true","false","","","","","","","",""
"2235","
  <p style=""font-size: 40px;"">frip</p>
  <p style=""font-size: 16px;"">F = YES &nbsp;&nbsp;&nbsp; J = NO</p>
","j","html-keyboard-response","54","2.1.0","334484","F=YES, J=NO","nxdxnujrtl","2","84","83","85","","","","","","lextale","false","false","","","","","","","",""
"1392","
  <p style=""font-size: 40px;"">tangle</p>
  <p style=""font-size: 16px;"">F = YES &nbsp;&nbsp;&nbsp; J = NO</p>
","f","html-keyboard-response","55","2.1.0","335877","F=YES, J=NO","nxdxnujrtl","2","84","83","85","","","","","","lextale","true","false","","","","","","","",""
"1386","
  <p style=""font-size: 40px;"">crumble</p>
  <p style=""font-size: 16px;"">F = YES &nbsp;&nbsp;&nbsp; J = NO</p>
","f","html-keyboard-response","56","2.1.0","337266","F=YES, J=NO","nxdxnujrtl","2","84","83","85","","","","","","lextale","true","false","","","","","","","",""
"906","
  <p style=""font-size: 40px;"">wrinkle</p>
  <p style=""font-size: 16px;"">F = YES &nbsp;&nbsp;&nbsp; J = NO</p>
","f","html-keyboard-response","57","2.1.0","338173","F=YES, J=NO","nxdxnujrtl","2","84","83","85","","","","","","lextale","true","false","","","","","","","",""
"10199","
  <p style=""font-size: 40px;"">slumb</p>
  <p style=""font-size: 16px;"">F = YES &nbsp;&nbsp;&nbsp; J = NO</p>
","j","html-keyboard-response","58","2.1.0","348374","F=YES, J=NO","nxdxnujrtl","2","84","83","85","","","","","","lextale","false","false","","","","","","","",""
"2018","
  <p style=""font-size: 40px;"">jungle</p>
  <p style=""font-size: 16px;"">F = YES &nbsp;&nbsp;&nbsp; J = NO</p>
","f","html-keyboard-response","59","2.1.0","350394","F=YES, J=NO","nxdxnujrtl","2","84","83","85","","","","","","lextale","true","false","","","","","","","",""
"20095","
  <p style=""font-size: 40px;"">frolick</p>
  <p style=""font-size: 16px;"">F = YES &nbsp;&nbsp;&nbsp; J = NO</p>
","f","html-keyboard-response","60","2.1.0","370490","F=YES, J=NO","nxdxnujrtl","2","84","83","85","","","","","","lextale","false","false","","","","","","","",""
"2469","
      <h2>LexTALE Test Completed</h2>
      <p>Your LexTALE vocabulary score is: <strong>84%</strong></p>
      <p>Press any key to continue.</p>
    "," ","html-keyboard-response","61","2.1.0","372963","F=YES, J=NO","nxdxnujrtl","2","84","83","85","","","","","","","","","","","","","","","",""
"6071","
    <div style=""max-width: 800px; margin: auto; text-align: left;"">
      <h2>Break Time</h2>
      <p>You have completed the first part of the study.</p>
      <p>You may take a short <strong>30-second break</strong> before continuing.</p>
      <p>When you’re ready, press any key to continue to the final task.</p>
    </div>
  "," ","html-keyboard-response","62","2.1.0","379036","F=YES, J=NO","nxdxnujrtl","2","84","83","85","","","","","","","","","","","","","","","",""
"50449","
    <div style=""max-width: 800px; margin: auto; text-align: left;"">
      <h2>Part 2: Lexical Decision Task</h2>
      <p>You will now begin the second part of the study.</p>
      <p>Each trial will follow this sequence:</p>
      <ul>
        <li>A fixation cross (+) appears at the center of the screen.</li>
        <li>You will hear a short beep followed by a spoken word.</li>
        <li>A written word will appear briefly on the screen.</li>
      </ul>
      <p>Your task is to judge whether the <strong>written word</strong> is a real English word.</p>
      <p style=""margin-top: 1em;""><strong>Key responses:</strong></p>
      <ul>
        <li><strong>F</strong> = YES (real English word)</li>
        <li><strong>J</strong> = NO (not a real English word)</li>
      </ul>
      <p>Please respond as quickly and accurately as you can.</p>
      <p style=""margin-top: 2em;"">Press any key to continue.</p>
    </div>
  "," ","html-keyboard-response","63","2.1.0","429487","F=YES, J=NO","nxdxnujrtl","2","84","83","85","","","","","","","","","","","","","","","",""
"7321","
    <div style=""max-width: 800px; margin: auto; text-align: left;"">
      <h2>Before You Begin</h2>
      <p>Make sure your sound is turned on.</p>
      <p>You will hear audio during each trial, but your decision should be based only on the <strong>written word</strong> you see on the screen.</p>
      <p><strong>Reminder:</strong></p>
      <ul>
        <li><strong>F</strong> = YES (real English word)</li>
        <li><strong>J</strong> = NO (not a real English word)</li>
      </ul>
      <p style=""margin-top: 2em;"">Press any key when you are ready to begin.</p>
    </div>
  "," ","html-keyboard-response","64","2.1.0","436810","F=YES, J=NO","nxdxnujrtl","2","84","83","85","","","","","","","","","","","","","","","",""
"7119","
    <div style=""max-width: 800px; margin: auto; text-align: left;"">
      <h2>Part 2: Practice Trials</h2>
      <p>You will now complete a few <strong>practice trials</strong> to get familiar with the task.</p>
      <p>These trials are <strong>not scored</strong> and are only to help you get used to the format.</p>
      <p style=""margin-top: 2em;"">Press any key to begin.</p>
    </div>
  "," ","html-keyboard-response","65","2.1.0","443931","F=YES, J=NO","nxdxnujrtl","2","84","83","85","","","","","","","","","","","","","","","",""
"4083","<p>Starting practice block 1 of 2. Press any key to continue.</p>"," ","html-keyboard-response","66","2.1.0","448016","F=YES, J=NO","nxdxnujrtl","2","84","83","85","","","","","","","","","","","","","","","",""
"null","<p style=""font-size: 50px;"">+</p>","null","html-keyboard-response","67","2.1.0","448324","F=YES, J=NO","nxdxnujrtl","2","84","83","85","","","","","","","","","","","","","","","",""
"null","audio/beep-329314.mp3","null","audio-keyboard-response","68","2.1.0","450215","F=YES, J=NO","nxdxnujrtl","2","84","83","85","","","","","","","","","","","","","","","",""
"null","audio/window1.wav","null","audio-keyboard-response","69","2.1.0","450866","F=YES, J=NO","nxdxnujrtl","2","84","83","85","","","","","","","","","","","","","","","",""
"1369","
          <p id=""word"" style=""font-size: 40px;"">toss</p>
          <p style=""font-size: 16px;"">F = YES &nbsp;&nbsp;&nbsp; J = NO</p>
        ","f","html-keyboard-response","70","2.1.0","452238","F=YES, J=NO","nxdxnujrtl","2","84","83","85","","","","","","","","","toss","window1","filler","filler","f","true","",""
"null","<p style=""font-size: 50px;"">+</p>","null","html-keyboard-response","71","2.1.0","452552","F=YES, J=NO","nxdxnujrtl","2","84","83","85","","","","","","","","","","","","","","","",""
"null","audio/beep-329314.mp3","null","audio-keyboard-response","72","2.1.0","454326","F=YES, J=NO","nxdxnujrtl","2","84","83","85","","","","","","","","","","","","","","","",""
"null","audio/beach1.wav","null","audio-keyboard-response","73","2.1.0","454946","F=YES, J=NO","nxdxnujrtl","2","84","83","85","","","","","","","","","","","","","","","",""
"632","
          <p id=""word"" style=""font-size: 40px;"">drive</p>
          <p style=""font-size: 16px;"">F = YES &nbsp;&nbsp;&nbsp; J = NO</p>
        ","f","html-keyboard-response","74","2.1.0","455580","F=YES, J=NO","nxdxnujrtl","2","84","83","85","","","","","","","","","drive","beach1","filler","filler","f","true","",""
"null","<p style=""font-size: 50px;"">+</p>","null","html-keyboard-response","75","2.1.0","455887","F=YES, J=NO","nxdxnujrtl","2","84","83","85","","","","","","","","","","","","","","","",""
"null","audio/beep-329314.mp3","null","audio-keyboard-response","76","2.1.0","457666","F=YES, J=NO","nxdxnujrtl","2","84","83","85","","","","","","","","","","","","","","","",""
"null","audio/van1.wav","null","audio-keyboard-response","77","2.1.0","458226","F=YES, J=NO","nxdxnujrtl","2","84","83","85","","","","","","","","","","","","","","","",""
"928","
          <p id=""word"" style=""font-size: 40px;"">push</p>
          <p style=""font-size: 16px;"">F = YES &nbsp;&nbsp;&nbsp; J = NO</p>
        ","f","html-keyboard-response","78","2.1.0","459156","F=YES, J=NO","nxdxnujrtl","2","84","83","85","","","","","","","","","push","van1","filler","filler","f","true","",""
"null","<p style=""font-size: 50px;"">+</p>","null","html-keyboard-response","79","2.1.0","459473","F=YES, J=NO","nxdxnujrtl","2","84","83","85","","","","","","","","","","","","","","","",""
"null","audio/beep-329314.mp3","null","audio-keyboard-response","80","2.1.0","461247","F=YES, J=NO","nxdxnujrtl","2","84","83","85","","","","","","","","","","","","","","","",""
"null","audio/camera1.wav","null","audio-keyboard-response","81","2.1.0","461766","F=YES, J=NO","nxdxnujrtl","2","84","83","85","","","","","","","","","","","","","","","",""
"670","
          <p id=""word"" style=""font-size: 40px;"">stir</p>
          <p style=""font-size: 16px;"">F = YES &nbsp;&nbsp;&nbsp; J = NO</p>
        ","f","html-keyboard-response","82","2.1.0","462439","F=YES, J=NO","nxdxnujrtl","2","84","83","85","","","","","","","","","stir","camera1","filler","filler","f","true","",""
"null","<p style=""font-size: 50px;"">+</p>","null","html-keyboard-response","83","2.1.0","462747","F=YES, J=NO","nxdxnujrtl","2","84","83","85","","","","","","","","","","","","","","","",""
"null","audio/beep-329314.mp3","null","audio-keyboard-response","84","2.1.0","464526","F=YES, J=NO","nxdxnujrtl","2","84","83","85","","","","","","","","","","","","","","","",""
"null","audio/effort.wav","null","audio-keyboard-response","85","2.1.0","465206","F=YES, J=NO","nxdxnujrtl","2","84","83","85","","","","","","","","","","","","","","","",""
"778","
          <p id=""word"" style=""font-size: 40px;"">whonk</p>
          <p style=""font-size: 16px;"">F = YES &nbsp;&nbsp;&nbsp; J = NO</p>
        ","j","html-keyboard-response","86","2.1.0","465987","F=YES, J=NO","nxdxnujrtl","2","84","83","85","","","","","","","","","whonk","effort","pseudoword","pseudoword","j","true","",""
"null","<p style=""font-size: 50px;"">+</p>","null","html-keyboard-response","87","2.1.0","466301","F=YES, J=NO","nxdxnujrtl","2","84","83","85","","","","","","","","","","","","","","","",""
"null","audio/beep-329314.mp3","null","audio-keyboard-response","88","2.1.0","468066","F=YES, J=NO","nxdxnujrtl","2","84","83","85","","","","","","","","","","","","","","","",""
"null","audio/desire.wav","null","audio-keyboard-response","89","2.1.0","468746","F=YES, J=NO","nxdxnujrtl","2","84","83","85","","","","","","","","","","","","","","","",""
"1226","
          <p id=""word"" style=""font-size: 40px;"">nophed</p>
          <p style=""font-size: 16px;"">F = YES &nbsp;&nbsp;&nbsp; J = NO</p>
        ","j","html-keyboard-response","90","2.1.0","469974","F=YES, J=NO","nxdxnujrtl","2","84","83","85","","","","","","","","","nophed","desire","pseudoword","pseudoword","j","true","",""
"null","<p style=""font-size: 50px;"">+</p>","null","html-keyboard-response","91","2.1.0","470286","F=YES, J=NO","nxdxnujrtl","2","84","83","85","","","","","","","","","","","","","","","",""
"null","audio/beep-329314.mp3","null","audio-keyboard-response","92","2.1.0","472066","F=YES, J=NO","nxdxnujrtl","2","84","83","85","","","","","","","","","","","","","","","",""
"null","audio/age1.wav","null","audio-keyboard-response","93","2.1.0","472664","F=YES, J=NO","nxdxnujrtl","2","84","83","85","","","","","","","","","","","","","","","",""
"666","
          <p id=""word"" style=""font-size: 40px;"">bake</p>
          <p style=""font-size: 16px;"">F = YES &nbsp;&nbsp;&nbsp; J = NO</p>
        ","f","html-keyboard-response","94","2.1.0","473332","F=YES, J=NO","nxdxnujrtl","2","84","83","85","","","","","","","","","bake","age1","filler","filler","f","true","",""
"null","<p style=""font-size: 50px;"">+</p>","null","html-keyboard-response","95","2.1.0","473638","F=YES, J=NO","nxdxnujrtl","2","84","83","85","","","","","","","","","","","","","","","",""
"null","audio/beep-329314.mp3","null","audio-keyboard-response","96","2.1.0","475406","F=YES, J=NO","nxdxnujrtl","2","84","83","85","","","","","","","","","","","","","","","",""
"null","audio/brain.wav","null","audio-keyboard-response","97","2.1.0","475905","F=YES, J=NO","nxdxnujrtl","2","84","83","85","","","","","","","","","","","","","","","",""
"782","
          <p id=""word"" style=""font-size: 40px;"">throw</p>
          <p style=""font-size: 16px;"">F = YES &nbsp;&nbsp;&nbsp; J = NO</p>
        ","f","html-keyboard-response","98","2.1.0","476690","F=YES, J=NO","nxdxnujrtl","2","84","83","85","","","","","","","","","throw","brain","filler","filler","f","true","",""
"null","<p style=""font-size: 50px;"">+</p>","null","html-keyboard-response","99","2.1.0","476993","F=YES, J=NO","nxdxnujrtl","2","84","83","85","","","","","","","","","","","","","","","",""
"null","audio/beep-329314.mp3","null","audio-keyboard-response","100","2.1.0","478767","F=YES, J=NO","nxdxnujrtl","2","84","83","85","","","","","","","","","","","","","","","",""
"null","audio/stain.wav","null","audio-keyboard-response","101","2.1.0","479486","F=YES, J=NO","nxdxnujrtl","2","84","83","85","","","","","","","","","","","","","","","",""
"928","
          <p id=""word"" style=""font-size: 40px;"">rumpsied</p>
          <p style=""font-size: 16px;"">F = YES &nbsp;&nbsp;&nbsp; J = NO</p>
        ","j","html-keyboard-response","102","2.1.0","480416","F=YES, J=NO","nxdxnujrtl","2","84","83","85","","","","","","","","","rumpsied","stain","pseudoword","pseudoword","j","true","",""
"null","<p style=""font-size: 50px;"">+</p>","null","html-keyboard-response","103","2.1.0","480720","F=YES, J=NO","nxdxnujrtl","2","84","83","85","","","","","","","","","","","","","","","",""
"null","audio/beep-329314.mp3","null","audio-keyboard-response","104","2.1.0","482486","F=YES, J=NO","nxdxnujrtl","2","84","83","85","","","","","","","","","","","","","","","",""
"null","audio/neck.wav","null","audio-keyboard-response","105","2.1.0","483166","F=YES, J=NO","nxdxnujrtl","2","84","83","85","","","","","","","","","","","","","","","",""
"1079","
          <p id=""word"" style=""font-size: 40px;"">werling</p>
          <p style=""font-size: 16px;"">F = YES &nbsp;&nbsp;&nbsp; J = NO</p>
        ","j","html-keyboard-response","106","2.1.0","484247","F=YES, J=NO","nxdxnujrtl","2","84","83","85","","","","","","","","","werling","neck","pseudoword","pseudoword","j","true","",""
"null","<p style=""font-size: 50px;"">+</p>","null","html-keyboard-response","107","2.1.0","484555","F=YES, J=NO","nxdxnujrtl","2","84","83","85","","","","","","","","","","","","","","","",""
"null","audio/beep-329314.mp3","null","audio-keyboard-response","108","2.1.0","486326","F=YES, J=NO","nxdxnujrtl","2","84","83","85","","","","","","","","","","","","","","","",""
"null","audio/tunnel.wav","null","audio-keyboard-response","109","2.1.0","486785","F=YES, J=NO","nxdxnujrtl","2","84","83","85","","","","","","","","","","","","","","","",""
"762","
          <p id=""word"" style=""font-size: 40px;"">gred</p>
          <p style=""font-size: 16px;"">F = YES &nbsp;&nbsp;&nbsp; J = NO</p>
        ","j","html-keyboard-response","110","2.1.0","487549","F=YES, J=NO","nxdxnujrtl","2","84","83","85","","","","","","","","","gred","tunnel","pseudoword","pseudoword","j","true","",""
"null","<p style=""font-size: 50px;"">+</p>","null","html-keyboard-response","111","2.1.0","487862","F=YES, J=NO","nxdxnujrtl","2","84","83","85","","","","","","","","","","","","","","","",""
"null","audio/beep-329314.mp3","null","audio-keyboard-response","112","2.1.0","489625","F=YES, J=NO","nxdxnujrtl","2","84","83","85","","","","","","","","","","","","","","","",""
"null","audio/flaw.wav","null","audio-keyboard-response","113","2.1.0","490306","F=YES, J=NO","nxdxnujrtl","2","84","83","85","","","","","","","","","","","","","","","",""
"780","
          <p id=""word"" style=""font-size: 40px;"">thwool</p>
          <p style=""font-size: 16px;"">F = YES &nbsp;&nbsp;&nbsp; J = NO</p>
        ","j","html-keyboard-response","114","2.1.0","491088","F=YES, J=NO","nxdxnujrtl","2","84","83","85","","","","","","","","","thwool","flaw","pseudoword","pseudoword","j","true","",""
"1617","<p>Starting practice block 2 of 2. Press any key to continue.</p>","n","html-keyboard-response","115","2.1.0","492706","F=YES, J=NO","nxdxnujrtl","2","84","83","85","","","","","","","","","","","","","","","",""
"null","<p style=""font-size: 50px;"">+</p>","null","html-keyboard-response","116","2.1.0","493021","F=YES, J=NO","nxdxnujrtl","2","84","83","85","","","","","","","","","","","","","","","",""
"null","audio/beep-329314.mp3","null","audio-keyboard-response","117","2.1.0","494786","F=YES, J=NO","nxdxnujrtl","2","84","83","85","","","","","","","","","","","","","","","",""
"null","audio/strength.wav","null","audio-keyboard-response","118","2.1.0","495526","F=YES, J=NO","nxdxnujrtl","2","84","83","85","","","","","","","","","","","","","","","",""
"867","
          <p id=""word"" style=""font-size: 40px;"">plabet</p>
          <p style=""font-size: 16px;"">F = YES &nbsp;&nbsp;&nbsp; J = NO</p>
        ","j","html-keyboard-response","119","2.1.0","496395","F=YES, J=NO","nxdxnujrtl","2","84","83","85","","","","","","","","","plabet","strength","pseudoword","pseudoword","j","true","",""
"null","<p style=""font-size: 50px;"">+</p>","null","html-keyboard-response","120","2.1.0","496705","F=YES, J=NO","nxdxnujrtl","2","84","83","85","","","","","","","","","","","","","","","",""
"null","audio/beep-329314.mp3","null","audio-keyboard-response","121","2.1.0","498486","F=YES, J=NO","nxdxnujrtl","2","84","83","85","","","","","","","","","","","","","","","",""
"null","audio/pig.wav","null","audio-keyboard-response","122","2.1.0","498906","F=YES, J=NO","nxdxnujrtl","2","84","83","85","","","","","","","","","","","","","","","",""
"767","
          <p id=""word"" style=""font-size: 40px;"">tirlike</p>
          <p style=""font-size: 16px;"">F = YES &nbsp;&nbsp;&nbsp; J = NO</p>
        ","j","html-keyboard-response","123","2.1.0","499675","F=YES, J=NO","nxdxnujrtl","2","84","83","85","","","","","","","","","tirlike","pig","pseudoword","pseudoword","j","true","",""
"null","<p style=""font-size: 50px;"">+</p>","null","html-keyboard-response","124","2.1.0","499980","F=YES, J=NO","nxdxnujrtl","2","84","83","85","","","","","","","","","","","","","","","",""
"null","audio/beep-329314.mp3","null","audio-keyboard-response","125","2.1.0","501745","F=YES, J=NO","nxdxnujrtl","2","84","83","85","","","","","","","","","","","","","","","",""
"null","audio/bomb1.wav","null","audio-keyboard-response","126","2.1.0","502206","F=YES, J=NO","nxdxnujrtl","2","84","83","85","","","","","","","","","","","","","","","",""
"730","
          <p id=""word"" style=""font-size: 40px;"">clean</p>
          <p style=""font-size: 16px;"">F = YES &nbsp;&nbsp;&nbsp; J = NO</p>
        ","f","html-keyboard-response","127","2.1.0","502938","F=YES, J=NO","nxdxnujrtl","2","84","83","85","","","","","","","","","clean","bomb1","filler","filler","f","true","",""
"null","<p style=""font-size: 50px;"">+</p>","null","html-keyboard-response","128","2.1.0","503247","F=YES, J=NO","nxdxnujrtl","2","84","83","85","","","","","","","","","","","","","","","",""
"null","audio/beep-329314.mp3","null","audio-keyboard-response","129","2.1.0","505026","F=YES, J=NO","nxdxnujrtl","2","84","83","85","","","","","","","","","","","","","","","",""
"null","audio/sugar1.wav","null","audio-keyboard-response","130","2.1.0","505545","F=YES, J=NO","nxdxnujrtl","2","84","83","85","","","","","","","","","","","","","","","",""
"753","
          <p id=""word"" style=""font-size: 40px;"">glung</p>
          <p style=""font-size: 16px;"">F = YES &nbsp;&nbsp;&nbsp; J = NO</p>
        ","j","html-keyboard-response","131","2.1.0","506300","F=YES, J=NO","nxdxnujrtl","2","84","83","85","","","","","","","","","glung","sugar1","pseudoword","pseudoword","j","true","",""
"null","<p style=""font-size: 50px;"">+</p>","null","html-keyboard-response","132","2.1.0","506609","F=YES, J=NO","nxdxnujrtl","2","84","83","85","","","","","","","","","","","","","","","",""
"null","audio/beep-329314.mp3","null","audio-keyboard-response","133","2.1.0","508386","F=YES, J=NO","nxdxnujrtl","2","84","83","85","","","","","","","","","","","","","","","",""
"null","audio/novel.wav","null","audio-keyboard-response","134","2.1.0","508965","F=YES, J=NO","nxdxnujrtl","2","84","83","85","","","","","","","","","","","","","","","",""
"490","
          <p id=""word"" style=""font-size: 40px;"">type</p>
          <p style=""font-size: 16px;"">F = YES &nbsp;&nbsp;&nbsp; J = NO</p>
        ","f","html-keyboard-response","135","2.1.0","509456","F=YES, J=NO","nxdxnujrtl","2","84","83","85","","","","","","","","","type","novel","filler","filler","f","true","",""
"null","<p style=""font-size: 50px;"">+</p>","null","html-keyboard-response","136","2.1.0","509767","F=YES, J=NO","nxdxnujrtl","2","84","83","85","","","","","","","","","","","","","","","",""
"null","audio/beep-329314.mp3","null","audio-keyboard-response","137","2.1.0","511546","F=YES, J=NO","nxdxnujrtl","2","84","83","85","","","","","","","","","","","","","","","",""
"null","audio/bishop1.wav","null","audio-keyboard-response","138","2.1.0","512145","F=YES, J=NO","nxdxnujrtl","2","84","83","85","","","","","","","","","","","","","","","",""
"509","
          <p id=""word"" style=""font-size: 40px;"">play</p>
          <p style=""font-size: 16px;"">F = YES &nbsp;&nbsp;&nbsp; J = NO</p>
        ","f","html-keyboard-response","139","2.1.0","512656","F=YES, J=NO","nxdxnujrtl","2","84","83","85","","","","","","","","","play","bishop1","filler","filler","f","true","",""
"null","<p style=""font-size: 50px;"">+</p>","null","html-keyboard-response","140","2.1.0","512966","F=YES, J=NO","nxdxnujrtl","2","84","83","85","","","","","","","","","","","","","","","",""
"null","audio/beep-329314.mp3","null","audio-keyboard-response","141","2.1.0","514746","F=YES, J=NO","nxdxnujrtl","2","84","83","85","","","","","","","","","","","","","","","",""
"null","audio/purpose.wav","null","audio-keyboard-response","142","2.1.0","515446","F=YES, J=NO","nxdxnujrtl","2","84","83","85","","","","","","","","","","","","","","","",""
"1002","
          <p id=""word"" style=""font-size: 40px;"">whigm</p>
          <p style=""font-size: 16px;"">F = YES &nbsp;&nbsp;&nbsp; J = NO</p>
        ","j","html-keyboard-response","143","2.1.0","516449","F=YES, J=NO","nxdxnujrtl","2","84","83","85","","","","","","","","","whigm","purpose","pseudoword","pseudoword","j","true","",""
"null","<p style=""font-size: 50px;"">+</p>","null","html-keyboard-response","144","2.1.0","516761","F=YES, J=NO","nxdxnujrtl","2","84","83","85","","","","","","","","","","","","","","","",""
"null","audio/beep-329314.mp3","null","audio-keyboard-response","145","2.1.0","518526","F=YES, J=NO","nxdxnujrtl","2","84","83","85","","","","","","","","","","","","","","","",""
"null","audio/ankle1.wav","null","audio-keyboard-response","146","2.1.0","519086","F=YES, J=NO","nxdxnujrtl","2","84","83","85","","","","","","","","","","","","","","","",""
"903","
          <p id=""word"" style=""font-size: 40px;"">kick</p>
          <p style=""font-size: 16px;"">F = YES &nbsp;&nbsp;&nbsp; J = NO</p>
        ","f","html-keyboard-response","147","2.1.0","519991","F=YES, J=NO","nxdxnujrtl","2","84","83","85","","","","","","","","","kick","ankle1","filler","filler","f","true","",""
"null","<p style=""font-size: 50px;"">+</p>","null","html-keyboard-response","148","2.1.0","520298","F=YES, J=NO","nxdxnujrtl","2","84","83","85","","","","","","","","","","","","","","","",""
"null","audio/beep-329314.mp3","null","audio-keyboard-response","149","2.1.0","522066","F=YES, J=NO","nxdxnujrtl","2","84","83","85","","","","","","","","","","","","","","","",""
"null","audio/voice.wav","null","audio-keyboard-response","150","2.1.0","523046","F=YES, J=NO","nxdxnujrtl","2","84","83","85","","","","","","","","","","","","","","","",""
"783","
          <p id=""word"" style=""font-size: 40px;"">grintle</p>
          <p style=""font-size: 16px;"">F = YES &nbsp;&nbsp;&nbsp; J = NO</p>
        ","j","html-keyboard-response","151","2.1.0","523832","F=YES, J=NO","nxdxnujrtl","2","84","83","85","","","","","","","","","grintle","voice","pseudoword","pseudoword","j","true","",""
"null","<p style=""font-size: 50px;"">+</p>","null","html-keyboard-response","152","2.1.0","524144","F=YES, J=NO","nxdxnujrtl","2","84","83","85","","","","","","","","","","","","","","","",""
"null","audio/beep-329314.mp3","null","audio-keyboard-response","153","2.1.0","525926","F=YES, J=NO","nxdxnujrtl","2","84","83","85","","","","","","","","","","","","","","","",""
"null","audio/birth1.wav","null","audio-keyboard-response","154","2.1.0","526546","F=YES, J=NO","nxdxnujrtl","2","84","83","85","","","","","","","","","","","","","","","",""
"681","
          <p id=""word"" style=""font-size: 40px;"">peel</p>
          <p style=""font-size: 16px;"">F = YES &nbsp;&nbsp;&nbsp; J = NO</p>
        ","f","html-keyboard-response","155","2.1.0","527230","F=YES, J=NO","nxdxnujrtl","2","84","83","85","","","","","","","","","peel","birth1","filler","filler","f","true","",""
"null","<p style=""font-size: 50px;"">+</p>","null","html-keyboard-response","156","2.1.0","527543","F=YES, J=NO","nxdxnujrtl","2","84","83","85","","","","","","","","","","","","","","","",""
"null","audio/beep-329314.mp3","null","audio-keyboard-response","157","2.1.0","529326","F=YES, J=NO","nxdxnujrtl","2","84","83","85","","","","","","","","","","","","","","","",""
"null","audio/emotion.wav","null","audio-keyboard-response","158","2.1.0","530085","F=YES, J=NO","nxdxnujrtl","2","84","83","85","","","","","","","","","","","","","","","",""
"1398","
          <p id=""word"" style=""font-size: 40px;"">devering</p>
          <p style=""font-size: 16px;"">F = YES &nbsp;&nbsp;&nbsp; J = NO</p>
        ","j","html-keyboard-response","159","2.1.0","531486","F=YES, J=NO","nxdxnujrtl","2","84","83","85","","","","","","","","","devering","emotion","pseudoword","pseudoword","j","true","",""
"null","<p style=""font-size: 50px;"">+</p>","null","html-keyboard-response","160","2.1.0","531799","F=YES, J=NO","nxdxnujrtl","2","84","83","85","","","","","","","","","","","","","","","",""
"null","audio/beep-329314.mp3","null","audio-keyboard-response","161","2.1.0","533566","F=YES, J=NO","nxdxnujrtl","2","84","83","85","","","","","","","","","","","","","","","",""
"null","audio/menu.wav","null","audio-keyboard-response","162","2.1.0","534226","F=YES, J=NO","nxdxnujrtl","2","84","83","85","","","","","","","","","","","","","","","",""
"861","
          <p id=""word"" style=""font-size: 40px;"">slice</p>
          <p style=""font-size: 16px;"">F = YES &nbsp;&nbsp;&nbsp; J = NO</p>
        ","f","html-keyboard-response","163","2.1.0","535089","F=YES, J=NO","nxdxnujrtl","2","84","83","85","","","","","","","","","slice","menu","filler","filler","f","true","",""
"20167","
    <div style=""max-width: 800px; margin: auto; text-align: left;"">
      <h2>Part 2: Main Trials</h2>
      <p>Great job on the practice trials!</p>
      <p>You will now begin the <strong>main set of trials</strong>.</p>
      <p>Remember your key assignments:</p>
      <ul>
        <li><strong>F</strong> = YES (real English word)</li>
        <li><strong>J</strong> = NO (not a real English word)</li>
      </ul>
      <p>Try to respond as <strong>quickly and accurately</strong> as possible.</p>
      <p style=""margin-top: 2em;"">Press any key to begin the main trials.</p>
    </div>
  "," ","html-keyboard-response","164","2.1.0","555258","F=YES, J=NO","nxdxnujrtl","2","84","83","85","","","","","","","","","","","","","","","",""
"2352","<p>Starting main block 1 of 8. Press any key to continue.</p>"," ","html-keyboard-response","165","2.1.0","557612","F=YES, J=NO","nxdxnujrtl","2","84","83","85","","","","","","","","","","","","","","","",""
"null","<p style=""font-size: 50px;"">+</p>","null","html-keyboard-response","166","2.1.0","557919","F=YES, J=NO","nxdxnujrtl","2","84","83","85","","","","","","","","","","","","","","","",""
"null","audio/beep-329314.mp3","null","audio-keyboard-response","167","2.1.0","559747","F=YES, J=NO","nxdxnujrtl","2","84","83","85","","","","","","","","","","","","","","","",""
"null","audio/gossip1.wav","null","audio-keyboard-response","168","2.1.0","560416","F=YES, J=NO","nxdxnujrtl","2","84","83","85","","","","","","","","","","","","","","","",""
"850","
          <p id=""word"" style=""font-size: 40px;"">camerish</p>
          <p style=""font-size: 16px;"">F = YES &nbsp;&nbsp;&nbsp; J = NO</p>
        ","j","html-keyboard-response","169","2.1.0","561269","F=YES, J=NO","nxdxnujrtl","2","84","83","85","","","","","","","","","camerish","gossip1","pseudoword","pseudoword","j","true","",""
"null","<p style=""font-size: 50px;"">+</p>","null","html-keyboard-response","170","2.1.0","561575","F=YES, J=NO","nxdxnujrtl","2","84","83","85","","","","","","","","","","","","","","","",""
"null","audio/beep-329314.mp3","null","audio-keyboard-response","171","2.1.0","563346","F=YES, J=NO","nxdxnujrtl","2","84","83","85","","","","","","","","","","","","","","","",""
"null","audio/tomato.wav","null","audio-keyboard-response","172","2.1.0","564036","F=YES, J=NO","nxdxnujrtl","2","84","83","85","","","","","","","","","","","","","","","",""
"548","
          <p id=""word"" style=""font-size: 40px;"">grow</p>
          <p style=""font-size: 16px;"">F = YES &nbsp;&nbsp;&nbsp; J = NO</p>
        ","f","html-keyboard-response","173","2.1.0","564586","F=YES, J=NO","nxdxnujrtl","2","84","83","85","","","","","","","","","grow","tomato","literal","experimental","f","true","",""
"null","<p style=""font-size: 50px;"">+</p>","null","html-keyboard-response","174","2.1.0","564897","F=YES, J=NO","nxdxnujrtl","2","84","83","85","","","","","","","","","","","","","","","",""
"null","audio/beep-329314.mp3","null","audio-keyboard-response","175","2.1.0","566667","F=YES, J=NO","nxdxnujrtl","2","84","83","85","","","","","","","","","","","","","","","",""
"null","audio/flaw.wav","null","audio-keyboard-response","176","2.1.0","567276","F=YES, J=NO","nxdxnujrtl","2","84","83","85","","","","","","","","","","","","","","","",""
"537","
          <p id=""word"" style=""font-size: 40px;"">hide</p>
          <p style=""font-size: 16px;"">F = YES &nbsp;&nbsp;&nbsp; J = NO</p>
        ","f","html-keyboard-response","177","2.1.0","567815","F=YES, J=NO","nxdxnujrtl","2","84","83","85","","","","","","","","","hide","flaw","metaphor","experimental","f","true","",""
"null","<p style=""font-size: 50px;"">+</p>","null","html-keyboard-response","178","2.1.0","568125","F=YES, J=NO","nxdxnujrtl","2","84","83","85","","","","","","","","","","","","","","","",""
"null","audio/beep-329314.mp3","null","audio-keyboard-response","179","2.1.0","569907","F=YES, J=NO","nxdxnujrtl","2","84","83","85","","","","","","","","","","","","","","","",""
"null","audio/cottage1.wav","null","audio-keyboard-response","180","2.1.0","570576","F=YES, J=NO","nxdxnujrtl","2","84","83","85","","","","","","","","","","","","","","","",""
"649","
          <p id=""word"" style=""font-size: 40px;"">release</p>
          <p style=""font-size: 16px;"">F = YES &nbsp;&nbsp;&nbsp; J = NO</p>
        ","f","html-keyboard-response","181","2.1.0","571228","F=YES, J=NO","nxdxnujrtl","2","84","83","85","","","","","","","","","release","cottage1","unrelated","experimental","f","true","",""
"null","<p style=""font-size: 50px;"">+</p>","null","html-keyboard-response","182","2.1.0","571537","F=YES, J=NO","nxdxnujrtl","2","84","83","85","","","","","","","","","","","","","","","",""
"null","audio/beep-329314.mp3","null","audio-keyboard-response","183","2.1.0","573307","F=YES, J=NO","nxdxnujrtl","2","84","83","85","","","","","","","","","","","","","","","",""
"null","audio/roof1.wav","null","audio-keyboard-response","184","2.1.0","573876","F=YES, J=NO","nxdxnujrtl","2","84","83","85","","","","","","","","","","","","","","","",""
"528","
          <p id=""word"" style=""font-size: 40px;"">wronb</p>
          <p style=""font-size: 16px;"">F = YES &nbsp;&nbsp;&nbsp; J = NO</p>
        ","j","html-keyboard-response","185","2.1.0","574407","F=YES, J=NO","nxdxnujrtl","2","84","83","85","","","","","","","","","wronb","roof1","pseudoword","pseudoword","j","true","",""
"null","<p style=""font-size: 50px;"">+</p>","null","html-keyboard-response","186","2.1.0","574722","F=YES, J=NO","nxdxnujrtl","2","84","83","85","","","","","","","","","","","","","","","",""
"null","audio/beep-329314.mp3","null","audio-keyboard-response","187","2.1.0","576485","F=YES, J=NO","nxdxnujrtl","2","84","83","85","","","","","","","","","","","","","","","",""
"null","audio/hotel1.wav","null","audio-keyboard-response","188","2.1.0","577115","F=YES, J=NO","nxdxnujrtl","2","84","83","85","","","","","","","","","","","","","","","",""
"1011","
          <p id=""word"" style=""font-size: 40px;"">flanter</p>
          <p style=""font-size: 16px;"">F = YES &nbsp;&nbsp;&nbsp; J = NO</p>
        ","j","html-keyboard-response","189","2.1.0","578128","F=YES, J=NO","nxdxnujrtl","2","84","83","85","","","","","","","","","flanter","hotel1","pseudoword","pseudoword","j","true","",""
"null","<p style=""font-size: 50px;"">+</p>","null","html-keyboard-response","190","2.1.0","578437","F=YES, J=NO","nxdxnujrtl","2","84","83","85","","","","","","","","","","","","","","","",""
"null","audio/beep-329314.mp3","null","audio-keyboard-response","191","2.1.0","580206","F=YES, J=NO","nxdxnujrtl","2","84","83","85","","","","","","","","","","","","","","","",""
"null","audio/strength.wav","null","audio-keyboard-response","192","2.1.0","580916","F=YES, J=NO","nxdxnujrtl","2","84","83","85","","","","","","","","","","","","","","","",""
"626","
          <p id=""word"" style=""font-size: 40px;"">possess</p>
          <p style=""font-size: 16px;"">F = YES &nbsp;&nbsp;&nbsp; J = NO</p>
        ","f","html-keyboard-response","193","2.1.0","581544","F=YES, J=NO","nxdxnujrtl","2","84","83","85","","","","","","","","","possess","strength","metaphor","experimental","f","true","",""
"null","<p style=""font-size: 50px;"">+</p>","null","html-keyboard-response","194","2.1.0","581858","F=YES, J=NO","nxdxnujrtl","2","84","83","85","","","","","","","","","","","","","","","",""
"null","audio/beep-329314.mp3","null","audio-keyboard-response","195","2.1.0","583627","F=YES, J=NO","nxdxnujrtl","2","84","83","85","","","","","","","","","","","","","","","",""
"null","audio/account1.wav","null","audio-keyboard-response","196","2.1.0","584356","F=YES, J=NO","nxdxnujrtl","2","84","83","85","","","","","","","","","","","","","","","",""
"572","
          <p id=""word"" style=""font-size: 40px;"">paint</p>
          <p style=""font-size: 16px;"">F = YES &nbsp;&nbsp;&nbsp; J = NO</p>
        ","f","html-keyboard-response","197","2.1.0","584930","F=YES, J=NO","nxdxnujrtl","2","84","83","85","","","","","","","","","paint","account1","filler","filler","f","true","",""
"null","<p style=""font-size: 50px;"">+</p>","null","html-keyboard-response","198","2.1.0","585233","F=YES, J=NO","nxdxnujrtl","2","84","83","85","","","","","","","","","","","","","","","",""
"null","audio/beep-329314.mp3","null","audio-keyboard-response","199","2.1.0","587005","F=YES, J=NO","nxdxnujrtl","2","84","83","85","","","","","","","","","","","","","","","",""
"null","audio/ankle1.wav","null","audio-keyboard-response","200","2.1.0","587517","F=YES, J=NO","nxdxnujrtl","2","84","83","85","","","","","","","","","","","","","","","",""
"846","
          <p id=""word"" style=""font-size: 40px;"">switm</p>
          <p style=""font-size: 16px;"">F = YES &nbsp;&nbsp;&nbsp; J = NO</p>
        ","j","html-keyboard-response","201","2.1.0","588365","F=YES, J=NO","nxdxnujrtl","2","84","83","85","","","","","","","","","switm","ankle1","pseudoword","pseudoword","j","true","",""
"null","<p style=""font-size: 50px;"">+</p>","null","html-keyboard-response","202","2.1.0","588677","F=YES, J=NO","nxdxnujrtl","2","84","83","85","","","","","","","","","","","","","","","",""
"null","audio/beep-329314.mp3","null","audio-keyboard-response","203","2.1.0","590446","F=YES, J=NO","nxdxnujrtl","2","84","83","85","","","","","","","","","","","","","","","",""
"null","audio/terrain.wav","null","audio-keyboard-response","204","2.1.0","591096","F=YES, J=NO","nxdxnujrtl","2","84","83","85","","","","","","","","","","","","","","","",""
"769","
          <p id=""word"" style=""font-size: 40px;"">twist</p>
          <p style=""font-size: 16px;"">F = YES &nbsp;&nbsp;&nbsp; J = NO</p>
        ","f","html-keyboard-response","205","2.1.0","591867","F=YES, J=NO","nxdxnujrtl","2","84","83","85","","","","","","","","","twist","terrain","filler","filler","f","true","",""
"null","<p style=""font-size: 50px;"">+</p>","null","html-keyboard-response","206","2.1.0","592182","F=YES, J=NO","nxdxnujrtl","2","84","83","85","","","","","","","","","","","","","","","",""
"null","audio/beep-329314.mp3","null","audio-keyboard-response","207","2.1.0","593966","F=YES, J=NO","nxdxnujrtl","2","84","83","85","","","","","","","","","","","","","","","",""
"null","audio/bush1.wav","null","audio-keyboard-response","208","2.1.0","594456","F=YES, J=NO","nxdxnujrtl","2","84","83","85","","","","","","","","","","","","","","","",""
"1079","
          <p id=""word"" style=""font-size: 40px;"">platined</p>
          <p style=""font-size: 16px;"">F = YES &nbsp;&nbsp;&nbsp; J = NO</p>
        ","j","html-keyboard-response","209","2.1.0","595538","F=YES, J=NO","nxdxnujrtl","2","84","83","85","","","","","","","","","platined","bush1","pseudoword","pseudoword","j","true","",""
"null","<p style=""font-size: 50px;"">+</p>","null","html-keyboard-response","210","2.1.0","595853","F=YES, J=NO","nxdxnujrtl","2","84","83","85","","","","","","","","","","","","","","","",""
"null","audio/beep-329314.mp3","null","audio-keyboard-response","211","2.1.0","597626","F=YES, J=NO","nxdxnujrtl","2","84","83","85","","","","","","","","","","","","","","","",""
"null","audio/bridge.wav","null","audio-keyboard-response","212","2.1.0","598216","F=YES, J=NO","nxdxnujrtl","2","84","83","85","","","","","","","","","","","","","","","",""
"682","
          <p id=""word"" style=""font-size: 40px;"">build</p>
          <p style=""font-size: 16px;"">F = YES &nbsp;&nbsp;&nbsp; J = NO</p>
        ","f","html-keyboard-response","213","2.1.0","598900","F=YES, J=NO","nxdxnujrtl","2","84","83","85","","","","","","","","","build","bridge","literal","experimental","f","true","",""
"null","<p style=""font-size: 50px;"">+</p>","null","html-keyboard-response","214","2.1.0","599205","F=YES, J=NO","nxdxnujrtl","2","84","83","85","","","","","","","","","","","","","","","",""
"null","audio/beep-329314.mp3","null","audio-keyboard-response","215","2.1.0","600986","F=YES, J=NO","nxdxnujrtl","2","84","83","85","","","","","","","","","","","","","","","",""
"null","audio/weight1.wav","null","audio-keyboard-response","216","2.1.0","601556","F=YES, J=NO","nxdxnujrtl","2","84","83","85","","","","","","","","","","","","","","","",""
"546","
          <p id=""word"" style=""font-size: 40px;"">support</p>
          <p style=""font-size: 16px;"">F = YES &nbsp;&nbsp;&nbsp; J = NO</p>
        ","f","html-keyboard-response","217","2.1.0","602104","F=YES, J=NO","nxdxnujrtl","2","84","83","85","","","","","","","","","support","weight1","literal","experimental","f","true","",""
"null","<p style=""font-size: 50px;"">+</p>","null","html-keyboard-response","218","2.1.0","602414","F=YES, J=NO","nxdxnujrtl","2","84","83","85","","","","","","","","","","","","","","","",""
"null","audio/beep-329314.mp3","null","audio-keyboard-response","219","2.1.0","604187","F=YES, J=NO","nxdxnujrtl","2","84","83","85","","","","","","","","","","","","","","","",""
"null","audio/arm.wav","null","audio-keyboard-response","220","2.1.0","604776","F=YES, J=NO","nxdxnujrtl","2","84","83","85","","","","","","","","","","","","","","","",""
"570","
          <p id=""word"" style=""font-size: 40px;"">fold</p>
          <p style=""font-size: 16px;"">F = YES &nbsp;&nbsp;&nbsp; J = NO</p>
        ","f","html-keyboard-response","221","2.1.0","605348","F=YES, J=NO","nxdxnujrtl","2","84","83","85","","","","","","","","","fold","arm","filler","filler","f","true","",""
"null","<p style=""font-size: 50px;"">+</p>","null","html-keyboard-response","222","2.1.0","605657","F=YES, J=NO","nxdxnujrtl","2","84","83","85","","","","","","","","","","","","","","","",""
"null","audio/beep-329314.mp3","null","audio-keyboard-response","223","2.1.0","607426","F=YES, J=NO","nxdxnujrtl","2","84","83","85","","","","","","","","","","","","","","","",""
"null","audio/hawk1.wav","null","audio-keyboard-response","224","2.1.0","608036","F=YES, J=NO","nxdxnujrtl","2","84","83","85","","","","","","","","","","","","","","","",""
"897","
          <p id=""word"" style=""font-size: 40px;"">ostach</p>
          <p style=""font-size: 16px;"">F = YES &nbsp;&nbsp;&nbsp; J = NO</p>
        ","j","html-keyboard-response","225","2.1.0","608935","F=YES, J=NO","nxdxnujrtl","2","84","83","85","","","","","","","","","ostach","hawk1","pseudoword","pseudoword","j","true","",""
"null","<p style=""font-size: 50px;"">+</p>","null","html-keyboard-response","226","2.1.0","609253","F=YES, J=NO","nxdxnujrtl","2","84","83","85","","","","","","","","","","","","","","","",""
"null","audio/beep-329314.mp3","null","audio-keyboard-response","227","2.1.0","611026","F=YES, J=NO","nxdxnujrtl","2","84","83","85","","","","","","","","","","","","","","","",""
"null","audio/mind.wav","null","audio-keyboard-response","228","2.1.0","611616","F=YES, J=NO","nxdxnujrtl","2","84","83","85","","","","","","","","","","","","","","","",""
"874","
          <p id=""word"" style=""font-size: 40px;"">crainate</p>
          <p style=""font-size: 16px;"">F = YES &nbsp;&nbsp;&nbsp; J = NO</p>
        ","j","html-keyboard-response","229","2.1.0","612491","F=YES, J=NO","nxdxnujrtl","2","84","83","85","","","","","","","","","crainate","mind","pseudoword","pseudoword","j","true","",""
"41529","<p>Excellent! You have finished block 1 of 8.</p>
                     <p>Feel free to take a 30 second break.</p>
                     <p>Press any key when you're ready to continue.</p>"," ","html-keyboard-response","230","2.1.0","654021","F=YES, J=NO","nxdxnujrtl","2","84","83","85","","","","","","","","","","","","","","","",""
"1941","<p>Starting main block 2 of 8. Press any key to continue.</p>"," ","html-keyboard-response","231","2.1.0","655964","F=YES, J=NO","nxdxnujrtl","2","84","83","85","","","","","","","","","","","","","","","",""
"null","<p style=""font-size: 50px;"">+</p>","null","html-keyboard-response","232","2.1.0","656271","F=YES, J=NO","nxdxnujrtl","2","84","83","85","","","","","","","","","","","","","","","",""
"null","audio/beep-329314.mp3","null","audio-keyboard-response","233","2.1.0","658092","F=YES, J=NO","nxdxnujrtl","2","84","83","85","","","","","","","","","","","","","","","",""
"null","audio/weight1.wav","null","audio-keyboard-response","234","2.1.0","658621","F=YES, J=NO","nxdxnujrtl","2","84","83","85","","","","","","","","","","","","","","","",""
"796","
          <p id=""word"" style=""font-size: 40px;"">crimsh</p>
          <p style=""font-size: 16px;"">F = YES &nbsp;&nbsp;&nbsp; J = NO</p>
        ","j","html-keyboard-response","235","2.1.0","659420","F=YES, J=NO","nxdxnujrtl","2","84","83","85","","","","","","","","","crimsh","weight1","pseudoword","pseudoword","j","true","",""
"null","<p style=""font-size: 50px;"">+</p>","null","html-keyboard-response","236","2.1.0","659729","F=YES, J=NO","nxdxnujrtl","2","84","83","85","","","","","","","","","","","","","","","",""
"null","audio/beep-329314.mp3","null","audio-keyboard-response","237","2.1.0","661512","F=YES, J=NO","nxdxnujrtl","2","84","83","85","","","","","","","","","","","","","","","",""
"null","audio/trout1.wav","null","audio-keyboard-response","238","2.1.0","662121","F=YES, J=NO","nxdxnujrtl","2","84","83","85","","","","","","","","","","","","","","","",""
"615","
          <p id=""word"" style=""font-size: 40px;"">catch</p>
          <p style=""font-size: 16px;"">F = YES &nbsp;&nbsp;&nbsp; J = NO</p>
        ","f","html-keyboard-response","239","2.1.0","662739","F=YES, J=NO","nxdxnujrtl","2","84","83","85","","","","","","","","","catch","trout1","literal","experimental","f","true","",""
"null","<p style=""font-size: 50px;"">+</p>","null","html-keyboard-response","240","2.1.0","663043","F=YES, J=NO","nxdxnujrtl","2","84","83","85","","","","","","","","","","","","","","","",""
"null","audio/beep-329314.mp3","null","audio-keyboard-response","241","2.1.0","664812","F=YES, J=NO","nxdxnujrtl","2","84","83","85","","","","","","","","","","","","","","","",""
"null","audio/pattern.wav","null","audio-keyboard-response","242","2.1.0","665341","F=YES, J=NO","nxdxnujrtl","2","84","83","85","","","","","","","","","","","","","","","",""
"723","
          <p id=""word"" style=""font-size: 40px;"">tug</p>
          <p style=""font-size: 16px;"">F = YES &nbsp;&nbsp;&nbsp; J = NO</p>
        ","f","html-keyboard-response","243","2.1.0","666066","F=YES, J=NO","nxdxnujrtl","2","84","83","85","","","","","","","","","tug","pattern","filler","filler","f","true","",""
"null","<p style=""font-size: 50px;"">+</p>","null","html-keyboard-response","244","2.1.0","666383","F=YES, J=NO","nxdxnujrtl","2","84","83","85","","","","","","","","","","","","","","","",""
"null","audio/beep-329314.mp3","null","audio-keyboard-response","245","2.1.0","668152","F=YES, J=NO","nxdxnujrtl","2","84","83","85","","","","","","","","","","","","","","","",""
"null","audio/alarm1.wav","null","audio-keyboard-response","246","2.1.0","668761","F=YES, J=NO","nxdxnujrtl","2","84","83","85","","","","","","","","","","","","","","","",""
"661","
          <p id=""word"" style=""font-size: 40px;"">swetp</p>
          <p style=""font-size: 16px;"">F = YES &nbsp;&nbsp;&nbsp; J = NO</p>
        ","j","html-keyboard-response","247","2.1.0","669425","F=YES, J=NO","nxdxnujrtl","2","84","83","85","","","","","","","","","swetp","alarm1","pseudoword","pseudoword","j","true","",""
"null","<p style=""font-size: 50px;"">+</p>","null","html-keyboard-response","248","2.1.0","669733","F=YES, J=NO","nxdxnujrtl","2","84","83","85","","","","","","","","","","","","","","","",""
"null","audio/beep-329314.mp3","null","audio-keyboard-response","249","2.1.0","671512","F=YES, J=NO","nxdxnujrtl","2","84","83","85","","","","","","","","","","","","","","","",""
"null","audio/pine.wav","null","audio-keyboard-response","250","2.1.0","672041","F=YES, J=NO","nxdxnujrtl","2","84","83","85","","","","","","","","","","","","","","","",""
"545","
          <p id=""word"" style=""font-size: 40px;"">weave</p>
          <p style=""font-size: 16px;"">F = YES &nbsp;&nbsp;&nbsp; J = NO</p>
        ","f","html-keyboard-response","251","2.1.0","672589","F=YES, J=NO","nxdxnujrtl","2","84","83","85","","","","","","","","","weave","pine","unrelated","experimental","f","true","",""
"null","<p style=""font-size: 50px;"">+</p>","null","html-keyboard-response","252","2.1.0","672895","F=YES, J=NO","nxdxnujrtl","2","84","83","85","","","","","","","","","","","","","","","",""
"null","audio/beep-329314.mp3","null","audio-keyboard-response","253","2.1.0","674672","F=YES, J=NO","nxdxnujrtl","2","84","83","85","","","","","","","","","","","","","","","",""
"null","audio/scar.wav","null","audio-keyboard-response","254","2.1.0","675282","F=YES, J=NO","nxdxnujrtl","2","84","83","85","","","","","","","","","","","","","","","",""
"1374","
          <p id=""word"" style=""font-size: 40px;"">adelineate</p>
          <p style=""font-size: 16px;"">F = YES &nbsp;&nbsp;&nbsp; J = NO</p>
        ","j","html-keyboard-response","255","2.1.0","676657","F=YES, J=NO","nxdxnujrtl","2","84","83","85","","","","","","","","","adelineate","scar","pseudoword","pseudoword","j","true","",""
"null","<p style=""font-size: 50px;"">+</p>","null","html-keyboard-response","256","2.1.0","676963","F=YES, J=NO","nxdxnujrtl","2","84","83","85","","","","","","","","","","","","","","","",""
"null","audio/beep-329314.mp3","null","audio-keyboard-response","257","2.1.0","678732","F=YES, J=NO","nxdxnujrtl","2","84","83","85","","","","","","","","","","","","","","","",""
"null","audio/brain.wav","null","audio-keyboard-response","258","2.1.0","679201","F=YES, J=NO","nxdxnujrtl","2","84","83","85","","","","","","","","","","","","","","","",""
"534","
          <p id=""word"" style=""font-size: 40px;"">flood</p>
          <p style=""font-size: 16px;"">F = YES &nbsp;&nbsp;&nbsp; J = NO</p>
        ","f","html-keyboard-response","259","2.1.0","679736","F=YES, J=NO","nxdxnujrtl","2","84","83","85","","","","","","","","","flood","brain","metaphor","experimental","f","true","",""
"null","<p style=""font-size: 50px;"">+</p>","null","html-keyboard-response","260","2.1.0","680044","F=YES, J=NO","nxdxnujrtl","2","84","83","85","","","","","","","","","","","","","","","",""
"null","audio/beep-329314.mp3","null","audio-keyboard-response","261","2.1.0","681812","F=YES, J=NO","nxdxnujrtl","2","84","83","85","","","","","","","","","","","","","","","",""
"null","audio/cancer1.wav","null","audio-keyboard-response","262","2.1.0","682381","F=YES, J=NO","nxdxnujrtl","2","84","83","85","","","","","","","","","","","","","","","",""
"460","
          <p id=""word"" style=""font-size: 40px;"">draw</p>
          <p style=""font-size: 16px;"">F = YES &nbsp;&nbsp;&nbsp; J = NO</p>
        ","f","html-keyboard-response","263","2.1.0","682844","F=YES, J=NO","nxdxnujrtl","2","84","83","85","","","","","","","","","draw","cancer1","filler","filler","f","true","",""
"null","<p style=""font-size: 50px;"">+</p>","null","html-keyboard-response","264","2.1.0","683155","F=YES, J=NO","nxdxnujrtl","2","84","83","85","","","","","","","","","","","","","","","",""
"null","audio/beep-329314.mp3","null","audio-keyboard-response","265","2.1.0","684932","F=YES, J=NO","nxdxnujrtl","2","84","83","85","","","","","","","","","","","","","","","",""
"null","audio/cave1.wav","null","audio-keyboard-response","266","2.1.0","685522","F=YES, J=NO","nxdxnujrtl","2","84","83","85","","","","","","","","","","","","","","","",""
"472","
          <p id=""word"" style=""font-size: 40px;"">blacket</p>
          <p style=""font-size: 16px;"">F = YES &nbsp;&nbsp;&nbsp; J = NO</p>
        ","f","html-keyboard-response","267","2.1.0","685995","F=YES, J=NO","nxdxnujrtl","2","84","83","85","","","","","","","","","blacket","cave1","pseudoword","pseudoword","j","false","",""
"null","<p style=""font-size: 50px;"">+</p>","null","html-keyboard-response","268","2.1.0","686300","F=YES, J=NO","nxdxnujrtl","2","84","83","85","","","","","","","","","","","","","","","",""
"null","audio/beep-329314.mp3","null","audio-keyboard-response","269","2.1.0","688072","F=YES, J=NO","nxdxnujrtl","2","84","83","85","","","","","","","","","","","","","","","",""
"null","audio/butter1.wav","null","audio-keyboard-response","270","2.1.0","688542","F=YES, J=NO","nxdxnujrtl","2","84","83","85","","","","","","","","","","","","","","","",""
"730","
          <p id=""word"" style=""font-size: 40px;"">chew</p>
          <p style=""font-size: 16px;"">F = YES &nbsp;&nbsp;&nbsp; J = NO</p>
        ","f","html-keyboard-response","271","2.1.0","689274","F=YES, J=NO","nxdxnujrtl","2","84","83","85","","","","","","","","","chew","butter1","filler","filler","f","true","",""
"null","<p style=""font-size: 50px;"">+</p>","null","html-keyboard-response","272","2.1.0","689587","F=YES, J=NO","nxdxnujrtl","2","84","83","85","","","","","","","","","","","","","","","",""
"null","audio/beep-329314.mp3","null","audio-keyboard-response","273","2.1.0","691352","F=YES, J=NO","nxdxnujrtl","2","84","83","85","","","","","","","","","","","","","","","",""
"null","audio/handle.wav","null","audio-keyboard-response","274","2.1.0","692001","F=YES, J=NO","nxdxnujrtl","2","84","83","85","","","","","","","","","","","","","","","",""
"763","
          <p id=""word"" style=""font-size: 40px;"">moutes</p>
          <p style=""font-size: 16px;"">F = YES &nbsp;&nbsp;&nbsp; J = NO</p>
        ","j","html-keyboard-response","275","2.1.0","692766","F=YES, J=NO","nxdxnujrtl","2","84","83","85","","","","","","","","","moutes","handle","pseudoword","pseudoword","j","true","",""
"null","<p style=""font-size: 50px;"">+</p>","null","html-keyboard-response","276","2.1.0","693077","F=YES, J=NO","nxdxnujrtl","2","84","83","85","","","","","","","","","","","","","","","",""
"null","audio/beep-329314.mp3","null","audio-keyboard-response","277","2.1.0","694852","F=YES, J=NO","nxdxnujrtl","2","84","83","85","","","","","","","","","","","","","","","",""
"null","audio/burden.wav","null","audio-keyboard-response","278","2.1.0","695421","F=YES, J=NO","nxdxnujrtl","2","84","83","85","","","","","","","","","","","","","","","",""
"762","
          <p id=""word"" style=""font-size: 40px;"">whotth</p>
          <p style=""font-size: 16px;"">F = YES &nbsp;&nbsp;&nbsp; J = NO</p>
        ","j","html-keyboard-response","279","2.1.0","696185","F=YES, J=NO","nxdxnujrtl","2","84","83","85","","","","","","","","","whotth","burden","pseudoword","pseudoword","j","true","",""
"null","<p style=""font-size: 50px;"">+</p>","null","html-keyboard-response","280","2.1.0","696493","F=YES, J=NO","nxdxnujrtl","2","84","83","85","","","","","","","","","","","","","","","",""
"null","audio/beep-329314.mp3","null","audio-keyboard-response","281","2.1.0","698272","F=YES, J=NO","nxdxnujrtl","2","84","83","85","","","","","","","","","","","","","","","",""
"null","audio/golf1.wav","null","audio-keyboard-response","282","2.1.0","698861","F=YES, J=NO","nxdxnujrtl","2","84","83","85","","","","","","","","","","","","","","","",""
"null","
          <p id=""word"" style=""font-size: 40px;"">drabble</p>
          <p style=""font-size: 16px;"">F = YES &nbsp;&nbsp;&nbsp; J = NO</p>
        ","null","html-keyboard-response","283","2.1.0","700367","F=YES, J=NO","nxdxnujrtl","2","84","83","85","","","","","","","","","drabble","golf1","pseudoword","pseudoword","j","false","",""
"null","<p style=""font-size: 50px;"">+</p>","null","html-keyboard-response","284","2.1.0","700672","F=YES, J=NO","nxdxnujrtl","2","84","83","85","","","","","","","","","","","","","","","",""
"null","audio/beep-329314.mp3","null","audio-keyboard-response","285","2.1.0","702452","F=YES, J=NO","nxdxnujrtl","2","84","83","85","","","","","","","","","","","","","","","",""
"null","audio/kettle1.wav","null","audio-keyboard-response","286","2.1.0","702961","F=YES, J=NO","nxdxnujrtl","2","84","83","85","","","","","","","","","","","","","","","",""
"599","
          <p id=""word"" style=""font-size: 40px;"">navigate</p>
          <p style=""font-size: 16px;"">F = YES &nbsp;&nbsp;&nbsp; J = NO</p>
        ","f","html-keyboard-response","287","2.1.0","703563","F=YES, J=NO","nxdxnujrtl","2","84","83","85","","","","","","","","","navigate","kettle1","unrelated","experimental","f","true","",""
"null","<p style=""font-size: 50px;"">+</p>","null","html-keyboard-response","288","2.1.0","703873","F=YES, J=NO","nxdxnujrtl","2","84","83","85","","","","","","","","","","","","","","","",""
"null","audio/beep-329314.mp3","null","audio-keyboard-response","289","2.1.0","705652","F=YES, J=NO","nxdxnujrtl","2","84","83","85","","","","","","","","","","","","","","","",""
"null","audio/pain1.wav","null","audio-keyboard-response","290","2.1.0","706122","F=YES, J=NO","nxdxnujrtl","2","84","83","85","","","","","","","","","","","","","","","",""
"890","
          <p id=""word"" style=""font-size: 40px;"">tritted</p>
          <p style=""font-size: 16px;"">F = YES &nbsp;&nbsp;&nbsp; J = NO</p>
        ","j","html-keyboard-response","291","2.1.0","707014","F=YES, J=NO","nxdxnujrtl","2","84","83","85","","","","","","","","","tritted","pain1","pseudoword","pseudoword","j","true","",""
"null","<p style=""font-size: 50px;"">+</p>","null","html-keyboard-response","292","2.1.0","707321","F=YES, J=NO","nxdxnujrtl","2","84","83","85","","","","","","","","","","","","","","","",""
"null","audio/beep-329314.mp3","null","audio-keyboard-response","293","2.1.0","709091","F=YES, J=NO","nxdxnujrtl","2","84","83","85","","","","","","","","","","","","","","","",""
"null","audio/lion1.wav","null","audio-keyboard-response","294","2.1.0","709662","F=YES, J=NO","nxdxnujrtl","2","84","83","85","","","","","","","","","","","","","","","",""
"722","
          <p id=""word"" style=""font-size: 40px;"">wrestle</p>
          <p style=""font-size: 16px;"">F = YES &nbsp;&nbsp;&nbsp; J = NO</p>
        ","f","html-keyboard-response","295","2.1.0","710385","F=YES, J=NO","nxdxnujrtl","2","84","83","85","","","","","","","","","wrestle","lion1","literal","experimental","f","true","",""
"32736","<p>Excellent! You have finished block 2 of 8.</p>
                     <p>Feel free to take a 30 second break.</p>
                     <p>Press any key when you're ready to continue.</p>"," ","html-keyboard-response","296","2.1.0","743123","F=YES, J=NO","nxdxnujrtl","2","84","83","85","","","","","","","","","","","","","","","",""
"1057","<p>Starting main block 3 of 8. Press any key to continue.</p>"," ","html-keyboard-response","297","2.1.0","744182","F=YES, J=NO","nxdxnujrtl","2","84","83","85","","","","","","","","","","","","","","","",""
"null","<p style=""font-size: 50px;"">+</p>","null","html-keyboard-response","298","2.1.0","744492","F=YES, J=NO","nxdxnujrtl","2","84","83","85","","","","","","","","","","","","","","","",""
"null","audio/beep-329314.mp3","null","audio-keyboard-response","299","2.1.0","746283","F=YES, J=NO","nxdxnujrtl","2","84","83","85","","","","","","","","","","","","","","","",""
"null","audio/bush1.wav","null","audio-keyboard-response","300","2.1.0","746752","F=YES, J=NO","nxdxnujrtl","2","84","83","85","","","","","","","","","","","","","","","",""
"511","
          <p id=""word"" style=""font-size: 40px;"">run</p>
          <p style=""font-size: 16px;"">F = YES &nbsp;&nbsp;&nbsp; J = NO</p>
        ","f","html-keyboard-response","301","2.1.0","747266","F=YES, J=NO","nxdxnujrtl","2","84","83","85","","","","","","","","","run","bush1","unrelated","experimental","f","true","",""
"null","<p style=""font-size: 50px;"">+</p>","null","html-keyboard-response","302","2.1.0","747580","F=YES, J=NO","nxdxnujrtl","2","84","83","85","","","","","","","","","","","","","","","",""
"null","audio/beep-329314.mp3","null","audio-keyboard-response","303","2.1.0","749363","F=YES, J=NO","nxdxnujrtl","2","84","83","85","","","","","","","","","","","","","","","",""
"null","audio/hawk1.wav","null","audio-keyboard-response","304","2.1.0","749934","F=YES, J=NO","nxdxnujrtl","2","84","83","85","","","","","","","","","","","","","","","",""
"593","
          <p id=""word"" style=""font-size: 40px;"">wipe</p>
          <p style=""font-size: 16px;"">F = YES &nbsp;&nbsp;&nbsp; J = NO</p>
        ","f","html-keyboard-response","305","2.1.0","750529","F=YES, J=NO","nxdxnujrtl","2","84","83","85","","","","","","","","","wipe","hawk1","unrelated","experimental","f","true","",""
"null","<p style=""font-size: 50px;"">+</p>","null","html-keyboard-response","306","2.1.0","750834","F=YES, J=NO","nxdxnujrtl","2","84","83","85","","","","","","","","","","","","","","","",""
"null","audio/beep-329314.mp3","null","audio-keyboard-response","307","2.1.0","752603","F=YES, J=NO","nxdxnujrtl","2","84","83","85","","","","","","","","","","","","","","","",""
"null","audio/foe1.wav","null","audio-keyboard-response","308","2.1.0","753293","F=YES, J=NO","nxdxnujrtl","2","84","83","85","","","","","","","","","","","","","","","",""
"692","
          <p id=""word"" style=""font-size: 40px;"">creth</p>
          <p style=""font-size: 16px;"">F = YES &nbsp;&nbsp;&nbsp; J = NO</p>
        ","j","html-keyboard-response","309","2.1.0","753987","F=YES, J=NO","nxdxnujrtl","2","84","83","85","","","","","","","","","creth","foe1","pseudoword","pseudoword","j","true","",""
"null","<p style=""font-size: 50px;"">+</p>","null","html-keyboard-response","310","2.1.0","754292","F=YES, J=NO","nxdxnujrtl","2","84","83","85","","","","","","","","","","","","","","","",""
"null","audio/beep-329314.mp3","null","audio-keyboard-response","311","2.1.0","756063","F=YES, J=NO","nxdxnujrtl","2","84","83","85","","","","","","","","","","","","","","","",""
"null","audio/golf1.wav","null","audio-keyboard-response","312","2.1.0","756613","F=YES, J=NO","nxdxnujrtl","2","84","83","85","","","","","","","","","","","","","","","",""
"555","
          <p id=""word"" style=""font-size: 40px;"">bury</p>
          <p style=""font-size: 16px;"">F = YES &nbsp;&nbsp;&nbsp; J = NO</p>
        ","f","html-keyboard-response","313","2.1.0","757171","F=YES, J=NO","nxdxnujrtl","2","84","83","85","","","","","","","","","bury","golf1","unrelated","experimental","f","true","",""
"null","<p style=""font-size: 50px;"">+</p>","null","html-keyboard-response","314","2.1.0","757484","F=YES, J=NO","nxdxnujrtl","2","84","83","85","","","","","","","","","","","","","","","",""
"null","audio/beep-329314.mp3","null","audio-keyboard-response","315","2.1.0","759263","F=YES, J=NO","nxdxnujrtl","2","84","83","85","","","","","","","","","","","","","","","",""
"null","audio/tunnel.wav","null","audio-keyboard-response","316","2.1.0","759672","F=YES, J=NO","nxdxnujrtl","2","84","83","85","","","","","","","","","","","","","","","",""
"836","
          <p id=""word"" style=""font-size: 40px;"">grasp</p>
          <p style=""font-size: 16px;"">F = YES &nbsp;&nbsp;&nbsp; J = NO</p>
        ","f","html-keyboard-response","317","2.1.0","760511","F=YES, J=NO","nxdxnujrtl","2","84","83","85","","","","","","","","","grasp","tunnel","unrelated","experimental","f","true","",""
"null","<p style=""font-size: 50px;"">+</p>","null","html-keyboard-response","318","2.1.0","760829","F=YES, J=NO","nxdxnujrtl","2","84","83","85","","","","","","","","","","","","","","","",""
"null","audio/beep-329314.mp3","null","audio-keyboard-response","319","2.1.0","762603","F=YES, J=NO","nxdxnujrtl","2","84","83","85","","","","","","","","","","","","","","","",""
"null","audio/kettle1.wav","null","audio-keyboard-response","320","2.1.0","763053","F=YES, J=NO","nxdxnujrtl","2","84","83","85","","","","","","","","","","","","","","","",""
"792","
          <p id=""word"" style=""font-size: 40px;"">wrap</p>
          <p style=""font-size: 16px;"">F = YES &nbsp;&nbsp;&nbsp; J = NO</p>
        ","f","html-keyboard-response","321","2.1.0","763847","F=YES, J=NO","nxdxnujrtl","2","84","83","85","","","","","","","","","wrap","kettle1","filler","filler","f","true","",""
"null","<p style=""font-size: 50px;"">+</p>","null","html-keyboard-response","322","2.1.0","764153","F=YES, J=NO","nxdxnujrtl","2","84","83","85","","","","","","","","","","","","","","","",""
"null","audio/beep-329314.mp3","null","audio-keyboard-response","323","2.1.0","765923","F=YES, J=NO","nxdxnujrtl","2","84","83","85","","","","","","","","","","","","","","","",""
"null","audio/beach1.wav","null","audio-keyboard-response","324","2.1.0","766493","F=YES, J=NO","nxdxnujrtl","2","84","83","85","","","","","","","","","","","","","","","",""
"570","
          <p id=""word"" style=""font-size: 40px;"">cut</p>
          <p style=""font-size: 16px;"">F = YES &nbsp;&nbsp;&nbsp; J = NO</p>
        ","f","html-keyboard-response","325","2.1.0","767065","F=YES, J=NO","nxdxnujrtl","2","84","83","85","","","","","","","","","cut","beach1","unrelated","experimental","f","true","",""
"null","<p style=""font-size: 50px;"">+</p>","null","html-keyboard-response","326","2.1.0","767378","F=YES, J=NO","nxdxnujrtl","2","84","83","85","","","","","","","","","","","","","","","",""
"null","audio/beep-329314.mp3","null","audio-keyboard-response","327","2.1.0","769143","F=YES, J=NO","nxdxnujrtl","2","84","83","85","","","","","","","","","","","","","","","",""
"null","audio/mind.wav","null","audio-keyboard-response","328","2.1.0","769692","F=YES, J=NO","nxdxnujrtl","2","84","83","85","","","","","","","","","","","","","","","",""
"502","
          <p id=""word"" style=""font-size: 40px;"">clear</p>
          <p style=""font-size: 16px;"">F = YES &nbsp;&nbsp;&nbsp; J = NO</p>
        ","f","html-keyboard-response","329","2.1.0","770195","F=YES, J=NO","nxdxnujrtl","2","84","83","85","","","","","","","","","clear","mind","metaphor","experimental","f","true","",""
"null","<p style=""font-size: 50px;"">+</p>","null","html-keyboard-response","330","2.1.0","770506","F=YES, J=NO","nxdxnujrtl","2","84","83","85","","","","","","","","","","","","","","","",""
"null","audio/beep-329314.mp3","null","audio-keyboard-response","331","2.1.0","772283","F=YES, J=NO","nxdxnujrtl","2","84","83","85","","","","","","","","","","","","","","","",""
"null","audio/belief.wav","null","audio-keyboard-response","332","2.1.0","773073","F=YES, J=NO","nxdxnujrtl","2","84","83","85","","","","","","","","","","","","","","","",""
"560","
          <p id=""word"" style=""font-size: 40px;"">share</p>
          <p style=""font-size: 16px;"">F = YES &nbsp;&nbsp;&nbsp; J = NO</p>
        ","f","html-keyboard-response","333","2.1.0","773634","F=YES, J=NO","nxdxnujrtl","2","84","83","85","","","","","","","","","share","belief","metaphor","experimental","f","true","",""
"null","<p style=""font-size: 50px;"">+</p>","null","html-keyboard-response","334","2.1.0","773936","F=YES, J=NO","nxdxnujrtl","2","84","83","85","","","","","","","","","","","","","","","",""
"null","audio/beep-329314.mp3","null","audio-keyboard-response","335","2.1.0","775703","F=YES, J=NO","nxdxnujrtl","2","84","83","85","","","","","","","","","","","","","","","",""
"null","audio/cinema1.wav","null","audio-keyboard-response","336","2.1.0","776473","F=YES, J=NO","nxdxnujrtl","2","84","83","85","","","","","","","","","","","","","","","",""
"644","
          <p id=""word"" style=""font-size: 40px;"">murple</p>
          <p style=""font-size: 16px;"">F = YES &nbsp;&nbsp;&nbsp; J = NO</p>
        ","j","html-keyboard-response","337","2.1.0","777119","F=YES, J=NO","nxdxnujrtl","2","84","83","85","","","","","","","","","murple","cinema1","pseudoword","pseudoword","j","true","",""
"null","<p style=""font-size: 50px;"">+</p>","null","html-keyboard-response","338","2.1.0","777422","F=YES, J=NO","nxdxnujrtl","2","84","83","85","","","","","","","","","","","","","","","",""
"null","audio/beep-329314.mp3","null","audio-keyboard-response","339","2.1.0","779203","F=YES, J=NO","nxdxnujrtl","2","84","83","85","","","","","","","","","","","","","","","",""
"null","audio/road.wav","null","audio-keyboard-response","340","2.1.0","779653","F=YES, J=NO","nxdxnujrtl","2","84","83","85","","","","","","","","","","","","","","","",""
"758","
          <p id=""word"" style=""font-size: 40px;"">wappings</p>
          <p style=""font-size: 16px;"">F = YES &nbsp;&nbsp;&nbsp; J = NO</p>
        ","j","html-keyboard-response","341","2.1.0","780413","F=YES, J=NO","nxdxnujrtl","2","84","83","85","","","","","","","","","wappings","road","pseudoword","pseudoword","j","true","",""
"null","<p style=""font-size: 50px;"">+</p>","null","html-keyboard-response","342","2.1.0","780729","F=YES, J=NO","nxdxnujrtl","2","84","83","85","","","","","","","","","","","","","","","",""
"null","audio/beep-329314.mp3","null","audio-keyboard-response","343","2.1.0","782503","F=YES, J=NO","nxdxnujrtl","2","84","83","85","","","","","","","","","","","","","","","",""
"null","audio/test1.wav","null","audio-keyboard-response","344","2.1.0","783133","F=YES, J=NO","nxdxnujrtl","2","84","83","85","","","","","","","","","","","","","","","",""
"552","
          <p id=""word"" style=""font-size: 40px;"">twopch</p>
          <p style=""font-size: 16px;"">F = YES &nbsp;&nbsp;&nbsp; J = NO</p>
        ","j","html-keyboard-response","345","2.1.0","783687","F=YES, J=NO","nxdxnujrtl","2","84","83","85","","","","","","","","","twopch","test1","pseudoword","pseudoword","j","true","",""
"null","<p style=""font-size: 50px;"">+</p>","null","html-keyboard-response","346","2.1.0","783996","F=YES, J=NO","nxdxnujrtl","2","84","83","85","","","","","","","","","","","","","","","",""
"null","audio/beep-329314.mp3","null","audio-keyboard-response","347","2.1.0","785763","F=YES, J=NO","nxdxnujrtl","2","84","83","85","","","","","","","","","","","","","","","",""
"null","audio/bridge.wav","null","audio-keyboard-response","348","2.1.0","786293","F=YES, J=NO","nxdxnujrtl","2","84","83","85","","","","","","","","","","","","","","","",""
"635","
          <p id=""word"" style=""font-size: 40px;"">crack</p>
          <p style=""font-size: 16px;"">F = YES &nbsp;&nbsp;&nbsp; J = NO</p>
        ","f","html-keyboard-response","349","2.1.0","786930","F=YES, J=NO","nxdxnujrtl","2","84","83","85","","","","","","","","","crack","bridge","filler","filler","f","true","",""
"null","<p style=""font-size: 50px;"">+</p>","null","html-keyboard-response","350","2.1.0","787236","F=YES, J=NO","nxdxnujrtl","2","84","83","85","","","","","","","","","","","","","","","",""
"null","audio/beep-329314.mp3","null","audio-keyboard-response","351","2.1.0","789003","F=YES, J=NO","nxdxnujrtl","2","84","83","85","","","","","","","","","","","","","","","",""
"null","audio/dome.wav","null","audio-keyboard-response","352","2.1.0","789453","F=YES, J=NO","nxdxnujrtl","2","84","83","85","","","","","","","","","","","","","","","",""
"1324","
          <p id=""word"" style=""font-size: 40px;"">scrupliness</p>
          <p style=""font-size: 16px;"">F = YES &nbsp;&nbsp;&nbsp; J = NO</p>
        ","j","html-keyboard-response","353","2.1.0","790779","F=YES, J=NO","nxdxnujrtl","2","84","83","85","","","","","","","","","scrupliness","dome","pseudoword","pseudoword","j","true","",""
"null","<p style=""font-size: 50px;"">+</p>","null","html-keyboard-response","354","2.1.0","791085","F=YES, J=NO","nxdxnujrtl","2","84","83","85","","","","","","","","","","","","","","","",""
"null","audio/beep-329314.mp3","null","audio-keyboard-response","355","2.1.0","792864","F=YES, J=NO","nxdxnujrtl","2","84","83","85","","","","","","","","","","","","","","","",""
"null","audio/trust.wav","null","audio-keyboard-response","356","2.1.0","793653","F=YES, J=NO","nxdxnujrtl","2","84","83","85","","","","","","","","","","","","","","","",""
"716","
          <p id=""word"" style=""font-size: 40px;"">swint</p>
          <p style=""font-size: 16px;"">F = YES &nbsp;&nbsp;&nbsp; J = NO</p>
        ","j","html-keyboard-response","357","2.1.0","794372","F=YES, J=NO","nxdxnujrtl","2","84","83","85","","","","","","","","","swint","trust","pseudoword","pseudoword","j","true","",""
"null","<p style=""font-size: 50px;"">+</p>","null","html-keyboard-response","358","2.1.0","794683","F=YES, J=NO","nxdxnujrtl","2","84","83","85","","","","","","","","","","","","","","","",""
"null","audio/beep-329314.mp3","null","audio-keyboard-response","359","2.1.0","796463","F=YES, J=NO","nxdxnujrtl","2","84","83","85","","","","","","","","","","","","","","","",""
"null","audio/arm.wav","null","audio-keyboard-response","360","2.1.0","796993","F=YES, J=NO","nxdxnujrtl","2","84","83","85","","","","","","","","","","","","","","","",""
"574","
          <p id=""word"" style=""font-size: 40px;"">pigne</p>
          <p style=""font-size: 16px;"">F = YES &nbsp;&nbsp;&nbsp; J = NO</p>
        ","j","html-keyboard-response","361","2.1.0","797569","F=YES, J=NO","nxdxnujrtl","2","84","83","85","","","","","","","","","pigne","arm","pseudoword","pseudoword","j","true","",""
"17674","<p>Excellent! You have finished block 3 of 8.</p>
                     <p>Feel free to take a 30 second break.</p>
                     <p>Press any key when you're ready to continue.</p>"," ","html-keyboard-response","362","2.1.0","815244","F=YES, J=NO","nxdxnujrtl","2","84","83","85","","","","","","","","","","","","","","","",""
"428","<p>Starting main block 4 of 8. Press any key to continue.</p>"," ","html-keyboard-response","363","2.1.0","815673","F=YES, J=NO","nxdxnujrtl","2","84","83","85","","","","","","","","","","","","","","","",""
"null","<p style=""font-size: 50px;"">+</p>","null","html-keyboard-response","364","2.1.0","815982","F=YES, J=NO","nxdxnujrtl","2","84","83","85","","","","","","","","","","","","","","","",""
"null","audio/beep-329314.mp3","null","audio-keyboard-response","365","2.1.0","817776","F=YES, J=NO","nxdxnujrtl","2","84","83","85","","","","","","","","","","","","","","","",""
"null","audio/plot1.wav","null","audio-keyboard-response","366","2.1.0","818486","F=YES, J=NO","nxdxnujrtl","2","84","83","85","","","","","","","","","","","","","","","",""
"472","
          <p id=""word"" style=""font-size: 40px;"">glenter</p>
          <p style=""font-size: 16px;"">F = YES &nbsp;&nbsp;&nbsp; J = NO</p>
        ","j","html-keyboard-response","367","2.1.0","818960","F=YES, J=NO","nxdxnujrtl","2","84","83","85","","","","","","","","","glenter","plot1","pseudoword","pseudoword","j","true","",""
"null","<p style=""font-size: 50px;"">+</p>","null","html-keyboard-response","368","2.1.0","819271","F=YES, J=NO","nxdxnujrtl","2","84","83","85","","","","","","","","","","","","","","","",""
"null","audio/beep-329314.mp3","null","audio-keyboard-response","369","2.1.0","821037","F=YES, J=NO","nxdxnujrtl","2","84","83","85","","","","","","","","","","","","","","","",""
"null","audio/alarm1.wav","null","audio-keyboard-response","370","2.1.0","821605","F=YES, J=NO","nxdxnujrtl","2","84","83","85","","","","","","","","","","","","","","","",""
"577","
          <p id=""word"" style=""font-size: 40px;"">lock</p>
          <p style=""font-size: 16px;"">F = YES &nbsp;&nbsp;&nbsp; J = NO</p>
        ","f","html-keyboard-response","371","2.1.0","822185","F=YES, J=NO","nxdxnujrtl","2","84","83","85","","","","","","","","","lock","alarm1","filler","filler","f","true","",""
"null","<p style=""font-size: 50px;"">+</p>","null","html-keyboard-response","372","2.1.0","822491","F=YES, J=NO","nxdxnujrtl","2","84","83","85","","","","","","","","","","","","","","","",""
"null","audio/beep-329314.mp3","null","audio-keyboard-response","373","2.1.0","824256","F=YES, J=NO","nxdxnujrtl","2","84","83","85","","","","","","","","","","","","","","","",""
"null","audio/trout1.wav","null","audio-keyboard-response","374","2.1.0","824826","F=YES, J=NO","nxdxnujrtl","2","84","83","85","","","","","","","","","","","","","","","",""
"506","
          <p id=""word"" style=""font-size: 40px;"">spimt</p>
          <p style=""font-size: 16px;"">F = YES &nbsp;&nbsp;&nbsp; J = NO</p>
        ","j","html-keyboard-response","375","2.1.0","825334","F=YES, J=NO","nxdxnujrtl","2","84","83","85","","","","","","","","","spimt","trout1","pseudoword","pseudoword","j","true","",""
"null","<p style=""font-size: 50px;"">+</p>","null","html-keyboard-response","376","2.1.0","825641","F=YES, J=NO","nxdxnujrtl","2","84","83","85","","","","","","","","","","","","","","","",""
"null","audio/beep-329314.mp3","null","audio-keyboard-response","377","2.1.0","827416","F=YES, J=NO","nxdxnujrtl","2","84","83","85","","","","","","","","","","","","","","","",""
"null","audio/smirk1.wav","null","audio-keyboard-response","378","2.1.0","828925","F=YES, J=NO","nxdxnujrtl","2","84","83","85","","","","","","","","","","","","","","","",""
"580","
          <p id=""word"" style=""font-size: 40px;"">snopt</p>
          <p style=""font-size: 16px;"">F = YES &nbsp;&nbsp;&nbsp; J = NO</p>
        ","j","html-keyboard-response","379","2.1.0","829507","F=YES, J=NO","nxdxnujrtl","2","84","83","85","","","","","","","","","snopt","smirk1","pseudoword","pseudoword","j","true","",""
"null","<p style=""font-size: 50px;"">+</p>","null","html-keyboard-response","380","2.1.0","829809","F=YES, J=NO","nxdxnujrtl","2","84","83","85","","","","","","","","","","","","","","","",""
"null","audio/beep-329314.mp3","null","audio-keyboard-response","381","2.1.0","831576","F=YES, J=NO","nxdxnujrtl","2","84","83","85","","","","","","","","","","","","","","","",""
"null","audio/client1.wav","null","audio-keyboard-response","382","2.1.0","832505","F=YES, J=NO","nxdxnujrtl","2","84","83","85","","","","","","","","","","","","","","","",""
"591","
          <p id=""word"" style=""font-size: 40px;"">droothe</p>
          <p style=""font-size: 16px;"">F = YES &nbsp;&nbsp;&nbsp; J = NO</p>
        ","j","html-keyboard-response","383","2.1.0","833099","F=YES, J=NO","nxdxnujrtl","2","84","83","85","","","","","","","","","droothe","client1","pseudoword","pseudoword","j","true","",""
"null","<p style=""font-size: 50px;"">+</p>","null","html-keyboard-response","384","2.1.0","833412","F=YES, J=NO","nxdxnujrtl","2","84","83","85","","","","","","","","","","","","","","","",""
"null","audio/beep-329314.mp3","null","audio-keyboard-response","385","2.1.0","835195","F=YES, J=NO","nxdxnujrtl","2","84","83","85","","","","","","","","","","","","","","","",""
"null","audio/sand.wav","null","audio-keyboard-response","386","2.1.0","836046","F=YES, J=NO","nxdxnujrtl","2","84","83","85","","","","","","","","","","","","","","","",""
"724","
          <p id=""word"" style=""font-size: 40px;"">proted</p>
          <p style=""font-size: 16px;"">F = YES &nbsp;&nbsp;&nbsp; J = NO</p>
        ","j","html-keyboard-response","387","2.1.0","836771","F=YES, J=NO","nxdxnujrtl","2","84","83","85","","","","","","","","","proted","sand","pseudoword","pseudoword","j","true","",""
"null","<p style=""font-size: 50px;"">+</p>","null","html-keyboard-response","388","2.1.0","837075","F=YES, J=NO","nxdxnujrtl","2","84","83","85","","","","","","","","","","","","","","","",""
"null","audio/beep-329314.mp3","null","audio-keyboard-response","389","2.1.0","838855","F=YES, J=NO","nxdxnujrtl","2","84","83","85","","","","","","","","","","","","","","","",""
"null","audio/bishop1.wav","null","audio-keyboard-response","390","2.1.0","839425","F=YES, J=NO","nxdxnujrtl","2","84","83","85","","","","","","","","","","","","","","","",""
"802","
          <p id=""word"" style=""font-size: 40px;"">devour</p>
          <p style=""font-size: 16px;"">F = YES &nbsp;&nbsp;&nbsp; J = NO</p>
