"rt","stimulus","response","trial_type","trial_index","plugin_version","time_elapsed","response_mapping","subject_id","list_index","lextale_score","lextale_word_score","lextale_nonword_score","success","timeout","failed_images","failed_audio","failed_video","task","isWord","isDummy","target","prime","prime_type","stimulus_type","correct_response","correct","section","question_order"
"6193","
    <div style=""max-width: 800px; margin: auto; text-align: left;"">
      <h2>STANFORD UNIVERSITY</h2>
      <h3>Research Information Sheet</h3>
      <p><strong>Protocol Director:</strong> Robert Hawkins<br>
      <strong>Protocol Title:</strong> Communication and social cognition in natural audiovisual contexts<br>
      <strong>IRB#:</strong> 77226</p>

      <p><strong>DESCRIPTION:</strong> You are invited to participate in a research study about language and communication. The purpose of the research is to understand how you interact and communicate with other people in naturalistic settings as a fluent English speaker. This research will be conducted through the Prolific platform, including participants from the US, UK, and Canada. If you decide to participate in this research, you will play a communication game in a group with one or more partners.</p>

      <p><strong>TIME INVOLVEMENT:</strong> The task will last the amount of time advertised on Prolific. You are free to withdraw from the study at any time.</p>

      <p><strong>RISKS AND BENEFITS:</strong> You may become frustrated if your partner gets distracted, or experience discomfort if other participants in your group send text that is inappropriate for the task. We ask you to please be respectful of other participants you might be interacting with to mitigate these risks. You may also experience discomfort when being asked to discuss or challenge emotionally salient political beliefs. Study data will be stored securely, in compliance with Stanford University standards, minimizing the risk of confidentiality breach. This study advances our scientific understanding of how people communicate and collaborate in naturalistic settings. This study may lead to further insights about what can go wrong in teamwork, suggest potential interventions to overcome these barriers, and help to develop assistive technologies that collaborate with human partners. We cannot and do not guarantee or promise that you will receive any benefits from this study.</p>

      <p><strong>PAYMENTS:</strong> You will receive payment in the amount advertised on Prolific. If you do not complete this study, you will receive prorated payment based on the time that you have spent. Additionally, you may be eligible for bonus payments as described in the instructions.</p>

      <p><strong>PARTICIPANT’S RIGHTS:</strong> If you have read this form and have decided to participate in this project, please understand your participation is voluntary and you have the right to withdraw your consent or discontinue participation at any time without penalty or loss of benefits to which you are otherwise entitled. The alternative is not to participate. You have the right to refuse to answer particular questions. The results of this research study may be presented at scientific or professional meetings or published in scientific journals. Your individual privacy will be maintained in all published and written data resulting from the study. In accordance with scientific norms, the data from this study may be used or shared with other researchers for future research (after removing personally identifying information) without additional consent from you.</p>

      <p><strong>CONTACT INFORMATION:</strong><br>
      Questions: If you have any questions, concerns or complaints about this research, its procedures, risks and benefits, contact the Protocol Director, Robert Hawkins (<a href=""mailto:rdhawkins@stanford.edu"">rdhawkins@stanford.edu</a>, 217-549-6923).<br>
      Independent Contact: If you are not satisfied with how this study is being conducted, or if you have any concerns, complaints, or general questions about the research or your rights as a participant, please contact the Stanford Institutional Review Board (IRB) to speak to someone independent of the research team at 650-723-2480 or toll free at 1-866-680-2906, or email at <a href=""mailto:irbnon-med@stanford.edu"">irbnon-med@stanford.edu</a>. You can also write to the Stanford IRB, Stanford University, 1705 El Camino Real, Palo Alto, CA 94306.</p>

      <p><strong>Please save or print a copy of this page for your records.</strong></p>
      <p>If you agree to participate in this research, click ""Continue"" below.</p>
    </div>
  ","0","html-button-response","0","2.1.0","6206","J=YES, F=NO","o1e7ybrtop","0","65","80","50","","","","","","","","","","","","","","","",""
"15382","
    <div style=""max-width: 800px; margin: auto; text-align: left;"">
      <h2>Welcome!</h2>
      <p>Thank you for participating in this study. The experiment consists of three parts:</p>
      <ol>
        <li>An English vocabulary test</li>
        <li>A main task in which you will hear and see words, and decide whether the written word is a real English word</li>
        <li>A brief survey about your background</li>
      </ol>
      <p>Each part will be introduced before it begins.</p>
      <p>Please make sure you are in a quiet environment and can hear audio clearly for the final task.</p>
      <p style=""margin-top: 2em;"">Press any key to begin.</p>
    </div>
  "," ","html-keyboard-response","1","2.1.0","21589","J=YES, F=NO","o1e7ybrtop","0","65","80","50","","","","","","","","","","","","","","","",""
"","","","preload","2","2.1.0","22139","J=YES, F=NO","o1e7ybrtop","0","65","80","50","true","false","[]","[]","[]","","","","","","","","","","",""
"6633","
    <div style=""max-width: 800px; margin: auto; text-align: left;"">
      <h2>Part 1: Vocabulary Test</h2>
      <p>You will now complete the first part of the study: a short English vocabulary test.</p>
      <p>This test is called <strong>LexTALE</strong> and helps us get a general sense of your English proficiency.</p>
      <p style=""margin-top: 2em;"">Press any key to continue.</p>
    </div>
  "," ","html-keyboard-response","3","2.1.0","28774","J=YES, F=NO","o1e7ybrtop","0","65","80","50","","","","","","","","","","","","","","","",""
"24839","
    <div style=""max-width: 800px; margin: auto; text-align: left;"">
      <h2>LexTALE Vocabulary Test</h2>
      <p>In this test, you will see a series of letter strings—one at a time.</p>
      <p>Your task is to decide whether each string is a real English word.</p>
      <p><strong>Key responses:</strong></p>
      <ul>
        <li><strong>J</strong> = YES (real English word)</li>
        <li><strong>F</strong> = NO (not a real English word)</li>
      </ul>
      <p>There is no time limit, but please try to be accurate.</p>
      <p style=""margin-top: 2em;"">Press any key to begin.</p>
    </div>
  "," ","html-keyboard-response","4","2.1.0","53613","J=YES, F=NO","o1e7ybrtop","0","65","80","50","","","","","","","","","","","","","","","",""
"7720","
  <p style=""font-size: 40px;"">platery</p>
  <p style=""font-size: 16px;"">J = YES &nbsp;&nbsp;&nbsp; F = NO</p>
","j","html-keyboard-response","5","2.1.0","61333","J=YES, F=NO","o1e7ybrtop","0","65","80","50","","","","","","lextale","false","true","","","","","","","",""
"4438","
  <p style=""font-size: 40px;"">denial</p>
  <p style=""font-size: 16px;"">J = YES &nbsp;&nbsp;&nbsp; F = NO</p>
","j","html-keyboard-response","6","2.1.0","65772","J=YES, F=NO","o1e7ybrtop","0","65","80","50","","","","","","lextale","true","true","","","","","","","",""
"3767","
  <p style=""font-size: 40px;"">marrit</p>
  <p style=""font-size: 16px;"">J = YES &nbsp;&nbsp;&nbsp; F = NO</p>
","j","html-keyboard-response","7","2.1.0","69540","J=YES, F=NO","o1e7ybrtop","0","65","80","50","","","","","","lextale","false","true","","","","","","","",""
"1055","
  <p style=""font-size: 40px;"">bottle</p>
  <p style=""font-size: 16px;"">J = YES &nbsp;&nbsp;&nbsp; F = NO</p>
","j","html-keyboard-response","8","2.1.0","70597","J=YES, F=NO","o1e7ybrtop","0","65","80","50","","","","","","lextale","true","false","","","","","","","",""
"1639","
  <p style=""font-size: 40px;"">birst</p>
  <p style=""font-size: 16px;"">J = YES &nbsp;&nbsp;&nbsp; F = NO</p>
","j","html-keyboard-response","9","2.1.0","72237","J=YES, F=NO","o1e7ybrtop","0","65","80","50","","","","","","lextale","false","false","","","","","","","",""
"750","
  <p style=""font-size: 40px;"">envy</p>
  <p style=""font-size: 16px;"">J = YES &nbsp;&nbsp;&nbsp; F = NO</p>
","j","html-keyboard-response","10","2.1.0","72988","J=YES, F=NO","o1e7ybrtop","0","65","80","50","","","","","","lextale","true","false","","","","","","","",""
"3079","
  <p style=""font-size: 40px;"">brang</p>
  <p style=""font-size: 16px;"">J = YES &nbsp;&nbsp;&nbsp; F = NO</p>
","f","html-keyboard-response","11","2.1.0","76069","J=YES, F=NO","o1e7ybrtop","0","65","80","50","","","","","","lextale","false","false","","","","","","","",""
"751","
  <p style=""font-size: 40px;"">huge</p>
  <p style=""font-size: 16px;"">J = YES &nbsp;&nbsp;&nbsp; F = NO</p>
","j","html-keyboard-response","12","2.1.0","76821","J=YES, F=NO","o1e7ybrtop","0","65","80","50","","","","","","lextale","true","false","","","","","","","",""
"1471","
  <p style=""font-size: 40px;"">plove</p>
  <p style=""font-size: 16px;"">J = YES &nbsp;&nbsp;&nbsp; F = NO</p>
","j","html-keyboard-response","13","2.1.0","78293","J=YES, F=NO","o1e7ybrtop","0","65","80","50","","","","","","lextale","false","false","","","","","","","",""
"2208","
  <p style=""font-size: 40px;"">border</p>
  <p style=""font-size: 16px;"">J = YES &nbsp;&nbsp;&nbsp; F = NO</p>
","j","html-keyboard-response","14","2.1.0","80501","J=YES, F=NO","o1e7ybrtop","0","65","80","50","","","","","","lextale","true","false","","","","","","","",""
"1456","
  <p style=""font-size: 40px;"">flimsy</p>
  <p style=""font-size: 16px;"">J = YES &nbsp;&nbsp;&nbsp; F = NO</p>
","j","html-keyboard-response","15","2.1.0","81957","J=YES, F=NO","o1e7ybrtop","0","65","80","50","","","","","","lextale","true","false","","","","","","","",""
"863","
  <p style=""font-size: 40px;"">drain</p>
  <p style=""font-size: 16px;"">J = YES &nbsp;&nbsp;&nbsp; F = NO</p>
","j","html-keyboard-response","16","2.1.0","82820","J=YES, F=NO","o1e7ybrtop","0","65","80","50","","","","","","lextale","true","false","","","","","","","",""
"993","
  <p style=""font-size: 40px;"">twindle</p>
  <p style=""font-size: 16px;"">J = YES &nbsp;&nbsp;&nbsp; F = NO</p>
","j","html-keyboard-response","17","2.1.0","83813","J=YES, F=NO","o1e7ybrtop","0","65","80","50","","","","","","lextale","false","false","","","","","","","",""
"1335","
  <p style=""font-size: 40px;"">propose</p>
  <p style=""font-size: 16px;"">J = YES &nbsp;&nbsp;&nbsp; F = NO</p>
","j","html-keyboard-response","18","2.1.0","85149","J=YES, F=NO","o1e7ybrtop","0","65","80","50","","","","","","lextale","true","false","","","","","","","",""
"2871","
  <p style=""font-size: 40px;"">forlay</p>
  <p style=""font-size: 16px;"">J = YES &nbsp;&nbsp;&nbsp; F = NO</p>
","f","html-keyboard-response","19","2.1.0","88020","J=YES, F=NO","o1e7ybrtop","0","65","80","50","","","","","","lextale","false","false","","","","","","","",""
"2551","
  <p style=""font-size: 40px;"">tenant</p>
  <p style=""font-size: 16px;"">J = YES &nbsp;&nbsp;&nbsp; F = NO</p>
","j","html-keyboard-response","20","2.1.0","90572","J=YES, F=NO","o1e7ybrtop","0","65","80","50","","","","","","lextale","true","false","","","","","","","",""
"1375","
  <p style=""font-size: 40px;"">strain</p>
  <p style=""font-size: 16px;"">J = YES &nbsp;&nbsp;&nbsp; F = NO</p>
","j","html-keyboard-response","21","2.1.0","91949","J=YES, F=NO","o1e7ybrtop","0","65","80","50","","","","","","lextale","true","false","","","","","","","",""
"1287","
  <p style=""font-size: 40px;"">holster</p>
  <p style=""font-size: 16px;"">J = YES &nbsp;&nbsp;&nbsp; F = NO</p>
","j","html-keyboard-response","22","2.1.0","93236","J=YES, F=NO","o1e7ybrtop","0","65","80","50","","","","","","lextale","true","false","","","","","","","",""
"576","
  <p style=""font-size: 40px;"">hinder</p>
  <p style=""font-size: 16px;"">J = YES &nbsp;&nbsp;&nbsp; F = NO</p>
","j","html-keyboard-response","23","2.1.0","93812","J=YES, F=NO","o1e7ybrtop","0","65","80","50","","","","","","lextale","true","false","","","","","","","",""
"735","
  <p style=""font-size: 40px;"">swindle</p>
  <p style=""font-size: 16px;"">J = YES &nbsp;&nbsp;&nbsp; F = NO</p>
","j","html-keyboard-response","24","2.1.0","94548","J=YES, F=NO","o1e7ybrtop","0","65","80","50","","","","","","lextale","true","false","","","","","","","",""
"1247","
  <p style=""font-size: 40px;"">nuder</p>
  <p style=""font-size: 16px;"">J = YES &nbsp;&nbsp;&nbsp; F = NO</p>
","f","html-keyboard-response","25","2.1.0","95796","J=YES, F=NO","o1e7ybrtop","0","65","80","50","","","","","","lextale","false","false","","","","","","","",""
"632","
  <p style=""font-size: 40px;"">pillow</p>
  <p style=""font-size: 16px;"">J = YES &nbsp;&nbsp;&nbsp; F = NO</p>
","j","html-keyboard-response","26","2.1.0","96428","J=YES, F=NO","o1e7ybrtop","0","65","80","50","","","","","","lextale","true","false","","","","","","","",""
"3327","
  <p style=""font-size: 40px;"">shumble</p>
  <p style=""font-size: 16px;"">J = YES &nbsp;&nbsp;&nbsp; F = NO</p>
","j","html-keyboard-response","27","2.1.0","99756","J=YES, F=NO","o1e7ybrtop","0","65","80","50","","","","","","lextale","false","false","","","","","","","",""
"1511","
  <p style=""font-size: 40px;"">thirst</p>
  <p style=""font-size: 16px;"">J = YES &nbsp;&nbsp;&nbsp; F = NO</p>
","j","html-keyboard-response","28","2.1.0","101268","J=YES, F=NO","o1e7ybrtop","0","65","80","50","","","","","","lextale","true","false","","","","","","","",""
"6759","
  <p style=""font-size: 40px;"">unsail</p>
  <p style=""font-size: 16px;"">J = YES &nbsp;&nbsp;&nbsp; F = NO</p>
","f","html-keyboard-response","29","2.1.0","108029","J=YES, F=NO","o1e7ybrtop","0","65","80","50","","","","","","lextale","false","false","","","","","","","",""
"1503","
  <p style=""font-size: 40px;"">rifle</p>
  <p style=""font-size: 16px;"">J = YES &nbsp;&nbsp;&nbsp; F = NO</p>
","j","html-keyboard-response","30","2.1.0","109533","J=YES, F=NO","o1e7ybrtop","0","65","80","50","","","","","","lextale","true","false","","","","","","","",""
"1015","
  <p style=""font-size: 40px;"">mush</p>
  <p style=""font-size: 16px;"">J = YES &nbsp;&nbsp;&nbsp; F = NO</p>
","j","html-keyboard-response","31","2.1.0","110549","J=YES, F=NO","o1e7ybrtop","0","65","80","50","","","","","","lextale","false","false","","","","","","","",""
"665","
  <p style=""font-size: 40px;"">drench</p>
  <p style=""font-size: 16px;"">J = YES &nbsp;&nbsp;&nbsp; F = NO</p>
","j","html-keyboard-response","32","2.1.0","111212","J=YES, F=NO","o1e7ybrtop","0","65","80","50","","","","","","lextale","true","false","","","","","","","",""
"1415","
  <p style=""font-size: 40px;"">snirt</p>
  <p style=""font-size: 16px;"">J = YES &nbsp;&nbsp;&nbsp; F = NO</p>
","f","html-keyboard-response","33","2.1.0","112628","J=YES, F=NO","o1e7ybrtop","0","65","80","50","","","","","","lextale","false","false","","","","","","","",""
"3111","
  <p style=""font-size: 40px;"">bitter</p>
  <p style=""font-size: 16px;"">J = YES &nbsp;&nbsp;&nbsp; F = NO</p>
","j","html-keyboard-response","34","2.1.0","115741","J=YES, F=NO","o1e7ybrtop","0","65","80","50","","","","","","lextale","true","false","","","","","","","",""
"1775","
  <p style=""font-size: 40px;"">pliff</p>
  <p style=""font-size: 16px;"">J = YES &nbsp;&nbsp;&nbsp; F = NO</p>
","f","html-keyboard-response","35","2.1.0","117516","J=YES, F=NO","o1e7ybrtop","0","65","80","50","","","","","","lextale","false","false","","","","","","","",""
"831","
  <p style=""font-size: 40px;"">tablet</p>
  <p style=""font-size: 16px;"">J = YES &nbsp;&nbsp;&nbsp; F = NO</p>
","j","html-keyboard-response","36","2.1.0","118348","J=YES, F=NO","o1e7ybrtop","0","65","80","50","","","","","","lextale","true","false","","","","","","","",""
"2000","
  <p style=""font-size: 40px;"">glimmer</p>
  <p style=""font-size: 16px;"">J = YES &nbsp;&nbsp;&nbsp; F = NO</p>
","j","html-keyboard-response","37","2.1.0","120348","J=YES, F=NO","o1e7ybrtop","0","65","80","50","","","","","","lextale","true","false","","","","","","","",""
"719","
  <p style=""font-size: 40px;"">slink</p>
  <p style=""font-size: 16px;"">J = YES &nbsp;&nbsp;&nbsp; F = NO</p>
","j","html-keyboard-response","38","2.1.0","121068","J=YES, F=NO","o1e7ybrtop","0","65","80","50","","","","","","lextale","true","false","","","","","","","",""
"712","
  <p style=""font-size: 40px;"">clever</p>
  <p style=""font-size: 16px;"">J = YES &nbsp;&nbsp;&nbsp; F = NO</p>
","j","html-keyboard-response","39","2.1.0","121781","J=YES, F=NO","o1e7ybrtop","0","65","80","50","","","","","","lextale","true","false","","","","","","","",""
"1280","
  <p style=""font-size: 40px;"">grum</p>
  <p style=""font-size: 16px;"">J = YES &nbsp;&nbsp;&nbsp; F = NO</p>
","j","html-keyboard-response","40","2.1.0","123061","J=YES, F=NO","o1e7ybrtop","0","65","80","50","","","","","","lextale","false","false","","","","","","","",""
"591","
  <p style=""font-size: 40px;"">string</p>
  <p style=""font-size: 16px;"">J = YES &nbsp;&nbsp;&nbsp; F = NO</p>
","j","html-keyboard-response","41","2.1.0","123652","J=YES, F=NO","o1e7ybrtop","0","65","80","50","","","","","","lextale","true","false","","","","","","","",""
"1303","
  <p style=""font-size: 40px;"">plim</p>
  <p style=""font-size: 16px;"">J = YES &nbsp;&nbsp;&nbsp; F = NO</p>
","j","html-keyboard-response","42","2.1.0","124956","J=YES, F=NO","o1e7ybrtop","0","65","80","50","","","","","","lextale","false","false","","","","","","","",""
"704","
  <p style=""font-size: 40px;"">cable</p>
  <p style=""font-size: 16px;"">J = YES &nbsp;&nbsp;&nbsp; F = NO</p>
","j","html-keyboard-response","43","2.1.0","125660","J=YES, F=NO","o1e7ybrtop","0","65","80","50","","","","","","lextale","true","false","","","","","","","",""
"792","
  <p style=""font-size: 40px;"">shrivel</p>
  <p style=""font-size: 16px;"">J = YES &nbsp;&nbsp;&nbsp; F = NO</p>
","j","html-keyboard-response","44","2.1.0","126453","J=YES, F=NO","o1e7ybrtop","0","65","80","50","","","","","","lextale","true","false","","","","","","","",""
"895","
  <p style=""font-size: 40px;"">tarnish</p>
  <p style=""font-size: 16px;"">J = YES &nbsp;&nbsp;&nbsp; F = NO</p>
","j","html-keyboard-response","45","2.1.0","127348","J=YES, F=NO","o1e7ybrtop","0","65","80","50","","","","","","lextale","true","false","","","","","","","",""
"1463","
  <p style=""font-size: 40px;"">blim</p>
  <p style=""font-size: 16px;"">J = YES &nbsp;&nbsp;&nbsp; F = NO</p>
","f","html-keyboard-response","46","2.1.0","128813","J=YES, F=NO","o1e7ybrtop","0","65","80","50","","","","","","lextale","false","false","","","","","","","",""
"1455","
  <p style=""font-size: 40px;"">stifle</p>
  <p style=""font-size: 16px;"">J = YES &nbsp;&nbsp;&nbsp; F = NO</p>
","j","html-keyboard-response","47","2.1.0","130269","J=YES, F=NO","o1e7ybrtop","0","65","80","50","","","","","","lextale","true","false","","","","","","","",""
"1663","
  <p style=""font-size: 40px;"">bint</p>
  <p style=""font-size: 16px;"">J = YES &nbsp;&nbsp;&nbsp; F = NO</p>
","f","html-keyboard-response","48","2.1.0","131932","J=YES, F=NO","o1e7ybrtop","0","65","80","50","","","","","","lextale","false","false","","","","","","","",""
"695","
  <p style=""font-size: 40px;"">purple</p>
  <p style=""font-size: 16px;"">J = YES &nbsp;&nbsp;&nbsp; F = NO</p>
","j","html-keyboard-response","49","2.1.0","132628","J=YES, F=NO","o1e7ybrtop","0","65","80","50","","","","","","lextale","true","false","","","","","","","",""
"2463","
  <p style=""font-size: 40px;"">wriggle</p>
  <p style=""font-size: 16px;"">J = YES &nbsp;&nbsp;&nbsp; F = NO</p>
","f","html-keyboard-response","50","2.1.0","135092","J=YES, F=NO","o1e7ybrtop","0","65","80","50","","","","","","lextale","true","false","","","","","","","",""
"2703","
  <p style=""font-size: 40px;"">mangle</p>
  <p style=""font-size: 16px;"">J = YES &nbsp;&nbsp;&nbsp; F = NO</p>
","f","html-keyboard-response","51","2.1.0","137796","J=YES, F=NO","o1e7ybrtop","0","65","80","50","","","","","","lextale","true","false","","","","","","","",""
"1416","
  <p style=""font-size: 40px;"">shramp</p>
  <p style=""font-size: 16px;"">J = YES &nbsp;&nbsp;&nbsp; F = NO</p>
","f","html-keyboard-response","52","2.1.0","139211","J=YES, F=NO","o1e7ybrtop","0","65","80","50","","","","","","lextale","false","false","","","","","","","",""
"999","
  <p style=""font-size: 40px;"">flirt</p>
  <p style=""font-size: 16px;"">J = YES &nbsp;&nbsp;&nbsp; F = NO</p>
","j","html-keyboard-response","53","2.1.0","140212","J=YES, F=NO","o1e7ybrtop","0","65","80","50","","","","","","lextale","true","false","","","","","","","",""
"639","
  <p style=""font-size: 40px;"">frip</p>
  <p style=""font-size: 16px;"">J = YES &nbsp;&nbsp;&nbsp; F = NO</p>
","j","html-keyboard-response","54","2.1.0","140852","J=YES, F=NO","o1e7ybrtop","0","65","80","50","","","","","","lextale","false","false","","","","","","","",""
"1375","
  <p style=""font-size: 40px;"">tangle</p>
  <p style=""font-size: 16px;"">J = YES &nbsp;&nbsp;&nbsp; F = NO</p>
","j","html-keyboard-response","55","2.1.0","142228","J=YES, F=NO","o1e7ybrtop","0","65","80","50","","","","","","lextale","true","false","","","","","","","",""
"800","
  <p style=""font-size: 40px;"">crumble</p>
  <p style=""font-size: 16px;"">J = YES &nbsp;&nbsp;&nbsp; F = NO</p>
","j","html-keyboard-response","56","2.1.0","143029","J=YES, F=NO","o1e7ybrtop","0","65","80","50","","","","","","lextale","true","false","","","","","","","",""
"721","
  <p style=""font-size: 40px;"">wrinkle</p>
  <p style=""font-size: 16px;"">J = YES &nbsp;&nbsp;&nbsp; F = NO</p>
","j","html-keyboard-response","57","2.1.0","143749","J=YES, F=NO","o1e7ybrtop","0","65","80","50","","","","","","lextale","true","false","","","","","","","",""
"1078","
  <p style=""font-size: 40px;"">slumb</p>
  <p style=""font-size: 16px;"">J = YES &nbsp;&nbsp;&nbsp; F = NO</p>
","j","html-keyboard-response","58","2.1.0","144827","J=YES, F=NO","o1e7ybrtop","0","65","80","50","","","","","","lextale","false","false","","","","","","","",""
"600","
  <p style=""font-size: 40px;"">jungle</p>
  <p style=""font-size: 16px;"">J = YES &nbsp;&nbsp;&nbsp; F = NO</p>
","j","html-keyboard-response","59","2.1.0","145428","J=YES, F=NO","o1e7ybrtop","0","65","80","50","","","","","","lextale","true","false","","","","","","","",""
"1080","
  <p style=""font-size: 40px;"">frolick</p>
  <p style=""font-size: 16px;"">J = YES &nbsp;&nbsp;&nbsp; F = NO</p>
","f","html-keyboard-response","60","2.1.0","146508","J=YES, F=NO","o1e7ybrtop","0","65","80","50","","","","","","lextale","false","false","","","","","","","",""
"6168","
      <h2>LexTALE Test Completed</h2>
      <p>Your LexTALE vocabulary score is: <strong>65%</strong></p>
      <p>Press any key to continue.</p>
    "," ","html-keyboard-response","61","2.1.0","152676","J=YES, F=NO","o1e7ybrtop","0","65","80","50","","","","","","","","","","","","","","","",""
"14881","
    <div style=""max-width: 800px; margin: auto; text-align: left;"">
      <h2>Break Time</h2>
      <p>You have completed the first part of the study.</p>
      <p>You may take a short <strong>30-second break</strong> before continuing.</p>
      <p>When you’re ready, press any key to continue to the final task.</p>
    </div>
  "," ","html-keyboard-response","62","2.1.0","167556","J=YES, F=NO","o1e7ybrtop","0","65","80","50","","","","","","","","","","","","","","","",""
"32856","
    <div style=""max-width: 800px; margin: auto; text-align: left;"">
      <h2>Part 2: Lexical Decision Task</h2>
      <p>You will now begin the second part of the study.</p>
      <p>Each trial will follow this sequence:</p>
      <ul>
        <li>A fixation cross (+) appears at the center of the screen.</li>
        <li>You will hear a short beep followed by a spoken word.</li>
        <li>A written word will appear briefly on the screen.</li>
      </ul>
      <p>Your task is to judge whether the <strong>written word</strong> is a real English word.</p>
      <p style=""margin-top: 1em;""><strong>Key responses:</strong></p>
      <ul>
        <li><strong>J</strong> = YES (real English word)</li>
        <li><strong>F</strong> = NO (not a real English word)</li>
      </ul>
      <p>Please respond as quickly and accurately as you can.</p>
      <p style=""margin-top: 2em;"">Press any key to continue.</p>
    </div>
  "," ","html-keyboard-response","63","2.1.0","200413","J=YES, F=NO","o1e7ybrtop","0","65","80","50","","","","","","","","","","","","","","","",""
"1224","
    <div style=""max-width: 800px; margin: auto; text-align: left;"">
      <h2>Before You Begin</h2>
      <p>Make sure your sound is turned on.</p>
      <p>You will hear audio during each trial, but your decision should be based only on the <strong>written word</strong> you see on the screen.</p>
      <p><strong>Reminder:</strong></p>
      <ul>
        <li><strong>J</strong> = YES (real English word)</li>
        <li><strong>F</strong> = NO (not a real English word)</li>
      </ul>
      <p style=""margin-top: 2em;"">Press any key when you are ready to begin.</p>
    </div>
  "," ","html-keyboard-response","64","2.1.0","201637","J=YES, F=NO","o1e7ybrtop","0","65","80","50","","","","","","","","","","","","","","","",""
"4536","
    <div style=""max-width: 800px; margin: auto; text-align: left;"">
      <h2>Part 2: Practice Trials</h2>
      <p>You will now complete a few <strong>practice trials</strong> to get familiar with the task.</p>
      <p>These trials are <strong>not scored</strong> and are only to help you get used to the format.</p>
      <p style=""margin-top: 2em;"">Press any key to begin.</p>
    </div>
  "," ","html-keyboard-response","65","2.1.0","206172","J=YES, F=NO","o1e7ybrtop","0","65","80","50","","","","","","","","","","","","","","","",""
"2040","<p>Starting practice block 1 of 2. Press any key to continue.</p>"," ","html-keyboard-response","66","2.1.0","208212","J=YES, F=NO","o1e7ybrtop","0","65","80","50","","","","","","","","","","","","","","","",""
"null","<p style=""font-size: 50px;"">+</p>","null","html-keyboard-response","67","2.1.0","208526","J=YES, F=NO","o1e7ybrtop","0","65","80","50","","","","","","","","","","","","","","","",""
"null","audio/beep-329314.mp3","null","audio-keyboard-response","68","2.1.0","210029","J=YES, F=NO","o1e7ybrtop","0","65","80","50","","","","","","","","","","","","","","","",""
"null","audio/fence.wav","null","audio-keyboard-response","69","2.1.0","210632","J=YES, F=NO","o1e7ybrtop","0","65","80","50","","","","","","","","","","","","","","","",""
"1524","
          <p id=""word"" style=""font-size: 40px;"">trim</p>
          <p style=""font-size: 16px;"">J = YES &nbsp;&nbsp;&nbsp; F = NO</p>
        ","j","html-keyboard-response","70","2.1.0","212156","J=YES, F=NO","o1e7ybrtop","0","65","80","50","","","","","","","","","trim","fence","filler","filler","j","true","",""
"null","<p style=""font-size: 50px;"">+</p>","null","html-keyboard-response","71","2.1.0","212468","J=YES, F=NO","o1e7ybrtop","0","65","80","50","","","","","","","","","","","","","","","",""
"null","audio/beep-329314.mp3","null","audio-keyboard-response","72","2.1.0","213967","J=YES, F=NO","o1e7ybrtop","0","65","80","50","","","","","","","","","","","","","","","",""
"null","audio/brain.wav","null","audio-keyboard-response","73","2.1.0","214398","J=YES, F=NO","o1e7ybrtop","0","65","80","50","","","","","","","","","","","","","","","",""
"1135","
          <p id=""word"" style=""font-size: 40px;"">throw</p>
          <p style=""font-size: 16px;"">J = YES &nbsp;&nbsp;&nbsp; F = NO</p>
        ","j","html-keyboard-response","74","2.1.0","215533","J=YES, F=NO","o1e7ybrtop","0","65","80","50","","","","","","","","","throw","brain","filler","filler","j","true","",""
"null","<p style=""font-size: 50px;"">+</p>","null","html-keyboard-response","75","2.1.0","215847","J=YES, F=NO","o1e7ybrtop","0","65","80","50","","","","","","","","","","","","","","","",""
"null","audio/beep-329314.mp3","null","audio-keyboard-response","76","2.1.0","217337","J=YES, F=NO","o1e7ybrtop","0","65","80","50","","","","","","","","","","","","","","","",""
"null","audio/breath.wav","null","audio-keyboard-response","77","2.1.0","217847","J=YES, F=NO","o1e7ybrtop","0","65","80","50","","","","","","","","","","","","","","","",""
"1133","
          <p id=""word"" style=""font-size: 40px;"">pack</p>
          <p style=""font-size: 16px;"">J = YES &nbsp;&nbsp;&nbsp; F = NO</p>
        ","f","html-keyboard-response","78","2.1.0","218980","J=YES, F=NO","o1e7ybrtop","0","65","80","50","","","","","","","","","pack","breath","filler","filler","j","false","",""
"null","<p style=""font-size: 50px;"">+</p>","null","html-keyboard-response","79","2.1.0","219289","J=YES, F=NO","o1e7ybrtop","0","65","80","50","","","","","","","","","","","","","","","",""
"null","audio/beep-329314.mp3","null","audio-keyboard-response","80","2.1.0","220788","J=YES, F=NO","o1e7ybrtop","0","65","80","50","","","","","","","","","","","","","","","",""
"null","audio/cash1.wav","null","audio-keyboard-response","81","2.1.0","221292","J=YES, F=NO","o1e7ybrtop","0","65","80","50","","","","","","","","","","","","","","","",""
"681","
          <p id=""word"" style=""font-size: 40px;"">splear</p>
          <p style=""font-size: 16px;"">J = YES &nbsp;&nbsp;&nbsp; F = NO</p>
        ","j","html-keyboard-response","82","2.1.0","221973","J=YES, F=NO","o1e7ybrtop","0","65","80","50","","","","","","","","","splear","cash1","pseudoword","pseudoword","f","false","",""
"null","<p style=""font-size: 50px;"">+</p>","null","html-keyboard-response","83","2.1.0","222277","J=YES, F=NO","o1e7ybrtop","0","65","80","50","","","","","","","","","","","","","","","",""
"null","audio/beep-329314.mp3","null","audio-keyboard-response","84","2.1.0","223769","J=YES, F=NO","o1e7ybrtop","0","65","80","50","","","","","","","","","","","","","","","",""
"null","audio/baby.wav","null","audio-keyboard-response","85","2.1.0","224397","J=YES, F=NO","o1e7ybrtop","0","65","80","50","","","","","","","","","","","","","","","",""
"989","
          <p id=""word"" style=""font-size: 40px;"">lift</p>
          <p style=""font-size: 16px;"">J = YES &nbsp;&nbsp;&nbsp; F = NO</p>
        ","j","html-keyboard-response","86","2.1.0","225388","J=YES, F=NO","o1e7ybrtop","0","65","80","50","","","","","","","","","lift","baby","filler","filler","j","true","",""
"null","<p style=""font-size: 50px;"">+</p>","null","html-keyboard-response","87","2.1.0","225701","J=YES, F=NO","o1e7ybrtop","0","65","80","50","","","","","","","","","","","","","","","",""
"null","audio/beep-329314.mp3","null","audio-keyboard-response","88","2.1.0","227200","J=YES, F=NO","o1e7ybrtop","0","65","80","50","","","","","","","","","","","","","","","",""
"null","audio/uncle1.wav","null","audio-keyboard-response","89","2.1.0","227691","J=YES, F=NO","o1e7ybrtop","0","65","80","50","","","","","","","","","","","","","","","",""
"617","
          <p id=""word"" style=""font-size: 40px;"">dramble</p>
          <p style=""font-size: 16px;"">J = YES &nbsp;&nbsp;&nbsp; F = NO</p>
        ","j","html-keyboard-response","90","2.1.0","228309","J=YES, F=NO","o1e7ybrtop","0","65","80","50","","","","","","","","","dramble","uncle1","pseudoword","pseudoword","f","false","",""
"null","<p style=""font-size: 50px;"">+</p>","null","html-keyboard-response","91","2.1.0","228619","J=YES, F=NO","o1e7ybrtop","0","65","80","50","","","","","","","","","","","","","","","",""
"null","audio/beep-329314.mp3","null","audio-keyboard-response","92","2.1.0","230109","J=YES, F=NO","o1e7ybrtop","0","65","80","50","","","","","","","","","","","","","","","",""
"null","audio/birth1.wav","null","audio-keyboard-response","93","2.1.0","230656","J=YES, F=NO","o1e7ybrtop","0","65","80","50","","","","","","","","","","","","","","","",""
"796","
          <p id=""word"" style=""font-size: 40px;"">peel</p>
          <p style=""font-size: 16px;"">J = YES &nbsp;&nbsp;&nbsp; F = NO</p>
        ","j","html-keyboard-response","94","2.1.0","231452","J=YES, F=NO","o1e7ybrtop","0","65","80","50","","","","","","","","","peel","birth1","filler","filler","j","true","",""
"null","<p style=""font-size: 50px;"">+</p>","null","html-keyboard-response","95","2.1.0","231768","J=YES, F=NO","o1e7ybrtop","0","65","80","50","","","","","","","","","","","","","","","",""
"null","audio/beep-329314.mp3","null","audio-keyboard-response","96","2.1.0","233268","J=YES, F=NO","o1e7ybrtop","0","65","80","50","","","","","","","","","","","","","","","",""
"null","audio/van1.wav","null","audio-keyboard-response","97","2.1.0","233763","J=YES, F=NO","o1e7ybrtop","0","65","80","50","","","","","","","","","","","","","","","",""
"793","
          <p id=""word"" style=""font-size: 40px;"">push</p>
          <p style=""font-size: 16px;"">J = YES &nbsp;&nbsp;&nbsp; F = NO</p>
        ","j","html-keyboard-response","98","2.1.0","234556","J=YES, F=NO","o1e7ybrtop","0","65","80","50","","","","","","","","","push","van1","filler","filler","j","true","",""
"null","<p style=""font-size: 50px;"">+</p>","null","html-keyboard-response","99","2.1.0","234863","J=YES, F=NO","o1e7ybrtop","0","65","80","50","","","","","","","","","","","","","","","",""
"null","audio/beep-329314.mp3","null","audio-keyboard-response","100","2.1.0","236362","J=YES, F=NO","o1e7ybrtop","0","65","80","50","","","","","","","","","","","","","","","",""
"null","audio/bomb1.wav","null","audio-keyboard-response","101","2.1.0","236701","J=YES, F=NO","o1e7ybrtop","0","65","80","50","","","","","","","","","","","","","","","",""
"1038","
          <p id=""word"" style=""font-size: 40px;"">clean</p>
          <p style=""font-size: 16px;"">J = YES &nbsp;&nbsp;&nbsp; F = NO</p>
        ","j","html-keyboard-response","102","2.1.0","237740","J=YES, F=NO","o1e7ybrtop","0","65","80","50","","","","","","","","","clean","bomb1","filler","filler","j","true","",""
"null","<p style=""font-size: 50px;"">+</p>","null","html-keyboard-response","103","2.1.0","238045","J=YES, F=NO","o1e7ybrtop","0","65","80","50","","","","","","","","","","","","","","","",""
"null","audio/beep-329314.mp3","null","audio-keyboard-response","104","2.1.0","239534","J=YES, F=NO","o1e7ybrtop","0","65","80","50","","","","","","","","","","","","","","","",""
"null","audio/sand.wav","null","audio-keyboard-response","105","2.1.0","240193","J=YES, F=NO","o1e7ybrtop","0","65","80","50","","","","","","","","","","","","","","","",""
"642","
          <p id=""word"" style=""font-size: 40px;"">proted</p>
          <p style=""font-size: 16px;"">J = YES &nbsp;&nbsp;&nbsp; F = NO</p>
        ","j","html-keyboard-response","106","2.1.0","240836","J=YES, F=NO","o1e7ybrtop","0","65","80","50","","","","","","","","","proted","sand","pseudoword","pseudoword","f","false","",""
"null","<p style=""font-size: 50px;"">+</p>","null","html-keyboard-response","107","2.1.0","241141","J=YES, F=NO","o1e7ybrtop","0","65","80","50","","","","","","","","","","","","","","","",""
"null","audio/beep-329314.mp3","null","audio-keyboard-response","108","2.1.0","242640","J=YES, F=NO","o1e7ybrtop","0","65","80","50","","","","","","","","","","","","","","","",""
"null","audio/relief.wav","null","audio-keyboard-response","109","2.1.0","243298","J=YES, F=NO","o1e7ybrtop","0","65","80","50","","","","","","","","","","","","","","","",""
"442","
          <p id=""word"" style=""font-size: 40px;"">grigg</p>
          <p style=""font-size: 16px;"">J = YES &nbsp;&nbsp;&nbsp; F = NO</p>
        ","j","html-keyboard-response","110","2.1.0","243741","J=YES, F=NO","o1e7ybrtop","0","65","80","50","","","","","","","","","grigg","relief","pseudoword","pseudoword","f","false","",""
"null","<p style=""font-size: 50px;"">+</p>","null","html-keyboard-response","111","2.1.0","244051","J=YES, F=NO","o1e7ybrtop","0","65","80","50","","","","","","","","","","","","","","","",""
"null","audio/beep-329314.mp3","null","audio-keyboard-response","112","2.1.0","245539","J=YES, F=NO","o1e7ybrtop","0","65","80","50","","","","","","","","","","","","","","","",""
"null","audio/account1.wav","null","audio-keyboard-response","113","2.1.0","246169","J=YES, F=NO","o1e7ybrtop","0","65","80","50","","","","","","","","","","","","","","","",""
"1170","
          <p id=""word"" style=""font-size: 40px;"">paint</p>
          <p style=""font-size: 16px;"">J = YES &nbsp;&nbsp;&nbsp; F = NO</p>
        ","f","html-keyboard-response","114","2.1.0","247341","J=YES, F=NO","o1e7ybrtop","0","65","80","50","","","","","","","","","paint","account1","filler","filler","j","false","",""
"1032","<p>Starting practice block 2 of 2. Press any key to continue.</p>"," ","html-keyboard-response","115","2.1.0","248372","J=YES, F=NO","o1e7ybrtop","0","65","80","50","","","","","","","","","","","","","","","",""
"null","<p style=""font-size: 50px;"">+</p>","null","html-keyboard-response","116","2.1.0","248685","J=YES, F=NO","o1e7ybrtop","0","65","80","50","","","","","","","","","","","","","","","",""
"null","audio/beep-329314.mp3","null","audio-keyboard-response","117","2.1.0","250185","J=YES, F=NO","o1e7ybrtop","0","65","80","50","","","","","","","","","","","","","","","",""
"null","audio/foot1.wav","null","audio-keyboard-response","118","2.1.0","250751","J=YES, F=NO","o1e7ybrtop","0","65","80","50","","","","","","","","","","","","","","","",""
"709","
          <p id=""word"" style=""font-size: 40px;"">thrutt</p>
          <p style=""font-size: 16px;"">J = YES &nbsp;&nbsp;&nbsp; F = NO</p>
        ","j","html-keyboard-response","119","2.1.0","251461","J=YES, F=NO","o1e7ybrtop","0","65","80","50","","","","","","","","","thrutt","foot1","pseudoword","pseudoword","f","false","",""
"null","<p style=""font-size: 50px;"">+</p>","null","html-keyboard-response","120","2.1.0","251768","J=YES, F=NO","o1e7ybrtop","0","65","80","50","","","","","","","","","","","","","","","",""
"null","audio/beep-329314.mp3","null","audio-keyboard-response","121","2.1.0","253259","J=YES, F=NO","o1e7ybrtop","0","65","80","50","","","","","","","","","","","","","","","",""
"null","audio/novel.wav","null","audio-keyboard-response","122","2.1.0","253756","J=YES, F=NO","o1e7ybrtop","0","65","80","50","","","","","","","","","","","","","","","",""
"831","
          <p id=""word"" style=""font-size: 40px;"">type</p>
          <p style=""font-size: 16px;"">J = YES &nbsp;&nbsp;&nbsp; F = NO</p>
        ","j","html-keyboard-response","123","2.1.0","254588","J=YES, F=NO","o1e7ybrtop","0","65","80","50","","","","","","","","","type","novel","filler","filler","j","true","",""
"null","<p style=""font-size: 50px;"">+</p>","null","html-keyboard-response","124","2.1.0","254891","J=YES, F=NO","o1e7ybrtop","0","65","80","50","","","","","","","","","","","","","","","",""
"null","audio/beep-329314.mp3","null","audio-keyboard-response","125","2.1.0","256380","J=YES, F=NO","o1e7ybrtop","0","65","80","50","","","","","","","","","","","","","","","",""
"null","audio/window1.wav","null","audio-keyboard-response","126","2.1.0","256939","J=YES, F=NO","o1e7ybrtop","0","65","80","50","","","","","","","","","","","","","","","",""
"697","
          <p id=""word"" style=""font-size: 40px;"">toss</p>
          <p style=""font-size: 16px;"">J = YES &nbsp;&nbsp;&nbsp; F = NO</p>
        ","j","html-keyboard-response","127","2.1.0","257636","J=YES, F=NO","o1e7ybrtop","0","65","80","50","","","","","","","","","toss","window1","filler","filler","j","true","",""
"null","<p style=""font-size: 50px;"">+</p>","null","html-keyboard-response","128","2.1.0","257940","J=YES, F=NO","o1e7ybrtop","0","65","80","50","","","","","","","","","","","","","","","",""
"null","audio/beep-329314.mp3","null","audio-keyboard-response","129","2.1.0","259440","J=YES, F=NO","o1e7ybrtop","0","65","80","50","","","","","","","","","","","","","","","",""
"null","audio/topic.wav","null","audio-keyboard-response","130","2.1.0","260024","J=YES, F=NO","o1e7ybrtop","0","65","80","50","","","","","","","","","","","","","","","",""
"804","
          <p id=""word"" style=""font-size: 40px;"">infortuitist</p>
          <p style=""font-size: 16px;"">J = YES &nbsp;&nbsp;&nbsp; F = NO</p>
        ","f","html-keyboard-response","131","2.1.0","260828","J=YES, F=NO","o1e7ybrtop","0","65","80","50","","","","","","","","","infortuitist","topic","pseudoword","pseudoword","f","true","",""
"null","<p style=""font-size: 50px;"">+</p>","null","html-keyboard-response","132","2.1.0","261132","J=YES, F=NO","o1e7ybrtop","0","65","80","50","","","","","","","","","","","","","","","",""
"null","audio/beep-329314.mp3","null","audio-keyboard-response","133","2.1.0","262631","J=YES, F=NO","o1e7ybrtop","0","65","80","50","","","","","","","","","","","","","","","",""
"null","audio/foe1.wav","null","audio-keyboard-response","134","2.1.0","263147","J=YES, F=NO","o1e7ybrtop","0","65","80","50","","","","","","","","","","","","","","","",""
"561","
          <p id=""word"" style=""font-size: 40px;"">creth</p>
          <p style=""font-size: 16px;"">J = YES &nbsp;&nbsp;&nbsp; F = NO</p>
        ","j","html-keyboard-response","135","2.1.0","263708","J=YES, F=NO","o1e7ybrtop","0","65","80","50","","","","","","","","","creth","foe1","pseudoword","pseudoword","f","false","",""
"null","<p style=""font-size: 50px;"">+</p>","null","html-keyboard-response","136","2.1.0","264009","J=YES, F=NO","o1e7ybrtop","0","65","80","50","","","","","","","","","","","","","","","",""
"null","audio/beep-329314.mp3","null","audio-keyboard-response","137","2.1.0","265498","J=YES, F=NO","o1e7ybrtop","0","65","80","50","","","","","","","","","","","","","","","",""
"null","audio/budget1.wav","null","audio-keyboard-response","138","2.1.0","266110","J=YES, F=NO","o1e7ybrtop","0","65","80","50","","","","","","","","","","","","","","","",""
"742","
          <p id=""word"" style=""font-size: 40px;"">sulist</p>
          <p style=""font-size: 16px;"">J = YES &nbsp;&nbsp;&nbsp; F = NO</p>
        ","f","html-keyboard-response","139","2.1.0","266852","J=YES, F=NO","o1e7ybrtop","0","65","80","50","","","","","","","","","sulist","budget1","pseudoword","pseudoword","f","true","",""
"null","<p style=""font-size: 50px;"">+</p>","null","html-keyboard-response","140","2.1.0","267155","J=YES, F=NO","o1e7ybrtop","0","65","80","50","","","","","","","","","","","","","","","",""
"null","audio/beep-329314.mp3","null","audio-keyboard-response","141","2.1.0","268654","J=YES, F=NO","o1e7ybrtop","0","65","80","50","","","","","","","","","","","","","","","",""
"null","audio/empire.wav","null","audio-keyboard-response","142","2.1.0","269238","J=YES, F=NO","o1e7ybrtop","0","65","80","50","","","","","","","","","","","","","","","",""
"455","
          <p id=""word"" style=""font-size: 40px;"">slorby</p>
          <p style=""font-size: 16px;"">J = YES &nbsp;&nbsp;&nbsp; F = NO</p>
        ","j","html-keyboard-response","143","2.1.0","269693","J=YES, F=NO","o1e7ybrtop","0","65","80","50","","","","","","","","","slorby","empire","pseudoword","pseudoword","f","false","",""
"null","<p style=""font-size: 50px;"">+</p>","null","html-keyboard-response","144","2.1.0","270033","J=YES, F=NO","o1e7ybrtop","0","65","80","50","","","","","","","","","","","","","","","",""
"null","audio/beep-329314.mp3","null","audio-keyboard-response","145","2.1.0","271521","J=YES, F=NO","o1e7ybrtop","0","65","80","50","","","","","","","","","","","","","","","",""
"null","audio/weight1.wav","null","audio-keyboard-response","146","2.1.0","272055","J=YES, F=NO","o1e7ybrtop","0","65","80","50","","","","","","","","","","","","","","","",""
"565","
          <p id=""word"" style=""font-size: 40px;"">crimsh</p>
          <p style=""font-size: 16px;"">J = YES &nbsp;&nbsp;&nbsp; F = NO</p>
        ","j","html-keyboard-response","147","2.1.0","272620","J=YES, F=NO","o1e7ybrtop","0","65","80","50","","","","","","","","","crimsh","weight1","pseudoword","pseudoword","f","false","",""
"null","<p style=""font-size: 50px;"">+</p>","null","html-keyboard-response","148","2.1.0","272928","J=YES, F=NO","o1e7ybrtop","0","65","80","50","","","","","","","","","","","","","","","",""
"null","audio/beep-329314.mp3","null","audio-keyboard-response","149","2.1.0","274418","J=YES, F=NO","o1e7ybrtop","0","65","80","50","","","","","","","","","","","","","","","",""
"null","audio/menu.wav","null","audio-keyboard-response","150","2.1.0","274995","J=YES, F=NO","o1e7ybrtop","0","65","80","50","","","","","","","","","","","","","","","",""
"456","
          <p id=""word"" style=""font-size: 40px;"">slice</p>
          <p style=""font-size: 16px;"">J = YES &nbsp;&nbsp;&nbsp; F = NO</p>
        ","j","html-keyboard-response","151","2.1.0","275452","J=YES, F=NO","o1e7ybrtop","0","65","80","50","","","","","","","","","slice","menu","filler","filler","j","true","",""
"null","<p style=""font-size: 50px;"">+</p>","null","html-keyboard-response","152","2.1.0","275759","J=YES, F=NO","o1e7ybrtop","0","65","80","50","","","","","","","","","","","","","","","",""
"null","audio/beep-329314.mp3","null","audio-keyboard-response","153","2.1.0","277248","J=YES, F=NO","o1e7ybrtop","0","65","80","50","","","","","","","","","","","","","","","",""
"null","audio/camera1.wav","null","audio-keyboard-response","154","2.1.0","277742","J=YES, F=NO","o1e7ybrtop","0","65","80","50","","","","","","","","","","","","","","","",""
"686","
          <p id=""word"" style=""font-size: 40px;"">stir</p>
          <p style=""font-size: 16px;"">J = YES &nbsp;&nbsp;&nbsp; F = NO</p>
        ","j","html-keyboard-response","155","2.1.0","278429","J=YES, F=NO","o1e7ybrtop","0","65","80","50","","","","","","","","","stir","camera1","filler","filler","j","true","",""
"null","<p style=""font-size: 50px;"">+</p>","null","html-keyboard-response","156","2.1.0","278732","J=YES, F=NO","o1e7ybrtop","0","65","80","50","","","","","","","","","","","","","","","",""
"null","audio/beep-329314.mp3","null","audio-keyboard-response","157","2.1.0","280222","J=YES, F=NO","o1e7ybrtop","0","65","80","50","","","","","","","","","","","","","","","",""
"null","audio/scar.wav","null","audio-keyboard-response","158","2.1.0","280771","J=YES, F=NO","o1e7ybrtop","0","65","80","50","","","","","","","","","","","","","","","",""
"520","
          <p id=""word"" style=""font-size: 40px;"">adelineate</p>
          <p style=""font-size: 16px;"">J = YES &nbsp;&nbsp;&nbsp; F = NO</p>
        ","j","html-keyboard-response","159","2.1.0","281292","J=YES, F=NO","o1e7ybrtop","0","65","80","50","","","","","","","","","adelineate","scar","pseudoword","pseudoword","f","false","",""
"null","<p style=""font-size: 50px;"">+</p>","null","html-keyboard-response","160","2.1.0","281594","J=YES, F=NO","o1e7ybrtop","0","65","80","50","","","","","","","","","","","","","","","",""
"null","audio/beep-329314.mp3","null","audio-keyboard-response","161","2.1.0","283082","J=YES, F=NO","o1e7ybrtop","0","65","80","50","","","","","","","","","","","","","","","",""
"null","audio/tomato.wav","null","audio-keyboard-response","162","2.1.0","283756","J=YES, F=NO","o1e7ybrtop","0","65","80","50","","","","","","","","","","","","","","","",""
"792","
          <p id=""word"" style=""font-size: 40px;"">gladies</p>
          <p style=""font-size: 16px;"">J = YES &nbsp;&nbsp;&nbsp; F = NO</p>
        ","j","html-keyboard-response","163","2.1.0","284548","J=YES, F=NO","o1e7ybrtop","0","65","80","50","","","","","","","","","gladies","tomato","pseudoword","pseudoword","f","false","",""
"3831","
    <div style=""max-width: 800px; margin: auto; text-align: left;"">
      <h2>Part 2: Main Trials</h2>
      <p>Great job on the practice trials!</p>
      <p>You will now begin the <strong>main set of trials</strong>.</p>
      <p>Remember your key assignments:</p>
      <ul>
        <li><strong>J</strong> = YES (real English word)</li>
        <li><strong>F</strong> = NO (not a real English word)</li>
      </ul>
      <p>Try to respond as <strong>quickly and accurately</strong> as possible.</p>
      <p style=""margin-top: 2em;"">Press any key to begin the main trials.</p>
    </div>
  "," ","html-keyboard-response","164","2.1.0","288380","J=YES, F=NO","o1e7ybrtop","0","65","80","50","","","","","","","","","","","","","","","",""
"1352","<p>Starting main block 1 of 8. Press any key to continue.</p>"," ","html-keyboard-response","165","2.1.0","289732","J=YES, F=NO","o1e7ybrtop","0","65","80","50","","","","","","","","","","","","","","","",""
"null","<p style=""font-size: 50px;"">+</p>","null","html-keyboard-response","166","2.1.0","290046","J=YES, F=NO","o1e7ybrtop","0","65","80","50","","","","","","","","","","","","","","","",""
"null","audio/beep-329314.mp3","null","audio-keyboard-response","167","2.1.0","291536","J=YES, F=NO","o1e7ybrtop","0","65","80","50","","","","","","","","","","","","","","","",""
"null","audio/goal.wav","null","audio-keyboard-response","168","2.1.0","291895","J=YES, F=NO","o1e7ybrtop","0","65","80","50","","","","","","","","","","","","","","","",""
"758","
          <p id=""word"" style=""font-size: 40px;"">support</p>
          <p style=""font-size: 16px;"">J = YES &nbsp;&nbsp;&nbsp; F = NO</p>
        ","j","html-keyboard-response","169","2.1.0","292653","J=YES, F=NO","o1e7ybrtop","0","65","80","50","","","","","","","","","support","goal","metaphor","experimental","j","true","",""
"null","<p style=""font-size: 50px;"">+</p>","null","html-keyboard-response","170","2.1.0","292957","J=YES, F=NO","o1e7ybrtop","0","65","80","50","","","","","","","","","","","","","","","",""
"null","audio/beep-329314.mp3","null","audio-keyboard-response","171","2.1.0","294446","J=YES, F=NO","o1e7ybrtop","0","65","80","50","","","","","","","","","","","","","","","",""
"null","audio/weapon.wav","null","audio-keyboard-response","172","2.1.0","294958","J=YES, F=NO","o1e7ybrtop","0","65","80","50","","","","","","","","","","","","","","","",""
"494","
          <p id=""word"" style=""font-size: 40px;"">carry</p>
          <p style=""font-size: 16px;"">J = YES &nbsp;&nbsp;&nbsp; F = NO</p>
        ","j","html-keyboard-response","173","2.1.0","295452","J=YES, F=NO","o1e7ybrtop","0","65","80","50","","","","","","","","","carry","weapon","literal","experimental","j","true","",""
"null","<p style=""font-size: 50px;"">+</p>","null","html-keyboard-response","174","2.1.0","295766","J=YES, F=NO","o1e7ybrtop","0","65","80","50","","","","","","","","","","","","","","","",""
"null","audio/beep-329314.mp3","null","audio-keyboard-response","175","2.1.0","297256","J=YES, F=NO","o1e7ybrtop","0","65","80","50","","","","","","","","","","","","","","","",""
"null","audio/handle.wav","null","audio-keyboard-response","176","2.1.0","297826","J=YES, F=NO","o1e7ybrtop","0","65","80","50","","","","","","","","","","","","","","","",""
"427","
          <p id=""word"" style=""font-size: 40px;"">moutes</p>
          <p style=""font-size: 16px;"">J = YES &nbsp;&nbsp;&nbsp; F = NO</p>
        ","j","html-keyboard-response","177","2.1.0","298252","J=YES, F=NO","o1e7ybrtop","0","65","80","50","","","","","","","","","moutes","handle","pseudoword","pseudoword","f","false","",""
"null","<p style=""font-size: 50px;"">+</p>","null","html-keyboard-response","178","2.1.0","298561","J=YES, F=NO","o1e7ybrtop","0","65","80","50","","","","","","","","","","","","","","","",""
"null","audio/beep-329314.mp3","null","audio-keyboard-response","179","2.1.0","300051","J=YES, F=NO","o1e7ybrtop","0","65","80","50","","","","","","","","","","","","","","","",""
"null","audio/golf1.wav","null","audio-keyboard-response","180","2.1.0","300561","J=YES, F=NO","o1e7ybrtop","0","65","80","50","","","","","","","","","","","","","","","",""
"915","
          <p id=""word"" style=""font-size: 40px;"">drabble</p>
          <p style=""font-size: 16px;"">J = YES &nbsp;&nbsp;&nbsp; F = NO</p>
        ","j","html-keyboard-response","181","2.1.0","301476","J=YES, F=NO","o1e7ybrtop","0","65","80","50","","","","","","","","","drabble","golf1","pseudoword","pseudoword","f","false","",""
"null","<p style=""font-size: 50px;"">+</p>","null","html-keyboard-response","182","2.1.0","301788","J=YES, F=NO","o1e7ybrtop","0","65","80","50","","","","","","","","","","","","","","","",""
"null","audio/beep-329314.mp3","null","audio-keyboard-response","183","2.1.0","303288","J=YES, F=NO","o1e7ybrtop","0","65","80","50","","","","","","","","","","","","","","","",""
"null","audio/test1.wav","null","audio-keyboard-response","184","2.1.0","303801","J=YES, F=NO","o1e7ybrtop","0","65","80","50","","","","","","","","","","","","","","","",""
"490","
          <p id=""word"" style=""font-size: 40px;"">twopch</p>
          <p style=""font-size: 16px;"">J = YES &nbsp;&nbsp;&nbsp; F = NO</p>
        ","j","html-keyboard-response","185","2.1.0","304292","J=YES, F=NO","o1e7ybrtop","0","65","80","50","","","","","","","","","twopch","test1","pseudoword","pseudoword","f","false","",""
"null","<p style=""font-size: 50px;"">+</p>","null","html-keyboard-response","186","2.1.0","304593","J=YES, F=NO","o1e7ybrtop","0","65","80","50","","","","","","","","","","","","","","","",""
"null","audio/beep-329314.mp3","null","audio-keyboard-response","187","2.1.0","306084","J=YES, F=NO","o1e7ybrtop","0","65","80","50","","","","","","","","","","","","","","","",""
"null","audio/hotel1.wav","null","audio-keyboard-response","188","2.1.0","306653","J=YES, F=NO","o1e7ybrtop","0","65","80","50","","","","","","","","","","","","","","","",""
"863","
          <p id=""word"" style=""font-size: 40px;"">flanter</p>
          <p style=""font-size: 16px;"">J = YES &nbsp;&nbsp;&nbsp; F = NO</p>
        ","f","html-keyboard-response","189","2.1.0","307517","J=YES, F=NO","o1e7ybrtop","0","65","80","50","","","","","","","","","flanter","hotel1","pseudoword","pseudoword","f","true","",""
"null","<p style=""font-size: 50px;"">+</p>","null","html-keyboard-response","190","2.1.0","307837","J=YES, F=NO","o1e7ybrtop","0","65","80","50","","","","","","","","","","","","","","","",""
"null","audio/beep-329314.mp3","null","audio-keyboard-response","191","2.1.0","309327","J=YES, F=NO","o1e7ybrtop","0","65","80","50","","","","","","","","","","","","","","","",""
"null","audio/haste1.wav","null","audio-keyboard-response","192","2.1.0","309837","J=YES, F=NO","o1e7ybrtop","0","65","80","50","","","","","","","","","","","","","","","",""
"598","
          <p id=""word"" style=""font-size: 40px;"">coraconate</p>
          <p style=""font-size: 16px;"">J = YES &nbsp;&nbsp;&nbsp; F = NO</p>
        ","j","html-keyboard-response","193","2.1.0","310437","J=YES, F=NO","o1e7ybrtop","0","65","80","50","","","","","","","","","coraconate","haste1","pseudoword","pseudoword","f","false","",""
"null","<p style=""font-size: 50px;"">+</p>","null","html-keyboard-response","194","2.1.0","310746","J=YES, F=NO","o1e7ybrtop","0","65","80","50","","","","","","","","","","","","","","","",""
"null","audio/beep-329314.mp3","null","audio-keyboard-response","195","2.1.0","312234","J=YES, F=NO","o1e7ybrtop","0","65","80","50","","","","","","","","","","","","","","","",""
"null","audio/heart1.wav","null","audio-keyboard-response","196","2.1.0","312795","J=YES, F=NO","o1e7ybrtop","0","65","80","50","","","","","","","","","","","","","","","",""
"792","
          <p id=""word"" style=""font-size: 40px;"">dralm</p>
          <p style=""font-size: 16px;"">J = YES &nbsp;&nbsp;&nbsp; F = NO</p>
        ","j","html-keyboard-response","197","2.1.0","313588","J=YES, F=NO","o1e7ybrtop","0","65","80","50","","","","","","","","","dralm","heart1","pseudoword","pseudoword","f","false","",""
"null","<p style=""font-size: 50px;"">+</p>","null","html-keyboard-response","198","2.1.0","313892","J=YES, F=NO","o1e7ybrtop","0","65","80","50","","","","","","","","","","","","","","","",""
"null","audio/beep-329314.mp3","null","audio-keyboard-response","199","2.1.0","315392","J=YES, F=NO","o1e7ybrtop","0","65","80","50","","","","","","","","","","","","","","","",""
"null","audio/tunnel.wav","null","audio-keyboard-response","200","2.1.0","315772","J=YES, F=NO","o1e7ybrtop","0","65","80","50","","","","","","","","","","","","","","","",""
"920","
          <p id=""word"" style=""font-size: 40px;"">gred</p>
          <p style=""font-size: 16px;"">J = YES &nbsp;&nbsp;&nbsp; F = NO</p>
        ","f","html-keyboard-response","201","2.1.0","316692","J=YES, F=NO","o1e7ybrtop","0","65","80","50","","","","","","","","","gred","tunnel","pseudoword","pseudoword","f","true","",""
"null","<p style=""font-size: 50px;"">+</p>","null","html-keyboard-response","202","2.1.0","316996","J=YES, F=NO","o1e7ybrtop","0","65","80","50","","","","","","","","","","","","","","","",""
"null","audio/beep-329314.mp3","null","audio-keyboard-response","203","2.1.0","318496","J=YES, F=NO","o1e7ybrtop","0","65","80","50","","","","","","","","","","","","","","","",""
"null","audio/voice.wav","null","audio-keyboard-response","204","2.1.0","319045","J=YES, F=NO","o1e7ybrtop","0","65","80","50","","","","","","","","","","","","","","","",""
"446","
          <p id=""word"" style=""font-size: 40px;"">grintle</p>
          <p style=""font-size: 16px;"">J = YES &nbsp;&nbsp;&nbsp; F = NO</p>
        ","j","html-keyboard-response","205","2.1.0","319493","J=YES, F=NO","o1e7ybrtop","0","65","80","50","","","","","","","","","grintle","voice","pseudoword","pseudoword","f","false","",""
"null","<p style=""font-size: 50px;"">+</p>","null","html-keyboard-response","206","2.1.0","319796","J=YES, F=NO","o1e7ybrtop","0","65","80","50","","","","","","","","","","","","","","","",""
"null","audio/beep-329314.mp3","null","audio-keyboard-response","207","2.1.0","321285","J=YES, F=NO","o1e7ybrtop","0","65","80","50","","","","","","","","","","","","","","","",""
"null","audio/mood1.wav","null","audio-keyboard-response","208","2.1.0","321705","J=YES, F=NO","o1e7ybrtop","0","65","80","50","","","","","","","","","","","","","","","",""
"1210","
          <p id=""word"" style=""font-size: 40px;"">give</p>
          <p style=""font-size: 16px;"">J = YES &nbsp;&nbsp;&nbsp; F = NO</p>
        ","f","html-keyboard-response","209","2.1.0","322916","J=YES, F=NO","o1e7ybrtop","0","65","80","50","","","","","","","","","give","mood1","unrelated","experimental","j","false","",""
"null","<p style=""font-size: 50px;"">+</p>","null","html-keyboard-response","210","2.1.0","323224","J=YES, F=NO","o1e7ybrtop","0","65","80","50","","","","","","","","","","","","","","","",""
"null","audio/beep-329314.mp3","null","audio-keyboard-response","211","2.1.0","324724","J=YES, F=NO","o1e7ybrtop","0","65","80","50","","","","","","","","","","","","","","","",""
"null","audio/prisoner.wav","null","audio-keyboard-response","212","2.1.0","325183","J=YES, F=NO","o1e7ybrtop","0","65","80","50","","","","","","","","","","","","","","","",""
"493","
          <p id=""word"" style=""font-size: 40px;"">egotian</p>
          <p style=""font-size: 16px;"">J = YES &nbsp;&nbsp;&nbsp; F = NO</p>
        ","j","html-keyboard-response","213","2.1.0","325676","J=YES, F=NO","o1e7ybrtop","0","65","80","50","","","","","","","","","egotian","prisoner","pseudoword","pseudoword","f","false","",""
"null","<p style=""font-size: 50px;"">+</p>","null","html-keyboard-response","214","2.1.0","325987","J=YES, F=NO","o1e7ybrtop","0","65","80","50","","","","","","","","","","","","","","","",""
"null","audio/beep-329314.mp3","null","audio-keyboard-response","215","2.1.0","327476","J=YES, F=NO","o1e7ybrtop","0","65","80","50","","","","","","","","","","","","","","","",""
"null","audio/cloud1.wav","null","audio-keyboard-response","216","2.1.0","327968","J=YES, F=NO","o1e7ybrtop","0","65","80","50","","","","","","","","","","","","","","","",""
"491","
          <p id=""word"" style=""font-size: 40px;"">brotant</p>
          <p style=""font-size: 16px;"">J = YES &nbsp;&nbsp;&nbsp; F = NO</p>
        ","j","html-keyboard-response","217","2.1.0","328460","J=YES, F=NO","o1e7ybrtop","0","65","80","50","","","","","","","","","brotant","cloud1","pseudoword","pseudoword","f","false","",""
"null","<p style=""font-size: 50px;"">+</p>","null","html-keyboard-response","218","2.1.0","328776","J=YES, F=NO","o1e7ybrtop","0","65","80","50","","","","","","","","","","","","","","","",""
"null","audio/beep-329314.mp3","null","audio-keyboard-response","219","2.1.0","330265","J=YES, F=NO","o1e7ybrtop","0","65","80","50","","","","","","","","","","","","","","","",""
"null","audio/seat.wav","null","audio-keyboard-response","220","2.1.0","330857","J=YES, F=NO","o1e7ybrtop","0","65","80","50","","","","","","","","","","","","","","","",""
"675","
          <p id=""word"" style=""font-size: 40px;"">digest</p>
          <p style=""font-size: 16px;"">J = YES &nbsp;&nbsp;&nbsp; F = NO</p>
        ","j","html-keyboard-response","221","2.1.0","331533","J=YES, F=NO","o1e7ybrtop","0","65","80","50","","","","","","","","","digest","seat","unrelated","experimental","j","true","",""
"null","<p style=""font-size: 50px;"">+</p>","null","html-keyboard-response","222","2.1.0","331847","J=YES, F=NO","o1e7ybrtop","0","65","80","50","","","","","","","","","","","","","","","",""
"null","audio/beep-329314.mp3","null","audio-keyboard-response","223","2.1.0","333346","J=YES, F=NO","o1e7ybrtop","0","65","80","50","","","","","","","","","","","","","","","",""
"null","audio/pride1.wav","null","audio-keyboard-response","224","2.1.0","333847","J=YES, F=NO","o1e7ybrtop","0","65","80","50","","","","","","","","","","","","","","","",""
"980","
          <p id=""word"" style=""font-size: 40px;"">hurt</p>
          <p style=""font-size: 16px;"">J = YES &nbsp;&nbsp;&nbsp; F = NO</p>
        ","f","html-keyboard-response","225","2.1.0","334828","J=YES, F=NO","o1e7ybrtop","0","65","80","50","","","","","","","","","hurt","pride1","metaphor","experimental","j","false","",""
"null","<p style=""font-size: 50px;"">+</p>","null","html-keyboard-response","226","2.1.0","335141","J=YES, F=NO","o1e7ybrtop","0","65","80","50","","","","","","","","","","","","","","","",""
"null","audio/beep-329314.mp3","null","audio-keyboard-response","227","2.1.0","336640","J=YES, F=NO","o1e7ybrtop","0","65","80","50","","","","","","","","","","","","","","","",""
"null","audio/demon1.wav","null","audio-keyboard-response","228","2.1.0","337081","J=YES, F=NO","o1e7ybrtop","0","65","80","50","","","","","","","","","","","","","","","",""
"1210","
          <p id=""word"" style=""font-size: 40px;"">wrestle</p>
          <p style=""font-size: 16px;"">J = YES &nbsp;&nbsp;&nbsp; F = NO</p>
        ","f","html-keyboard-response","229","2.1.0","338292","J=YES, F=NO","o1e7ybrtop","0","65","80","50","","","","","","","","","wrestle","demon1","metaphor","experimental","j","false","",""
"1961","<p>Excellent! You have finished block 1 of 8.</p>
                     <p>Feel free to take a 30 second break.</p>
                     <p>Press any key when you're ready to continue.</p>"," ","html-keyboard-response","230","2.1.0","340252","J=YES, F=NO","o1e7ybrtop","0","65","80","50","","","","","","","","","","","","","","","",""
"688","<p>Starting main block 2 of 8. Press any key to continue.</p>"," ","html-keyboard-response","231","2.1.0","340940","J=YES, F=NO","o1e7ybrtop","0","65","80","50","","","","","","","","","","","","","","","",""
"null","<p style=""font-size: 50px;"">+</p>","null","html-keyboard-response","232","2.1.0","341253","J=YES, F=NO","o1e7ybrtop","0","65","80","50","","","","","","","","","","","","","","","",""
"null","audio/beep-329314.mp3","null","audio-keyboard-response","233","2.1.0","342743","J=YES, F=NO","o1e7ybrtop","0","65","80","50","","","","","","","","","","","","","","","",""
"null","audio/bishop1.wav","null","audio-keyboard-response","234","2.1.0","343282","J=YES, F=NO","o1e7ybrtop","0","65","80","50","","","","","","","","","","","","","","","",""
"634","
          <p id=""word"" style=""font-size: 40px;"">devour</p>
          <p style=""font-size: 16px;"">J = YES &nbsp;&nbsp;&nbsp; F = NO</p>
        ","j","html-keyboard-response","235","2.1.0","343917","J=YES, F=NO","o1e7ybrtop","0","65","80","50","","","","","","","","","devour","bishop1","unrelated","experimental","j","true","",""
"null","<p style=""font-size: 50px;"">+</p>","null","html-keyboard-response","236","2.1.0","344230","J=YES, F=NO","o1e7ybrtop","0","65","80","50","","","","","","","","","","","","","","","",""
"null","audio/beep-329314.mp3","null","audio-keyboard-response","237","2.1.0","345719","J=YES, F=NO","o1e7ybrtop","0","65","80","50","","","","","","","","","","","","","","","",""
"null","audio/wealth1.wav","null","audio-keyboard-response","238","2.1.0","346229","J=YES, F=NO","o1e7ybrtop","0","65","80","50","","","","","","","","","","","","","","","",""
"286","
          <p id=""word"" style=""font-size: 40px;"">possess</p>
          <p style=""font-size: 16px;"">J = YES &nbsp;&nbsp;&nbsp; F = NO</p>
        ","j","html-keyboard-response","239","2.1.0","346516","J=YES, F=NO","o1e7ybrtop","0","65","80","50","","","","","","","","","possess","wealth1","literal","experimental","j","true","",""
"null","<p style=""font-size: 50px;"">+</p>","null","html-keyboard-response","240","2.1.0","346831","J=YES, F=NO","o1e7ybrtop","0","65","80","50","","","","","","","","","","","","","","","",""
"null","audio/beep-329314.mp3","null","audio-keyboard-response","241","2.1.0","348319","J=YES, F=NO","o1e7ybrtop","0","65","80","50","","","","","","","","","","","","","","","",""
"null","audio/neck.wav","null","audio-keyboard-response","242","2.1.0","348809","J=YES, F=NO","o1e7ybrtop","0","65","80","50","","","","","","","","","","","","","","","",""
"1124","
          <p id=""word"" style=""font-size: 40px;"">werling</p>
          <p style=""font-size: 16px;"">J = YES &nbsp;&nbsp;&nbsp; F = NO</p>
        ","j","html-keyboard-response","243","2.1.0","349933","J=YES, F=NO","o1e7ybrtop","0","65","80","50","","","","","","","","","werling","neck","pseudoword","pseudoword","f","false","",""
"null","<p style=""font-size: 50px;"">+</p>","null","html-keyboard-response","244","2.1.0","350238","J=YES, F=NO","o1e7ybrtop","0","65","80","50","","","","","","","","","","","","","","","",""
"null","audio/beep-329314.mp3","null","audio-keyboard-response","245","2.1.0","351728","J=YES, F=NO","o1e7ybrtop","0","65","80","50","","","","","","","","","","","","","","","",""
"null","audio/survey1.wav","null","audio-keyboard-response","246","2.1.0","352407","J=YES, F=NO","o1e7ybrtop","0","65","80","50","","","","","","","","","","","","","","","",""
"724","
          <p id=""word"" style=""font-size: 40px;"">imploth</p>
          <p style=""font-size: 16px;"">J = YES &nbsp;&nbsp;&nbsp; F = NO</p>
        ","j","html-keyboard-response","247","2.1.0","353132","J=YES, F=NO","o1e7ybrtop","0","65","80","50","","","","","","","","","imploth","survey1","pseudoword","pseudoword","f","false","",""
"null","<p style=""font-size: 50px;"">+</p>","null","html-keyboard-response","248","2.1.0","353446","J=YES, F=NO","o1e7ybrtop","0","65","80","50","","","","","","","","","","","","","","","",""
"null","audio/beep-329314.mp3","null","audio-keyboard-response","249","2.1.0","354936","J=YES, F=NO","o1e7ybrtop","0","65","80","50","","","","","","","","","","","","","","","",""
"null","audio/cinema1.wav","null","audio-keyboard-response","250","2.1.0","355495","J=YES, F=NO","o1e7ybrtop","0","65","80","50","","","","","","","","","","","","","","","",""
"397","
          <p id=""word"" style=""font-size: 40px;"">murple</p>
          <p style=""font-size: 16px;"">J = YES &nbsp;&nbsp;&nbsp; F = NO</p>
        ","j","html-keyboard-response","251","2.1.0","355892","J=YES, F=NO","o1e7ybrtop","0","65","80","50","","","","","","","","","murple","cinema1","pseudoword","pseudoword","f","false","",""
"null","<p style=""font-size: 50px;"">+</p>","null","html-keyboard-response","252","2.1.0","356198","J=YES, F=NO","o1e7ybrtop","0","65","80","50","","","","","","","","","","","","","","","",""
"null","audio/beep-329314.mp3","null","audio-keyboard-response","253","2.1.0","357686","J=YES, F=NO","o1e7ybrtop","0","65","80","50","","","","","","","","","","","","","","","",""
"null","audio/purpose.wav","null","audio-keyboard-response","254","2.1.0","358305","J=YES, F=NO","o1e7ybrtop","0","65","80","50","","","","","","","","","","","","","","","",""
"506","
          <p id=""word"" style=""font-size: 40px;"">defeat</p>
          <p style=""font-size: 16px;"">J = YES &nbsp;&nbsp;&nbsp; F = NO</p>
        ","j","html-keyboard-response","255","2.1.0","358812","J=YES, F=NO","o1e7ybrtop","0","65","80","50","","","","","","","","","defeat","purpose","metaphor","experimental","j","true","",""
"null","<p style=""font-size: 50px;"">+</p>","null","html-keyboard-response","256","2.1.0","359126","J=YES, F=NO","o1e7ybrtop","0","65","80","50","","","","","","","","","","","","","","","",""
"null","audio/beep-329314.mp3","null","audio-keyboard-response","257","2.1.0","360615","J=YES, F=NO","o1e7ybrtop","0","65","80","50","","","","","","","","","","","","","","","",""
"null","audio/brain.wav","null","audio-keyboard-response","258","2.1.0","361044","J=YES, F=NO","o1e7ybrtop","0","65","80","50","","","","","","","","","","","","","","","",""
"456","
          <p id=""word"" style=""font-size: 40px;"">flood</p>
          <p style=""font-size: 16px;"">J = YES &nbsp;&nbsp;&nbsp; F = NO</p>
        ","j","html-keyboard-response","259","2.1.0","361500","J=YES, F=NO","o1e7ybrtop","0","65","80","50","","","","","","","","","flood","brain","metaphor","experimental","j","true","",""
"null","<p style=""font-size: 50px;"">+</p>","null","html-keyboard-response","260","2.1.0","361803","J=YES, F=NO","o1e7ybrtop","0","65","80","50","","","","","","","","","","","","","","","",""
"null","audio/beep-329314.mp3","null","audio-keyboard-response","261","2.1.0","363293","J=YES, F=NO","o1e7ybrtop","0","65","80","50","","","","","","","","","","","","","","","",""
"null","audio/gift1.wav","null","audio-keyboard-response","262","2.1.0","363704","J=YES, F=NO","o1e7ybrtop","0","65","80","50","","","","","","","","","","","","","","","",""
"795","
          <p id=""word"" style=""font-size: 40px;"">protsh</p>
          <p style=""font-size: 16px;"">J = YES &nbsp;&nbsp;&nbsp; F = NO</p>
        ","f","html-keyboard-response","263","2.1.0","364500","J=YES, F=NO","o1e7ybrtop","0","65","80","50","","","","","","","","","protsh","gift1","pseudoword","pseudoword","f","true","",""
"null","<p style=""font-size: 50px;"">+</p>","null","html-keyboard-response","264","2.1.0","364814","J=YES, F=NO","o1e7ybrtop","0","65","80","50","","","","","","","","","","","","","","","",""
"null","audio/beep-329314.mp3","null","audio-keyboard-response","265","2.1.0","366306","J=YES, F=NO","o1e7ybrtop","0","65","80","50","","","","","","","","","","","","","","","",""
"null","audio/client1.wav","null","audio-keyboard-response","266","2.1.0","366936","J=YES, F=NO","o1e7ybrtop","0","65","80","50","","","","","","","","","","","","","","","",""
"756","
          <p id=""word"" style=""font-size: 40px;"">land</p>
          <p style=""font-size: 16px;"">J = YES &nbsp;&nbsp;&nbsp; F = NO</p>
        ","j","html-keyboard-response","267","2.1.0","367692","J=YES, F=NO","o1e7ybrtop","0","65","80","50","","","","","","","","","land","client1","metaphor","experimental","j","true","",""
"null","<p style=""font-size: 50px;"">+</p>","null","html-keyboard-response","268","2.1.0","368002","J=YES, F=NO","o1e7ybrtop","0","65","80","50","","","","","","","","","","","","","","","",""
"null","audio/beep-329314.mp3","null","audio-keyboard-response","269","2.1.0","369492","J=YES, F=NO","o1e7ybrtop","0","65","80","50","","","","","","","","","","","","","","","",""
"null","audio/vehicle1.wav","null","audio-keyboard-response","270","2.1.0","370087","J=YES, F=NO","o1e7ybrtop","0","65","80","50","","","","","","","","","","","","","","","",""
"613","
          <p id=""word"" style=""font-size: 40px;"">approach</p>
          <p style=""font-size: 16px;"">J = YES &nbsp;&nbsp;&nbsp; F = NO</p>
        ","j","html-keyboard-response","271","2.1.0","370700","J=YES, F=NO","o1e7ybrtop","0","65","80","50","","","","","","","","","approach","vehicle1","literal","experimental","j","true","",""
"null","<p style=""font-size: 50px;"">+</p>","null","html-keyboard-response","272","2.1.0","371002","J=YES, F=NO","o1e7ybrtop","0","65","80","50","","","","","","","","","","","","","","","",""
"null","audio/beep-329314.mp3","null","audio-keyboard-response","273","2.1.0","372492","J=YES, F=NO","o1e7ybrtop","0","65","80","50","","","","","","","","","","","","","","","",""
"null","audio/effort.wav","null","audio-keyboard-response","274","2.1.0","373030","J=YES, F=NO","o1e7ybrtop","0","65","80","50","","","","","","","","","","","","","","","",""
"445","
          <p id=""word"" style=""font-size: 40px;"">whonk</p>
          <p style=""font-size: 16px;"">J = YES &nbsp;&nbsp;&nbsp; F = NO</p>
        ","j","html-keyboard-response","275","2.1.0","373476","J=YES, F=NO","o1e7ybrtop","0","65","80","50","","","","","","","","","whonk","effort","pseudoword","pseudoword","f","false","",""
"null","<p style=""font-size: 50px;"">+</p>","null","html-keyboard-response","276","2.1.0","373779","J=YES, F=NO","o1e7ybrtop","0","65","80","50","","","","","","","","","","","","","","","",""
"null","audio/beep-329314.mp3","null","audio-keyboard-response","277","2.1.0","375268","J=YES, F=NO","o1e7ybrtop","0","65","80","50","","","","","","","","","","","","","","","",""
"null","audio/life1.wav","null","audio-keyboard-response","278","2.1.0","375777","J=YES, F=NO","o1e7ybrtop","0","65","80","50","","","","","","","","","","","","","","","",""
"362","
          <p id=""word"" style=""font-size: 40px;"">flimch</p>
          <p style=""font-size: 16px;"">J = YES &nbsp;&nbsp;&nbsp; F = NO</p>
        ","j","html-keyboard-response","279","2.1.0","376140","J=YES, F=NO","o1e7ybrtop","0","65","80","50","","","","","","","","","flimch","life1","pseudoword","pseudoword","f","false","",""
"null","<p style=""font-size: 50px;"">+</p>","null","html-keyboard-response","280","2.1.0","376443","J=YES, F=NO","o1e7ybrtop","0","65","80","50","","","","","","","","","","","","","","","",""
"null","audio/beep-329314.mp3","null","audio-keyboard-response","281","2.1.0","377934","J=YES, F=NO","o1e7ybrtop","0","65","80","50","","","","","","","","","","","","","","","",""
"null","audio/show.wav","null","audio-keyboard-response","282","2.1.0","378422","J=YES, F=NO","o1e7ybrtop","0","65","80","50","","","","","","","","","","","","","","","",""
"494","
          <p id=""word"" style=""font-size: 40px;"">smark</p>
          <p style=""font-size: 16px;"">J = YES &nbsp;&nbsp;&nbsp; F = NO</p>
        ","j","html-keyboard-response","283","2.1.0","378916","J=YES, F=NO","o1e7ybrtop","0","65","80","50","","","","","","","","","smark","show","pseudoword","pseudoword","f","false","",""
"null","<p style=""font-size: 50px;"">+</p>","null","html-keyboard-response","284","2.1.0","379219","J=YES, F=NO","o1e7ybrtop","0","65","80","50","","","","","","","","","","","","","","","",""
"null","audio/beep-329314.mp3","null","audio-keyboard-response","285","2.1.0","380709","J=YES, F=NO","o1e7ybrtop","0","65","80","50","","","","","","","","","","","","","","","",""
"null","audio/alarm1.wav","null","audio-keyboard-response","286","2.1.0","381249","J=YES, F=NO","o1e7ybrtop","0","65","80","50","","","","","","","","","","","","","","","",""
"427","
          <p id=""word"" style=""font-size: 40px;"">save</p>
          <p style=""font-size: 16px;"">J = YES &nbsp;&nbsp;&nbsp; F = NO</p>
        ","j","html-keyboard-response","287","2.1.0","381676","J=YES, F=NO","o1e7ybrtop","0","65","80","50","","","","","","","","","save","alarm1","unrelated","experimental","j","true","",""
"null","<p style=""font-size: 50px;"">+</p>","null","html-keyboard-response","288","2.1.0","381995","J=YES, F=NO","o1e7ybrtop","0","65","80","50","","","","","","","","","","","","","","","",""
"null","audio/beep-329314.mp3","null","audio-keyboard-response","289","2.1.0","383487","J=YES, F=NO","o1e7ybrtop","0","65","80","50","","","","","","","","","","","","","","","",""
"null","audio/dome.wav","null","audio-keyboard-response","290","2.1.0","383879","J=YES, F=NO","o1e7ybrtop","0","65","80","50","","","","","","","","","","","","","","","",""
"700","
          <p id=""word"" style=""font-size: 40px;"">scrupliness</p>
          <p style=""font-size: 16px;"">J = YES &nbsp;&nbsp;&nbsp; F = NO</p>
        ","f","html-keyboard-response","291","2.1.0","384580","J=YES, F=NO","o1e7ybrtop","0","65","80","50","","","","","","","","","scrupliness","dome","pseudoword","pseudoword","f","true","",""
"null","<p style=""font-size: 50px;"">+</p>","null","html-keyboard-response","292","2.1.0","384892","J=YES, F=NO","o1e7ybrtop","0","65","80","50","","","","","","","","","","","","","","","",""
"null","audio/beep-329314.mp3","null","audio-keyboard-response","293","2.1.0","386383","J=YES, F=NO","o1e7ybrtop","0","65","80","50","","","","","","","","","","","","","","","",""
"null","audio/planet1.wav","null","audio-keyboard-response","294","2.1.0","386932","J=YES, F=NO","o1e7ybrtop","0","65","80","50","","","","","","","","","","","","","","","",""
"320","
          <p id=""word"" style=""font-size: 40px;"">cratched</p>
          <p style=""font-size: 16px;"">J = YES &nbsp;&nbsp;&nbsp; F = NO</p>
        ","j","html-keyboard-response","295","2.1.0","387252","J=YES, F=NO","o1e7ybrtop","0","65","80","50","","","","","","","","","cratched","planet1","pseudoword","pseudoword","f","false","",""
"999","<p>Excellent! You have finished block 2 of 8.</p>
                     <p>Feel free to take a 30 second break.</p>
                     <p>Press any key when you're ready to continue.</p>"," ","html-keyboard-response","296","2.1.0","388252","J=YES, F=NO","o1e7ybrtop","0","65","80","50","","","","","","","","","","","","","","","",""
"679","<p>Starting main block 3 of 8. Press any key to continue.</p>"," ","html-keyboard-response","297","2.1.0","388932","J=YES, F=NO","o1e7ybrtop","0","65","80","50","","","","","","","","","","","","","","","",""
"null","<p style=""font-size: 50px;"">+</p>","null","html-keyboard-response","298","2.1.0","389245","J=YES, F=NO","o1e7ybrtop","0","65","80","50","","","","","","","","","","","","","","","",""
"null","audio/beep-329314.mp3","null","audio-keyboard-response","299","2.1.0","390743","J=YES, F=NO","o1e7ybrtop","0","65","80","50","","","","","","","","","","","","","","","",""
"null","audio/road.wav","null","audio-keyboard-response","300","2.1.0","391123","J=YES, F=NO","o1e7ybrtop","0","65","80","50","","","","","","","","","","","","","","","",""
"1169","
          <p id=""word"" style=""font-size: 40px;"">wappings</p>
          <p style=""font-size: 16px;"">J = YES &nbsp;&nbsp;&nbsp; F = NO</p>
        ","f","html-keyboard-response","301","2.1.0","392292","J=YES, F=NO","o1e7ybrtop","0","65","80","50","","","","","","","","","wappings","road","pseudoword","pseudoword","f","true","",""
"null","<p style=""font-size: 50px;"">+</p>","null","html-keyboard-response","302","2.1.0","392606","J=YES, F=NO","o1e7ybrtop","0","65","80","50","","","","","","","","","","","","","","","",""
"null","audio/beep-329314.mp3","null","audio-keyboard-response","303","2.1.0","394105","J=YES, F=NO","o1e7ybrtop","0","65","80","50","","","","","","","","","","","","","","","",""
"null","audio/holiday1.wav","null","audio-keyboard-response","304","2.1.0","394684","J=YES, F=NO","o1e7ybrtop","0","65","80","50","","","","","","","","","","","","","","","",""
"529","
          <p id=""word"" style=""font-size: 40px;"">drivets</p>
          <p style=""font-size: 16px;"">J = YES &nbsp;&nbsp;&nbsp; F = NO</p>
        ","j","html-keyboard-response","305","2.1.0","395213","J=YES, F=NO","o1e7ybrtop","0","65","80","50","","","","","","","","","drivets","holiday1","pseudoword","pseudoword","f","false","",""
"null","<p style=""font-size: 50px;"">+</p>","null","html-keyboard-response","306","2.1.0","395517","J=YES, F=NO","o1e7ybrtop","0","65","80","50","","","","","","","","","","","","","","","",""
"null","audio/beep-329314.mp3","null","audio-keyboard-response","307","2.1.0","397006","J=YES, F=NO","o1e7ybrtop","0","65","80","50","","","","","","","","","","","","","","","",""
"null","audio/cave1.wav","null","audio-keyboard-response","308","2.1.0","397500","J=YES, F=NO","o1e7ybrtop","0","65","80","50","","","","","","","","","","","","","","","",""
"416","
          <p id=""word"" style=""font-size: 40px;"">blacket</p>
          <p style=""font-size: 16px;"">J = YES &nbsp;&nbsp;&nbsp; F = NO</p>
        ","j","html-keyboard-response","309","2.1.0","397916","J=YES, F=NO","o1e7ybrtop","0","65","80","50","","","","","","","","","blacket","cave1","pseudoword","pseudoword","f","false","",""
"null","<p style=""font-size: 50px;"">+</p>","null","html-keyboard-response","310","2.1.0","398231","J=YES, F=NO","o1e7ybrtop","0","65","80","50","","","","","","","","","","","","","","","",""
"null","audio/beep-329314.mp3","null","audio-keyboard-response","311","2.1.0","399720","J=YES, F=NO","o1e7ybrtop","0","65","80","50","","","","","","","","","","","","","","","",""
"null","audio/floor.wav","null","audio-keyboard-response","312","2.1.0","400229","J=YES, F=NO","o1e7ybrtop","0","65","80","50","","","","","","","","","","","","","","","",""
"520","
          <p id=""word"" style=""font-size: 40px;"">mop</p>
          <p style=""font-size: 16px;"">J = YES &nbsp;&nbsp;&nbsp; F = NO</p>
        ","j","html-keyboard-response","313","2.1.0","400749","J=YES, F=NO","o1e7ybrtop","0","65","80","50","","","","","","","","","mop","floor","filler","filler","j","true","",""
"null","<p style=""font-size: 50px;"">+</p>","null","html-keyboard-response","314","2.1.0","401050","J=YES, F=NO","o1e7ybrtop","0","65","80","50","","","","","","","","","","","","","","","",""
"null","audio/beep-329314.mp3","null","audio-keyboard-response","315","2.1.0","402539","J=YES, F=NO","o1e7ybrtop","0","65","80","50","","","","","","","","","","","","","","","",""
"null","audio/ankle1.wav","null","audio-keyboard-response","316","2.1.0","403017","J=YES, F=NO","o1e7ybrtop","0","65","80","50","","","","","","","","","","","","","","","",""
"378","
          <p id=""word"" style=""font-size: 40px;"">kick</p>
          <p style=""font-size: 16px;"">J = YES &nbsp;&nbsp;&nbsp; F = NO</p>
        ","j","html-keyboard-response","317","2.1.0","403396","J=YES, F=NO","o1e7ybrtop","0","65","80","50","","","","","","","","","kick","ankle1","filler","filler","j","true","",""
"null","<p style=""font-size: 50px;"">+</p>","null","html-keyboard-response","318","2.1.0","403709","J=YES, F=NO","o1e7ybrtop","0","65","80","50","","","","","","","","","","","","","","","",""
"null","audio/beep-329314.mp3","null","audio-keyboard-response","319","2.1.0","405199","J=YES, F=NO","o1e7ybrtop","0","65","80","50","","","","","","","","","","","","","","","",""
"null","audio/skin1.wav","null","audio-keyboard-response","320","2.1.0","405728","J=YES, F=NO","o1e7ybrtop","0","65","80","50","","","","","","","","","","","","","","","",""
"740","
          <p id=""word"" style=""font-size: 40px;"">expose</p>
          <p style=""font-size: 16px;"">J = YES &nbsp;&nbsp;&nbsp; F = NO</p>
        ","j","html-keyboard-response","321","2.1.0","406468","J=YES, F=NO","o1e7ybrtop","0","65","80","50","","","","","","","","","expose","skin1","literal","experimental","j","true","",""
"null","<p style=""font-size: 50px;"">+</p>","null","html-keyboard-response","322","2.1.0","406772","J=YES, F=NO","o1e7ybrtop","0","65","80","50","","","","","","","","","","","","","","","",""
"null","audio/beep-329314.mp3","null","audio-keyboard-response","323","2.1.0","408262","J=YES, F=NO","o1e7ybrtop","0","65","80","50","","","","","","","","","","","","","","","",""
"null","audio/pain1.wav","null","audio-keyboard-response","324","2.1.0","408646","J=YES, F=NO","o1e7ybrtop","0","65","80","50","","","","","","","","","","","","","","","",""
"933","
          <p id=""word"" style=""font-size: 40px;"">tritted</p>
          <p style=""font-size: 16px;"">J = YES &nbsp;&nbsp;&nbsp; F = NO</p>
        ","f","html-keyboard-response","325","2.1.0","409580","J=YES, F=NO","o1e7ybrtop","0","65","80","50","","","","","","","","","tritted","pain1","pseudoword","pseudoword","f","true","",""
"null","<p style=""font-size: 50px;"">+</p>","null","html-keyboard-response","326","2.1.0","409881","J=YES, F=NO","o1e7ybrtop","0","65","80","50","","","","","","","","","","","","","","","",""
"null","audio/beep-329314.mp3","null","audio-keyboard-response","327","2.1.0","411371","J=YES, F=NO","o1e7ybrtop","0","65","80","50","","","","","","","","","","","","","","","",""
"null","audio/trout1.wav","null","audio-keyboard-response","328","2.1.0","411903","J=YES, F=NO","o1e7ybrtop","0","65","80","50","","","","","","","","","","","","","","","",""
"724","
          <p id=""word"" style=""font-size: 40px;"">spimt</p>
          <p style=""font-size: 16px;"">J = YES &nbsp;&nbsp;&nbsp; F = NO</p>
        ","j","html-keyboard-response","329","2.1.0","412628","J=YES, F=NO","o1e7ybrtop","0","65","80","50","","","","","","","","","spimt","trout1","pseudoword","pseudoword","f","false","",""
"null","<p style=""font-size: 50px;"">+</p>","null","html-keyboard-response","330","2.1.0","412939","J=YES, F=NO","o1e7ybrtop","0","65","80","50","","","","","","","","","","","","","","","",""
"null","audio/beep-329314.mp3","null","audio-keyboard-response","331","2.1.0","414431","J=YES, F=NO","o1e7ybrtop","0","65","80","50","","","","","","","","","","","","","","","",""
"null","audio/vehicle1.wav","null","audio-keyboard-response","332","2.1.0","415031","J=YES, F=NO","o1e7ybrtop","0","65","80","50","","","","","","","","","","","","","","","",""
"525","
          <p id=""word"" style=""font-size: 40px;"">dropt</p>
          <p style=""font-size: 16px;"">J = YES &nbsp;&nbsp;&nbsp; F = NO</p>
        ","j","html-keyboard-response","333","2.1.0","415556","J=YES, F=NO","o1e7ybrtop","0","65","80","50","","","","","","","","","dropt","vehicle1","pseudoword","pseudoword","f","false","",""
"null","<p style=""font-size: 50px;"">+</p>","null","html-keyboard-response","334","2.1.0","415866","J=YES, F=NO","o1e7ybrtop","0","65","80","50","","","","","","","","","","","","","","","",""
"null","audio/beep-329314.mp3","null","audio-keyboard-response","335","2.1.0","417357","J=YES, F=NO","o1e7ybrtop","0","65","80","50","","","","","","","","","","","","","","","",""
"null","audio/arm.wav","null","audio-keyboard-response","336","2.1.0","417849","J=YES, F=NO","o1e7ybrtop","0","65","80","50","","","","","","","","","","","","","","","",""
"1067","
          <p id=""word"" style=""font-size: 40px;"">pigne</p>
          <p style=""font-size: 16px;"">J = YES &nbsp;&nbsp;&nbsp; F = NO</p>
        ","f","html-keyboard-response","337","2.1.0","418916","J=YES, F=NO","o1e7ybrtop","0","65","80","50","","","","","","","","","pigne","arm","pseudoword","pseudoword","f","true","",""
"null","<p style=""font-size: 50px;"">+</p>","null","html-keyboard-response","338","2.1.0","419219","J=YES, F=NO","o1e7ybrtop","0","65","80","50","","","","","","","","","","","","","","","",""
"null","audio/beep-329314.mp3","null","audio-keyboard-response","339","2.1.0","420719","J=YES, F=NO","o1e7ybrtop","0","65","80","50","","","","","","","","","","","","","","","",""
"null","audio/cancer1.wav","null","audio-keyboard-response","340","2.1.0","421230","J=YES, F=NO","o1e7ybrtop","0","65","80","50","","","","","","","","","","","","","","","",""
"990","
          <p id=""word"" style=""font-size: 40px;"">draw</p>
          <p style=""font-size: 16px;"">J = YES &nbsp;&nbsp;&nbsp; F = NO</p>
        ","f","html-keyboard-response","341","2.1.0","422220","J=YES, F=NO","o1e7ybrtop","0","65","80","50","","","","","","","","","draw","cancer1","filler","filler","j","false","",""
"null","<p style=""font-size: 50px;"">+</p>","null","html-keyboard-response","342","2.1.0","422528","J=YES, F=NO","o1e7ybrtop","0","65","80","50","","","","","","","","","","","","","","","",""
"null","audio/beep-329314.mp3","null","audio-keyboard-response","343","2.1.0","424017","J=YES, F=NO","o1e7ybrtop","0","65","80","50","","","","","","","","","","","","","","","",""
"null","audio/mind.wav","null","audio-keyboard-response","344","2.1.0","424529","J=YES, F=NO","o1e7ybrtop","0","65","80","50","","","","","","","","","","","","","","","",""
"491","
          <p id=""word"" style=""font-size: 40px;"">crainate</p>
          <p style=""font-size: 16px;"">J = YES &nbsp;&nbsp;&nbsp; F = NO</p>
        ","j","html-keyboard-response","345","2.1.0","425021","J=YES, F=NO","o1e7ybrtop","0","65","80","50","","","","","","","","","crainate","mind","pseudoword","pseudoword","f","false","",""
"null","<p style=""font-size: 50px;"">+</p>","null","html-keyboard-response","346","2.1.0","425322","J=YES, F=NO","o1e7ybrtop","0","65","80","50","","","","","","","","","","","","","","","",""
"null","audio/beep-329314.mp3","null","audio-keyboard-response","347","2.1.0","426812","J=YES, F=NO","o1e7ybrtop","0","65","80","50","","","","","","","","","","","","","","","",""
"null","audio/train.wav","null","audio-keyboard-response","348","2.1.0","427275","J=YES, F=NO","o1e7ybrtop","0","65","80","50","","","","","","","","","","","","","","","",""
"1000","
          <p id=""word"" style=""font-size: 40px;"">catch</p>
          <p style=""font-size: 16px;"">J = YES &nbsp;&nbsp;&nbsp; F = NO</p>
        ","f","html-keyboard-response","349","2.1.0","428276","J=YES, F=NO","o1e7ybrtop","0","65","80","50","","","","","","","","","catch","train","metaphor","experimental","j","false","",""
"null","<p style=""font-size: 50px;"">+</p>","null","html-keyboard-response","350","2.1.0","428585","J=YES, F=NO","o1e7ybrtop","0","65","80","50","","","","","","","","","","","","","","","",""
"null","audio/beep-329314.mp3","null","audio-keyboard-response","351","2.1.0","430077","J=YES, F=NO","o1e7ybrtop","0","65","80","50","","","","","","","","","","","","","","","",""
"null","audio/smirk1.wav","null","audio-keyboard-response","352","2.1.0","430749","J=YES, F=NO","o1e7ybrtop","0","65","80","50","","","","","","","","","","","","","","","",""
"429","
          <p id=""word"" style=""font-size: 40px;"">snopt</p>
          <p style=""font-size: 16px;"">J = YES &nbsp;&nbsp;&nbsp; F = NO</p>
        ","j","html-keyboard-response","353","2.1.0","431180","J=YES, F=NO","o1e7ybrtop","0","65","80","50","","","","","","","","","snopt","smirk1","pseudoword","pseudoword","f","false","",""
"null","<p style=""font-size: 50px;"">+</p>","null","html-keyboard-response","354","2.1.0","431500","J=YES, F=NO","o1e7ybrtop","0","65","80","50","","","","","","","","","","","","","","","",""
"null","audio/beep-329314.mp3","null","audio-keyboard-response","355","2.1.0","432992","J=YES, F=NO","o1e7ybrtop","0","65","80","50","","","","","","","","","","","","","","","",""
"null","audio/radio1.wav","null","audio-keyboard-response","356","2.1.0","433541","J=YES, F=NO","o1e7ybrtop","0","65","80","50","","","","","","","","","","","","","","","",""
"559","
          <p id=""word"" style=""font-size: 40px;"">blanter</p>
          <p style=""font-size: 16px;"">J = YES &nbsp;&nbsp;&nbsp; F = NO</p>
        ","j","html-keyboard-response","357","2.1.0","434101","J=YES, F=NO","o1e7ybrtop","0","65","80","50","","","","","","","","","blanter","radio1","pseudoword","pseudoword","f","false","",""
"null","<p style=""font-size: 50px;"">+</p>","null","html-keyboard-response","358","2.1.0","434414","J=YES, F=NO","o1e7ybrtop","0","65","80","50","","","","","","","","","","","","","","","",""
"null","audio/beep-329314.mp3","null","audio-keyboard-response","359","2.1.0","435906","J=YES, F=NO","o1e7ybrtop","0","65","80","50","","","","","","","","","","","","","","","",""
"null","audio/mile1.wav","null","audio-keyboard-response","360","2.1.0","436329","J=YES, F=NO","o1e7ybrtop","0","65","80","50","","","","","","","","","","","","","","","",""
"772","
          <p id=""word"" style=""font-size: 40px;"">writch</p>
          <p style=""font-size: 16px;"">J = YES &nbsp;&nbsp;&nbsp; F = NO</p>
        ","j","html-keyboard-response","361","2.1.0","437100","J=YES, F=NO","o1e7ybrtop","0","65","80","50","","","","","","","","","writch","mile1","pseudoword","pseudoword","f","false","",""
"1087","<p>Excellent! You have finished block 3 of 8.</p>
                     <p>Feel free to take a 30 second break.</p>
                     <p>Press any key when you're ready to continue.</p>"," ","html-keyboard-response","362","2.1.0","438188","J=YES, F=NO","o1e7ybrtop","0","65","80","50","","","","","","","","","","","","","","","",""
"328","<p>Starting main block 4 of 8. Press any key to continue.</p>"," ","html-keyboard-response","363","2.1.0","438517","J=YES, F=NO","o1e7ybrtop","0","65","80","50","","","","","","","","","","","","","","","",""
"null","<p style=""font-size: 50px;"">+</p>","null","html-keyboard-response","364","2.1.0","438826","J=YES, F=NO","o1e7ybrtop","0","65","80","50","","","","","","","","","","","","","","","",""
"null","audio/beep-329314.mp3","null","audio-keyboard-response","365","2.1.0","440326","J=YES, F=NO","o1e7ybrtop","0","65","80","50","","","","","","","","","","","","","","","",""
"null","audio/ego.wav","null","audio-keyboard-response","366","2.1.0","440830","J=YES, F=NO","o1e7ybrtop","0","65","80","50","","","","","","","","","","","","","","","",""
"460","
          <p id=""word"" style=""font-size: 40px;"">feed</p>
          <p style=""font-size: 16px;"">J = YES &nbsp;&nbsp;&nbsp; F = NO</p>
        ","j","html-keyboard-response","367","2.1.0","441292","J=YES, F=NO","o1e7ybrtop","0","65","80","50","","","","","","","","","feed","ego","metaphor","experimental","j","true","",""
"null","<p style=""font-size: 50px;"">+</p>","null","html-keyboard-response","368","2.1.0","441607","J=YES, F=NO","o1e7ybrtop","0","65","80","50","","","","","","","","","","","","","","","",""
"null","audio/beep-329314.mp3","null","audio-keyboard-response","369","2.1.0","443096","J=YES, F=NO","o1e7ybrtop","0","65","80","50","","","","","","","","","","","","","","","",""
"null","audio/empire.wav","null","audio-keyboard-response","370","2.1.0","443671","J=YES, F=NO","o1e7ybrtop","0","65","80","50","","","","","","","","","","","","","","","",""
"238","
          <p id=""word"" style=""font-size: 40px;"">bring</p>
          <p style=""font-size: 16px;"">J = YES &nbsp;&nbsp;&nbsp; F = NO</p>
        ","j","html-keyboard-response","371","2.1.0","443909","J=YES, F=NO","o1e7ybrtop","0","65","80","50","","","","","","","","","bring","empire","unrelated","experimental","j","true","",""
"null","<p style=""font-size: 50px;"">+</p>","null","html-keyboard-response","372","2.1.0","444213","J=YES, F=NO","o1e7ybrtop","0","65","80","50","","","","","","","","","","","","","","","",""
"null","audio/beep-329314.mp3","null","audio-keyboard-response","373","2.1.0","445703","J=YES, F=NO","o1e7ybrtop","0","65","80","50","","","","","","","","","","","","","","","",""
"null","audio/mile1.wav","null","audio-keyboard-response","374","2.1.0","446134","J=YES, F=NO","o1e7ybrtop","0","65","80","50","","","","","","","","","","","","","","","",""
"1006","
          <p id=""word"" style=""font-size: 40px;"">run</p>
          <p style=""font-size: 16px;"">J = YES &nbsp;&nbsp;&nbsp; F = NO</p>
        ","f","html-keyboard-response","375","2.1.0","447140","J=YES, F=NO","o1e7ybrtop","0","65","80","50","","","","","","","","","run","mile1","literal","experimental","j","false","",""
"null","<p style=""font-size: 50px;"">+</p>","null","html-keyboard-response","376","2.1.0","447441","J=YES, F=NO","o1e7ybrtop","0","65","80","50","","","","","","","","","","","","","","","",""
"null","audio/beep-329314.mp3","null","audio-keyboard-response","377","2.1.0","448932","J=YES, F=NO","o1e7ybrtop","0","65","80","50","","","","","","","","","","","","","","","",""
"null","audio/pine.wav","null","audio-keyboard-response","378","2.1.0","449377","J=YES, F=NO","o1e7ybrtop","0","65","80","50","","","","","","","","","","","","","","","",""
"690","
          <p id=""word"" style=""font-size: 40px;"">crebble</p>
          <p style=""font-size: 16px;"">J = YES &nbsp;&nbsp;&nbsp; F = NO</p>
        ","j","html-keyboard-response","379","2.1.0","450068","J=YES, F=NO","o1e7ybrtop","0","65","80","50","","","","","","","","","crebble","pine","pseudoword","pseudoword","f","false","",""
"null","<p style=""font-size: 50px;"">+</p>","null","html-keyboard-response","380","2.1.0","450376","J=YES, F=NO","o1e7ybrtop","0","65","80","50","","","","","","","","","","","","","","","",""
"null","audio/beep-329314.mp3","null","audio-keyboard-response","381","2.1.0","451867","J=YES, F=NO","o1e7ybrtop","0","65","80","50","","","","","","","","","","","","","","","",""
"null","audio/roof1.wav","null","audio-keyboard-response","382","2.1.0","452338","J=YES, F=NO","o1e7ybrtop","0","65","80","50","","","","","","","","","","","","","","","",""
"800","
          <p id=""word"" style=""font-size: 40px;"">wronb</p>
          <p style=""font-size: 16px;"">J = YES &nbsp;&nbsp;&nbsp; F = NO</p>
        ","j","html-keyboard-response","383","2.1.0","453140","J=YES, F=NO","o1e7ybrtop","0","65","80","50","","","","","","","","","wronb","roof1","pseudoword","pseudoword","f","false","",""
"null","<p style=""font-size: 50px;"">+</p>","null","html-keyboard-response","384","2.1.0","453453","J=YES, F=NO","o1e7ybrtop","0","65","80","50","","","","","","","","","","","","","","","",""
"null","audio/beep-329314.mp3","null","audio-keyboard-response","385","2.1.0","454941","J=YES, F=NO","o1e7ybrtop","0","65","80","50","","","","","","","","","","","","","","","",""
"null","audio/bomb1.wav","null","audio-keyboard-response","386","2.1.0","455281","J=YES, F=NO","o1e7ybrtop","0","65","80","50","","","","","","","","","","","","","","","",""
"625","
          <p id=""word"" style=""font-size: 40px;"">drop</p>
          <p style=""font-size: 16px;"">J = YES &nbsp;&nbsp;&nbsp; F = NO</p>
        ","j","html-keyboard-response","387","2.1.0","455908","J=YES, F=NO","o1e7ybrtop","0","65","80","50","","","","","","","","","drop","bomb1","literal","experimental","j","true","",""
"null","<p style=""font-size: 50px;"">+</p>","null","html-keyboard-response","388","2.1.0","456220","J=YES, F=NO","o1e7ybrtop","0","65","80","50","","","","","","","","","","","","","","","",""
"null","audio/beep-329314.mp3","null","audio-keyboard-response","389","2.1.0","457709","J=YES, F=NO","o1e7ybrtop","0","65","80","50","","","","","","","","","","","","","","","",""
"null","audio/butter1.wav","null","audio-keyboard-response","390","2.1.0","458108","J=YES, F=NO","o1e7ybrtop","0","65","80","50","","","","","","","","","","","","","","","",""
"600","
          <p id=""word"" style=""font-size: 40px;"">chew</p>
          <p style=""font-size: 16px;"">J = YES &nbsp;&nbsp;&nbsp; F = NO</p>
