"rt","stimulus","response","trial_type","trial_index","plugin_version","time_elapsed","response_mapping","subject_id","list_index","lextale_score","lextale_word_score","lextale_nonword_score","success","timeout","failed_images","failed_audio","failed_video","task","isWord","isDummy","target","prime","prime_type","stimulus_type","correct_response","correct","section","question_order"
"8930","
    <div style=""max-width: 800px; margin: auto; text-align: left;"">
      <h2>STANFORD UNIVERSITY</h2>
      <h3>Research Information Sheet</h3>
      <p><strong>Protocol Director:</strong> Robert Hawkins<br>
      <strong>Protocol Title:</strong> Communication and social cognition in natural audiovisual contexts<br>
      <strong>IRB#:</strong> 77226</p>

      <p><strong>DESCRIPTION:</strong> You are invited to participate in a research study about language and communication. The purpose of the research is to understand how you interact and communicate with other people in naturalistic settings as a fluent English speaker. This research will be conducted through the Prolific platform, including participants from the US, UK, and Canada. If you decide to participate in this research, you will play a communication game in a group with one or more partners.</p>

      <p><strong>TIME INVOLVEMENT:</strong> The task will last the amount of time advertised on Prolific. You are free to withdraw from the study at any time.</p>

      <p><strong>RISKS AND BENEFITS:</strong> You may become frustrated if your partner gets distracted, or experience discomfort if other participants in your group send text that is inappropriate for the task. We ask you to please be respectful of other participants you might be interacting with to mitigate these risks. You may also experience discomfort when being asked to discuss or challenge emotionally salient political beliefs. Study data will be stored securely, in compliance with Stanford University standards, minimizing the risk of confidentiality breach. This study advances our scientific understanding of how people communicate and collaborate in naturalistic settings. This study may lead to further insights about what can go wrong in teamwork, suggest potential interventions to overcome these barriers, and help to develop assistive technologies that collaborate with human partners. We cannot and do not guarantee or promise that you will receive any benefits from this study.</p>

      <p><strong>PAYMENTS:</strong> You will receive payment in the amount advertised on Prolific. If you do not complete this study, you will receive prorated payment based on the time that you have spent. Additionally, you may be eligible for bonus payments as described in the instructions.</p>

      <p><strong>PARTICIPANT’S RIGHTS:</strong> If you have read this form and have decided to participate in this project, please understand your participation is voluntary and you have the right to withdraw your consent or discontinue participation at any time without penalty or loss of benefits to which you are otherwise entitled. The alternative is not to participate. You have the right to refuse to answer particular questions. The results of this research study may be presented at scientific or professional meetings or published in scientific journals. Your individual privacy will be maintained in all published and written data resulting from the study. In accordance with scientific norms, the data from this study may be used or shared with other researchers for future research (after removing personally identifying information) without additional consent from you.</p>

      <p><strong>CONTACT INFORMATION:</strong><br>
      Questions: If you have any questions, concerns or complaints about this research, its procedures, risks and benefits, contact the Protocol Director, Robert Hawkins (<a href=""mailto:rdhawkins@stanford.edu"">rdhawkins@stanford.edu</a>, 217-549-6923).<br>
      Independent Contact: If you are not satisfied with how this study is being conducted, or if you have any concerns, complaints, or general questions about the research or your rights as a participant, please contact the Stanford Institutional Review Board (IRB) to speak to someone independent of the research team at 650-723-2480 or toll free at 1-866-680-2906, or email at <a href=""mailto:irbnon-med@stanford.edu"">irbnon-med@stanford.edu</a>. You can also write to the Stanford IRB, Stanford University, 1705 El Camino Real, Palo Alto, CA 94306.</p>

      <p><strong>Please save or print a copy of this page for your records.</strong></p>
      <p>If you agree to participate in this research, click ""Continue"" below.</p>
    </div>
  ","0","html-button-response","0","2.1.0","8940","F=YES, J=NO","otj2109734","2","81","83","80","","","","","","","","","","","","","","","",""
"12307","
    <div style=""max-width: 800px; margin: auto; text-align: left;"">
      <h2>Welcome!</h2>
      <p>Thank you for participating in this study. The experiment consists of three parts:</p>
      <ol>
        <li>An English vocabulary test</li>
        <li>A main task in which you will hear and see words, and decide whether the written word is a real English word</li>
        <li>A brief survey about your background</li>
      </ol>
      <p>Each part will be introduced before it begins.</p>
      <p>Please make sure you are in a quiet environment and can hear audio clearly for the final task.</p>
      <p style=""margin-top: 2em;"">Press any key to begin.</p>
    </div>
  ","f","html-keyboard-response","1","2.1.0","21250","F=YES, J=NO","otj2109734","2","81","83","80","","","","","","","","","","","","","","","",""
"","","","preload","2","2.1.0","22862","F=YES, J=NO","otj2109734","2","81","83","80","true","false","[]","[]","[]","","","","","","","","","","",""
"3802","
    <div style=""max-width: 800px; margin: auto; text-align: left;"">
      <h2>Part 1: Vocabulary Test</h2>
      <p>You will now complete the first part of the study: a short English vocabulary test.</p>
      <p>This test is called <strong>LexTALE</strong> and helps us get a general sense of your English proficiency.</p>
      <p style=""margin-top: 2em;"">Press any key to continue.</p>
    </div>
  ","f","html-keyboard-response","3","2.1.0","26665","F=YES, J=NO","otj2109734","2","81","83","80","","","","","","","","","","","","","","","",""
"7536","
    <div style=""max-width: 800px; margin: auto; text-align: left;"">
      <h2>LexTALE Vocabulary Test</h2>
      <p>In this test, you will see a series of letter strings—one at a time.</p>
      <p>Your task is to decide whether each string is a real English word.</p>
      <p><strong>Key responses:</strong></p>
      <ul>
        <li><strong>F</strong> = YES (real English word)</li>
        <li><strong>J</strong> = NO (not a real English word)</li>
      </ul>
      <p>There is no time limit, but please try to be accurate.</p>
      <p style=""margin-top: 2em;"">Press any key to begin.</p>
    </div>
  ","f","html-keyboard-response","4","2.1.0","34202","F=YES, J=NO","otj2109734","2","81","83","80","","","","","","","","","","","","","","","",""
"4839","
  <p style=""font-size: 40px;"">platery</p>
  <p style=""font-size: 16px;"">F = YES &nbsp;&nbsp;&nbsp; J = NO</p>
","f","html-keyboard-response","5","2.1.0","39042","F=YES, J=NO","otj2109734","2","81","83","80","","","","","","lextale","false","true","","","","","","","",""
"942","
  <p style=""font-size: 40px;"">denial</p>
  <p style=""font-size: 16px;"">F = YES &nbsp;&nbsp;&nbsp; J = NO</p>
","f","html-keyboard-response","6","2.1.0","39985","F=YES, J=NO","otj2109734","2","81","83","80","","","","","","lextale","true","true","","","","","","","",""
"1343","
  <p style=""font-size: 40px;"">marrit</p>
  <p style=""font-size: 16px;"">F = YES &nbsp;&nbsp;&nbsp; J = NO</p>
","j","html-keyboard-response","7","2.1.0","41329","F=YES, J=NO","otj2109734","2","81","83","80","","","","","","lextale","false","true","","","","","","","",""
"1272","
  <p style=""font-size: 40px;"">bottle</p>
  <p style=""font-size: 16px;"">F = YES &nbsp;&nbsp;&nbsp; J = NO</p>
","f","html-keyboard-response","8","2.1.0","42601","F=YES, J=NO","otj2109734","2","81","83","80","","","","","","lextale","true","false","","","","","","","",""
"871","
  <p style=""font-size: 40px;"">birst</p>
  <p style=""font-size: 16px;"">F = YES &nbsp;&nbsp;&nbsp; J = NO</p>
","j","html-keyboard-response","9","2.1.0","43473","F=YES, J=NO","otj2109734","2","81","83","80","","","","","","lextale","false","false","","","","","","","",""
"832","
  <p style=""font-size: 40px;"">envy</p>
  <p style=""font-size: 16px;"">F = YES &nbsp;&nbsp;&nbsp; J = NO</p>
","f","html-keyboard-response","10","2.1.0","44305","F=YES, J=NO","otj2109734","2","81","83","80","","","","","","lextale","true","false","","","","","","","",""
"935","
  <p style=""font-size: 40px;"">brang</p>
  <p style=""font-size: 16px;"">F = YES &nbsp;&nbsp;&nbsp; J = NO</p>
","j","html-keyboard-response","11","2.1.0","45241","F=YES, J=NO","otj2109734","2","81","83","80","","","","","","lextale","false","false","","","","","","","",""
"887","
  <p style=""font-size: 40px;"">huge</p>
  <p style=""font-size: 16px;"">F = YES &nbsp;&nbsp;&nbsp; J = NO</p>
","f","html-keyboard-response","12","2.1.0","46129","F=YES, J=NO","otj2109734","2","81","83","80","","","","","","lextale","true","false","","","","","","","",""
"1687","
  <p style=""font-size: 40px;"">plove</p>
  <p style=""font-size: 16px;"">F = YES &nbsp;&nbsp;&nbsp; J = NO</p>
","j","html-keyboard-response","13","2.1.0","47817","F=YES, J=NO","otj2109734","2","81","83","80","","","","","","lextale","false","false","","","","","","","",""
"991","
  <p style=""font-size: 40px;"">border</p>
  <p style=""font-size: 16px;"">F = YES &nbsp;&nbsp;&nbsp; J = NO</p>
","f","html-keyboard-response","14","2.1.0","48809","F=YES, J=NO","otj2109734","2","81","83","80","","","","","","lextale","true","false","","","","","","","",""
"1135","
  <p style=""font-size: 40px;"">flimsy</p>
  <p style=""font-size: 16px;"">F = YES &nbsp;&nbsp;&nbsp; J = NO</p>
","f","html-keyboard-response","15","2.1.0","49945","F=YES, J=NO","otj2109734","2","81","83","80","","","","","","lextale","true","false","","","","","","","",""
"800","
  <p style=""font-size: 40px;"">drain</p>
  <p style=""font-size: 16px;"">F = YES &nbsp;&nbsp;&nbsp; J = NO</p>
","f","html-keyboard-response","16","2.1.0","50745","F=YES, J=NO","otj2109734","2","81","83","80","","","","","","lextale","true","false","","","","","","","",""
"2512","
  <p style=""font-size: 40px;"">twindle</p>
  <p style=""font-size: 16px;"">F = YES &nbsp;&nbsp;&nbsp; J = NO</p>
","f","html-keyboard-response","17","2.1.0","53258","F=YES, J=NO","otj2109734","2","81","83","80","","","","","","lextale","false","false","","","","","","","",""
"1895","
  <p style=""font-size: 40px;"">propose</p>
  <p style=""font-size: 16px;"">F = YES &nbsp;&nbsp;&nbsp; J = NO</p>
","f","html-keyboard-response","18","2.1.0","55154","F=YES, J=NO","otj2109734","2","81","83","80","","","","","","lextale","true","false","","","","","","","",""
"1047","
  <p style=""font-size: 40px;"">forlay</p>
  <p style=""font-size: 16px;"">F = YES &nbsp;&nbsp;&nbsp; J = NO</p>
","j","html-keyboard-response","19","2.1.0","56201","F=YES, J=NO","otj2109734","2","81","83","80","","","","","","lextale","false","false","","","","","","","",""
"879","
  <p style=""font-size: 40px;"">tenant</p>
  <p style=""font-size: 16px;"">F = YES &nbsp;&nbsp;&nbsp; J = NO</p>
","f","html-keyboard-response","20","2.1.0","57081","F=YES, J=NO","otj2109734","2","81","83","80","","","","","","lextale","true","false","","","","","","","",""
"991","
  <p style=""font-size: 40px;"">strain</p>
  <p style=""font-size: 16px;"">F = YES &nbsp;&nbsp;&nbsp; J = NO</p>
","f","html-keyboard-response","21","2.1.0","58073","F=YES, J=NO","otj2109734","2","81","83","80","","","","","","lextale","true","false","","","","","","","",""
"944","
  <p style=""font-size: 40px;"">holster</p>
  <p style=""font-size: 16px;"">F = YES &nbsp;&nbsp;&nbsp; J = NO</p>
","f","html-keyboard-response","22","2.1.0","59017","F=YES, J=NO","otj2109734","2","81","83","80","","","","","","lextale","true","false","","","","","","","",""
"2199","
  <p style=""font-size: 40px;"">hinder</p>
  <p style=""font-size: 16px;"">F = YES &nbsp;&nbsp;&nbsp; J = NO</p>
","f","html-keyboard-response","23","2.1.0","61217","F=YES, J=NO","otj2109734","2","81","83","80","","","","","","lextale","true","false","","","","","","","",""
"1256","
  <p style=""font-size: 40px;"">swindle</p>
  <p style=""font-size: 16px;"">F = YES &nbsp;&nbsp;&nbsp; J = NO</p>
","f","html-keyboard-response","24","2.1.0","62473","F=YES, J=NO","otj2109734","2","81","83","80","","","","","","lextale","true","false","","","","","","","",""
"9063","
  <p style=""font-size: 40px;"">nuder</p>
  <p style=""font-size: 16px;"">F = YES &nbsp;&nbsp;&nbsp; J = NO</p>
","j","html-keyboard-response","25","2.1.0","71537","F=YES, J=NO","otj2109734","2","81","83","80","","","","","","lextale","false","false","","","","","","","",""
"847","
  <p style=""font-size: 40px;"">pillow</p>
  <p style=""font-size: 16px;"">F = YES &nbsp;&nbsp;&nbsp; J = NO</p>
","f","html-keyboard-response","26","2.1.0","72385","F=YES, J=NO","otj2109734","2","81","83","80","","","","","","lextale","true","false","","","","","","","",""
"7711","
  <p style=""font-size: 40px;"">shumble</p>
  <p style=""font-size: 16px;"">F = YES &nbsp;&nbsp;&nbsp; J = NO</p>
","j","html-keyboard-response","27","2.1.0","80097","F=YES, J=NO","otj2109734","2","81","83","80","","","","","","lextale","false","false","","","","","","","",""
"688","
  <p style=""font-size: 40px;"">thirst</p>
  <p style=""font-size: 16px;"">F = YES &nbsp;&nbsp;&nbsp; J = NO</p>
","f","html-keyboard-response","28","2.1.0","80785","F=YES, J=NO","otj2109734","2","81","83","80","","","","","","lextale","true","false","","","","","","","",""
"815","
  <p style=""font-size: 40px;"">unsail</p>
  <p style=""font-size: 16px;"">F = YES &nbsp;&nbsp;&nbsp; J = NO</p>
","f","html-keyboard-response","29","2.1.0","81601","F=YES, J=NO","otj2109734","2","81","83","80","","","","","","lextale","false","false","","","","","","","",""
"751","
  <p style=""font-size: 40px;"">rifle</p>
  <p style=""font-size: 16px;"">F = YES &nbsp;&nbsp;&nbsp; J = NO</p>
","f","html-keyboard-response","30","2.1.0","82353","F=YES, J=NO","otj2109734","2","81","83","80","","","","","","lextale","true","false","","","","","","","",""
"871","
  <p style=""font-size: 40px;"">mush</p>
  <p style=""font-size: 16px;"">F = YES &nbsp;&nbsp;&nbsp; J = NO</p>
","f","html-keyboard-response","31","2.1.0","83225","F=YES, J=NO","otj2109734","2","81","83","80","","","","","","lextale","false","false","","","","","","","",""
"1295","
  <p style=""font-size: 40px;"">drench</p>
  <p style=""font-size: 16px;"">F = YES &nbsp;&nbsp;&nbsp; J = NO</p>
","f","html-keyboard-response","32","2.1.0","84521","F=YES, J=NO","otj2109734","2","81","83","80","","","","","","lextale","true","false","","","","","","","",""
"887","
  <p style=""font-size: 40px;"">snirt</p>
  <p style=""font-size: 16px;"">F = YES &nbsp;&nbsp;&nbsp; J = NO</p>
","j","html-keyboard-response","33","2.1.0","85408","F=YES, J=NO","otj2109734","2","81","83","80","","","","","","lextale","false","false","","","","","","","",""
"920","
  <p style=""font-size: 40px;"">bitter</p>
  <p style=""font-size: 16px;"">F = YES &nbsp;&nbsp;&nbsp; J = NO</p>
","f","html-keyboard-response","34","2.1.0","86329","F=YES, J=NO","otj2109734","2","81","83","80","","","","","","lextale","true","false","","","","","","","",""
"1112","
  <p style=""font-size: 40px;"">pliff</p>
  <p style=""font-size: 16px;"">F = YES &nbsp;&nbsp;&nbsp; J = NO</p>
","j","html-keyboard-response","35","2.1.0","87441","F=YES, J=NO","otj2109734","2","81","83","80","","","","","","lextale","false","false","","","","","","","",""
"951","
  <p style=""font-size: 40px;"">tablet</p>
  <p style=""font-size: 16px;"">F = YES &nbsp;&nbsp;&nbsp; J = NO</p>
","f","html-keyboard-response","36","2.1.0","88392","F=YES, J=NO","otj2109734","2","81","83","80","","","","","","lextale","true","false","","","","","","","",""
"928","
  <p style=""font-size: 40px;"">glimmer</p>
  <p style=""font-size: 16px;"">F = YES &nbsp;&nbsp;&nbsp; J = NO</p>
","f","html-keyboard-response","37","2.1.0","89321","F=YES, J=NO","otj2109734","2","81","83","80","","","","","","lextale","true","false","","","","","","","",""
"2120","
  <p style=""font-size: 40px;"">slink</p>
  <p style=""font-size: 16px;"">F = YES &nbsp;&nbsp;&nbsp; J = NO</p>
","f","html-keyboard-response","38","2.1.0","91441","F=YES, J=NO","otj2109734","2","81","83","80","","","","","","lextale","true","false","","","","","","","",""
"663","
  <p style=""font-size: 40px;"">clever</p>
  <p style=""font-size: 16px;"">F = YES &nbsp;&nbsp;&nbsp; J = NO</p>
","f","html-keyboard-response","39","2.1.0","92105","F=YES, J=NO","otj2109734","2","81","83","80","","","","","","lextale","true","false","","","","","","","",""
"991","
  <p style=""font-size: 40px;"">grum</p>
  <p style=""font-size: 16px;"">F = YES &nbsp;&nbsp;&nbsp; J = NO</p>
","j","html-keyboard-response","40","2.1.0","93096","F=YES, J=NO","otj2109734","2","81","83","80","","","","","","lextale","false","false","","","","","","","",""
"1079","
  <p style=""font-size: 40px;"">string</p>
  <p style=""font-size: 16px;"">F = YES &nbsp;&nbsp;&nbsp; J = NO</p>
","f","html-keyboard-response","41","2.1.0","94176","F=YES, J=NO","otj2109734","2","81","83","80","","","","","","lextale","true","false","","","","","","","",""
"896","
  <p style=""font-size: 40px;"">plim</p>
  <p style=""font-size: 16px;"">F = YES &nbsp;&nbsp;&nbsp; J = NO</p>
","j","html-keyboard-response","42","2.1.0","95073","F=YES, J=NO","otj2109734","2","81","83","80","","","","","","lextale","false","false","","","","","","","",""
"863","
  <p style=""font-size: 40px;"">cable</p>
  <p style=""font-size: 16px;"">F = YES &nbsp;&nbsp;&nbsp; J = NO</p>
","f","html-keyboard-response","43","2.1.0","95937","F=YES, J=NO","otj2109734","2","81","83","80","","","","","","lextale","true","false","","","","","","","",""
"1016","
  <p style=""font-size: 40px;"">shrivel</p>
  <p style=""font-size: 16px;"">F = YES &nbsp;&nbsp;&nbsp; J = NO</p>
","f","html-keyboard-response","44","2.1.0","96953","F=YES, J=NO","otj2109734","2","81","83","80","","","","","","lextale","true","false","","","","","","","",""
"911","
  <p style=""font-size: 40px;"">tarnish</p>
  <p style=""font-size: 16px;"">F = YES &nbsp;&nbsp;&nbsp; J = NO</p>
","f","html-keyboard-response","45","2.1.0","97865","F=YES, J=NO","otj2109734","2","81","83","80","","","","","","lextale","true","false","","","","","","","",""
"1095","
  <p style=""font-size: 40px;"">blim</p>
  <p style=""font-size: 16px;"">F = YES &nbsp;&nbsp;&nbsp; J = NO</p>
","j","html-keyboard-response","46","2.1.0","98961","F=YES, J=NO","otj2109734","2","81","83","80","","","","","","lextale","false","false","","","","","","","",""
"6967","
  <p style=""font-size: 40px;"">stifle</p>
  <p style=""font-size: 16px;"">F = YES &nbsp;&nbsp;&nbsp; J = NO</p>
","j","html-keyboard-response","47","2.1.0","105929","F=YES, J=NO","otj2109734","2","81","83","80","","","","","","lextale","true","false","","","","","","","",""
"879","
  <p style=""font-size: 40px;"">bint</p>
  <p style=""font-size: 16px;"">F = YES &nbsp;&nbsp;&nbsp; J = NO</p>
","j","html-keyboard-response","48","2.1.0","106808","F=YES, J=NO","otj2109734","2","81","83","80","","","","","","lextale","false","false","","","","","","","",""
"800","
  <p style=""font-size: 40px;"">purple</p>
  <p style=""font-size: 16px;"">F = YES &nbsp;&nbsp;&nbsp; J = NO</p>
","f","html-keyboard-response","49","2.1.0","107609","F=YES, J=NO","otj2109734","2","81","83","80","","","","","","lextale","true","false","","","","","","","",""
"1815","
  <p style=""font-size: 40px;"">wriggle</p>
  <p style=""font-size: 16px;"">F = YES &nbsp;&nbsp;&nbsp; J = NO</p>
","f","html-keyboard-response","50","2.1.0","109424","F=YES, J=NO","otj2109734","2","81","83","80","","","","","","lextale","true","false","","","","","","","",""
"2783","
  <p style=""font-size: 40px;"">mangle</p>
  <p style=""font-size: 16px;"">F = YES &nbsp;&nbsp;&nbsp; J = NO</p>
","f","html-keyboard-response","51","2.1.0","112208","F=YES, J=NO","otj2109734","2","81","83","80","","","","","","lextale","true","false","","","","","","","",""
"3056","
  <p style=""font-size: 40px;"">shramp</p>
  <p style=""font-size: 16px;"">F = YES &nbsp;&nbsp;&nbsp; J = NO</p>
","j","html-keyboard-response","52","2.1.0","115265","F=YES, J=NO","otj2109734","2","81","83","80","","","","","","lextale","false","false","","","","","","","",""
"863","
  <p style=""font-size: 40px;"">flirt</p>
  <p style=""font-size: 16px;"">F = YES &nbsp;&nbsp;&nbsp; J = NO</p>
","f","html-keyboard-response","53","2.1.0","116129","F=YES, J=NO","otj2109734","2","81","83","80","","","","","","lextale","true","false","","","","","","","",""
"1423","
  <p style=""font-size: 40px;"">frip</p>
  <p style=""font-size: 16px;"">F = YES &nbsp;&nbsp;&nbsp; J = NO</p>
","j","html-keyboard-response","54","2.1.0","117553","F=YES, J=NO","otj2109734","2","81","83","80","","","","","","lextale","false","false","","","","","","","",""
"855","
  <p style=""font-size: 40px;"">tangle</p>
  <p style=""font-size: 16px;"">F = YES &nbsp;&nbsp;&nbsp; J = NO</p>
","f","html-keyboard-response","55","2.1.0","118408","F=YES, J=NO","otj2109734","2","81","83","80","","","","","","lextale","true","false","","","","","","","",""
"696","
  <p style=""font-size: 40px;"">crumble</p>
  <p style=""font-size: 16px;"">F = YES &nbsp;&nbsp;&nbsp; J = NO</p>
","f","html-keyboard-response","56","2.1.0","119105","F=YES, J=NO","otj2109734","2","81","83","80","","","","","","lextale","true","false","","","","","","","",""
"711","
  <p style=""font-size: 40px;"">wrinkle</p>
  <p style=""font-size: 16px;"">F = YES &nbsp;&nbsp;&nbsp; J = NO</p>
","f","html-keyboard-response","57","2.1.0","119816","F=YES, J=NO","otj2109734","2","81","83","80","","","","","","lextale","true","false","","","","","","","",""
"2136","
  <p style=""font-size: 40px;"">slumb</p>
  <p style=""font-size: 16px;"">F = YES &nbsp;&nbsp;&nbsp; J = NO</p>
","j","html-keyboard-response","58","2.1.0","121953","F=YES, J=NO","otj2109734","2","81","83","80","","","","","","lextale","false","false","","","","","","","",""
"614","
  <p style=""font-size: 40px;"">jungle</p>
  <p style=""font-size: 16px;"">F = YES &nbsp;&nbsp;&nbsp; J = NO</p>
","f","html-keyboard-response","59","2.1.0","122568","F=YES, J=NO","otj2109734","2","81","83","80","","","","","","lextale","true","false","","","","","","","",""
"4152","
  <p style=""font-size: 40px;"">frolick</p>
  <p style=""font-size: 16px;"">F = YES &nbsp;&nbsp;&nbsp; J = NO</p>
","j","html-keyboard-response","60","2.1.0","126721","F=YES, J=NO","otj2109734","2","81","83","80","","","","","","lextale","false","false","","","","","","","",""
"2575","
      <h2>LexTALE Test Completed</h2>
      <p>Your LexTALE vocabulary score is: <strong>81%</strong></p>
      <p>Press any key to continue.</p>
    ","f","html-keyboard-response","61","2.1.0","129297","F=YES, J=NO","otj2109734","2","81","83","80","","","","","","","","","","","","","","","",""
"19927","
    <div style=""max-width: 800px; margin: auto; text-align: left;"">
      <h2>Break Time</h2>
      <p>You have completed the first part of the study.</p>
      <p>You may take a short <strong>30-second break</strong> before continuing.</p>
      <p>When you’re ready, press any key to continue to the final task.</p>
    </div>
  ","f","html-keyboard-response","62","2.1.0","149224","F=YES, J=NO","otj2109734","2","81","83","80","","","","","","","","","","","","","","","",""
"19096","
    <div style=""max-width: 800px; margin: auto; text-align: left;"">
      <h2>Part 2: Lexical Decision Task</h2>
      <p>You will now begin the second part of the study.</p>
      <p>Each trial will follow this sequence:</p>
      <ul>
        <li>A fixation cross (+) appears at the center of the screen.</li>
        <li>You will hear a short beep followed by a spoken word.</li>
        <li>A written word will appear briefly on the screen.</li>
      </ul>
      <p>Your task is to judge whether the <strong>written word</strong> is a real English word.</p>
      <p style=""margin-top: 1em;""><strong>Key responses:</strong></p>
      <ul>
        <li><strong>F</strong> = YES (real English word)</li>
        <li><strong>J</strong> = NO (not a real English word)</li>
      </ul>
      <p>Please respond as quickly and accurately as you can.</p>
      <p style=""margin-top: 2em;"">Press any key to continue.</p>
    </div>
  ","j","html-keyboard-response","63","2.1.0","168320","F=YES, J=NO","otj2109734","2","81","83","80","","","","","","","","","","","","","","","",""
"13647","
    <div style=""max-width: 800px; margin: auto; text-align: left;"">
      <h2>Before You Begin</h2>
      <p>Make sure your sound is turned on.</p>
      <p>You will hear audio during each trial, but your decision should be based only on the <strong>written word</strong> you see on the screen.</p>
      <p><strong>Reminder:</strong></p>
      <ul>
        <li><strong>F</strong> = YES (real English word)</li>
        <li><strong>J</strong> = NO (not a real English word)</li>
      </ul>
      <p style=""margin-top: 2em;"">Press any key when you are ready to begin.</p>
    </div>
  ","f","html-keyboard-response","64","2.1.0","181969","F=YES, J=NO","otj2109734","2","81","83","80","","","","","","","","","","","","","","","",""
"1463","
    <div style=""max-width: 800px; margin: auto; text-align: left;"">
      <h2>Part 2: Practice Trials</h2>
      <p>You will now complete a few <strong>practice trials</strong> to get familiar with the task.</p>
      <p>These trials are <strong>not scored</strong> and are only to help you get used to the format.</p>
      <p style=""margin-top: 2em;"">Press any key to begin.</p>
    </div>
  ","f","html-keyboard-response","65","2.1.0","183432","F=YES, J=NO","otj2109734","2","81","83","80","","","","","","","","","","","","","","","",""
"2063","<p>Starting practice block 1 of 2. Press any key to continue.</p>","f","html-keyboard-response","66","2.1.0","185496","F=YES, J=NO","otj2109734","2","81","83","80","","","","","","","","","","","","","","","",""
"null","<p style=""font-size: 50px;"">+</p>","null","html-keyboard-response","67","2.1.0","185807","F=YES, J=NO","otj2109734","2","81","83","80","","","","","","","","","","","","","","","",""
"null","audio/beep-329314.mp3","null","audio-keyboard-response","68","2.1.0","187355","F=YES, J=NO","otj2109734","2","81","83","80","","","","","","","","","","","","","","","",""
"null","audio/ego.wav","null","audio-keyboard-response","69","2.1.0","188075","F=YES, J=NO","otj2109734","2","81","83","80","","","","","","","","","","","","","","","",""
"null","
          <p id=""word"" style=""font-size: 40px;"">bruite</p>
          <p style=""font-size: 16px;"">F = YES &nbsp;&nbsp;&nbsp; J = NO</p>
        ","null","html-keyboard-response","70","2.1.0","189587","F=YES, J=NO","otj2109734","2","81","83","80","","","","","","","","","bruite","ego","pseudoword","pseudoword","j","false","",""
"null","<p style=""font-size: 50px;"">+</p>","null","html-keyboard-response","71","2.1.0","189900","F=YES, J=NO","otj2109734","2","81","83","80","","","","","","","","","","","","","","","",""
"null","audio/beep-329314.mp3","null","audio-keyboard-response","72","2.1.0","191435","F=YES, J=NO","otj2109734","2","81","83","80","","","","","","","","","","","","","","","",""
"null","audio/fence.wav","null","audio-keyboard-response","73","2.1.0","192134","F=YES, J=NO","otj2109734","2","81","83","80","","","","","","","","","","","","","","","",""
"585","
          <p id=""word"" style=""font-size: 40px;"">trim</p>
          <p style=""font-size: 16px;"">F = YES &nbsp;&nbsp;&nbsp; J = NO</p>
        ","j","html-keyboard-response","74","2.1.0","192720","F=YES, J=NO","otj2109734","2","81","83","80","","","","","","","","","trim","fence","filler","filler","f","false","",""
"null","<p style=""font-size: 50px;"">+</p>","null","html-keyboard-response","75","2.1.0","193023","F=YES, J=NO","otj2109734","2","81","83","80","","","","","","","","","","","","","","","",""
"null","audio/beep-329314.mp3","null","audio-keyboard-response","76","2.1.0","194555","F=YES, J=NO","otj2109734","2","81","83","80","","","","","","","","","","","","","","","",""
"null","audio/trout1.wav","null","audio-keyboard-response","77","2.1.0","195195","F=YES, J=NO","otj2109734","2","81","83","80","","","","","","","","","","","","","","","",""
"621","
          <p id=""word"" style=""font-size: 40px;"">spimt</p>
          <p style=""font-size: 16px;"">F = YES &nbsp;&nbsp;&nbsp; J = NO</p>
        ","j","html-keyboard-response","78","2.1.0","195816","F=YES, J=NO","otj2109734","2","81","83","80","","","","","","","","","spimt","trout1","pseudoword","pseudoword","j","true","",""
"null","<p style=""font-size: 50px;"">+</p>","null","html-keyboard-response","79","2.1.0","196125","F=YES, J=NO","otj2109734","2","81","83","80","","","","","","","","","","","","","","","",""
"null","audio/beep-329314.mp3","null","audio-keyboard-response","80","2.1.0","197655","F=YES, J=NO","otj2109734","2","81","83","80","","","","","","","","","","","","","","","",""
"null","audio/ankle1.wav","null","audio-keyboard-response","81","2.1.0","198175","F=YES, J=NO","otj2109734","2","81","83","80","","","","","","","","","","","","","","","",""
"552","
          <p id=""word"" style=""font-size: 40px;"">switm</p>
          <p style=""font-size: 16px;"">F = YES &nbsp;&nbsp;&nbsp; J = NO</p>
        ","j","html-keyboard-response","82","2.1.0","198728","F=YES, J=NO","otj2109734","2","81","83","80","","","","","","","","","switm","ankle1","pseudoword","pseudoword","j","true","",""
"null","<p style=""font-size: 50px;"">+</p>","null","html-keyboard-response","83","2.1.0","199033","F=YES, J=NO","otj2109734","2","81","83","80","","","","","","","","","","","","","","","",""
"null","audio/beep-329314.mp3","null","audio-keyboard-response","84","2.1.0","200555","F=YES, J=NO","otj2109734","2","81","83","80","","","","","","","","","","","","","","","",""
"null","audio/empire.wav","null","audio-keyboard-response","85","2.1.0","201275","F=YES, J=NO","otj2109734","2","81","83","80","","","","","","","","","","","","","","","",""
"469","
          <p id=""word"" style=""font-size: 40px;"">slorby</p>
          <p style=""font-size: 16px;"">F = YES &nbsp;&nbsp;&nbsp; J = NO</p>
        ","j","html-keyboard-response","86","2.1.0","201744","F=YES, J=NO","otj2109734","2","81","83","80","","","","","","","","","slorby","empire","pseudoword","pseudoword","j","true","",""
"null","<p style=""font-size: 50px;"">+</p>","null","html-keyboard-response","87","2.1.0","202051","F=YES, J=NO","otj2109734","2","81","83","80","","","","","","","","","","","","","","","",""
"null","audio/beep-329314.mp3","null","audio-keyboard-response","88","2.1.0","203575","F=YES, J=NO","otj2109734","2","81","83","80","","","","","","","","","","","","","","","",""
"null","audio/voice.wav","null","audio-keyboard-response","89","2.1.0","204315","F=YES, J=NO","otj2109734","2","81","83","80","","","","","","","","","","","","","","","",""
"589","
          <p id=""word"" style=""font-size: 40px;"">grintle</p>
          <p style=""font-size: 16px;"">F = YES &nbsp;&nbsp;&nbsp; J = NO</p>
        ","j","html-keyboard-response","90","2.1.0","204904","F=YES, J=NO","otj2109734","2","81","83","80","","","","","","","","","grintle","voice","pseudoword","pseudoword","j","true","",""
"null","<p style=""font-size: 50px;"">+</p>","null","html-keyboard-response","91","2.1.0","205216","F=YES, J=NO","otj2109734","2","81","83","80","","","","","","","","","","","","","","","",""
"null","audio/beep-329314.mp3","null","audio-keyboard-response","92","2.1.0","206755","F=YES, J=NO","otj2109734","2","81","83","80","","","","","","","","","","","","","","","",""
"null","audio/window1.wav","null","audio-keyboard-response","93","2.1.0","207435","F=YES, J=NO","otj2109734","2","81","83","80","","","","","","","","","","","","","","","",""
"437","
          <p id=""word"" style=""font-size: 40px;"">toss</p>
          <p style=""font-size: 16px;"">F = YES &nbsp;&nbsp;&nbsp; J = NO</p>
        ","j","html-keyboard-response","94","2.1.0","207872","F=YES, J=NO","otj2109734","2","81","83","80","","","","","","","","","toss","window1","filler","filler","f","false","",""
"null","<p style=""font-size: 50px;"">+</p>","null","html-keyboard-response","95","2.1.0","208183","F=YES, J=NO","otj2109734","2","81","83","80","","","","","","","","","","","","","","","",""
"null","audio/beep-329314.mp3","null","audio-keyboard-response","96","2.1.0","209715","F=YES, J=NO","otj2109734","2","81","83","80","","","","","","","","","","","","","","","",""
"null","audio/mile1.wav","null","audio-keyboard-response","97","2.1.0","210295","F=YES, J=NO","otj2109734","2","81","83","80","","","","","","","","","","","","","","","",""
"680","
          <p id=""word"" style=""font-size: 40px;"">writch</p>
          <p style=""font-size: 16px;"">F = YES &nbsp;&nbsp;&nbsp; J = NO</p>
        ","j","html-keyboard-response","98","2.1.0","210976","F=YES, J=NO","otj2109734","2","81","83","80","","","","","","","","","writch","mile1","pseudoword","pseudoword","j","true","",""
"null","<p style=""font-size: 50px;"">+</p>","null","html-keyboard-response","99","2.1.0","211292","F=YES, J=NO","otj2109734","2","81","83","80","","","","","","","","","","","","","","","",""
"null","audio/beep-329314.mp3","null","audio-keyboard-response","100","2.1.0","212815","F=YES, J=NO","otj2109734","2","81","83","80","","","","","","","","","","","","","","","",""
"null","audio/bomb1.wav","null","audio-keyboard-response","101","2.1.0","213195","F=YES, J=NO","otj2109734","2","81","83","80","","","","","","","","","","","","","","","",""
"596","
          <p id=""word"" style=""font-size: 40px;"">clean</p>
          <p style=""font-size: 16px;"">F = YES &nbsp;&nbsp;&nbsp; J = NO</p>
        ","f","html-keyboard-response","102","2.1.0","213792","F=YES, J=NO","otj2109734","2","81","83","80","","","","","","","","","clean","bomb1","filler","filler","f","true","",""
"null","<p style=""font-size: 50px;"">+</p>","null","html-keyboard-response","103","2.1.0","214100","F=YES, J=NO","otj2109734","2","81","83","80","","","","","","","","","","","","","","","",""
"null","audio/beep-329314.mp3","null","audio-keyboard-response","104","2.1.0","215634","F=YES, J=NO","otj2109734","2","81","83","80","","","","","","","","","","","","","","","",""
"null","audio/arm.wav","null","audio-keyboard-response","105","2.1.0","216234","F=YES, J=NO","otj2109734","2","81","83","80","","","","","","","","","","","","","","","",""
"581","
          <p id=""word"" style=""font-size: 40px;"">fold</p>
          <p style=""font-size: 16px;"">F = YES &nbsp;&nbsp;&nbsp; J = NO</p>
        ","f","html-keyboard-response","106","2.1.0","216816","F=YES, J=NO","otj2109734","2","81","83","80","","","","","","","","","fold","arm","filler","filler","f","true","",""
"null","<p style=""font-size: 50px;"">+</p>","null","html-keyboard-response","107","2.1.0","217120","F=YES, J=NO","otj2109734","2","81","83","80","","","","","","","","","","","","","","","",""
"null","audio/beep-329314.mp3","null","audio-keyboard-response","108","2.1.0","218655","F=YES, J=NO","otj2109734","2","81","83","80","","","","","","","","","","","","","","","",""
"null","audio/tunnel.wav","null","audio-keyboard-response","109","2.1.0","219074","F=YES, J=NO","otj2109734","2","81","83","80","","","","","","","","","","","","","","","",""
"580","
          <p id=""word"" style=""font-size: 40px;"">gred</p>
          <p style=""font-size: 16px;"">F = YES &nbsp;&nbsp;&nbsp; J = NO</p>
        ","j","html-keyboard-response","110","2.1.0","219656","F=YES, J=NO","otj2109734","2","81","83","80","","","","","","","","","gred","tunnel","pseudoword","pseudoword","j","true","",""
"null","<p style=""font-size: 50px;"">+</p>","null","html-keyboard-response","111","2.1.0","219962","F=YES, J=NO","otj2109734","2","81","83","80","","","","","","","","","","","","","","","",""
"null","audio/beep-329314.mp3","null","audio-keyboard-response","112","2.1.0","221495","F=YES, J=NO","otj2109734","2","81","83","80","","","","","","","","","","","","","","","",""
"null","audio/account1.wav","null","audio-keyboard-response","113","2.1.0","222255","F=YES, J=NO","otj2109734","2","81","83","80","","","","","","","","","","","","","","","",""
"512","
          <p id=""word"" style=""font-size: 40px;"">paint</p>
          <p style=""font-size: 16px;"">F = YES &nbsp;&nbsp;&nbsp; J = NO</p>
        ","f","html-keyboard-response","114","2.1.0","222768","F=YES, J=NO","otj2109734","2","81","83","80","","","","","","","","","paint","account1","filler","filler","f","true","",""
"1871","<p>Starting practice block 2 of 2. Press any key to continue.</p>","f","html-keyboard-response","115","2.1.0","224639","F=YES, J=NO","otj2109734","2","81","83","80","","","","","","","","","","","","","","","",""
"null","<p style=""font-size: 50px;"">+</p>","null","html-keyboard-response","116","2.1.0","224945","F=YES, J=NO","otj2109734","2","81","83","80","","","","","","","","","","","","","","","",""
"null","audio/beep-329314.mp3","null","audio-keyboard-response","117","2.1.0","226475","F=YES, J=NO","otj2109734","2","81","83","80","","","","","","","","","","","","","","","",""
"null","audio/alarm1.wav","null","audio-keyboard-response","118","2.1.0","227056","F=YES, J=NO","otj2109734","2","81","83","80","","","","","","","","","","","","","","","",""
"472","
          <p id=""word"" style=""font-size: 40px;"">swetp</p>
          <p style=""font-size: 16px;"">F = YES &nbsp;&nbsp;&nbsp; J = NO</p>
        ","j","html-keyboard-response","119","2.1.0","227528","F=YES, J=NO","otj2109734","2","81","83","80","","","","","","","","","swetp","alarm1","pseudoword","pseudoword","j","true","",""
"null","<p style=""font-size: 50px;"">+</p>","null","html-keyboard-response","120","2.1.0","227839","F=YES, J=NO","otj2109734","2","81","83","80","","","","","","","","","","","","","","","",""
"null","audio/beep-329314.mp3","null","audio-keyboard-response","121","2.1.0","229375","F=YES, J=NO","otj2109734","2","81","83","80","","","","","","","","","","","","","","","",""
"null","audio/terrain.wav","null","audio-keyboard-response","122","2.1.0","230175","F=YES, J=NO","otj2109734","2","81","83","80","","","","","","","","","","","","","","","",""
"624","
          <p id=""word"" style=""font-size: 40px;"">twist</p>
          <p style=""font-size: 16px;"">F = YES &nbsp;&nbsp;&nbsp; J = NO</p>
        ","f","html-keyboard-response","123","2.1.0","230800","F=YES, J=NO","otj2109734","2","81","83","80","","","","","","","","","twist","terrain","filler","filler","f","true","",""
"null","<p style=""font-size: 50px;"">+</p>","null","html-keyboard-response","124","2.1.0","231104","F=YES, J=NO","otj2109734","2","81","83","80","","","","","","","","","","","","","","","",""
"null","audio/beep-329314.mp3","null","audio-keyboard-response","125","2.1.0","232635","F=YES, J=NO","otj2109734","2","81","83","80","","","","","","","","","","","","","","","",""
"null","audio/novel.wav","null","audio-keyboard-response","126","2.1.0","233194","F=YES, J=NO","otj2109734","2","81","83","80","","","","","","","","","","","","","","","",""
"509","
          <p id=""word"" style=""font-size: 40px;"">type</p>
          <p style=""font-size: 16px;"">F = YES &nbsp;&nbsp;&nbsp; J = NO</p>
        ","f","html-keyboard-response","127","2.1.0","233704","F=YES, J=NO","otj2109734","2","81","83","80","","","","","","","","","type","novel","filler","filler","f","true","",""
"null","<p style=""font-size: 50px;"">+</p>","null","html-keyboard-response","128","2.1.0","234006","F=YES, J=NO","otj2109734","2","81","83","80","","","","","","","","","","","","","","","",""
"null","audio/beep-329314.mp3","null","audio-keyboard-response","129","2.1.0","235534","F=YES, J=NO","otj2109734","2","81","83","80","","","","","","","","","","","","","","","",""
"null","audio/kettle1.wav","null","audio-keyboard-response","130","2.1.0","235994","F=YES, J=NO","otj2109734","2","81","83","80","","","","","","","","","","","","","","","",""
"565","
          <p id=""word"" style=""font-size: 40px;"">wrap</p>
          <p style=""font-size: 16px;"">F = YES &nbsp;&nbsp;&nbsp; J = NO</p>
        ","f","html-keyboard-response","131","2.1.0","236560","F=YES, J=NO","otj2109734","2","81","83","80","","","","","","","","","wrap","kettle1","filler","filler","f","true","",""
"null","<p style=""font-size: 50px;"">+</p>","null","html-keyboard-response","132","2.1.0","236862","F=YES, J=NO","otj2109734","2","81","83","80","","","","","","","","","","","","","","","",""
"null","audio/beep-329314.mp3","null","audio-keyboard-response","133","2.1.0","238395","F=YES, J=NO","otj2109734","2","81","83","80","","","","","","","","","","","","","","","",""
"null","audio/camera1.wav","null","audio-keyboard-response","134","2.1.0","238975","F=YES, J=NO","otj2109734","2","81","83","80","","","","","","","","","","","","","","","",""
"680","
          <p id=""word"" style=""font-size: 40px;"">stir</p>
          <p style=""font-size: 16px;"">F = YES &nbsp;&nbsp;&nbsp; J = NO</p>
        ","j","html-keyboard-response","135","2.1.0","239656","F=YES, J=NO","otj2109734","2","81","83","80","","","","","","","","","stir","camera1","filler","filler","f","false","",""
"null","<p style=""font-size: 50px;"">+</p>","null","html-keyboard-response","136","2.1.0","239958","F=YES, J=NO","otj2109734","2","81","83","80","","","","","","","","","","","","","","","",""
"null","audio/beep-329314.mp3","null","audio-keyboard-response","137","2.1.0","241494","F=YES, J=NO","otj2109734","2","81","83","80","","","","","","","","","","","","","","","",""
"null","audio/van1.wav","null","audio-keyboard-response","138","2.1.0","242035","F=YES, J=NO","otj2109734","2","81","83","80","","","","","","","","","","","","","","","",""
"564","
          <p id=""word"" style=""font-size: 40px;"">push</p>
          <p style=""font-size: 16px;"">F = YES &nbsp;&nbsp;&nbsp; J = NO</p>
        ","f","html-keyboard-response","139","2.1.0","242600","F=YES, J=NO","otj2109734","2","81","83","80","","","","","","","","","push","van1","filler","filler","f","true","",""
"null","<p style=""font-size: 50px;"">+</p>","null","html-keyboard-response","140","2.1.0","242901","F=YES, J=NO","otj2109734","2","81","83","80","","","","","","","","","","","","","","","",""
"null","audio/beep-329314.mp3","null","audio-keyboard-response","141","2.1.0","244434","F=YES, J=NO","otj2109734","2","81","83","80","","","","","","","","","","","","","","","",""
"null","audio/neck.wav","null","audio-keyboard-response","142","2.1.0","244975","F=YES, J=NO","otj2109734","2","81","83","80","","","","","","","","","","","","","","","",""
"719","
          <p id=""word"" style=""font-size: 40px;"">werling</p>
          <p style=""font-size: 16px;"">F = YES &nbsp;&nbsp;&nbsp; J = NO</p>
        ","j","html-keyboard-response","143","2.1.0","245695","F=YES, J=NO","otj2109734","2","81","83","80","","","","","","","","","werling","neck","pseudoword","pseudoword","j","true","",""
"null","<p style=""font-size: 50px;"">+</p>","null","html-keyboard-response","144","2.1.0","246003","F=YES, J=NO","otj2109734","2","81","83","80","","","","","","","","","","","","","","","",""
"null","audio/beep-329314.mp3","null","audio-keyboard-response","145","2.1.0","247534","F=YES, J=NO","otj2109734","2","81","83","80","","","","","","","","","","","","","","","",""
"null","audio/baby.wav","null","audio-keyboard-response","146","2.1.0","248075","F=YES, J=NO","otj2109734","2","81","83","80","","","","","","","","","","","","","","","",""
"524","
          <p id=""word"" style=""font-size: 40px;"">lift</p>
          <p style=""font-size: 16px;"">F = YES &nbsp;&nbsp;&nbsp; J = NO</p>
        ","f","html-keyboard-response","147","2.1.0","248600","F=YES, J=NO","otj2109734","2","81","83","80","","","","","","","","","lift","baby","filler","filler","f","true","",""
"null","<p style=""font-size: 50px;"">+</p>","null","html-keyboard-response","148","2.1.0","248904","F=YES, J=NO","otj2109734","2","81","83","80","","","","","","","","","","","","","","","",""
"null","audio/beep-329314.mp3","null","audio-keyboard-response","149","2.1.0","250435","F=YES, J=NO","otj2109734","2","81","83","80","","","","","","","","","","","","","","","",""
"null","audio/radio1.wav","null","audio-keyboard-response","150","2.1.0","251074","F=YES, J=NO","otj2109734","2","81","83","80","","","","","","","","","","","","","","","",""
"781","
          <p id=""word"" style=""font-size: 40px;"">blanter</p>
          <p style=""font-size: 16px;"">F = YES &nbsp;&nbsp;&nbsp; J = NO</p>
        ","j","html-keyboard-response","151","2.1.0","251856","F=YES, J=NO","otj2109734","2","81","83","80","","","","","","","","","blanter","radio1","pseudoword","pseudoword","j","true","",""
"null","<p style=""font-size: 50px;"">+</p>","null","html-keyboard-response","152","2.1.0","252160","F=YES, J=NO","otj2109734","2","81","83","80","","","","","","","","","","","","","","","",""
"null","audio/beep-329314.mp3","null","audio-keyboard-response","153","2.1.0","253695","F=YES, J=NO","otj2109734","2","81","83","80","","","","","","","","","","","","","","","",""
"null","audio/show.wav","null","audio-keyboard-response","154","2.1.0","254295","F=YES, J=NO","otj2109734","2","81","83","80","","","","","","","","","","","","","","","",""
"696","
          <p id=""word"" style=""font-size: 40px;"">smark</p>
          <p style=""font-size: 16px;"">F = YES &nbsp;&nbsp;&nbsp; J = NO</p>
        ","j","html-keyboard-response","155","2.1.0","254992","F=YES, J=NO","otj2109734","2","81","83","80","","","","","","","","","smark","show","pseudoword","pseudoword","j","true","",""
"null","<p style=""font-size: 50px;"">+</p>","null","html-keyboard-response","156","2.1.0","255305","F=YES, J=NO","otj2109734","2","81","83","80","","","","","","","","","","","","","","","",""
"null","audio/beep-329314.mp3","null","audio-keyboard-response","157","2.1.0","256835","F=YES, J=NO","otj2109734","2","81","83","80","","","","","","","","","","","","","","","",""
"null","audio/battle1.wav","null","audio-keyboard-response","158","2.1.0","257434","F=YES, J=NO","otj2109734","2","81","83","80","","","","","","","","","","","","","","","",""
"509","
          <p id=""word"" style=""font-size: 40px;"">boil</p>
          <p style=""font-size: 16px;"">F = YES &nbsp;&nbsp;&nbsp; J = NO</p>
        ","f","html-keyboard-response","159","2.1.0","257944","F=YES, J=NO","otj2109734","2","81","83","80","","","","","","","","","boil","battle1","filler","filler","f","true","",""
"null","<p style=""font-size: 50px;"">+</p>","null","html-keyboard-response","160","2.1.0","258258","F=YES, J=NO","otj2109734","2","81","83","80","","","","","","","","","","","","","","","",""
"null","audio/beep-329314.mp3","null","audio-keyboard-response","161","2.1.0","259795","F=YES, J=NO","otj2109734","2","81","83","80","","","","","","","","","","","","","","","",""
"null","audio/cloud1.wav","null","audio-keyboard-response","162","2.1.0","260435","F=YES, J=NO","otj2109734","2","81","83","80","","","","","","","","","","","","","","","",""
"676","
          <p id=""word"" style=""font-size: 40px;"">brotant</p>
          <p style=""font-size: 16px;"">F = YES &nbsp;&nbsp;&nbsp; J = NO</p>
        ","j","html-keyboard-response","163","2.1.0","261112","F=YES, J=NO","otj2109734","2","81","83","80","","","","","","","","","brotant","cloud1","pseudoword","pseudoword","j","true","",""
"5311","
    <div style=""max-width: 800px; margin: auto; text-align: left;"">
      <h2>Part 2: Main Trials</h2>
      <p>Great job on the practice trials!</p>
      <p>You will now begin the <strong>main set of trials</strong>.</p>
      <p>Remember your key assignments:</p>
      <ul>
        <li><strong>F</strong> = YES (real English word)</li>
        <li><strong>J</strong> = NO (not a real English word)</li>
      </ul>
      <p>Try to respond as <strong>quickly and accurately</strong> as possible.</p>
      <p style=""margin-top: 2em;"">Press any key to begin the main trials.</p>
    </div>
  ","f","html-keyboard-response","164","2.1.0","266424","F=YES, J=NO","otj2109734","2","81","83","80","","","","","","","","","","","","","","","",""
"1103","<p>Starting main block 1 of 8. Press any key to continue.</p>","f","html-keyboard-response","165","2.1.0","267528","F=YES, J=NO","otj2109734","2","81","83","80","","","","","","","","","","","","","","","",""
"null","<p style=""font-size: 50px;"">+</p>","null","html-keyboard-response","166","2.1.0","267832","F=YES, J=NO","otj2109734","2","81","83","80","","","","","","","","","","","","","","","",""
"null","audio/beep-329314.mp3","null","audio-keyboard-response","167","2.1.0","269354","F=YES, J=NO","otj2109734","2","81","83","80","","","","","","","","","","","","","","","",""
"null","audio/stain.wav","null","audio-keyboard-response","168","2.1.0","270055","F=YES, J=NO","otj2109734","2","81","83","80","","","","","","","","","","","","","","","",""
"576","
          <p id=""word"" style=""font-size: 40px;"">rumpsied</p>
          <p style=""font-size: 16px;"">F = YES &nbsp;&nbsp;&nbsp; J = NO</p>
        ","j","html-keyboard-response","169","2.1.0","270632","F=YES, J=NO","otj2109734","2","81","83","80","","","","","","","","","rumpsied","stain","pseudoword","pseudoword","j","true","",""
"null","<p style=""font-size: 50px;"">+</p>","null","html-keyboard-response","170","2.1.0","270936","F=YES, J=NO","otj2109734","2","81","83","80","","","","","","","","","","","","","","","",""
"null","audio/beep-329314.mp3","null","audio-keyboard-response","171","2.1.0","272474","F=YES, J=NO","otj2109734","2","81","83","80","","","","","","","","","","","","","","","",""
"null","audio/handle.wav","null","audio-keyboard-response","172","2.1.0","273115","F=YES, J=NO","otj2109734","2","81","83","80","","","","","","","","","","","","","","","",""
"540","
          <p id=""word"" style=""font-size: 40px;"">moutes</p>
          <p style=""font-size: 16px;"">F = YES &nbsp;&nbsp;&nbsp; J = NO</p>
        ","j","html-keyboard-response","173","2.1.0","273656","F=YES, J=NO","otj2109734","2","81","83","80","","","","","","","","","moutes","handle","pseudoword","pseudoword","j","true","",""
"null","<p style=""font-size: 50px;"">+</p>","null","html-keyboard-response","174","2.1.0","273967","F=YES, J=NO","otj2109734","2","81","83","80","","","","","","","","","","","","","","","",""
"null","audio/beep-329314.mp3","null","audio-keyboard-response","175","2.1.0","275495","F=YES, J=NO","otj2109734","2","81","83","80","","","","","","","","","","","","","","","",""
"null","audio/birth1.wav","null","audio-keyboard-response","176","2.1.0","276094","F=YES, J=NO","otj2109734","2","81","83","80","","","","","","","","","","","","","","","",""
"601","
          <p id=""word"" style=""font-size: 40px;"">peel</p>
          <p style=""font-size: 16px;"">F = YES &nbsp;&nbsp;&nbsp; J = NO</p>
        ","f","html-keyboard-response","177","2.1.0","276696","F=YES, J=NO","otj2109734","2","81","83","80","","","","","","","","","peel","birth1","filler","filler","f","true","",""
"null","<p style=""font-size: 50px;"">+</p>","null","html-keyboard-response","178","2.1.0","277007","F=YES, J=NO","otj2109734","2","81","83","80","","","","","","","","","","","","","","","",""
"null","audio/beep-329314.mp3","null","audio-keyboard-response","179","2.1.0","278535","F=YES, J=NO","otj2109734","2","81","83","80","","","","","","","","","","","","","","","",""
"null","audio/show.wav","null","audio-keyboard-response","180","2.1.0","279074","F=YES, J=NO","otj2109734","2","81","83","80","","","","","","","","","","","","","","","",""
"533","
          <p id=""word"" style=""font-size: 40px;"">hold</p>
          <p style=""font-size: 16px;"">F = YES &nbsp;&nbsp;&nbsp; J = NO</p>
        ","f","html-keyboard-response","181","2.1.0","279607","F=YES, J=NO","otj2109734","2","81","83","80","","","","","","","","","hold","show","metaphor","experimental","f","true","",""
"null","<p style=""font-size: 50px;"">+</p>","null","html-keyboard-response","182","2.1.0","279910","F=YES, J=NO","otj2109734","2","81","83","80","","","","","","","","","","","","","","","",""
"null","audio/beep-329314.mp3","null","audio-keyboard-response","183","2.1.0","281435","F=YES, J=NO","otj2109734","2","81","83","80","","","","","","","","","","","","","","","",""
"null","audio/life1.wav","null","audio-keyboard-response","184","2.1.0","282055","F=YES, J=NO","otj2109734","2","81","83","80","","","","","","","","","","","","","","","",""
"489","
          <p id=""word"" style=""font-size: 40px;"">give</p>
          <p style=""font-size: 16px;"">F = YES &nbsp;&nbsp;&nbsp; J = NO</p>
        ","f","html-keyboard-response","185","2.1.0","282544","F=YES, J=NO","otj2109734","2","81","83","80","","","","","","","","","give","life1","metaphor","experimental","f","true","",""
"null","<p style=""font-size: 50px;"">+</p>","null","html-keyboard-response","186","2.1.0","282854","F=YES, J=NO","otj2109734","2","81","83","80","","","","","","","","","","","","","","","",""
"null","audio/beep-329314.mp3","null","audio-keyboard-response","187","2.1.0","284394","F=YES, J=NO","otj2109734","2","81","83","80","","","","","","","","","","","","","","","",""
"null","audio/sugar1.wav","null","audio-keyboard-response","188","2.1.0","284935","F=YES, J=NO","otj2109734","2","81","83","80","","","","","","","","","","","","","","","",""
"616","
          <p id=""word"" style=""font-size: 40px;"">glung</p>
          <p style=""font-size: 16px;"">F = YES &nbsp;&nbsp;&nbsp; J = NO</p>
        ","j","html-keyboard-response","189","2.1.0","285552","F=YES, J=NO","otj2109734","2","81","83","80","","","","","","","","","glung","sugar1","pseudoword","pseudoword","j","true","",""
"null","<p style=""font-size: 50px;"">+</p>","null","html-keyboard-response","190","2.1.0","285863","F=YES, J=NO","otj2109734","2","81","83","80","","","","","","","","","","","","","","","",""
"null","audio/beep-329314.mp3","null","audio-keyboard-response","191","2.1.0","287395","F=YES, J=NO","otj2109734","2","81","83","80","","","","","","","","","","","","","","","",""
"null","audio/dollar.wav","null","audio-keyboard-response","192","2.1.0","287774","F=YES, J=NO","otj2109734","2","81","83","80","","","","","","","","","","","","","","","",""
"577","
          <p id=""word"" style=""font-size: 40px;"">gliptism</p>
          <p style=""font-size: 16px;"">F = YES &nbsp;&nbsp;&nbsp; J = NO</p>
        ","j","html-keyboard-response","193","2.1.0","288352","F=YES, J=NO","otj2109734","2","81","83","80","","","","","","","","","gliptism","dollar","pseudoword","pseudoword","j","true","",""
"null","<p style=""font-size: 50px;"">+</p>","null","html-keyboard-response","194","2.1.0","288653","F=YES, J=NO","otj2109734","2","81","83","80","","","","","","","","","","","","","","","",""
"null","audio/beep-329314.mp3","null","audio-keyboard-response","195","2.1.0","290194","F=YES, J=NO","otj2109734","2","81","83","80","","","","","","","","","","","","","","","",""
"null","audio/mind.wav","null","audio-keyboard-response","196","2.1.0","290755","F=YES, J=NO","otj2109734","2","81","83","80","","","","","","","","","","","","","","","",""
"555","
          <p id=""word"" style=""font-size: 40px;"">crainate</p>
          <p style=""font-size: 16px;"">F = YES &nbsp;&nbsp;&nbsp; J = NO</p>
        ","j","html-keyboard-response","197","2.1.0","291311","F=YES, J=NO","otj2109734","2","81","83","80","","","","","","","","","crainate","mind","pseudoword","pseudoword","j","true","",""
"null","<p style=""font-size: 50px;"">+</p>","null","html-keyboard-response","198","2.1.0","291623","F=YES, J=NO","otj2109734","2","81","83","80","","","","","","","","","","","","","","","",""
"null","audio/beep-329314.mp3","null","audio-keyboard-response","199","2.1.0","293155","F=YES, J=NO","otj2109734","2","81","83","80","","","","","","","","","","","","","","","",""
"null","audio/planet1.wav","null","audio-keyboard-response","200","2.1.0","293734","F=YES, J=NO","otj2109734","2","81","83","80","","","","","","","","","","","","","","","",""
"713","
          <p id=""word"" style=""font-size: 40px;"">cratched</p>
          <p style=""font-size: 16px;"">F = YES &nbsp;&nbsp;&nbsp; J = NO</p>
        ","f","html-keyboard-response","201","2.1.0","294448","F=YES, J=NO","otj2109734","2","81","83","80","","","","","","","","","cratched","planet1","pseudoword","pseudoword","j","false","",""
"null","<p style=""font-size: 50px;"">+</p>","null","html-keyboard-response","202","2.1.0","294762","F=YES, J=NO","otj2109734","2","81","83","80","","","","","","","","","","","","","","","",""
"null","audio/beep-329314.mp3","null","audio-keyboard-response","203","2.1.0","296294","F=YES, J=NO","otj2109734","2","81","83","80","","","","","","","","","","","","","","","",""
"null","audio/pattern.wav","null","audio-keyboard-response","204","2.1.0","296955","F=YES, J=NO","otj2109734","2","81","83","80","","","","","","","","","","","","","","","",""
"539","
          <p id=""word"" style=""font-size: 40px;"">defeat</p>
          <p style=""font-size: 16px;"">F = YES &nbsp;&nbsp;&nbsp; J = NO</p>
        ","f","html-keyboard-response","205","2.1.0","297495","F=YES, J=NO","otj2109734","2","81","83","80","","","","","","","","","defeat","pattern","unrelated","experimental","f","true","",""
"null","<p style=""font-size: 50px;"">+</p>","null","html-keyboard-response","206","2.1.0","297805","F=YES, J=NO","otj2109734","2","81","83","80","","","","","","","","","","","","","","","",""
"null","audio/beep-329314.mp3","null","audio-keyboard-response","207","2.1.0","299334","F=YES, J=NO","otj2109734","2","81","83","80","","","","","","","","","","","","","","","",""
"null","audio/arm.wav","null","audio-keyboard-response","208","2.1.0","299874","F=YES, J=NO","otj2109734","2","81","83","80","","","","","","","","","","","","","","","",""
"580","
          <p id=""word"" style=""font-size: 40px;"">pigne</p>
          <p style=""font-size: 16px;"">F = YES &nbsp;&nbsp;&nbsp; J = NO</p>
        ","j","html-keyboard-response","209","2.1.0","300455","F=YES, J=NO","otj2109734","2","81","83","80","","","","","","","","","pigne","arm","pseudoword","pseudoword","j","true","",""
"null","<p style=""font-size: 50px;"">+</p>","null","html-keyboard-response","210","2.1.0","300767","F=YES, J=NO","otj2109734","2","81","83","80","","","","","","","","","","","","","","","",""
"null","audio/beep-329314.mp3","null","audio-keyboard-response","211","2.1.0","302294","F=YES, J=NO","otj2109734","2","81","83","80","","","","","","","","","","","","","","","",""
"null","audio/wool1.wav","null","audio-keyboard-response","212","2.1.0","302654","F=YES, J=NO","otj2109734","2","81","83","80","","","","","","","","","","","","","","","",""
"520","
          <p id=""word"" style=""font-size: 40px;"">weave</p>
          <p style=""font-size: 16px;"">F = YES &nbsp;&nbsp;&nbsp; J = NO</p>
        ","f","html-keyboard-response","213","2.1.0","303175","F=YES, J=NO","otj2109734","2","81","83","80","","","","","","","","","weave","wool1","literal","experimental","f","true","",""
"null","<p style=""font-size: 50px;"">+</p>","null","html-keyboard-response","214","2.1.0","303480","F=YES, J=NO","otj2109734","2","81","83","80","","","","","","","","","","","","","","","",""
"null","audio/beep-329314.mp3","null","audio-keyboard-response","215","2.1.0","305014","F=YES, J=NO","otj2109734","2","81","83","80","","","","","","","","","","","","","","","",""
"null","audio/emotion.wav","null","audio-keyboard-response","216","2.1.0","305655","F=YES, J=NO","otj2109734","2","81","83","80","","","","","","","","","","","","","","","",""
"624","
          <p id=""word"" style=""font-size: 40px;"">devering</p>
          <p style=""font-size: 16px;"">F = YES &nbsp;&nbsp;&nbsp; J = NO</p>
        ","j","html-keyboard-response","217","2.1.0","306280","F=YES, J=NO","otj2109734","2","81","83","80","","","","","","","","","devering","emotion","pseudoword","pseudoword","j","true","",""
"null","<p style=""font-size: 50px;"">+</p>","null","html-keyboard-response","218","2.1.0","306593","F=YES, J=NO","otj2109734","2","81","83","80","","","","","","","","","","","","","","","",""
"null","audio/beep-329314.mp3","null","audio-keyboard-response","219","2.1.0","308115","F=YES, J=NO","otj2109734","2","81","83","80","","","","","","","","","","","","","","","",""
"null","audio/goal.wav","null","audio-keyboard-response","220","2.1.0","308514","F=YES, J=NO","otj2109734","2","81","83","80","","","","","","","","","","","","","","","",""
"508","
          <p id=""word"" style=""font-size: 40px;"">support</p>
          <p style=""font-size: 16px;"">F = YES &nbsp;&nbsp;&nbsp; J = NO</p>
        ","f","html-keyboard-response","221","2.1.0","309023","F=YES, J=NO","otj2109734","2","81","83","80","","","","","","","","","support","goal","metaphor","experimental","f","true","",""
"null","<p style=""font-size: 50px;"">+</p>","null","html-keyboard-response","222","2.1.0","309326","F=YES, J=NO","otj2109734","2","81","83","80","","","","","","","","","","","","","","","",""
"null","audio/beep-329314.mp3","null","audio-keyboard-response","223","2.1.0","310854","F=YES, J=NO","otj2109734","2","81","83","80","","","","","","","","","","","","","","","",""
"null","audio/neck.wav","null","audio-keyboard-response","224","2.1.0","311394","F=YES, J=NO","otj2109734","2","81","83","80","","","","","","","","","","","","","","","",""
"516","
          <p id=""word"" style=""font-size: 40px;"">share</p>
          <p style=""font-size: 16px;"">F = YES &nbsp;&nbsp;&nbsp; J = NO</p>
        ","f","html-keyboard-response","225","2.1.0","311911","F=YES, J=NO","otj2109734","2","81","83","80","","","","","","","","","share","neck","unrelated","experimental","f","true","",""
"null","<p style=""font-size: 50px;"">+</p>","null","html-keyboard-response","226","2.1.0","312216","F=YES, J=NO","otj2109734","2","81","83","80","","","","","","","","","","","","","","","",""
"null","audio/beep-329314.mp3","null","audio-keyboard-response","227","2.1.0","313755","F=YES, J=NO","otj2109734","2","81","83","80","","","","","","","","","","","","","","","",""
"null","audio/radio1.wav","null","audio-keyboard-response","228","2.1.0","314334","F=YES, J=NO","otj2109734","2","81","83","80","","","","","","","","","","","","","","","",""
"536","
          <p id=""word"" style=""font-size: 40px;"">spend</p>
          <p style=""font-size: 16px;"">F = YES &nbsp;&nbsp;&nbsp; J = NO</p>
        ","f","html-keyboard-response","229","2.1.0","314871","F=YES, J=NO","otj2109734","2","81","83","80","","","","","","","","","spend","radio1","unrelated","experimental","f","true","",""
"1512","<p>Excellent! You have finished block 1 of 8.</p>
                     <p>Feel free to take a 30 second break.</p>
                     <p>Press any key when you're ready to continue.</p>","f","html-keyboard-response","230","2.1.0","316383","F=YES, J=NO","otj2109734","2","81","83","80","","","","","","","","","","","","","","","",""
"744","<p>Starting main block 2 of 8. Press any key to continue.</p>","f","html-keyboard-response","231","2.1.0","317128","F=YES, J=NO","otj2109734","2","81","83","80","","","","","","","","","","","","","","","",""
"null","<p style=""font-size: 50px;"">+</p>","null","html-keyboard-response","232","2.1.0","317441","F=YES, J=NO","otj2109734","2","81","83","80","","","","","","","","","","","","","","","",""
"null","audio/beep-329314.mp3","null","audio-keyboard-response","233","2.1.0","318975","F=YES, J=NO","otj2109734","2","81","83","80","","","","","","","","","","","","","","","",""
"null","audio/uncle1.wav","null","audio-keyboard-response","234","2.1.0","319455","F=YES, J=NO","otj2109734","2","81","83","80","","","","","","","","","","","","","","","",""
"800","
          <p id=""word"" style=""font-size: 40px;"">dramble</p>
          <p style=""font-size: 16px;"">F = YES &nbsp;&nbsp;&nbsp; J = NO</p>
        ","j","html-keyboard-response","235","2.1.0","320255","F=YES, J=NO","otj2109734","2","81","83","80","","","","","","","","","dramble","uncle1","pseudoword","pseudoword","j","true","",""
"null","<p style=""font-size: 50px;"">+</p>","null","html-keyboard-response","236","2.1.0","320565","F=YES, J=NO","otj2109734","2","81","83","80","","","","","","","","","","","","","","","",""
"null","audio/beep-329314.mp3","null","audio-keyboard-response","237","2.1.0","322094","F=YES, J=NO","otj2109734","2","81","83","80","","","","","","","","","","","","","","","",""
"null","audio/cave1.wav","null","audio-keyboard-response","238","2.1.0","322634","F=YES, J=NO","otj2109734","2","81","83","80","","","","","","","","","","","","","","","",""
"1037","
          <p id=""word"" style=""font-size: 40px;"">blacket</p>
          <p style=""font-size: 16px;"">F = YES &nbsp;&nbsp;&nbsp; J = NO</p>
        ","j","html-keyboard-response","239","2.1.0","323671","F=YES, J=NO","otj2109734","2","81","83","80","","","","","","","","","blacket","cave1","pseudoword","pseudoword","j","true","",""
"null","<p style=""font-size: 50px;"">+</p>","null","html-keyboard-response","240","2.1.0","323976","F=YES, J=NO","otj2109734","2","81","83","80","","","","","","","","","","","","","","","",""
"null","audio/beep-329314.mp3","null","audio-keyboard-response","241","2.1.0","325514","F=YES, J=NO","otj2109734","2","81","83","80","","","","","","","","","","","","","","","",""
"null","audio/bishop1.wav","null","audio-keyboard-response","242","2.1.0","326154","F=YES, J=NO","otj2109734","2","81","83","80","","","","","","","","","","","","","","","",""
"557","
          <p id=""word"" style=""font-size: 40px;"">play</p>
          <p style=""font-size: 16px;"">F = YES &nbsp;&nbsp;&nbsp; J = NO</p>
        ","f","html-keyboard-response","243","2.1.0","326711","F=YES, J=NO","otj2109734","2","81","83","80","","","","","","","","","play","bishop1","filler","filler","f","true","",""
"null","<p style=""font-size: 50px;"">+</p>","null","html-keyboard-response","244","2.1.0","327024","F=YES, J=NO","otj2109734","2","81","83","80","","","","","","","","","","","","","","","",""
"null","audio/beep-329314.mp3","null","audio-keyboard-response","245","2.1.0","328554","F=YES, J=NO","otj2109734","2","81","83","80","","","","","","","","","","","","","","","",""
"null","audio/fence.wav","null","audio-keyboard-response","246","2.1.0","329194","F=YES, J=NO","otj2109734","2","81","83","80","","","","","","","","","","","","","","","",""
"525","
          <p id=""word"" style=""font-size: 40px;"">climb</p>
          <p style=""font-size: 16px;"">F = YES &nbsp;&nbsp;&nbsp; J = NO</p>
        ","f","html-keyboard-response","247","2.1.0","329719","F=YES, J=NO","otj2109734","2","81","83","80","","","","","","","","","climb","fence","literal","experimental","f","true","",""
"null","<p style=""font-size: 50px;"">+</p>","null","html-keyboard-response","248","2.1.0","330036","F=YES, J=NO","otj2109734","2","81","83","80","","","","","","","","","","","","","","","",""
"null","audio/beep-329314.mp3","null","audio-keyboard-response","249","2.1.0","331574","F=YES, J=NO","otj2109734","2","81","83","80","","","","","","","","","","","","","","","",""
"null","audio/pain1.wav","null","audio-keyboard-response","250","2.1.0","332014","F=YES, J=NO","otj2109734","2","81","83","80","","","","","","","","","","","","","","","",""
"640","
          <p id=""word"" style=""font-size: 40px;"">tritted</p>
          <p style=""font-size: 16px;"">F = YES &nbsp;&nbsp;&nbsp; J = NO</p>
        ","j","html-keyboard-response","251","2.1.0","332655","F=YES, J=NO","otj2109734","2","81","83","80","","","","","","","","","tritted","pain1","pseudoword","pseudoword","j","true","",""
"null","<p style=""font-size: 50px;"">+</p>","null","html-keyboard-response","252","2.1.0","332960","F=YES, J=NO","otj2109734","2","81","83","80","","","","","","","","","","","","","","","",""
"null","audio/beep-329314.mp3","null","audio-keyboard-response","253","2.1.0","334494","F=YES, J=NO","otj2109734","2","81","83","80","","","","","","","","","","","","","","","",""
"null","audio/cash1.wav","null","audio-keyboard-response","254","2.1.0","335054","F=YES, J=NO","otj2109734","2","81","83","80","","","","","","","","","","","","","","","",""
"640","
          <p id=""word"" style=""font-size: 40px;"">splear</p>
          <p style=""font-size: 16px;"">F = YES &nbsp;&nbsp;&nbsp; J = NO</p>
        ","j","html-keyboard-response","255","2.1.0","335695","F=YES, J=NO","otj2109734","2","81","83","80","","","","","","","","","splear","cash1","pseudoword","pseudoword","j","true","",""
"null","<p style=""font-size: 50px;"">+</p>","null","html-keyboard-response","256","2.1.0","336004","F=YES, J=NO","otj2109734","2","81","83","80","","","","","","","","","","","","","","","",""
"null","audio/beep-329314.mp3","null","audio-keyboard-response","257","2.1.0","337534","F=YES, J=NO","otj2109734","2","81","83","80","","","","","","","","","","","","","","","",""
"null","audio/burden.wav","null","audio-keyboard-response","258","2.1.0","338034","F=YES, J=NO","otj2109734","2","81","83","80","","","","","","","","","","","","","","","",""
"580","
          <p id=""word"" style=""font-size: 40px;"">whotth</p>
          <p style=""font-size: 16px;"">F = YES &nbsp;&nbsp;&nbsp; J = NO</p>
        ","j","html-keyboard-response","259","2.1.0","338615","F=YES, J=NO","otj2109734","2","81","83","80","","","","","","","","","whotth","burden","pseudoword","pseudoword","j","true","",""
"null","<p style=""font-size: 50px;"">+</p>","null","html-keyboard-response","260","2.1.0","338925","F=YES, J=NO","otj2109734","2","81","83","80","","","","","","","","","","","","","","","",""
"null","audio/beep-329314.mp3","null","audio-keyboard-response","261","2.1.0","340454","F=YES, J=NO","otj2109734","2","81","83","80","","","","","","","","","","","","","","","",""
"null","audio/weight1.wav","null","audio-keyboard-response","262","2.1.0","340974","F=YES, J=NO","otj2109734","2","81","83","80","","","","","","","","","","","","","","","",""
"576","
          <p id=""word"" style=""font-size: 40px;"">crimsh</p>
          <p style=""font-size: 16px;"">F = YES &nbsp;&nbsp;&nbsp; J = NO</p>
        ","j","html-keyboard-response","263","2.1.0","341551","F=YES, J=NO","otj2109734","2","81","83","80","","","","","","","","","crimsh","weight1","pseudoword","pseudoword","j","true","",""
"null","<p style=""font-size: 50px;"">+</p>","null","html-keyboard-response","264","2.1.0","341853","F=YES, J=NO","otj2109734","2","81","83","80","","","","","","","","","","","","","","","",""
"null","audio/beep-329314.mp3","null","audio-keyboard-response","265","2.1.0","343395","F=YES, J=NO","otj2109734","2","81","83","80","","","","","","","","","","","","","","","",""
"null","audio/pig.wav","null","audio-keyboard-response","266","2.1.0","343775","F=YES, J=NO","otj2109734","2","81","83","80","","","","","","","","","","","","","","","",""
"504","
          <p id=""word"" style=""font-size: 40px;"">tirlike</p>
          <p style=""font-size: 16px;"">F = YES &nbsp;&nbsp;&nbsp; J = NO</p>
        ","j","html-keyboard-response","267","2.1.0","344279","F=YES, J=NO","otj2109734","2","81","83","80","","","","","","","","","tirlike","pig","pseudoword","pseudoword","j","true","",""
"null","<p style=""font-size: 50px;"">+</p>","null","html-keyboard-response","268","2.1.0","344587","F=YES, J=NO","otj2109734","2","81","83","80","","","","","","","","","","","","","","","",""
"null","audio/beep-329314.mp3","null","audio-keyboard-response","269","2.1.0","346114","F=YES, J=NO","otj2109734","2","81","83","80","","","","","","","","","","","","","","","",""
"null","audio/ship.wav","null","audio-keyboard-response","270","2.1.0","346714","F=YES, J=NO","otj2109734","2","81","83","80","","","","","","","","","","","","","","","",""
"517","
          <p id=""word"" style=""font-size: 40px;"">scrap</p>
          <p style=""font-size: 16px;"">F = YES &nbsp;&nbsp;&nbsp; J = NO</p>
        ","f","html-keyboard-response","271","2.1.0","347232","F=YES, J=NO","otj2109734","2","81","83","80","","","","","","","","","scrap","ship","literal","experimental","f","true","",""
"null","<p style=""font-size: 50px;"">+</p>","null","html-keyboard-response","272","2.1.0","347537","F=YES, J=NO","otj2109734","2","81","83","80","","","","","","","","","","","","","","","",""
"null","audio/beep-329314.mp3","null","audio-keyboard-response","273","2.1.0","349074","F=YES, J=NO","otj2109734","2","81","83","80","","","","","","","","","","","","","","","",""
"null","audio/stain.wav","null","audio-keyboard-response","274","2.1.0","349714","F=YES, J=NO","otj2109734","2","81","83","80","","","","","","","","","","","","","","","",""
"556","
          <p id=""word"" style=""font-size: 40px;"">wipe</p>
          <p style=""font-size: 16px;"">F = YES &nbsp;&nbsp;&nbsp; J = NO</p>
        ","f","html-keyboard-response","275","2.1.0","350271","F=YES, J=NO","otj2109734","2","81","83","80","","","","","","","","","wipe","stain","literal","experimental","f","true","",""
"null","<p style=""font-size: 50px;"">+</p>","null","html-keyboard-response","276","2.1.0","350575","F=YES, J=NO","otj2109734","2","81","83","80","","","","","","","","","","","","","","","",""
"null","audio/beep-329314.mp3","null","audio-keyboard-response","277","2.1.0","352114","F=YES, J=NO","otj2109734","2","81","83","80","","","","","","","","","","","","","","","",""
"null","audio/demon1.wav","null","audio-keyboard-response","278","2.1.0","352594","F=YES, J=NO","otj2109734","2","81","83","80","","","","","","","","","","","","","","","",""
"620","
          <p id=""word"" style=""font-size: 40px;"">wrestle</p>
          <p style=""font-size: 16px;"">F = YES &nbsp;&nbsp;&nbsp; J = NO</p>
        ","f","html-keyboard-response","279","2.1.0","353215","F=YES, J=NO","otj2109734","2","81","83","80","","","","","","","","","wrestle","demon1","metaphor","experimental","f","true","",""
"null","<p style=""font-size: 50px;"">+</p>","null","html-keyboard-response","280","2.1.0","353517","F=YES, J=NO","otj2109734","2","81","83","80","","","","","","","","","","","","","","","",""
"null","audio/beep-329314.mp3","null","audio-keyboard-response","281","2.1.0","355054","F=YES, J=NO","otj2109734","2","81","83","80","","","","","","","","","","","","","","","",""
"null","audio/sand.wav","null","audio-keyboard-response","282","2.1.0","355754","F=YES, J=NO","otj2109734","2","81","83","80","","","","","","","","","","","","","","","",""
"805","
          <p id=""word"" style=""font-size: 40px;"">possess</p>
          <p style=""font-size: 16px;"">F = YES &nbsp;&nbsp;&nbsp; J = NO</p>
        ","f","html-keyboard-response","283","2.1.0","356559","F=YES, J=NO","otj2109734","2","81","83","80","","","","","","","","","possess","sand","unrelated","experimental","f","true","",""
"null","<p style=""font-size: 50px;"">+</p>","null","html-keyboard-response","284","2.1.0","356870","F=YES, J=NO","otj2109734","2","81","83","80","","","","","","","","","","","","","","","",""
"null","audio/beep-329314.mp3","null","audio-keyboard-response","285","2.1.0","358394","F=YES, J=NO","otj2109734","2","81","83","80","","","","","","","","","","","","","","","",""
"null","audio/ankle1.wav","null","audio-keyboard-response","286","2.1.0","358914","F=YES, J=NO","otj2109734","2","81","83","80","","","","","","","","","","","","","","","",""
"524","
          <p id=""word"" style=""font-size: 40px;"">kick</p>
          <p style=""font-size: 16px;"">F = YES &nbsp;&nbsp;&nbsp; J = NO</p>
        ","f","html-keyboard-response","287","2.1.0","359439","F=YES, J=NO","otj2109734","2","81","83","80","","","","","","","","","kick","ankle1","filler","filler","f","true","",""
"null","<p style=""font-size: 50px;"">+</p>","null","html-keyboard-response","288","2.1.0","359747","F=YES, J=NO","otj2109734","2","81","83","80","","","","","","","","","","","","","","","",""
"null","audio/beep-329314.mp3","null","audio-keyboard-response","289","2.1.0","361274","F=YES, J=NO","otj2109734","2","81","83","80","","","","","","","","","","","","","","","",""
"null","audio/bridge.wav","null","audio-keyboard-response","290","2.1.0","361814","F=YES, J=NO","otj2109734","2","81","83","80","","","","","","","","","","","","","","","",""
"505","
          <p id=""word"" style=""font-size: 40px;"">build</p>
          <p style=""font-size: 16px;"">F = YES &nbsp;&nbsp;&nbsp; J = NO</p>
        ","f","html-keyboard-response","291","2.1.0","362320","F=YES, J=NO","otj2109734","2","81","83","80","","","","","","","","","build","bridge","literal","experimental","f","true","",""
"null","<p style=""font-size: 50px;"">+</p>","null","html-keyboard-response","292","2.1.0","362624","F=YES, J=NO","otj2109734","2","81","83","80","","","","","","","","","","","","","","","",""
"null","audio/beep-329314.mp3","null","audio-keyboard-response","293","2.1.0","364154","F=YES, J=NO","otj2109734","2","81","83","80","","","","","","","","","","","","","","","",""
"null","audio/bomb1.wav","null","audio-keyboard-response","294","2.1.0","364534","F=YES, J=NO","otj2109734","2","81","83","80","","","","","","","","","","","","","","","",""
"569","
          <p id=""word"" style=""font-size: 40px;"">drop</p>
          <p style=""font-size: 16px;"">F = YES &nbsp;&nbsp;&nbsp; J = NO</p>
        ","f","html-keyboard-response","295","2.1.0","365103","F=YES, J=NO","otj2109734","2","81","83","80","","","","","","","","","drop","bomb1","literal","experimental","f","true","",""
"591","<p>Excellent! You have finished block 2 of 8.</p>
                     <p>Feel free to take a 30 second break.</p>
                     <p>Press any key when you're ready to continue.</p>","f","html-keyboard-response","296","2.1.0","365695","F=YES, J=NO","otj2109734","2","81","83","80","","","","","","","","","","","","","","","",""
"375","<p>Starting main block 3 of 8. Press any key to continue.</p>","f","html-keyboard-response","297","2.1.0","366071","F=YES, J=NO","otj2109734","2","81","83","80","","","","","","","","","","","","","","","",""
"null","<p style=""font-size: 50px;"">+</p>","null","html-keyboard-response","298","2.1.0","366377","F=YES, J=NO","otj2109734","2","81","83","80","","","","","","","","","","","","","","","",""
"null","audio/beep-329314.mp3","null","audio-keyboard-response","299","2.1.0","367914","F=YES, J=NO","otj2109734","2","81","83","80","","","","","","","","","","","","","","","",""
"null","audio/tunnel.wav","null","audio-keyboard-response","300","2.1.0","368334","F=YES, J=NO","otj2109734","2","81","83","80","","","","","","","","","","","","","","","",""
"585","
          <p id=""word"" style=""font-size: 40px;"">grasp</p>
          <p style=""font-size: 16px;"">F = YES &nbsp;&nbsp;&nbsp; J = NO</p>
        ","f","html-keyboard-response","301","2.1.0","368920","F=YES, J=NO","otj2109734","2","81","83","80","","","","","","","","","grasp","tunnel","unrelated","experimental","f","true","",""
"null","<p style=""font-size: 50px;"">+</p>","null","html-keyboard-response","302","2.1.0","369221","F=YES, J=NO","otj2109734","2","81","83","80","","","","","","","","","","","","","","","",""
"null","audio/beep-329314.mp3","null","audio-keyboard-response","303","2.1.0","370754","F=YES, J=NO","otj2109734","2","81","83","80","","","","","","","","","","","","","","","",""
"null","audio/strength.wav","null","audio-keyboard-response","304","2.1.0","371473","F=YES, J=NO","otj2109734","2","81","83","80","","","","","","","","","","","","","","","",""
"757","
          <p id=""word"" style=""font-size: 40px;"">plabet</p>
          <p style=""font-size: 16px;"">F = YES &nbsp;&nbsp;&nbsp; J = NO</p>
        ","j","html-keyboard-response","305","2.1.0","372231","F=YES, J=NO","otj2109734","2","81","83","80","","","","","","","","","plabet","strength","pseudoword","pseudoword","j","true","",""
"null","<p style=""font-size: 50px;"">+</p>","null","html-keyboard-response","306","2.1.0","372532","F=YES, J=NO","otj2109734","2","81","83","80","","","","","","","","","","","","","","","",""
"null","audio/beep-329314.mp3","null","audio-keyboard-response","307","2.1.0","374074","F=YES, J=NO","otj2109734","2","81","83","80","","","","","","","","","","","","","","","",""
"null","audio/key1.wav","null","audio-keyboard-response","308","2.1.0","374434","F=YES, J=NO","otj2109734","2","81","83","80","","","","","","","","","","","","","","","",""
"604","
          <p id=""word"" style=""font-size: 40px;"">sminsh</p>
          <p style=""font-size: 16px;"">F = YES &nbsp;&nbsp;&nbsp; J = NO</p>
        ","j","html-keyboard-response","309","2.1.0","375039","F=YES, J=NO","otj2109734","2","81","83","80","","","","","","","","","sminsh","key1","pseudoword","pseudoword","j","true","",""
"null","<p style=""font-size: 50px;"">+</p>","null","html-keyboard-response","310","2.1.0","375349","F=YES, J=NO","otj2109734","2","81","83","80","","","","","","","","","","","","","","","",""
"null","audio/beep-329314.mp3","null","audio-keyboard-response","311","2.1.0","376874","F=YES, J=NO","otj2109734","2","81","83","80","","","","","","","","","","","","","","","",""
"null","audio/trust.wav","null","audio-keyboard-response","312","2.1.0","377514","F=YES, J=NO","otj2109734","2","81","83","80","","","","","","","","","","","","","","","",""
"692","
          <p id=""word"" style=""font-size: 40px;"">swint</p>
          <p style=""font-size: 16px;"">F = YES &nbsp;&nbsp;&nbsp; J = NO</p>
        ","j","html-keyboard-response","313","2.1.0","378207","F=YES, J=NO","otj2109734","2","81","83","80","","","","","","","","","swint","trust","pseudoword","pseudoword","j","true","",""
"null","<p style=""font-size: 50px;"">+</p>","null","html-keyboard-response","314","2.1.0","378516","F=YES, J=NO","otj2109734","2","81","83","80","","","","","","","","","","","","","","","",""
"null","audio/beep-329314.mp3","null","audio-keyboard-response","315","2.1.0","380054","F=YES, J=NO","otj2109734","2","81","83","80","","","","","","","","","","","","","","","",""
"null","audio/age1.wav","null","audio-keyboard-response","316","2.1.0","380653","F=YES, J=NO","otj2109734","2","81","83","80","","","","","","","","","","","","","","","",""
"657","
          <p id=""word"" style=""font-size: 40px;"">lachry</p>
          <p style=""font-size: 16px;"">F = YES &nbsp;&nbsp;&nbsp; J = NO</p>
        ","j","html-keyboard-response","317","2.1.0","381311","F=YES, J=NO","otj2109734","2","81","83","80","","","","","","","","","lachry","age1","pseudoword","pseudoword","j","true","",""
"null","<p style=""font-size: 50px;"">+</p>","null","html-keyboard-response","318","2.1.0","381626","F=YES, J=NO","otj2109734","2","81","83","80","","","","","","","","","","","","","","","",""
"null","audio/beep-329314.mp3","null","audio-keyboard-response","319","2.1.0","383154","F=YES, J=NO","otj2109734","2","81","83","80","","","","","","","","","","","","","","","",""
"null","audio/dome.wav","null","audio-keyboard-response","320","2.1.0","383574","F=YES, J=NO","otj2109734","2","81","83","80","","","","","","","","","","","","","","","",""
"577","
          <p id=""word"" style=""font-size: 40px;"">scrupliness</p>
          <p style=""font-size: 16px;"">F = YES &nbsp;&nbsp;&nbsp; J = NO</p>
        ","j","html-keyboard-response","321","2.1.0","384151","F=YES, J=NO","otj2109734","2","81","83","80","","","","","","","","","scrupliness","dome","pseudoword","pseudoword","j","true","",""
"null","<p style=""font-size: 50px;"">+</p>","null","html-keyboard-response","322","2.1.0","384460","F=YES, J=NO","otj2109734","2","81","83","80","","","","","","","","","","","","","","","",""
"null","audio/beep-329314.mp3","null","audio-keyboard-response","323","2.1.0","385994","F=YES, J=NO","otj2109734","2","81","83","80","","","","","","","","","","","","","","","",""
"null","audio/life1.wav","null","audio-keyboard-response","324","2.1.0","386553","F=YES, J=NO","otj2109734","2","81","83","80","","","","","","","","","","","","","","","",""
"573","
          <p id=""word"" style=""font-size: 40px;"">flimch</p>
          <p style=""font-size: 16px;"">F = YES &nbsp;&nbsp;&nbsp; J = NO</p>
        ","j","html-keyboard-response","325","2.1.0","387127","F=YES, J=NO","otj2109734","2","81","83","80","","","","","","","","","flimch","life1","pseudoword","pseudoword","j","true","",""
"null","<p style=""font-size: 50px;"">+</p>","null","html-keyboard-response","326","2.1.0","387431","F=YES, J=NO","otj2109734","2","81","83","80","","","","","","","","","","","","","","","",""
"null","audio/beep-329314.mp3","null","audio-keyboard-response","327","2.1.0","388954","F=YES, J=NO","otj2109734","2","81","83","80","","","","","","","","","","","","","","","",""
"null","audio/topic.wav","null","audio-keyboard-response","328","2.1.0","389574","F=YES, J=NO","otj2109734","2","81","83","80","","","","","","","","","","","","","","","",""
"929","
          <p id=""word"" style=""font-size: 40px;"">infortuitist</p>
          <p style=""font-size: 16px;"">F = YES &nbsp;&nbsp;&nbsp; J = NO</p>
        ","f","html-keyboard-response","329","2.1.0","390504","F=YES, J=NO","otj2109734","2","81","83","80","","","","","","","","","infortuitist","topic","pseudoword","pseudoword","j","false","",""
"null","<p style=""font-size: 50px;"">+</p>","null","html-keyboard-response","330","2.1.0","390806","F=YES, J=NO","otj2109734","2","81","83","80","","","","","","","","","","","","","","","",""
"null","audio/beep-329314.mp3","null","audio-keyboard-response","331","2.1.0","392334","F=YES, J=NO","otj2109734","2","81","83","80","","","","","","","","","","","","","","","",""
"null","audio/corpse1.wav","null","audio-keyboard-response","332","2.1.0","393054","F=YES, J=NO","otj2109734","2","81","83","80","","","","","","","","","","","","","","","",""
"609","
          <p id=""word"" style=""font-size: 40px;"">glonet</p>
          <p style=""font-size: 16px;"">F = YES &nbsp;&nbsp;&nbsp; J = NO</p>
        ","j","html-keyboard-response","333","2.1.0","393663","F=YES, J=NO","otj2109734","2","81","83","80","","","","","","","","","glonet","corpse1","pseudoword","pseudoword","j","true","",""
"null","<p style=""font-size: 50px;"">+</p>","null","html-keyboard-response","334","2.1.0","393964","F=YES, J=NO","otj2109734","2","81","83","80","","","","","","","","","","","","","","","",""
"null","audio/beep-329314.mp3","null","audio-keyboard-response","335","2.1.0","395494","F=YES, J=NO","otj2109734","2","81","83","80","","","","","","","","","","","","","","","",""
"null","audio/bottle.wav","null","audio-keyboard-response","336","2.1.0","395974","F=YES, J=NO","otj2109734","2","81","83","80","","","","","","","","","","","","","","","",""
"576","
          <p id=""word"" style=""font-size: 40px;"">watch</p>
          <p style=""font-size: 16px;"">F = YES &nbsp;&nbsp;&nbsp; J = NO</p>
        ","f","html-keyboard-response","337","2.1.0","396551","F=YES, J=NO","otj2109734","2","81","83","80","","","","","","","","","watch","bottle","filler","filler","f","true","",""
"null","<p style=""font-size: 50px;"">+</p>","null","html-keyboard-response","338","2.1.0","396862","F=YES, J=NO","otj2109734","2","81","83","80","","","","","","","","","","","","","","","",""
"null","audio/beep-329314.mp3","null","audio-keyboard-response","339","2.1.0","398394","F=YES, J=NO","otj2109734","2","81","83","80","","","","","","","","","","","","","","","",""
"null","audio/relief.wav","null","audio-keyboard-response","340","2.1.0","399094","F=YES, J=NO","otj2109734","2","81","83","80","","","","","","","","","","","","","","","",""
"544","
          <p id=""word"" style=""font-size: 40px;"">grigg</p>
          <p style=""font-size: 16px;"">F = YES &nbsp;&nbsp;&nbsp; J = NO</p>
        ","j","html-keyboard-response","341","2.1.0","399638","F=YES, J=NO","otj2109734","2","81","83","80","","","","","","","","","grigg","relief","pseudoword","pseudoword","j","true","",""
"null","<p style=""font-size: 50px;"">+</p>","null","html-keyboard-response","342","2.1.0","399953","F=YES, J=NO","otj2109734","2","81","83","80","","","","","","","","","","","","","","","",""
"null","audio/beep-329314.mp3","null","audio-keyboard-response","343","2.1.0","401494","F=YES, J=NO","otj2109734","2","81","83","80","","","","","","","","","","","","","","","",""
"null","audio/cinema1.wav","null","audio-keyboard-response","344","2.1.0","402154","F=YES, J=NO","otj2109734","2","81","83","80","","","","","","","","","","","","","","","",""
"604","
          <p id=""word"" style=""font-size: 40px;"">murple</p>
          <p style=""font-size: 16px;"">F = YES &nbsp;&nbsp;&nbsp; J = NO</p>
        ","j","html-keyboard-response","345","2.1.0","402759","F=YES, J=NO","otj2109734","2","81","83","80","","","","","","","","","murple","cinema1","pseudoword","pseudoword","j","true","",""
"null","<p style=""font-size: 50px;"">+</p>","null","html-keyboard-response","346","2.1.0","403072","F=YES, J=NO","otj2109734","2","81","83","80","","","","","","","","","","","","","","","",""
"null","audio/beep-329314.mp3","null","audio-keyboard-response","347","2.1.0","404614","F=YES, J=NO","otj2109734","2","81","83","80","","","","","","","","","","","","","","","",""
"null","audio/truth1.wav","null","audio-keyboard-response","348","2.1.0","405213","F=YES, J=NO","otj2109734","2","81","83","80","","","","","","","","","","","","","","","",""
"545","
          <p id=""word"" style=""font-size: 40px;"">expose</p>
          <p style=""font-size: 16px;"">F = YES &nbsp;&nbsp;&nbsp; J = NO</p>
        ","f","html-keyboard-response","349","2.1.0","405759","F=YES, J=NO","otj2109734","2","81","83","80","","","","","","","","","expose","truth1","metaphor","experimental","f","true","",""
"null","<p style=""font-size: 50px;"">+</p>","null","html-keyboard-response","350","2.1.0","406072","F=YES, J=NO","otj2109734","2","81","83","80","","","","","","","","","","","","","","","",""
"null","audio/beep-329314.mp3","null","audio-keyboard-response","351","2.1.0","407593","F=YES, J=NO","otj2109734","2","81","83","80","","","","","","","","","","","","","","","",""
"null","audio/brain.wav","null","audio-keyboard-response","352","2.1.0","408154","F=YES, J=NO","otj2109734","2","81","83","80","","","","","","","","","","","","","","","",""
"637","
          <p id=""word"" style=""font-size: 40px;"">flood</p>
          <p style=""font-size: 16px;"">F = YES &nbsp;&nbsp;&nbsp; J = NO</p>
        ","f","html-keyboard-response","353","2.1.0","408791","F=YES, J=NO","otj2109734","2","81","83","80","","","","","","","","","flood","brain","metaphor","experimental","f","true","",""
"null","<p style=""font-size: 50px;"">+</p>","null","html-keyboard-response","354","2.1.0","409103","F=YES, J=NO","otj2109734","2","81","83","80","","","","","","","","","","","","","","","",""
"null","audio/beep-329314.mp3","null","audio-keyboard-response","355","2.1.0","410634","F=YES, J=NO","otj2109734","2","81","83","80","","","","","","","","","","","","","","","",""
"null","audio/relief.wav","null","audio-keyboard-response","356","2.1.0","411273","F=YES, J=NO","otj2109734","2","81","83","80","","","","","","","","","","","","","","","",""
"533","
          <p id=""word"" style=""font-size: 40px;"">bring</p>
          <p style=""font-size: 16px;"">F = YES &nbsp;&nbsp;&nbsp; J = NO</p>
        ","f","html-keyboard-response","357","2.1.0","411807","F=YES, J=NO","otj2109734","2","81","83","80","","","","","","","","","bring","relief","metaphor","experimental","f","true","",""
"null","<p style=""font-size: 50px;"">+</p>","null","html-keyboard-response","358","2.1.0","412119","F=YES, J=NO","otj2109734","2","81","83","80","","","","","","","","","","","","","","","",""
"null","audio/beep-329314.mp3","null","audio-keyboard-response","359","2.1.0","413654","F=YES, J=NO","otj2109734","2","81","83","80","","","","","","","","","","","","","","","",""
"null","audio/butter1.wav","null","audio-keyboard-response","360","2.1.0","414094","F=YES, J=NO","otj2109734","2","81","83","80","","","","","","","","","","","","","","","",""
"608","
          <p id=""word"" style=""font-size: 40px;"">chew</p>
          <p style=""font-size: 16px;"">F = YES &nbsp;&nbsp;&nbsp; J = NO</p>
        ","f","html-keyboard-response","361","2.1.0","414702","F=YES, J=NO","otj2109734","2","81","83","80","","","","","","","","","chew","butter1","filler","filler","f","true","",""
"599","<p>Excellent! You have finished block 3 of 8.</p>
                     <p>Feel free to take a 30 second break.</p>
                     <p>Press any key when you're ready to continue.</p>","f","html-keyboard-response","362","2.1.0","415303","F=YES, J=NO","otj2109734","2","81","83","80","","","","","","","","","","","","","","","",""
"287","<p>Starting main block 4 of 8. Press any key to continue.</p>","f","html-keyboard-response","363","2.1.0","415591","F=YES, J=NO","otj2109734","2","81","83","80","","","","","","","","","","","","","","","",""
"null","<p style=""font-size: 50px;"">+</p>","null","html-keyboard-response","364","2.1.0","415895","F=YES, J=NO","otj2109734","2","81","83","80","","","","","","","","","","","","","","","",""
"null","audio/beep-329314.mp3","null","audio-keyboard-response","365","2.1.0","417433","F=YES, J=NO","otj2109734","2","81","83","80","","","","","","","","","","","","","","","",""
"null","audio/prisoner.wav","null","audio-keyboard-response","366","2.1.0","417993","F=YES, J=NO","otj2109734","2","81","83","80","","","","","","","","","","","","","","","",""
"869","
          <p id=""word"" style=""font-size: 40px;"">egotian</p>
          <p style=""font-size: 16px;"">F = YES &nbsp;&nbsp;&nbsp; J = NO</p>
        ","j","html-keyboard-response","367","2.1.0","418863","F=YES, J=NO","otj2109734","2","81","83","80","","","","","","","","","egotian","prisoner","pseudoword","pseudoword","j","true","",""
"null","<p style=""font-size: 50px;"">+</p>","null","html-keyboard-response","368","2.1.0","419179","F=YES, J=NO","otj2109734","2","81","83","80","","","","","","","","","","","","","","","",""
"null","audio/beep-329314.mp3","null","audio-keyboard-response","369","2.1.0","420713","F=YES, J=NO","otj2109734","2","81","83","80","","","","","","","","","","","","","","","",""
"null","audio/cancer1.wav","null","audio-keyboard-response","370","2.1.0","421253","F=YES, J=NO","otj2109734","2","81","83","80","","","","","","","","","","","","","","","",""
"537","
          <p id=""word"" style=""font-size: 40px;"">draw</p>
          <p style=""font-size: 16px;"">F = YES &nbsp;&nbsp;&nbsp; J = NO</p>
        ","f","html-keyboard-response","371","2.1.0","421791","F=YES, J=NO","otj2109734","2","81","83","80","","","","","","","","","draw","cancer1","filler","filler","f","true","",""
"null","<p style=""font-size: 50px;"">+</p>","null","html-keyboard-response","372","2.1.0","422105","F=YES, J=NO","otj2109734","2","81","83","80","","","","","","","","","","","","","","","",""
"null","audio/beep-329314.mp3","null","audio-keyboard-response","373","2.1.0","423633","F=YES, J=NO","otj2109734","2","81","83","80","","","","","","","","","","","","","","","",""
"null","audio/brain.wav","null","audio-keyboard-response","374","2.1.0","424113","F=YES, J=NO","otj2109734","2","81","83","80","","","","","","","","","","","","","","","",""
"508","
          <p id=""word"" style=""font-size: 40px;"">throw</p>
          <p style=""font-size: 16px;"">F = YES &nbsp;&nbsp;&nbsp; J = NO</p>
        ","f","html-keyboard-response","375","2.1.0","424622","F=YES, J=NO","otj2109734","2","81","83","80","","","","","","","","","throw","brain","filler","filler","f","true","",""
"null","<p style=""font-size: 50px;"">+</p>","null","html-keyboard-response","376","2.1.0","424924","F=YES, J=NO","otj2109734","2","81","83","80","","","","","","","","","","","","","","","",""
"null","audio/beep-329314.mp3","null","audio-keyboard-response","377","2.1.0","426453","F=YES, J=NO","otj2109734","2","81","83","80","","","","","","","","","","","","","","","",""
"null","audio/corpse1.wav","null","audio-keyboard-response","378","2.1.0","427074","F=YES, J=NO","otj2109734","2","81","83","80","","","","","","","","","","","","","","","",""
"532","
          <p id=""word"" style=""font-size: 40px;"">bury</p>
          <p style=""font-size: 16px;"">F = YES &nbsp;&nbsp;&nbsp; J = NO</p>
        ","f","html-keyboard-response","379","2.1.0","427606","F=YES, J=NO","otj2109734","2","81","83","80","","","","","","","","","bury","corpse1","literal","experimental","f","true","",""
"null","<p style=""font-size: 50px;"">+</p>","null","html-keyboard-response","380","2.1.0","427918","F=YES, J=NO","otj2109734","2","81","83","80","","","","","","","","","","","","","","","",""
"null","audio/beep-329314.mp3","null","audio-keyboard-response","381","2.1.0","429454","F=YES, J=NO","otj2109734","2","81","83","80","","","","","","","","","","","","","","","",""
"null","audio/holiday1.wav","null","audio-keyboard-response","382","2.1.0","430153","F=YES, J=NO","otj2109734","2","81","83","80","","","","","","","","","","","","","","","",""
"741","
          <p id=""word"" style=""font-size: 40px;"">drivets</p>
          <p style=""font-size: 16px;"">F = YES &nbsp;&nbsp;&nbsp; J = NO</p>
        ","j","html-keyboard-response","383","2.1.0","430895","F=YES, J=NO","otj2109734","2","81","83","80","","","","","","","","","drivets","holiday1","pseudoword","pseudoword","j","true","",""
"null","<p style=""font-size: 50px;"">+</p>","null","html-keyboard-response","384","2.1.0","431206","F=YES, J=NO","otj2109734","2","81","83","80","","","","","","","","","","","","","","","",""
"null","audio/beep-329314.mp3","null","audio-keyboard-response","385","2.1.0","432734","F=YES, J=NO","otj2109734","2","81","83","80","","","","","","","","","","","","","","","",""
"null","audio/client1.wav","null","audio-keyboard-response","386","2.1.0","433473","F=YES, J=NO","otj2109734","2","81","83","80","","","","","","","","","","","","","","","",""
"685","
          <p id=""word"" style=""font-size: 40px;"">droothe</p>
          <p style=""font-size: 16px;"">F = YES &nbsp;&nbsp;&nbsp; J = NO</p>
        ","j","html-keyboard-response","387","2.1.0","434159","F=YES, J=NO","otj2109734","2","81","83","80","","","","","","","","","droothe","client1","pseudoword","pseudoword","j","true","",""
"null","<p style=""font-size: 50px;"">+</p>","null","html-keyboard-response","388","2.1.0","434470","F=YES, J=NO","otj2109734","2","81","83","80","","","","","","","","","","","","","","","",""
"null","audio/beep-329314.mp3","null","audio-keyboard-response","389","2.1.0","435993","F=YES, J=NO","otj2109734","2","81","83","80","","","","","","","","","","","","","","","",""
"null","audio/roof1.wav","null","audio-keyboard-response","390","2.1.0","436594","F=YES, J=NO","otj2109734","2","81","83","80","","","","","","","","","","","","","","","",""
"628","
          <p id=""word"" style=""font-size: 40px;"">wronb</p>
          <p style=""font-size: 16px;"">F = YES &nbsp;&nbsp;&nbsp; J = NO</p>
        ","j","html-keyboard-response","391","2.1.0","437222","F=YES, J=NO","otj2109734","2","81","83","80","","","","","","","","","wronb","roof1","pseudoword","pseudoword","j","true","",""
