"rt","stimulus","response","trial_type","trial_index","plugin_version","time_elapsed","response_mapping","subject_id","list_index","lextale_score","lextale_word_score","lextale_nonword_score","success","timeout","failed_images","failed_audio","failed_video","task","isWord","isDummy","target","prime","prime_type","stimulus_type","correct_response","correct","section","question_order"
"970559","
    <div style=""max-width: 800px; margin: auto; text-align: left;"">
      <h2>STANFORD UNIVERSITY</h2>
      <h3>Research Information Sheet</h3>
      <p><strong>Protocol Director:</strong> Robert Hawkins<br>
      <strong>Protocol Title:</strong> Communication and social cognition in natural audiovisual contexts<br>
      <strong>IRB#:</strong> 77226</p>

      <p><strong>DESCRIPTION:</strong> You are invited to participate in a research study about language and communication. The purpose of the research is to understand how you interact and communicate with other people in naturalistic settings as a fluent English speaker. This research will be conducted through the Prolific platform, including participants from the US, UK, and Canada. If you decide to participate in this research, you will play a communication game in a group with one or more partners.</p>

      <p><strong>TIME INVOLVEMENT:</strong> The task will last the amount of time advertised on Prolific. You are free to withdraw from the study at any time.</p>

      <p><strong>RISKS AND BENEFITS:</strong> You may become frustrated if your partner gets distracted, or experience discomfort if other participants in your group send text that is inappropriate for the task. We ask you to please be respectful of other participants you might be interacting with to mitigate these risks. You may also experience discomfort when being asked to discuss or challenge emotionally salient political beliefs. Study data will be stored securely, in compliance with Stanford University standards, minimizing the risk of confidentiality breach. This study advances our scientific understanding of how people communicate and collaborate in naturalistic settings. This study may lead to further insights about what can go wrong in teamwork, suggest potential interventions to overcome these barriers, and help to develop assistive technologies that collaborate with human partners. We cannot and do not guarantee or promise that you will receive any benefits from this study.</p>

      <p><strong>PAYMENTS:</strong> You will receive payment in the amount advertised on Prolific. If you do not complete this study, you will receive prorated payment based on the time that you have spent. Additionally, you may be eligible for bonus payments as described in the instructions.</p>

      <p><strong>PARTICIPANT’S RIGHTS:</strong> If you have read this form and have decided to participate in this project, please understand your participation is voluntary and you have the right to withdraw your consent or discontinue participation at any time without penalty or loss of benefits to which you are otherwise entitled. The alternative is not to participate. You have the right to refuse to answer particular questions. The results of this research study may be presented at scientific or professional meetings or published in scientific journals. Your individual privacy will be maintained in all published and written data resulting from the study. In accordance with scientific norms, the data from this study may be used or shared with other researchers for future research (after removing personally identifying information) without additional consent from you.</p>

      <p><strong>CONTACT INFORMATION:</strong><br>
      Questions: If you have any questions, concerns or complaints about this research, its procedures, risks and benefits, contact the Protocol Director, Robert Hawkins (<a href=""mailto:rdhawkins@stanford.edu"">rdhawkins@stanford.edu</a>, 217-549-6923).<br>
      Independent Contact: If you are not satisfied with how this study is being conducted, or if you have any concerns, complaints, or general questions about the research or your rights as a participant, please contact the Stanford Institutional Review Board (IRB) to speak to someone independent of the research team at 650-723-2480 or toll free at 1-866-680-2906, or email at <a href=""mailto:irbnon-med@stanford.edu"">irbnon-med@stanford.edu</a>. You can also write to the Stanford IRB, Stanford University, 1705 El Camino Real, Palo Alto, CA 94306.</p>

      <p><strong>Please save or print a copy of this page for your records.</strong></p>
      <p>If you agree to participate in this research, click ""Continue"" below.</p>
    </div>
  ","0","html-button-response","0","2.1.0","970573","J=YES, F=NO","ou21olxmeq","1","75","70","80","","","","","","","","","","","","","","","",""
"4796","
    <div style=""max-width: 800px; margin: auto; text-align: left;"">
      <h2>Welcome!</h2>
      <p>Thank you for participating in this study. The experiment consists of three parts:</p>
      <ol>
        <li>An English vocabulary test</li>
        <li>A main task in which you will hear and see words, and decide whether the written word is a real English word</li>
        <li>A brief survey about your background</li>
      </ol>
      <p>Each part will be introduced before it begins.</p>
      <p>Please make sure you are in a quiet environment and can hear audio clearly for the final task.</p>
      <p style=""margin-top: 2em;"">Press any key to begin.</p>
    </div>
  ","j","html-keyboard-response","1","2.1.0","975372","J=YES, F=NO","ou21olxmeq","1","75","70","80","","","","","","","","","","","","","","","",""
"","","","preload","2","2.1.0","978019","J=YES, F=NO","ou21olxmeq","1","75","70","80","true","false","[]","[]","[]","","","","","","","","","","",""
"3264","
    <div style=""max-width: 800px; margin: auto; text-align: left;"">
      <h2>Part 1: Vocabulary Test</h2>
      <p>You will now complete the first part of the study: a short English vocabulary test.</p>
      <p>This test is called <strong>LexTALE</strong> and helps us get a general sense of your English proficiency.</p>
      <p style=""margin-top: 2em;"">Press any key to continue.</p>
    </div>
  ","j","html-keyboard-response","3","2.1.0","981284","J=YES, F=NO","ou21olxmeq","1","75","70","80","","","","","","","","","","","","","","","",""
"10528","
    <div style=""max-width: 800px; margin: auto; text-align: left;"">
      <h2>LexTALE Vocabulary Test</h2>
      <p>In this test, you will see a series of letter strings—one at a time.</p>
      <p>Your task is to decide whether each string is a real English word.</p>
      <p><strong>Key responses:</strong></p>
      <ul>
        <li><strong>J</strong> = YES (real English word)</li>
        <li><strong>F</strong> = NO (not a real English word)</li>
      </ul>
      <p>There is no time limit, but please try to be accurate.</p>
      <p style=""margin-top: 2em;"">Press any key to begin.</p>
    </div>
  ","j","html-keyboard-response","4","2.1.0","991812","J=YES, F=NO","ou21olxmeq","1","75","70","80","","","","","","","","","","","","","","","",""
"3117","
  <p style=""font-size: 40px;"">platery</p>
  <p style=""font-size: 16px;"">J = YES &nbsp;&nbsp;&nbsp; F = NO</p>
","j","html-keyboard-response","5","2.1.0","994932","J=YES, F=NO","ou21olxmeq","1","75","70","80","","","","","","lextale","false","true","","","","","","","",""
"991","
  <p style=""font-size: 40px;"">denial</p>
  <p style=""font-size: 16px;"">J = YES &nbsp;&nbsp;&nbsp; F = NO</p>
","j","html-keyboard-response","6","2.1.0","995924","J=YES, F=NO","ou21olxmeq","1","75","70","80","","","","","","lextale","true","true","","","","","","","",""
"1863","
  <p style=""font-size: 40px;"">marrit</p>
  <p style=""font-size: 16px;"">J = YES &nbsp;&nbsp;&nbsp; F = NO</p>
","f","html-keyboard-response","7","2.1.0","997788","J=YES, F=NO","ou21olxmeq","1","75","70","80","","","","","","lextale","false","true","","","","","","","",""
"1111","
  <p style=""font-size: 40px;"">bottle</p>
  <p style=""font-size: 16px;"">J = YES &nbsp;&nbsp;&nbsp; F = NO</p>
","j","html-keyboard-response","8","2.1.0","998900","J=YES, F=NO","ou21olxmeq","1","75","70","80","","","","","","lextale","true","false","","","","","","","",""
"1935","
  <p style=""font-size: 40px;"">birst</p>
  <p style=""font-size: 16px;"">J = YES &nbsp;&nbsp;&nbsp; F = NO</p>
","f","html-keyboard-response","9","2.1.0","1000836","J=YES, F=NO","ou21olxmeq","1","75","70","80","","","","","","lextale","false","false","","","","","","","",""
"1127","
  <p style=""font-size: 40px;"">envy</p>
  <p style=""font-size: 16px;"">J = YES &nbsp;&nbsp;&nbsp; F = NO</p>
","j","html-keyboard-response","10","2.1.0","1001964","J=YES, F=NO","ou21olxmeq","1","75","70","80","","","","","","lextale","true","false","","","","","","","",""
"1031","
  <p style=""font-size: 40px;"">brang</p>
  <p style=""font-size: 16px;"">J = YES &nbsp;&nbsp;&nbsp; F = NO</p>
","f","html-keyboard-response","11","2.1.0","1002996","J=YES, F=NO","ou21olxmeq","1","75","70","80","","","","","","lextale","false","false","","","","","","","",""
"727","
  <p style=""font-size: 40px;"">huge</p>
  <p style=""font-size: 16px;"">J = YES &nbsp;&nbsp;&nbsp; F = NO</p>
","j","html-keyboard-response","12","2.1.0","1003723","J=YES, F=NO","ou21olxmeq","1","75","70","80","","","","","","lextale","true","false","","","","","","","",""
"863","
  <p style=""font-size: 40px;"">plove</p>
  <p style=""font-size: 16px;"">J = YES &nbsp;&nbsp;&nbsp; F = NO</p>
","f","html-keyboard-response","13","2.1.0","1004588","J=YES, F=NO","ou21olxmeq","1","75","70","80","","","","","","lextale","false","false","","","","","","","",""
"655","
  <p style=""font-size: 40px;"">border</p>
  <p style=""font-size: 16px;"">J = YES &nbsp;&nbsp;&nbsp; F = NO</p>
","j","html-keyboard-response","14","2.1.0","1005244","J=YES, F=NO","ou21olxmeq","1","75","70","80","","","","","","lextale","true","false","","","","","","","",""
"1007","
  <p style=""font-size: 40px;"">flimsy</p>
  <p style=""font-size: 16px;"">J = YES &nbsp;&nbsp;&nbsp; F = NO</p>
","j","html-keyboard-response","15","2.1.0","1006251","J=YES, F=NO","ou21olxmeq","1","75","70","80","","","","","","lextale","true","false","","","","","","","",""
"2895","
  <p style=""font-size: 40px;"">drain</p>
  <p style=""font-size: 16px;"">J = YES &nbsp;&nbsp;&nbsp; F = NO</p>
","j","html-keyboard-response","16","2.1.0","1009148","J=YES, F=NO","ou21olxmeq","1","75","70","80","","","","","","lextale","true","false","","","","","","","",""
"1407","
  <p style=""font-size: 40px;"">twindle</p>
  <p style=""font-size: 16px;"">J = YES &nbsp;&nbsp;&nbsp; F = NO</p>
","f","html-keyboard-response","17","2.1.0","1010556","J=YES, F=NO","ou21olxmeq","1","75","70","80","","","","","","lextale","false","false","","","","","","","",""
"631","
  <p style=""font-size: 40px;"">propose</p>
  <p style=""font-size: 16px;"">J = YES &nbsp;&nbsp;&nbsp; F = NO</p>
","j","html-keyboard-response","18","2.1.0","1011187","J=YES, F=NO","ou21olxmeq","1","75","70","80","","","","","","lextale","true","false","","","","","","","",""
"1888","
  <p style=""font-size: 40px;"">forlay</p>
  <p style=""font-size: 16px;"">J = YES &nbsp;&nbsp;&nbsp; F = NO</p>
","f","html-keyboard-response","19","2.1.0","1013076","J=YES, F=NO","ou21olxmeq","1","75","70","80","","","","","","lextale","false","false","","","","","","","",""
"879","
  <p style=""font-size: 40px;"">tenant</p>
  <p style=""font-size: 16px;"">J = YES &nbsp;&nbsp;&nbsp; F = NO</p>
","j","html-keyboard-response","20","2.1.0","1013955","J=YES, F=NO","ou21olxmeq","1","75","70","80","","","","","","lextale","true","false","","","","","","","",""
"751","
  <p style=""font-size: 40px;"">strain</p>
  <p style=""font-size: 16px;"">J = YES &nbsp;&nbsp;&nbsp; F = NO</p>
","j","html-keyboard-response","21","2.1.0","1014707","J=YES, F=NO","ou21olxmeq","1","75","70","80","","","","","","lextale","true","false","","","","","","","",""
"855","
  <p style=""font-size: 40px;"">holster</p>
  <p style=""font-size: 16px;"">J = YES &nbsp;&nbsp;&nbsp; F = NO</p>
","f","html-keyboard-response","22","2.1.0","1015564","J=YES, F=NO","ou21olxmeq","1","75","70","80","","","","","","lextale","true","false","","","","","","","",""
"855","
  <p style=""font-size: 40px;"">hinder</p>
  <p style=""font-size: 16px;"">J = YES &nbsp;&nbsp;&nbsp; F = NO</p>
","f","html-keyboard-response","23","2.1.0","1016419","J=YES, F=NO","ou21olxmeq","1","75","70","80","","","","","","lextale","true","false","","","","","","","",""
"887","
  <p style=""font-size: 40px;"">swindle</p>
  <p style=""font-size: 16px;"">J = YES &nbsp;&nbsp;&nbsp; F = NO</p>
","j","html-keyboard-response","24","2.1.0","1017307","J=YES, F=NO","ou21olxmeq","1","75","70","80","","","","","","lextale","true","false","","","","","","","",""
"831","
  <p style=""font-size: 40px;"">nuder</p>
  <p style=""font-size: 16px;"">J = YES &nbsp;&nbsp;&nbsp; F = NO</p>
","f","html-keyboard-response","25","2.1.0","1018140","J=YES, F=NO","ou21olxmeq","1","75","70","80","","","","","","lextale","false","false","","","","","","","",""
"759","
  <p style=""font-size: 40px;"">pillow</p>
  <p style=""font-size: 16px;"">J = YES &nbsp;&nbsp;&nbsp; F = NO</p>
","j","html-keyboard-response","26","2.1.0","1018900","J=YES, F=NO","ou21olxmeq","1","75","70","80","","","","","","lextale","true","false","","","","","","","",""
"823","
  <p style=""font-size: 40px;"">shumble</p>
  <p style=""font-size: 16px;"">J = YES &nbsp;&nbsp;&nbsp; F = NO</p>
","j","html-keyboard-response","27","2.1.0","1019724","J=YES, F=NO","ou21olxmeq","1","75","70","80","","","","","","lextale","false","false","","","","","","","",""
"3688","
  <p style=""font-size: 40px;"">thirst</p>
  <p style=""font-size: 16px;"">J = YES &nbsp;&nbsp;&nbsp; F = NO</p>
","j","html-keyboard-response","28","2.1.0","1023412","J=YES, F=NO","ou21olxmeq","1","75","70","80","","","","","","lextale","true","false","","","","","","","",""
"1935","
  <p style=""font-size: 40px;"">unsail</p>
  <p style=""font-size: 16px;"">J = YES &nbsp;&nbsp;&nbsp; F = NO</p>
","f","html-keyboard-response","29","2.1.0","1025348","J=YES, F=NO","ou21olxmeq","1","75","70","80","","","","","","lextale","false","false","","","","","","","",""
"639","
  <p style=""font-size: 40px;"">rifle</p>
  <p style=""font-size: 16px;"">J = YES &nbsp;&nbsp;&nbsp; F = NO</p>
","j","html-keyboard-response","30","2.1.0","1025988","J=YES, F=NO","ou21olxmeq","1","75","70","80","","","","","","lextale","true","false","","","","","","","",""
"1759","
  <p style=""font-size: 40px;"">mush</p>
  <p style=""font-size: 16px;"">J = YES &nbsp;&nbsp;&nbsp; F = NO</p>
","j","html-keyboard-response","31","2.1.0","1027748","J=YES, F=NO","ou21olxmeq","1","75","70","80","","","","","","lextale","false","false","","","","","","","",""
"703","
  <p style=""font-size: 40px;"">drench</p>
  <p style=""font-size: 16px;"">J = YES &nbsp;&nbsp;&nbsp; F = NO</p>
","j","html-keyboard-response","32","2.1.0","1028451","J=YES, F=NO","ou21olxmeq","1","75","70","80","","","","","","lextale","true","false","","","","","","","",""
"927","
  <p style=""font-size: 40px;"">snirt</p>
  <p style=""font-size: 16px;"">J = YES &nbsp;&nbsp;&nbsp; F = NO</p>
","f","html-keyboard-response","33","2.1.0","1029379","J=YES, F=NO","ou21olxmeq","1","75","70","80","","","","","","lextale","false","false","","","","","","","",""
"743","
  <p style=""font-size: 40px;"">bitter</p>
  <p style=""font-size: 16px;"">J = YES &nbsp;&nbsp;&nbsp; F = NO</p>
","j","html-keyboard-response","34","2.1.0","1030124","J=YES, F=NO","ou21olxmeq","1","75","70","80","","","","","","lextale","true","false","","","","","","","",""
"863","
  <p style=""font-size: 40px;"">pliff</p>
  <p style=""font-size: 16px;"">J = YES &nbsp;&nbsp;&nbsp; F = NO</p>
","f","html-keyboard-response","35","2.1.0","1030988","J=YES, F=NO","ou21olxmeq","1","75","70","80","","","","","","lextale","false","false","","","","","","","",""
"519","
  <p style=""font-size: 40px;"">tablet</p>
  <p style=""font-size: 16px;"">J = YES &nbsp;&nbsp;&nbsp; F = NO</p>
","j","html-keyboard-response","36","2.1.0","1031508","J=YES, F=NO","ou21olxmeq","1","75","70","80","","","","","","lextale","true","false","","","","","","","",""
"767","
  <p style=""font-size: 40px;"">glimmer</p>
  <p style=""font-size: 16px;"">J = YES &nbsp;&nbsp;&nbsp; F = NO</p>
","j","html-keyboard-response","37","2.1.0","1032276","J=YES, F=NO","ou21olxmeq","1","75","70","80","","","","","","lextale","true","false","","","","","","","",""
"2272","
  <p style=""font-size: 40px;"">slink</p>
  <p style=""font-size: 16px;"">J = YES &nbsp;&nbsp;&nbsp; F = NO</p>
","f","html-keyboard-response","38","2.1.0","1034548","J=YES, F=NO","ou21olxmeq","1","75","70","80","","","","","","lextale","true","false","","","","","","","",""
"607","
  <p style=""font-size: 40px;"">clever</p>
  <p style=""font-size: 16px;"">J = YES &nbsp;&nbsp;&nbsp; F = NO</p>
","j","html-keyboard-response","39","2.1.0","1035155","J=YES, F=NO","ou21olxmeq","1","75","70","80","","","","","","lextale","true","false","","","","","","","",""
"759","
  <p style=""font-size: 40px;"">grum</p>
  <p style=""font-size: 16px;"">J = YES &nbsp;&nbsp;&nbsp; F = NO</p>
","f","html-keyboard-response","40","2.1.0","1035916","J=YES, F=NO","ou21olxmeq","1","75","70","80","","","","","","lextale","false","false","","","","","","","",""
"735","
  <p style=""font-size: 40px;"">string</p>
  <p style=""font-size: 16px;"">J = YES &nbsp;&nbsp;&nbsp; F = NO</p>
","j","html-keyboard-response","41","2.1.0","1036652","J=YES, F=NO","ou21olxmeq","1","75","70","80","","","","","","lextale","true","false","","","","","","","",""
"975","
  <p style=""font-size: 40px;"">plim</p>
  <p style=""font-size: 16px;"">J = YES &nbsp;&nbsp;&nbsp; F = NO</p>
","f","html-keyboard-response","42","2.1.0","1037628","J=YES, F=NO","ou21olxmeq","1","75","70","80","","","","","","lextale","false","false","","","","","","","",""
"567","
  <p style=""font-size: 40px;"">cable</p>
  <p style=""font-size: 16px;"">J = YES &nbsp;&nbsp;&nbsp; F = NO</p>
","j","html-keyboard-response","43","2.1.0","1038196","J=YES, F=NO","ou21olxmeq","1","75","70","80","","","","","","lextale","true","false","","","","","","","",""
"1343","
  <p style=""font-size: 40px;"">shrivel</p>
  <p style=""font-size: 16px;"">J = YES &nbsp;&nbsp;&nbsp; F = NO</p>
","f","html-keyboard-response","44","2.1.0","1039540","J=YES, F=NO","ou21olxmeq","1","75","70","80","","","","","","lextale","true","false","","","","","","","",""
"3799","
  <p style=""font-size: 40px;"">tarnish</p>
  <p style=""font-size: 16px;"">J = YES &nbsp;&nbsp;&nbsp; F = NO</p>
","j","html-keyboard-response","45","2.1.0","1043340","J=YES, F=NO","ou21olxmeq","1","75","70","80","","","","","","lextale","true","false","","","","","","","",""
"1519","
  <p style=""font-size: 40px;"">blim</p>
  <p style=""font-size: 16px;"">J = YES &nbsp;&nbsp;&nbsp; F = NO</p>
","j","html-keyboard-response","46","2.1.0","1044860","J=YES, F=NO","ou21olxmeq","1","75","70","80","","","","","","lextale","false","false","","","","","","","",""
"1031","
  <p style=""font-size: 40px;"">stifle</p>
  <p style=""font-size: 16px;"">J = YES &nbsp;&nbsp;&nbsp; F = NO</p>
","f","html-keyboard-response","47","2.1.0","1045892","J=YES, F=NO","ou21olxmeq","1","75","70","80","","","","","","lextale","true","false","","","","","","","",""
"800","
  <p style=""font-size: 40px;"">bint</p>
  <p style=""font-size: 16px;"">J = YES &nbsp;&nbsp;&nbsp; F = NO</p>
","f","html-keyboard-response","48","2.1.0","1046692","J=YES, F=NO","ou21olxmeq","1","75","70","80","","","","","","lextale","false","false","","","","","","","",""
"735","
  <p style=""font-size: 40px;"">purple</p>
  <p style=""font-size: 16px;"">J = YES &nbsp;&nbsp;&nbsp; F = NO</p>
","j","html-keyboard-response","49","2.1.0","1047428","J=YES, F=NO","ou21olxmeq","1","75","70","80","","","","","","lextale","true","false","","","","","","","",""
"1936","
  <p style=""font-size: 40px;"">wriggle</p>
  <p style=""font-size: 16px;"">J = YES &nbsp;&nbsp;&nbsp; F = NO</p>
","j","html-keyboard-response","50","2.1.0","1049364","J=YES, F=NO","ou21olxmeq","1","75","70","80","","","","","","lextale","true","false","","","","","","","",""
"991","
  <p style=""font-size: 40px;"">mangle</p>
  <p style=""font-size: 16px;"">J = YES &nbsp;&nbsp;&nbsp; F = NO</p>
","f","html-keyboard-response","51","2.1.0","1050356","J=YES, F=NO","ou21olxmeq","1","75","70","80","","","","","","lextale","true","false","","","","","","","",""
"1271","
  <p style=""font-size: 40px;"">shramp</p>
  <p style=""font-size: 16px;"">J = YES &nbsp;&nbsp;&nbsp; F = NO</p>
","f","html-keyboard-response","52","2.1.0","1051628","J=YES, F=NO","ou21olxmeq","1","75","70","80","","","","","","lextale","false","false","","","","","","","",""
"1023","
  <p style=""font-size: 40px;"">flirt</p>
  <p style=""font-size: 16px;"">J = YES &nbsp;&nbsp;&nbsp; F = NO</p>
","j","html-keyboard-response","53","2.1.0","1052652","J=YES, F=NO","ou21olxmeq","1","75","70","80","","","","","","lextale","true","false","","","","","","","",""
"4144","
  <p style=""font-size: 40px;"">frip</p>
  <p style=""font-size: 16px;"">J = YES &nbsp;&nbsp;&nbsp; F = NO</p>
","f","html-keyboard-response","54","2.1.0","1056796","J=YES, F=NO","ou21olxmeq","1","75","70","80","","","","","","lextale","false","false","","","","","","","",""
"2311","
  <p style=""font-size: 40px;"">tangle</p>
  <p style=""font-size: 16px;"">J = YES &nbsp;&nbsp;&nbsp; F = NO</p>
","j","html-keyboard-response","55","2.1.0","1059108","J=YES, F=NO","ou21olxmeq","1","75","70","80","","","","","","lextale","true","false","","","","","","","",""
"559","
  <p style=""font-size: 40px;"">crumble</p>
  <p style=""font-size: 16px;"">J = YES &nbsp;&nbsp;&nbsp; F = NO</p>
","j","html-keyboard-response","56","2.1.0","1059668","J=YES, F=NO","ou21olxmeq","1","75","70","80","","","","","","lextale","true","false","","","","","","","",""
"3431","
  <p style=""font-size: 40px;"">wrinkle</p>
  <p style=""font-size: 16px;"">J = YES &nbsp;&nbsp;&nbsp; F = NO</p>
","j","html-keyboard-response","57","2.1.0","1063100","J=YES, F=NO","ou21olxmeq","1","75","70","80","","","","","","lextale","true","false","","","","","","","",""
"951","
  <p style=""font-size: 40px;"">slumb</p>
  <p style=""font-size: 16px;"">J = YES &nbsp;&nbsp;&nbsp; F = NO</p>
","f","html-keyboard-response","58","2.1.0","1064052","J=YES, F=NO","ou21olxmeq","1","75","70","80","","","","","","lextale","false","false","","","","","","","",""
"544","
  <p style=""font-size: 40px;"">jungle</p>
  <p style=""font-size: 16px;"">J = YES &nbsp;&nbsp;&nbsp; F = NO</p>
","j","html-keyboard-response","59","2.1.0","1064596","J=YES, F=NO","ou21olxmeq","1","75","70","80","","","","","","lextale","true","false","","","","","","","",""
"663","
  <p style=""font-size: 40px;"">frolick</p>
  <p style=""font-size: 16px;"">J = YES &nbsp;&nbsp;&nbsp; F = NO</p>
","f","html-keyboard-response","60","2.1.0","1065260","J=YES, F=NO","ou21olxmeq","1","75","70","80","","","","","","lextale","false","false","","","","","","","",""
"4367","
      <h2>LexTALE Test Completed</h2>
      <p>Your LexTALE vocabulary score is: <strong>75%</strong></p>
      <p>Press any key to continue.</p>
    ","j","html-keyboard-response","61","2.1.0","1069628","J=YES, F=NO","ou21olxmeq","1","75","70","80","","","","","","","","","","","","","","","",""
"4159","
    <div style=""max-width: 800px; margin: auto; text-align: left;"">
      <h2>Break Time</h2>
      <p>You have completed the first part of the study.</p>
      <p>You may take a short <strong>30-second break</strong> before continuing.</p>
      <p>When you’re ready, press any key to continue to the final task.</p>
    </div>
  ","j","html-keyboard-response","62","2.1.0","1073788","J=YES, F=NO","ou21olxmeq","1","75","70","80","","","","","","","","","","","","","","","",""
"11680","
    <div style=""max-width: 800px; margin: auto; text-align: left;"">
      <h2>Part 2: Lexical Decision Task</h2>
      <p>You will now begin the second part of the study.</p>
      <p>Each trial will follow this sequence:</p>
      <ul>
        <li>A fixation cross (+) appears at the center of the screen.</li>
        <li>You will hear a short beep followed by a spoken word.</li>
        <li>A written word will appear briefly on the screen.</li>
      </ul>
      <p>Your task is to judge whether the <strong>written word</strong> is a real English word.</p>
      <p style=""margin-top: 1em;""><strong>Key responses:</strong></p>
      <ul>
        <li><strong>J</strong> = YES (real English word)</li>
        <li><strong>F</strong> = NO (not a real English word)</li>
      </ul>
      <p>Please respond as quickly and accurately as you can.</p>
      <p style=""margin-top: 2em;"">Press any key to continue.</p>
    </div>
  ","j","html-keyboard-response","63","2.1.0","1085468","J=YES, F=NO","ou21olxmeq","1","75","70","80","","","","","","","","","","","","","","","",""
"18351","
    <div style=""max-width: 800px; margin: auto; text-align: left;"">
      <h2>Before You Begin</h2>
      <p>Make sure your sound is turned on.</p>
      <p>You will hear audio during each trial, but your decision should be based only on the <strong>written word</strong> you see on the screen.</p>
      <p><strong>Reminder:</strong></p>
      <ul>
        <li><strong>J</strong> = YES (real English word)</li>
        <li><strong>F</strong> = NO (not a real English word)</li>
      </ul>
      <p style=""margin-top: 2em;"">Press any key when you are ready to begin.</p>
    </div>
  ","j","html-keyboard-response","64","2.1.0","1103820","J=YES, F=NO","ou21olxmeq","1","75","70","80","","","","","","","","","","","","","","","",""
"4311","
    <div style=""max-width: 800px; margin: auto; text-align: left;"">
      <h2>Part 2: Practice Trials</h2>
      <p>You will now complete a few <strong>practice trials</strong> to get familiar with the task.</p>
      <p>These trials are <strong>not scored</strong> and are only to help you get used to the format.</p>
      <p style=""margin-top: 2em;"">Press any key to begin.</p>
    </div>
  ","j","html-keyboard-response","65","2.1.0","1108132","J=YES, F=NO","ou21olxmeq","1","75","70","80","","","","","","","","","","","","","","","",""
"1695","<p>Starting practice block 1 of 2. Press any key to continue.</p>","j","html-keyboard-response","66","2.1.0","1109828","J=YES, F=NO","ou21olxmeq","1","75","70","80","","","","","","","","","","","","","","","",""
"null","<p style=""font-size: 50px;"">+</p>","null","html-keyboard-response","67","2.1.0","1110139","J=YES, F=NO","ou21olxmeq","1","75","70","80","","","","","","","","","","","","","","","",""
"null","audio/beep-329314.mp3","null","audio-keyboard-response","68","2.1.0","1111686","J=YES, F=NO","ou21olxmeq","1","75","70","80","","","","","","","","","","","","","","","",""
"null","audio/age1.wav","null","audio-keyboard-response","69","2.1.0","1112223","J=YES, F=NO","ou21olxmeq","1","75","70","80","","","","","","","","","","","","","","","",""
"null","
          <p id=""word"" style=""font-size: 40px;"">bake</p>
          <p style=""font-size: 16px;"">J = YES &nbsp;&nbsp;&nbsp; F = NO</p>
        ","null","html-keyboard-response","70","2.1.0","1113727","J=YES, F=NO","ou21olxmeq","1","75","70","80","","","","","","","","","bake","age1","filler","filler","j","false","",""
"null","<p style=""font-size: 50px;"">+</p>","null","html-keyboard-response","71","2.1.0","1114038","J=YES, F=NO","ou21olxmeq","1","75","70","80","","","","","","","","","","","","","","","",""
"null","audio/beep-329314.mp3","null","audio-keyboard-response","72","2.1.0","1115564","J=YES, F=NO","ou21olxmeq","1","75","70","80","","","","","","","","","","","","","","","",""
"null","audio/alarm1.wav","null","audio-keyboard-response","73","2.1.0","1116143","J=YES, F=NO","ou21olxmeq","1","75","70","80","","","","","","","","","","","","","","","",""
"915","
          <p id=""word"" style=""font-size: 40px;"">lock</p>
          <p style=""font-size: 16px;"">J = YES &nbsp;&nbsp;&nbsp; F = NO</p>
        ","f","html-keyboard-response","74","2.1.0","1117060","J=YES, F=NO","ou21olxmeq","1","75","70","80","","","","","","","","","lock","alarm1","filler","filler","j","false","",""
"null","<p style=""font-size: 50px;"">+</p>","null","html-keyboard-response","75","2.1.0","1117371","J=YES, F=NO","ou21olxmeq","1","75","70","80","","","","","","","","","","","","","","","",""
"null","audio/beep-329314.mp3","null","audio-keyboard-response","76","2.1.0","1118904","J=YES, F=NO","ou21olxmeq","1","75","70","80","","","","","","","","","","","","","","","",""
"null","audio/radio1.wav","null","audio-keyboard-response","77","2.1.0","1119544","J=YES, F=NO","ou21olxmeq","1","75","70","80","","","","","","","","","","","","","","","",""
"787","
          <p id=""word"" style=""font-size: 40px;"">blanter</p>
          <p style=""font-size: 16px;"">J = YES &nbsp;&nbsp;&nbsp; F = NO</p>
        ","f","html-keyboard-response","78","2.1.0","1120332","J=YES, F=NO","ou21olxmeq","1","75","70","80","","","","","","","","","blanter","radio1","pseudoword","pseudoword","f","true","",""
"null","<p style=""font-size: 50px;"">+</p>","null","html-keyboard-response","79","2.1.0","1120636","J=YES, F=NO","ou21olxmeq","1","75","70","80","","","","","","","","","","","","","","","",""
"null","audio/beep-329314.mp3","null","audio-keyboard-response","80","2.1.0","1122164","J=YES, F=NO","ou21olxmeq","1","75","70","80","","","","","","","","","","","","","","","",""
"null","audio/weight1.wav","null","audio-keyboard-response","81","2.1.0","1122686","J=YES, F=NO","ou21olxmeq","1","75","70","80","","","","","","","","","","","","","","","",""
"476","
          <p id=""word"" style=""font-size: 40px;"">crimsh</p>
          <p style=""font-size: 16px;"">J = YES &nbsp;&nbsp;&nbsp; F = NO</p>
        ","f","html-keyboard-response","82","2.1.0","1123164","J=YES, F=NO","ou21olxmeq","1","75","70","80","","","","","","","","","crimsh","weight1","pseudoword","pseudoword","f","true","",""
"null","<p style=""font-size: 50px;"">+</p>","null","html-keyboard-response","83","2.1.0","1123476","J=YES, F=NO","ou21olxmeq","1","75","70","80","","","","","","","","","","","","","","","",""
"null","audio/beep-329314.mp3","null","audio-keyboard-response","84","2.1.0","1125003","J=YES, F=NO","ou21olxmeq","1","75","70","80","","","","","","","","","","","","","","","",""
"null","audio/sugar1.wav","null","audio-keyboard-response","85","2.1.0","1125543","J=YES, F=NO","ou21olxmeq","1","75","70","80","","","","","","","","","","","","","","","",""
"null","
          <p id=""word"" style=""font-size: 40px;"">glung</p>
          <p style=""font-size: 16px;"">J = YES &nbsp;&nbsp;&nbsp; F = NO</p>
        ","null","html-keyboard-response","86","2.1.0","1127053","J=YES, F=NO","ou21olxmeq","1","75","70","80","","","","","","","","","glung","sugar1","pseudoword","pseudoword","f","false","",""
"null","<p style=""font-size: 50px;"">+</p>","null","html-keyboard-response","87","2.1.0","1127369","J=YES, F=NO","ou21olxmeq","1","75","70","80","","","","","","","","","","","","","","","",""
"null","audio/beep-329314.mp3","null","audio-keyboard-response","88","2.1.0","1128904","J=YES, F=NO","ou21olxmeq","1","75","70","80","","","","","","","","","","","","","","","",""
"null","audio/show.wav","null","audio-keyboard-response","89","2.1.0","1129483","J=YES, F=NO","ou21olxmeq","1","75","70","80","","","","","","","","","","","","","","","",""
"399","
          <p id=""word"" style=""font-size: 40px;"">smark</p>
          <p style=""font-size: 16px;"">J = YES &nbsp;&nbsp;&nbsp; F = NO</p>
        ","f","html-keyboard-response","90","2.1.0","1129884","J=YES, F=NO","ou21olxmeq","1","75","70","80","","","","","","","","","smark","show","pseudoword","pseudoword","f","true","",""
"null","<p style=""font-size: 50px;"">+</p>","null","html-keyboard-response","91","2.1.0","1130197","J=YES, F=NO","ou21olxmeq","1","75","70","80","","","","","","","","","","","","","","","",""
"null","audio/beep-329314.mp3","null","audio-keyboard-response","92","2.1.0","1131724","J=YES, F=NO","ou21olxmeq","1","75","70","80","","","","","","","","","","","","","","","",""
"null","audio/bishop1.wav","null","audio-keyboard-response","93","2.1.0","1132343","J=YES, F=NO","ou21olxmeq","1","75","70","80","","","","","","","","","","","","","","","",""
"516","
          <p id=""word"" style=""font-size: 40px;"">play</p>
          <p style=""font-size: 16px;"">J = YES &nbsp;&nbsp;&nbsp; F = NO</p>
        ","j","html-keyboard-response","94","2.1.0","1132860","J=YES, F=NO","ou21olxmeq","1","75","70","80","","","","","","","","","play","bishop1","filler","filler","j","true","",""
"null","<p style=""font-size: 50px;"">+</p>","null","html-keyboard-response","95","2.1.0","1133168","J=YES, F=NO","ou21olxmeq","1","75","70","80","","","","","","","","","","","","","","","",""
"null","audio/beep-329314.mp3","null","audio-keyboard-response","96","2.1.0","1134704","J=YES, F=NO","ou21olxmeq","1","75","70","80","","","","","","","","","","","","","","","",""
"null","audio/cash1.wav","null","audio-keyboard-response","97","2.1.0","1135303","J=YES, F=NO","ou21olxmeq","1","75","70","80","","","","","","","","","","","","","","","",""
"620","
          <p id=""word"" style=""font-size: 40px;"">splear</p>
          <p style=""font-size: 16px;"">J = YES &nbsp;&nbsp;&nbsp; F = NO</p>
        ","f","html-keyboard-response","98","2.1.0","1135924","J=YES, F=NO","ou21olxmeq","1","75","70","80","","","","","","","","","splear","cash1","pseudoword","pseudoword","f","true","",""
"null","<p style=""font-size: 50px;"">+</p>","null","html-keyboard-response","99","2.1.0","1136226","J=YES, F=NO","ou21olxmeq","1","75","70","80","","","","","","","","","","","","","","","",""
"null","audio/beep-329314.mp3","null","audio-keyboard-response","100","2.1.0","1137764","J=YES, F=NO","ou21olxmeq","1","75","70","80","","","","","","","","","","","","","","","",""
"null","audio/test1.wav","null","audio-keyboard-response","101","2.1.0","1138323","J=YES, F=NO","ou21olxmeq","1","75","70","80","","","","","","","","","","","","","","","",""
"568","
          <p id=""word"" style=""font-size: 40px;"">twopch</p>
          <p style=""font-size: 16px;"">J = YES &nbsp;&nbsp;&nbsp; F = NO</p>
        ","f","html-keyboard-response","102","2.1.0","1138892","J=YES, F=NO","ou21olxmeq","1","75","70","80","","","","","","","","","twopch","test1","pseudoword","pseudoword","f","true","",""
"null","<p style=""font-size: 50px;"">+</p>","null","html-keyboard-response","103","2.1.0","1139209","J=YES, F=NO","ou21olxmeq","1","75","70","80","","","","","","","","","","","","","","","",""
"null","audio/beep-329314.mp3","null","audio-keyboard-response","104","2.1.0","1140744","J=YES, F=NO","ou21olxmeq","1","75","70","80","","","","","","","","","","","","","","","",""
"null","audio/arm.wav","null","audio-keyboard-response","105","2.1.0","1141284","J=YES, F=NO","ou21olxmeq","1","75","70","80","","","","","","","","","","","","","","","",""
"632","
          <p id=""word"" style=""font-size: 40px;"">fold</p>
          <p style=""font-size: 16px;"">J = YES &nbsp;&nbsp;&nbsp; F = NO</p>
        ","f","html-keyboard-response","106","2.1.0","1141916","J=YES, F=NO","ou21olxmeq","1","75","70","80","","","","","","","","","fold","arm","filler","filler","j","false","",""
"null","<p style=""font-size: 50px;"">+</p>","null","html-keyboard-response","107","2.1.0","1142224","J=YES, F=NO","ou21olxmeq","1","75","70","80","","","","","","","","","","","","","","","",""
"null","audio/beep-329314.mp3","null","audio-keyboard-response","108","2.1.0","1143764","J=YES, F=NO","ou21olxmeq","1","75","70","80","","","","","","","","","","","","","","","",""
"null","audio/ankle1.wav","null","audio-keyboard-response","109","2.1.0","1144283","J=YES, F=NO","ou21olxmeq","1","75","70","80","","","","","","","","","","","","","","","",""
"608","
          <p id=""word"" style=""font-size: 40px;"">kick</p>
          <p style=""font-size: 16px;"">J = YES &nbsp;&nbsp;&nbsp; F = NO</p>
        ","j","html-keyboard-response","110","2.1.0","1144892","J=YES, F=NO","ou21olxmeq","1","75","70","80","","","","","","","","","kick","ankle1","filler","filler","j","true","",""
"null","<p style=""font-size: 50px;"">+</p>","null","html-keyboard-response","111","2.1.0","1145200","J=YES, F=NO","ou21olxmeq","1","75","70","80","","","","","","","","","","","","","","","",""
"null","audio/beep-329314.mp3","null","audio-keyboard-response","112","2.1.0","1146724","J=YES, F=NO","ou21olxmeq","1","75","70","80","","","","","","","","","","","","","","","",""
"null","audio/window1.wav","null","audio-keyboard-response","113","2.1.0","1147363","J=YES, F=NO","ou21olxmeq","1","75","70","80","","","","","","","","","","","","","","","",""
"776","
          <p id=""word"" style=""font-size: 40px;"">toss</p>
          <p style=""font-size: 16px;"">J = YES &nbsp;&nbsp;&nbsp; F = NO</p>
        ","j","html-keyboard-response","114","2.1.0","1148140","J=YES, F=NO","ou21olxmeq","1","75","70","80","","","","","","","","","toss","window1","filler","filler","j","true","",""
"1431","<p>Starting practice block 2 of 2. Press any key to continue.</p>"," ","html-keyboard-response","115","2.1.0","1149572","J=YES, F=NO","ou21olxmeq","1","75","70","80","","","","","","","","","","","","","","","",""
"null","<p style=""font-size: 50px;"">+</p>","null","html-keyboard-response","116","2.1.0","1149879","J=YES, F=NO","ou21olxmeq","1","75","70","80","","","","","","","","","","","","","","","",""
"null","audio/beep-329314.mp3","null","audio-keyboard-response","117","2.1.0","1151403","J=YES, F=NO","ou21olxmeq","1","75","70","80","","","","","","","","","","","","","","","",""
"null","audio/roof1.wav","null","audio-keyboard-response","118","2.1.0","1151983","J=YES, F=NO","ou21olxmeq","1","75","70","80","","","","","","","","","","","","","","","",""
"636","
          <p id=""word"" style=""font-size: 40px;"">wronb</p>
          <p style=""font-size: 16px;"">J = YES &nbsp;&nbsp;&nbsp; F = NO</p>
        ","f","html-keyboard-response","119","2.1.0","1152620","J=YES, F=NO","ou21olxmeq","1","75","70","80","","","","","","","","","wronb","roof1","pseudoword","pseudoword","f","true","",""
"null","<p style=""font-size: 50px;"">+</p>","null","html-keyboard-response","120","2.1.0","1152928","J=YES, F=NO","ou21olxmeq","1","75","70","80","","","","","","","","","","","","","","","",""
"null","audio/beep-329314.mp3","null","audio-keyboard-response","121","2.1.0","1154464","J=YES, F=NO","ou21olxmeq","1","75","70","80","","","","","","","","","","","","","","","",""
"null","audio/brain.wav","null","audio-keyboard-response","122","2.1.0","1154983","J=YES, F=NO","ou21olxmeq","1","75","70","80","","","","","","","","","","","","","","","",""
"572","
          <p id=""word"" style=""font-size: 40px;"">throw</p>
          <p style=""font-size: 16px;"">J = YES &nbsp;&nbsp;&nbsp; F = NO</p>
        ","j","html-keyboard-response","123","2.1.0","1155556","J=YES, F=NO","ou21olxmeq","1","75","70","80","","","","","","","","","throw","brain","filler","filler","j","true","",""
"null","<p style=""font-size: 50px;"">+</p>","null","html-keyboard-response","124","2.1.0","1155860","J=YES, F=NO","ou21olxmeq","1","75","70","80","","","","","","","","","","","","","","","",""
"null","audio/beep-329314.mp3","null","audio-keyboard-response","125","2.1.0","1157384","J=YES, F=NO","ou21olxmeq","1","75","70","80","","","","","","","","","","","","","","","",""
"null","audio/dome.wav","null","audio-keyboard-response","126","2.1.0","1157844","J=YES, F=NO","ou21olxmeq","1","75","70","80","","","","","","","","","","","","","","","",""
"743","
          <p id=""word"" style=""font-size: 40px;"">scrupliness</p>
          <p style=""font-size: 16px;"">J = YES &nbsp;&nbsp;&nbsp; F = NO</p>
        ","f","html-keyboard-response","127","2.1.0","1158588","J=YES, F=NO","ou21olxmeq","1","75","70","80","","","","","","","","","scrupliness","dome","pseudoword","pseudoword","f","true","",""
"null","<p style=""font-size: 50px;"">+</p>","null","html-keyboard-response","128","2.1.0","1158898","J=YES, F=NO","ou21olxmeq","1","75","70","80","","","","","","","","","","","","","","","",""
"null","audio/beep-329314.mp3","null","audio-keyboard-response","129","2.1.0","1160424","J=YES, F=NO","ou21olxmeq","1","75","70","80","","","","","","","","","","","","","","","",""
"null","audio/bottle.wav","null","audio-keyboard-response","130","2.1.0","1160923","J=YES, F=NO","ou21olxmeq","1","75","70","80","","","","","","","","","","","","","","","",""
"472","
          <p id=""word"" style=""font-size: 40px;"">watch</p>
          <p style=""font-size: 16px;"">J = YES &nbsp;&nbsp;&nbsp; F = NO</p>
        ","j","html-keyboard-response","131","2.1.0","1161396","J=YES, F=NO","ou21olxmeq","1","75","70","80","","","","","","","","","watch","bottle","filler","filler","j","true","",""
"null","<p style=""font-size: 50px;"">+</p>","null","html-keyboard-response","132","2.1.0","1161708","J=YES, F=NO","ou21olxmeq","1","75","70","80","","","","","","","","","","","","","","","",""
"null","audio/beep-329314.mp3","null","audio-keyboard-response","133","2.1.0","1163244","J=YES, F=NO","ou21olxmeq","1","75","70","80","","","","","","","","","","","","","","","",""
"null","audio/fence.wav","null","audio-keyboard-response","134","2.1.0","1163944","J=YES, F=NO","ou21olxmeq","1","75","70","80","","","","","","","","","","","","","","","",""
"572","
          <p id=""word"" style=""font-size: 40px;"">trim</p>
          <p style=""font-size: 16px;"">J = YES &nbsp;&nbsp;&nbsp; F = NO</p>
        ","j","html-keyboard-response","135","2.1.0","1164516","J=YES, F=NO","ou21olxmeq","1","75","70","80","","","","","","","","","trim","fence","filler","filler","j","true","",""
"null","<p style=""font-size: 50px;"">+</p>","null","html-keyboard-response","136","2.1.0","1164823","J=YES, F=NO","ou21olxmeq","1","75","70","80","","","","","","","","","","","","","","","",""
"null","audio/beep-329314.mp3","null","audio-keyboard-response","137","2.1.0","1166364","J=YES, F=NO","ou21olxmeq","1","75","70","80","","","","","","","","","","","","","","","",""
"null","audio/grass.wav","null","audio-keyboard-response","138","2.1.0","1167043","J=YES, F=NO","ou21olxmeq","1","75","70","80","","","","","","","","","","","","","","","",""
"624","
          <p id=""word"" style=""font-size: 40px;"">milames</p>
          <p style=""font-size: 16px;"">J = YES &nbsp;&nbsp;&nbsp; F = NO</p>
        ","f","html-keyboard-response","139","2.1.0","1167668","J=YES, F=NO","ou21olxmeq","1","75","70","80","","","","","","","","","milames","grass","pseudoword","pseudoword","f","true","",""
"null","<p style=""font-size: 50px;"">+</p>","null","html-keyboard-response","140","2.1.0","1167979","J=YES, F=NO","ou21olxmeq","1","75","70","80","","","","","","","","","","","","","","","",""
"null","audio/beep-329314.mp3","null","audio-keyboard-response","141","2.1.0","1169504","J=YES, F=NO","ou21olxmeq","1","75","70","80","","","","","","","","","","","","","","","",""
"null","audio/baby.wav","null","audio-keyboard-response","142","2.1.0","1170004","J=YES, F=NO","ou21olxmeq","1","75","70","80","","","","","","","","","","","","","","","",""
"624","
          <p id=""word"" style=""font-size: 40px;"">lift</p>
          <p style=""font-size: 16px;"">J = YES &nbsp;&nbsp;&nbsp; F = NO</p>
        ","j","html-keyboard-response","143","2.1.0","1170628","J=YES, F=NO","ou21olxmeq","1","75","70","80","","","","","","","","","lift","baby","filler","filler","j","true","",""
"null","<p style=""font-size: 50px;"">+</p>","null","html-keyboard-response","144","2.1.0","1170938","J=YES, F=NO","ou21olxmeq","1","75","70","80","","","","","","","","","","","","","","","",""
"null","audio/beep-329314.mp3","null","audio-keyboard-response","145","2.1.0","1172464","J=YES, F=NO","ou21olxmeq","1","75","70","80","","","","","","","","","","","","","","","",""
"null","audio/dollar.wav","null","audio-keyboard-response","146","2.1.0","1172884","J=YES, F=NO","ou21olxmeq","1","75","70","80","","","","","","","","","","","","","","","",""
"608","
          <p id=""word"" style=""font-size: 40px;"">gliptism</p>
          <p style=""font-size: 16px;"">J = YES &nbsp;&nbsp;&nbsp; F = NO</p>
        ","f","html-keyboard-response","147","2.1.0","1173492","J=YES, F=NO","ou21olxmeq","1","75","70","80","","","","","","","","","gliptism","dollar","pseudoword","pseudoword","f","true","",""
"null","<p style=""font-size: 50px;"">+</p>","null","html-keyboard-response","148","2.1.0","1173795","J=YES, F=NO","ou21olxmeq","1","75","70","80","","","","","","","","","","","","","","","",""
"null","audio/beep-329314.mp3","null","audio-keyboard-response","149","2.1.0","1175324","J=YES, F=NO","ou21olxmeq","1","75","70","80","","","","","","","","","","","","","","","",""
"null","audio/tomato.wav","null","audio-keyboard-response","150","2.1.0","1176024","J=YES, F=NO","ou21olxmeq","1","75","70","80","","","","","","","","","","","","","","","",""
"772","
          <p id=""word"" style=""font-size: 40px;"">gladies</p>
          <p style=""font-size: 16px;"">J = YES &nbsp;&nbsp;&nbsp; F = NO</p>
        ","f","html-keyboard-response","151","2.1.0","1176796","J=YES, F=NO","ou21olxmeq","1","75","70","80","","","","","","","","","gladies","tomato","pseudoword","pseudoword","f","true","",""
"null","<p style=""font-size: 50px;"">+</p>","null","html-keyboard-response","152","2.1.0","1177111","J=YES, F=NO","ou21olxmeq","1","75","70","80","","","","","","","","","","","","","","","",""
"null","audio/beep-329314.mp3","null","audio-keyboard-response","153","2.1.0","1178644","J=YES, F=NO","ou21olxmeq","1","75","70","80","","","","","","","","","","","","","","","",""
"null","audio/birth1.wav","null","audio-keyboard-response","154","2.1.0","1179183","J=YES, F=NO","ou21olxmeq","1","75","70","80","","","","","","","","","","","","","","","",""
"764","
          <p id=""word"" style=""font-size: 40px;"">peel</p>
          <p style=""font-size: 16px;"">J = YES &nbsp;&nbsp;&nbsp; F = NO</p>
        ","j","html-keyboard-response","155","2.1.0","1179948","J=YES, F=NO","ou21olxmeq","1","75","70","80","","","","","","","","","peel","birth1","filler","filler","j","true","",""
"null","<p style=""font-size: 50px;"">+</p>","null","html-keyboard-response","156","2.1.0","1180257","J=YES, F=NO","ou21olxmeq","1","75","70","80","","","","","","","","","","","","","","","",""
"null","audio/beep-329314.mp3","null","audio-keyboard-response","157","2.1.0","1181784","J=YES, F=NO","ou21olxmeq","1","75","70","80","","","","","","","","","","","","","","","",""
"null","audio/menu.wav","null","audio-keyboard-response","158","2.1.0","1182383","J=YES, F=NO","ou21olxmeq","1","75","70","80","","","","","","","","","","","","","","","",""
"596","
          <p id=""word"" style=""font-size: 40px;"">slice</p>
          <p style=""font-size: 16px;"">J = YES &nbsp;&nbsp;&nbsp; F = NO</p>
        ","j","html-keyboard-response","159","2.1.0","1182980","J=YES, F=NO","ou21olxmeq","1","75","70","80","","","","","","","","","slice","menu","filler","filler","j","true","",""
"null","<p style=""font-size: 50px;"">+</p>","null","html-keyboard-response","160","2.1.0","1183286","J=YES, F=NO","ou21olxmeq","1","75","70","80","","","","","","","","","","","","","","","",""
"null","audio/beep-329314.mp3","null","audio-keyboard-response","161","2.1.0","1184824","J=YES, F=NO","ou21olxmeq","1","75","70","80","","","","","","","","","","","","","","","",""
"null","audio/holiday1.wav","null","audio-keyboard-response","162","2.1.0","1185443","J=YES, F=NO","ou21olxmeq","1","75","70","80","","","","","","","","","","","","","","","",""
"607","
          <p id=""word"" style=""font-size: 40px;"">drivets</p>
          <p style=""font-size: 16px;"">J = YES &nbsp;&nbsp;&nbsp; F = NO</p>
        ","f","html-keyboard-response","163","2.1.0","1186052","J=YES, F=NO","ou21olxmeq","1","75","70","80","","","","","","","","","drivets","holiday1","pseudoword","pseudoword","f","true","",""
"14791","
    <div style=""max-width: 800px; margin: auto; text-align: left;"">
      <h2>Part 2: Main Trials</h2>
      <p>Great job on the practice trials!</p>
      <p>You will now begin the <strong>main set of trials</strong>.</p>
      <p>Remember your key assignments:</p>
      <ul>
        <li><strong>J</strong> = YES (real English word)</li>
        <li><strong>F</strong> = NO (not a real English word)</li>
      </ul>
      <p>Try to respond as <strong>quickly and accurately</strong> as possible.</p>
      <p style=""margin-top: 2em;"">Press any key to begin the main trials.</p>
    </div>
  ","j","html-keyboard-response","164","2.1.0","1200844","J=YES, F=NO","ou21olxmeq","1","75","70","80","","","","","","","","","","","","","","","",""
"1423","<p>Starting main block 1 of 8. Press any key to continue.</p>","j","html-keyboard-response","165","2.1.0","1202268","J=YES, F=NO","ou21olxmeq","1","75","70","80","","","","","","","","","","","","","","","",""
"null","<p style=""font-size: 50px;"">+</p>","null","html-keyboard-response","166","2.1.0","1202583","J=YES, F=NO","ou21olxmeq","1","75","70","80","","","","","","","","","","","","","","","",""
"null","audio/beep-329314.mp3","null","audio-keyboard-response","167","2.1.0","1204104","J=YES, F=NO","ou21olxmeq","1","75","70","80","","","","","","","","","","","","","","","",""
"null","audio/heart1.wav","null","audio-keyboard-response","168","2.1.0","1204714","J=YES, F=NO","ou21olxmeq","1","75","70","80","","","","","","","","","","","","","","","",""
"649","
          <p id=""word"" style=""font-size: 40px;"">dralm</p>
          <p style=""font-size: 16px;"">J = YES &nbsp;&nbsp;&nbsp; F = NO</p>
        ","f","html-keyboard-response","169","2.1.0","1205364","J=YES, F=NO","ou21olxmeq","1","75","70","80","","","","","","","","","dralm","heart1","pseudoword","pseudoword","f","true","",""
"null","<p style=""font-size: 50px;"">+</p>","null","html-keyboard-response","170","2.1.0","1205667","J=YES, F=NO","ou21olxmeq","1","75","70","80","","","","","","","","","","","","","","","",""
"null","audio/beep-329314.mp3","null","audio-keyboard-response","171","2.1.0","1207204","J=YES, F=NO","ou21olxmeq","1","75","70","80","","","","","","","","","","","","","","","",""
"null","audio/ankle1.wav","null","audio-keyboard-response","172","2.1.0","1207714","J=YES, F=NO","ou21olxmeq","1","75","70","80","","","","","","","","","","","","","","","",""
"633","
          <p id=""word"" style=""font-size: 40px;"">switm</p>
          <p style=""font-size: 16px;"">J = YES &nbsp;&nbsp;&nbsp; F = NO</p>
        ","f","html-keyboard-response","173","2.1.0","1208348","J=YES, F=NO","ou21olxmeq","1","75","70","80","","","","","","","","","switm","ankle1","pseudoword","pseudoword","f","true","",""
"null","<p style=""font-size: 50px;"">+</p>","null","html-keyboard-response","174","2.1.0","1208659","J=YES, F=NO","ou21olxmeq","1","75","70","80","","","","","","","","","","","","","","","",""
"null","audio/beep-329314.mp3","null","audio-keyboard-response","175","2.1.0","1210184","J=YES, F=NO","ou21olxmeq","1","75","70","80","","","","","","","","","","","","","","","",""
"null","audio/trust.wav","null","audio-keyboard-response","176","2.1.0","1210814","J=YES, F=NO","ou21olxmeq","1","75","70","80","","","","","","","","","","","","","","","",""
"526","
          <p id=""word"" style=""font-size: 40px;"">build</p>
          <p style=""font-size: 16px;"">J = YES &nbsp;&nbsp;&nbsp; F = NO</p>
        ","j","html-keyboard-response","177","2.1.0","1211340","J=YES, F=NO","ou21olxmeq","1","75","70","80","","","","","","","","","build","trust","metaphor","experimental","j","true","",""
"null","<p style=""font-size: 50px;"">+</p>","null","html-keyboard-response","178","2.1.0","1211651","J=YES, F=NO","ou21olxmeq","1","75","70","80","","","","","","","","","","","","","","","",""
"null","audio/beep-329314.mp3","null","audio-keyboard-response","179","2.1.0","1213184","J=YES, F=NO","ou21olxmeq","1","75","70","80","","","","","","","","","","","","","","","",""
"null","audio/empire.wav","null","audio-keyboard-response","180","2.1.0","1213814","J=YES, F=NO","ou21olxmeq","1","75","70","80","","","","","","","","","","","","","","","",""
"573","
          <p id=""word"" style=""font-size: 40px;"">slorby</p>
          <p style=""font-size: 16px;"">J = YES &nbsp;&nbsp;&nbsp; F = NO</p>
        ","f","html-keyboard-response","181","2.1.0","1214388","J=YES, F=NO","ou21olxmeq","1","75","70","80","","","","","","","","","slorby","empire","pseudoword","pseudoword","f","true","",""
"null","<p style=""font-size: 50px;"">+</p>","null","html-keyboard-response","182","2.1.0","1214700","J=YES, F=NO","ou21olxmeq","1","75","70","80","","","","","","","","","","","","","","","",""
"null","audio/beep-329314.mp3","null","audio-keyboard-response","183","2.1.0","1216224","J=YES, F=NO","ou21olxmeq","1","75","70","80","","","","","","","","","","","","","","","",""
"null","audio/weight1.wav","null","audio-keyboard-response","184","2.1.0","1216734","J=YES, F=NO","ou21olxmeq","1","75","70","80","","","","","","","","","","","","","","","",""
"565","
          <p id=""word"" style=""font-size: 40px;"">support</p>
          <p style=""font-size: 16px;"">J = YES &nbsp;&nbsp;&nbsp; F = NO</p>
        ","j","html-keyboard-response","185","2.1.0","1217300","J=YES, F=NO","ou21olxmeq","1","75","70","80","","","","","","","","","support","weight1","literal","experimental","j","true","",""
"null","<p style=""font-size: 50px;"">+</p>","null","html-keyboard-response","186","2.1.0","1217608","J=YES, F=NO","ou21olxmeq","1","75","70","80","","","","","","","","","","","","","","","",""
"null","audio/beep-329314.mp3","null","audio-keyboard-response","187","2.1.0","1219144","J=YES, F=NO","ou21olxmeq","1","75","70","80","","","","","","","","","","","","","","","",""
"null","audio/tax1.wav","null","audio-keyboard-response","188","2.1.0","1219754","J=YES, F=NO","ou21olxmeq","1","75","70","80","","","","","","","","","","","","","","","",""
"689","
          <p id=""word"" style=""font-size: 40px;"">scrap</p>
          <p style=""font-size: 16px;"">J = YES &nbsp;&nbsp;&nbsp; F = NO</p>
        ","j","html-keyboard-response","189","2.1.0","1220444","J=YES, F=NO","ou21olxmeq","1","75","70","80","","","","","","","","","scrap","tax1","metaphor","experimental","j","true","",""
"null","<p style=""font-size: 50px;"">+</p>","null","html-keyboard-response","190","2.1.0","1220748","J=YES, F=NO","ou21olxmeq","1","75","70","80","","","","","","","","","","","","","","","",""
"null","audio/beep-329314.mp3","null","audio-keyboard-response","191","2.1.0","1222284","J=YES, F=NO","ou21olxmeq","1","75","70","80","","","","","","","","","","","","","","","",""
"null","audio/client1.wav","null","audio-keyboard-response","192","2.1.0","1222974","J=YES, F=NO","ou21olxmeq","1","75","70","80","","","","","","","","","","","","","","","",""
"526","
          <p id=""word"" style=""font-size: 40px;"">droothe</p>
          <p style=""font-size: 16px;"">J = YES &nbsp;&nbsp;&nbsp; F = NO</p>
        ","f","html-keyboard-response","193","2.1.0","1223500","J=YES, F=NO","ou21olxmeq","1","75","70","80","","","","","","","","","droothe","client1","pseudoword","pseudoword","f","true","",""
"null","<p style=""font-size: 50px;"">+</p>","null","html-keyboard-response","194","2.1.0","1223813","J=YES, F=NO","ou21olxmeq","1","75","70","80","","","","","","","","","","","","","","","",""
"null","audio/beep-329314.mp3","null","audio-keyboard-response","195","2.1.0","1225344","J=YES, F=NO","ou21olxmeq","1","75","70","80","","","","","","","","","","","","","","","",""
"null","audio/floor.wav","null","audio-keyboard-response","196","2.1.0","1225894","J=YES, F=NO","ou21olxmeq","1","75","70","80","","","","","","","","","","","","","","","",""
"510","
          <p id=""word"" style=""font-size: 40px;"">cover</p>
          <p style=""font-size: 16px;"">J = YES &nbsp;&nbsp;&nbsp; F = NO</p>
        ","j","html-keyboard-response","197","2.1.0","1226404","J=YES, F=NO","ou21olxmeq","1","75","70","80","","","","","","","","","cover","floor","literal","experimental","j","true","",""
"null","<p style=""font-size: 50px;"">+</p>","null","html-keyboard-response","198","2.1.0","1226715","J=YES, F=NO","ou21olxmeq","1","75","70","80","","","","","","","","","","","","","","","",""
"null","audio/beep-329314.mp3","null","audio-keyboard-response","199","2.1.0","1228244","J=YES, F=NO","ou21olxmeq","1","75","70","80","","","","","","","","","","","","","","","",""
"null","audio/trout1.wav","null","audio-keyboard-response","200","2.1.0","1228834","J=YES, F=NO","ou21olxmeq","1","75","70","80","","","","","","","","","","","","","","","",""
"410","
          <p id=""word"" style=""font-size: 40px;"">catch</p>
          <p style=""font-size: 16px;"">J = YES &nbsp;&nbsp;&nbsp; F = NO</p>
        ","j","html-keyboard-response","201","2.1.0","1229244","J=YES, F=NO","ou21olxmeq","1","75","70","80","","","","","","","","","catch","trout1","literal","experimental","j","true","",""
"null","<p style=""font-size: 50px;"">+</p>","null","html-keyboard-response","202","2.1.0","1229557","J=YES, F=NO","ou21olxmeq","1","75","70","80","","","","","","","","","","","","","","","",""
"null","audio/beep-329314.mp3","null","audio-keyboard-response","203","2.1.0","1231084","J=YES, F=NO","ou21olxmeq","1","75","70","80","","","","","","","","","","","","","","","",""
"null","audio/tax1.wav","null","audio-keyboard-response","204","2.1.0","1231674","J=YES, F=NO","ou21olxmeq","1","75","70","80","","","","","","","","","","","","","","","",""
"337","
          <p id=""word"" style=""font-size: 40px;"">snate</p>
          <p style=""font-size: 16px;"">J = YES &nbsp;&nbsp;&nbsp; F = NO</p>
        ","j","html-keyboard-response","205","2.1.0","1232012","J=YES, F=NO","ou21olxmeq","1","75","70","80","","","","","","","","","snate","tax1","pseudoword","pseudoword","f","false","",""
"null","<p style=""font-size: 50px;"">+</p>","null","html-keyboard-response","206","2.1.0","1232321","J=YES, F=NO","ou21olxmeq","1","75","70","80","","","","","","","","","","","","","","","",""
"null","audio/beep-329314.mp3","null","audio-keyboard-response","207","2.1.0","1233844","J=YES, F=NO","ou21olxmeq","1","75","70","80","","","","","","","","","","","","","","","",""
"null","audio/planet1.wav","null","audio-keyboard-response","208","2.1.0","1234434","J=YES, F=NO","ou21olxmeq","1","75","70","80","","","","","","","","","","","","","","","",""
"434","
          <p id=""word"" style=""font-size: 40px;"">save</p>
          <p style=""font-size: 16px;"">J = YES &nbsp;&nbsp;&nbsp; F = NO</p>
        ","j","html-keyboard-response","209","2.1.0","1234868","J=YES, F=NO","ou21olxmeq","1","75","70","80","","","","","","","","","save","planet1","metaphor","experimental","j","true","",""
"null","<p style=""font-size: 50px;"">+</p>","null","html-keyboard-response","210","2.1.0","1235174","J=YES, F=NO","ou21olxmeq","1","75","70","80","","","","","","","","","","","","","","","",""
"null","audio/beep-329314.mp3","null","audio-keyboard-response","211","2.1.0","1236704","J=YES, F=NO","ou21olxmeq","1","75","70","80","","","","","","","","","","","","","","","",""
"null","audio/mile1.wav","null","audio-keyboard-response","212","2.1.0","1237194","J=YES, F=NO","ou21olxmeq","1","75","70","80","","","","","","","","","","","","","","","",""
"401","
          <p id=""word"" style=""font-size: 40px;"">writch</p>
          <p style=""font-size: 16px;"">J = YES &nbsp;&nbsp;&nbsp; F = NO</p>
        ","j","html-keyboard-response","213","2.1.0","1237596","J=YES, F=NO","ou21olxmeq","1","75","70","80","","","","","","","","","writch","mile1","pseudoword","pseudoword","f","false","",""
"null","<p style=""font-size: 50px;"">+</p>","null","html-keyboard-response","214","2.1.0","1237909","J=YES, F=NO","ou21olxmeq","1","75","70","80","","","","","","","","","","","","","","","",""
"null","audio/beep-329314.mp3","null","audio-keyboard-response","215","2.1.0","1239444","J=YES, F=NO","ou21olxmeq","1","75","70","80","","","","","","","","","","","","","","","",""
"null","audio/key1.wav","null","audio-keyboard-response","216","2.1.0","1239814","J=YES, F=NO","ou21olxmeq","1","75","70","80","","","","","","","","","","","","","","","",""
"310","
          <p id=""word"" style=""font-size: 40px;"">lose</p>
          <p style=""font-size: 16px;"">J = YES &nbsp;&nbsp;&nbsp; F = NO</p>
        ","j","html-keyboard-response","217","2.1.0","1240124","J=YES, F=NO","ou21olxmeq","1","75","70","80","","","","","","","","","lose","key1","literal","experimental","j","true","",""
"null","<p style=""font-size: 50px;"">+</p>","null","html-keyboard-response","218","2.1.0","1240429","J=YES, F=NO","ou21olxmeq","1","75","70","80","","","","","","","","","","","","","","","",""
"null","audio/beep-329314.mp3","null","audio-keyboard-response","219","2.1.0","1241964","J=YES, F=NO","ou21olxmeq","1","75","70","80","","","","","","","","","","","","","","","",""
"null","audio/life1.wav","null","audio-keyboard-response","220","2.1.0","1242534","J=YES, F=NO","ou21olxmeq","1","75","70","80","","","","","","","","","","","","","","","",""
"525","
          <p id=""word"" style=""font-size: 40px;"">flimch</p>
          <p style=""font-size: 16px;"">J = YES &nbsp;&nbsp;&nbsp; F = NO</p>
        ","f","html-keyboard-response","221","2.1.0","1243060","J=YES, F=NO","ou21olxmeq","1","75","70","80","","","","","","","","","flimch","life1","pseudoword","pseudoword","f","true","",""
"null","<p style=""font-size: 50px;"">+</p>","null","html-keyboard-response","222","2.1.0","1243376","J=YES, F=NO","ou21olxmeq","1","75","70","80","","","","","","","","","","","","","","","",""
"null","audio/beep-329314.mp3","null","audio-keyboard-response","223","2.1.0","1244904","J=YES, F=NO","ou21olxmeq","1","75","70","80","","","","","","","","","","","","","","","",""
"null","audio/strength.wav","null","audio-keyboard-response","224","2.1.0","1245634","J=YES, F=NO","ou21olxmeq","1","75","70","80","","","","","","","","","","","","","","","",""
"450","
          <p id=""word"" style=""font-size: 40px;"">plabet</p>
          <p style=""font-size: 16px;"">J = YES &nbsp;&nbsp;&nbsp; F = NO</p>
        ","f","html-keyboard-response","225","2.1.0","1246084","J=YES, F=NO","ou21olxmeq","1","75","70","80","","","","","","","","","plabet","strength","pseudoword","pseudoword","f","true","",""
"null","<p style=""font-size: 50px;"">+</p>","null","html-keyboard-response","226","2.1.0","1246390","J=YES, F=NO","ou21olxmeq","1","75","70","80","","","","","","","","","","","","","","","",""
"null","audio/beep-329314.mp3","null","audio-keyboard-response","227","2.1.0","1247924","J=YES, F=NO","ou21olxmeq","1","75","70","80","","","","","","","","","","","","","","","",""
"null","audio/voice.wav","null","audio-keyboard-response","228","2.1.0","1248534","J=YES, F=NO","ou21olxmeq","1","75","70","80","","","","","","","","","","","","","","","",""
"638","
          <p id=""word"" style=""font-size: 40px;"">flood</p>
          <p style=""font-size: 16px;"">J = YES &nbsp;&nbsp;&nbsp; F = NO</p>
        ","j","html-keyboard-response","229","2.1.0","1249172","J=YES, F=NO","ou21olxmeq","1","75","70","80","","","","","","","","","flood","voice","unrelated","experimental","j","true","",""
"637536","<p>Excellent! You have finished block 1 of 8.</p>
                     <p>Feel free to take a 30 second break.</p>
                     <p>Press any key when you're ready to continue.</p>","j","html-keyboard-response","230","2.1.0","1886709","J=YES, F=NO","ou21olxmeq","1","75","70","80","","","","","","","","","","","","","","","",""
"1135","<p>Starting main block 2 of 8. Press any key to continue.</p>","j","html-keyboard-response","231","2.1.0","1887845","J=YES, F=NO","ou21olxmeq","1","75","70","80","","","","","","","","","","","","","","","",""
"null","<p style=""font-size: 50px;"">+</p>","null","html-keyboard-response","232","2.1.0","1888151","J=YES, F=NO","ou21olxmeq","1","75","70","80","","","","","","","","","","","","","","","",""
"null","audio/beep-329314.mp3","null","audio-keyboard-response","233","2.1.0","1889679","J=YES, F=NO","ou21olxmeq","1","75","70","80","","","","","","","","","","","","","","","",""
"null","audio/holiday1.wav","null","audio-keyboard-response","234","2.1.0","1890295","J=YES, F=NO","ou21olxmeq","1","75","70","80","","","","","","","","","","","","","","","",""
"662","
          <p id=""word"" style=""font-size: 40px;"">spend</p>
          <p style=""font-size: 16px;"">J = YES &nbsp;&nbsp;&nbsp; F = NO</p>
        ","j","html-keyboard-response","235","2.1.0","1890958","J=YES, F=NO","ou21olxmeq","1","75","70","80","","","","","","","","","spend","holiday1","metaphor","experimental","j","true","",""
"null","<p style=""font-size: 50px;"">+</p>","null","html-keyboard-response","236","2.1.0","1891271","J=YES, F=NO","ou21olxmeq","1","75","70","80","","","","","","","","","","","","","","","",""
"null","audio/beep-329314.mp3","null","audio-keyboard-response","237","2.1.0","1892795","J=YES, F=NO","ou21olxmeq","1","75","70","80","","","","","","","","","","","","","","","",""
"null","audio/smirk1.wav","null","audio-keyboard-response","238","2.1.0","1893615","J=YES, F=NO","ou21olxmeq","1","75","70","80","","","","","","","","","","","","","","","",""
"582","
          <p id=""word"" style=""font-size: 40px;"">snopt</p>
          <p style=""font-size: 16px;"">J = YES &nbsp;&nbsp;&nbsp; F = NO</p>
        ","f","html-keyboard-response","239","2.1.0","1894197","J=YES, F=NO","ou21olxmeq","1","75","70","80","","","","","","","","","snopt","smirk1","pseudoword","pseudoword","f","true","",""
"null","<p style=""font-size: 50px;"">+</p>","null","html-keyboard-response","240","2.1.0","1894509","J=YES, F=NO","ou21olxmeq","1","75","70","80","","","","","","","","","","","","","","","",""
"null","audio/beep-329314.mp3","null","audio-keyboard-response","241","2.1.0","1896035","J=YES, F=NO","ou21olxmeq","1","75","70","80","","","","","","","","","","","","","","","",""
"null","audio/mind.wav","null","audio-keyboard-response","242","2.1.0","1896635","J=YES, F=NO","ou21olxmeq","1","75","70","80","","","","","","","","","","","","","","","",""
"426","
          <p id=""word"" style=""font-size: 40px;"">clear</p>
          <p style=""font-size: 16px;"">J = YES &nbsp;&nbsp;&nbsp; F = NO</p>
        ","j","html-keyboard-response","243","2.1.0","1897061","J=YES, F=NO","ou21olxmeq","1","75","70","80","","","","","","","","","clear","mind","metaphor","experimental","j","true","",""
"null","<p style=""font-size: 50px;"">+</p>","null","html-keyboard-response","244","2.1.0","1897368","J=YES, F=NO","ou21olxmeq","1","75","70","80","","","","","","","","","","","","","","","",""
"null","audio/beep-329314.mp3","null","audio-keyboard-response","245","2.1.0","1898895","J=YES, F=NO","ou21olxmeq","1","75","70","80","","","","","","","","","","","","","","","",""
"null","audio/gossip1.wav","null","audio-keyboard-response","246","2.1.0","1899655","J=YES, F=NO","ou21olxmeq","1","75","70","80","","","","","","","","","","","","","","","",""
"557","
          <p id=""word"" style=""font-size: 40px;"">camerish</p>
          <p style=""font-size: 16px;"">J = YES &nbsp;&nbsp;&nbsp; F = NO</p>
        ","f","html-keyboard-response","247","2.1.0","1900213","J=YES, F=NO","ou21olxmeq","1","75","70","80","","","","","","","","","camerish","gossip1","pseudoword","pseudoword","f","true","",""
"null","<p style=""font-size: 50px;"">+</p>","null","html-keyboard-response","248","2.1.0","1900524","J=YES, F=NO","ou21olxmeq","1","75","70","80","","","","","","","","","","","","","","","",""
"null","audio/beep-329314.mp3","null","audio-keyboard-response","249","2.1.0","1902055","J=YES, F=NO","ou21olxmeq","1","75","70","80","","","","","","","","","","","","","","","",""
"null","audio/hotel1.wav","null","audio-keyboard-response","250","2.1.0","1902715","J=YES, F=NO","ou21olxmeq","1","75","70","80","","","","","","","","","","","","","","","",""
"633","
          <p id=""word"" style=""font-size: 40px;"">flanter</p>
          <p style=""font-size: 16px;"">J = YES &nbsp;&nbsp;&nbsp; F = NO</p>
        ","f","html-keyboard-response","251","2.1.0","1903349","J=YES, F=NO","ou21olxmeq","1","75","70","80","","","","","","","","","flanter","hotel1","pseudoword","pseudoword","f","true","",""
"null","<p style=""font-size: 50px;"">+</p>","null","html-keyboard-response","252","2.1.0","1903653","J=YES, F=NO","ou21olxmeq","1","75","70","80","","","","","","","","","","","","","","","",""
"null","audio/beep-329314.mp3","null","audio-keyboard-response","253","2.1.0","1905175","J=YES, F=NO","ou21olxmeq","1","75","70","80","","","","","","","","","","","","","","","",""
"null","audio/pain1.wav","null","audio-keyboard-response","254","2.1.0","1905615","J=YES, F=NO","ou21olxmeq","1","75","70","80","","","","","","","","","","","","","","","",""
"645","
          <p id=""word"" style=""font-size: 40px;"">tritted</p>
          <p style=""font-size: 16px;"">J = YES &nbsp;&nbsp;&nbsp; F = NO</p>
        ","f","html-keyboard-response","255","2.1.0","1906261","J=YES, F=NO","ou21olxmeq","1","75","70","80","","","","","","","","","tritted","pain1","pseudoword","pseudoword","f","true","",""
"null","<p style=""font-size: 50px;"">+</p>","null","html-keyboard-response","256","2.1.0","1906566","J=YES, F=NO","ou21olxmeq","1","75","70","80","","","","","","","","","","","","","","","",""
"null","audio/beep-329314.mp3","null","audio-keyboard-response","257","2.1.0","1908095","J=YES, F=NO","ou21olxmeq","1","75","70","80","","","","","","","","","","","","","","","",""
"null","audio/test1.wav","null","audio-keyboard-response","258","2.1.0","1908655","J=YES, F=NO","ou21olxmeq","1","75","70","80","","","","","","","","","","","","","","","",""
"518","
          <p id=""word"" style=""font-size: 40px;"">run</p>
          <p style=""font-size: 16px;"">J = YES &nbsp;&nbsp;&nbsp; F = NO</p>
        ","j","html-keyboard-response","259","2.1.0","1909173","J=YES, F=NO","ou21olxmeq","1","75","70","80","","","","","","","","","run","test1","metaphor","experimental","j","true","",""
"null","<p style=""font-size: 50px;"">+</p>","null","html-keyboard-response","260","2.1.0","1909488","J=YES, F=NO","ou21olxmeq","1","75","70","80","","","","","","","","","","","","","","","",""
"null","audio/beep-329314.mp3","null","audio-keyboard-response","261","2.1.0","1911015","J=YES, F=NO","ou21olxmeq","1","75","70","80","","","","","","","","","","","","","","","",""
"null","audio/tunnel.wav","null","audio-keyboard-response","262","2.1.0","1911436","J=YES, F=NO","ou21olxmeq","1","75","70","80","","","","","","","","","","","","","","","",""
"545","
          <p id=""word"" style=""font-size: 40px;"">grasp</p>
          <p style=""font-size: 16px;"">J = YES &nbsp;&nbsp;&nbsp; F = NO</p>
        ","j","html-keyboard-response","263","2.1.0","1911981","J=YES, F=NO","ou21olxmeq","1","75","70","80","","","","","","","","","grasp","tunnel","unrelated","experimental","j","true","",""
"null","<p style=""font-size: 50px;"">+</p>","null","html-keyboard-response","264","2.1.0","1912294","J=YES, F=NO","ou21olxmeq","1","75","70","80","","","","","","","","","","","","","","","",""
"null","audio/beep-329314.mp3","null","audio-keyboard-response","265","2.1.0","1913836","J=YES, F=NO","ou21olxmeq","1","75","70","80","","","","","","","","","","","","","","","",""
"null","audio/bomb1.wav","null","audio-keyboard-response","266","2.1.0","1914215","J=YES, F=NO","ou21olxmeq","1","75","70","80","","","","","","","","","","","","","","","",""
"542","
          <p id=""word"" style=""font-size: 40px;"">clean</p>
          <p style=""font-size: 16px;"">J = YES &nbsp;&nbsp;&nbsp; F = NO</p>
        ","j","html-keyboard-response","267","2.1.0","1914757","J=YES, F=NO","ou21olxmeq","1","75","70","80","","","","","","","","","clean","bomb1","filler","filler","j","true","",""
"null","<p style=""font-size: 50px;"">+</p>","null","html-keyboard-response","268","2.1.0","1915067","J=YES, F=NO","ou21olxmeq","1","75","70","80","","","","","","","","","","","","","","","",""
"null","audio/beep-329314.mp3","null","audio-keyboard-response","269","2.1.0","1916596","J=YES, F=NO","ou21olxmeq","1","75","70","80","","","","","","","","","","","","","","","",""
"null","audio/wealth1.wav","null","audio-keyboard-response","270","2.1.0","1917295","J=YES, F=NO","ou21olxmeq","1","75","70","80","","","","","","","","","","","","","","","",""
"565","
          <p id=""word"" style=""font-size: 40px;"">possess</p>
          <p style=""font-size: 16px;"">J = YES &nbsp;&nbsp;&nbsp; F = NO</p>
        ","j","html-keyboard-response","271","2.1.0","1917861","J=YES, F=NO","ou21olxmeq","1","75","70","80","","","","","","","","","possess","wealth1","literal","experimental","j","true","",""
"null","<p style=""font-size: 50px;"">+</p>","null","html-keyboard-response","272","2.1.0","1918167","J=YES, F=NO","ou21olxmeq","1","75","70","80","","","","","","","","","","","","","","","",""
"null","audio/beep-329314.mp3","null","audio-keyboard-response","273","2.1.0","1919695","J=YES, F=NO","ou21olxmeq","1","75","70","80","","","","","","","","","","","","","","","",""
"null","audio/account1.wav","null","audio-keyboard-response","274","2.1.0","1920415","J=YES, F=NO","ou21olxmeq","1","75","70","80","","","","","","","","","","","","","","","",""
"462","
          <p id=""word"" style=""font-size: 40px;"">paint</p>
          <p style=""font-size: 16px;"">J = YES &nbsp;&nbsp;&nbsp; F = NO</p>
        ","j","html-keyboard-response","275","2.1.0","1920877","J=YES, F=NO","ou21olxmeq","1","75","70","80","","","","","","","","","paint","account1","filler","filler","j","true","",""
"null","<p style=""font-size: 50px;"">+</p>","null","html-keyboard-response","276","2.1.0","1921189","J=YES, F=NO","ou21olxmeq","1","75","70","80","","","","","","","","","","","","","","","",""
"null","audio/beep-329314.mp3","null","audio-keyboard-response","277","2.1.0","1922716","J=YES, F=NO","ou21olxmeq","1","75","70","80","","","","","","","","","","","","","","","",""
"null","audio/budget1.wav","null","audio-keyboard-response","278","2.1.0","1923355","J=YES, F=NO","ou21olxmeq","1","75","70","80","","","","","","","","","","","","","","","",""
"505","
          <p id=""word"" style=""font-size: 40px;"">sulist</p>
          <p style=""font-size: 16px;"">J = YES &nbsp;&nbsp;&nbsp; F = NO</p>
        ","f","html-keyboard-response","279","2.1.0","1923861","J=YES, F=NO","ou21olxmeq","1","75","70","80","","","","","","","","","sulist","budget1","pseudoword","pseudoword","f","true","",""
"null","<p style=""font-size: 50px;"">+</p>","null","html-keyboard-response","280","2.1.0","1924167","J=YES, F=NO","ou21olxmeq","1","75","70","80","","","","","","","","","","","","","","","",""
"null","audio/beep-329314.mp3","null","audio-keyboard-response","281","2.1.0","1925695","J=YES, F=NO","ou21olxmeq","1","75","70","80","","","","","","","","","","","","","","","",""
"null","audio/account1.wav","null","audio-keyboard-response","282","2.1.0","1926375","J=YES, F=NO","ou21olxmeq","1","75","70","80","","","","","","","","","","","","","","","",""
"445","
          <p id=""word"" style=""font-size: 40px;"">open</p>
          <p style=""font-size: 16px;"">J = YES &nbsp;&nbsp;&nbsp; F = NO</p>
        ","j","html-keyboard-response","283","2.1.0","1926821","J=YES, F=NO","ou21olxmeq","1","75","70","80","","","","","","","","","open","account1","metaphor","experimental","j","true","",""
"null","<p style=""font-size: 50px;"">+</p>","null","html-keyboard-response","284","2.1.0","1927123","J=YES, F=NO","ou21olxmeq","1","75","70","80","","","","","","","","","","","","","","","",""
"null","audio/beep-329314.mp3","null","audio-keyboard-response","285","2.1.0","1928655","J=YES, F=NO","ou21olxmeq","1","75","70","80","","","","","","","","","","","","","","","",""
"null","audio/effort.wav","null","audio-keyboard-response","286","2.1.0","1929275","J=YES, F=NO","ou21olxmeq","1","75","70","80","","","","","","","","","","","","","","","",""
"545","
          <p id=""word"" style=""font-size: 40px;"">whonk</p>
          <p style=""font-size: 16px;"">J = YES &nbsp;&nbsp;&nbsp; F = NO</p>
        ","f","html-keyboard-response","287","2.1.0","1929821","J=YES, F=NO","ou21olxmeq","1","75","70","80","","","","","","","","","whonk","effort","pseudoword","pseudoword","f","true","",""
"null","<p style=""font-size: 50px;"">+</p>","null","html-keyboard-response","288","2.1.0","1930138","J=YES, F=NO","ou21olxmeq","1","75","70","80","","","","","","","","","","","","","","","",""
"null","audio/beep-329314.mp3","null","audio-keyboard-response","289","2.1.0","1931675","J=YES, F=NO","ou21olxmeq","1","75","70","80","","","","","","","","","","","","","","","",""
"null","audio/wool1.wav","null","audio-keyboard-response","290","2.1.0","1932055","J=YES, F=NO","ou21olxmeq","1","75","70","80","","","","","","","","","","","","","","","",""
"533","
          <p id=""word"" style=""font-size: 40px;"">weave</p>
          <p style=""font-size: 16px;"">J = YES &nbsp;&nbsp;&nbsp; F = NO</p>
        ","j","html-keyboard-response","291","2.1.0","1932589","J=YES, F=NO","ou21olxmeq","1","75","70","80","","","","","","","","","weave","wool1","literal","experimental","j","true","",""
"null","<p style=""font-size: 50px;"">+</p>","null","html-keyboard-response","292","2.1.0","1932897","J=YES, F=NO","ou21olxmeq","1","75","70","80","","","","","","","","","","","","","","","",""
"null","audio/beep-329314.mp3","null","audio-keyboard-response","293","2.1.0","1934435","J=YES, F=NO","ou21olxmeq","1","75","70","80","","","","","","","","","","","","","","","",""
"null","audio/gossip1.wav","null","audio-keyboard-response","294","2.1.0","1935055","J=YES, F=NO","ou21olxmeq","1","75","70","80","","","","","","","","","","","","","","","",""
"478","
          <p id=""word"" style=""font-size: 40px;"">wrestle</p>
          <p style=""font-size: 16px;"">J = YES &nbsp;&nbsp;&nbsp; F = NO</p>
        ","j","html-keyboard-response","295","2.1.0","1935533","J=YES, F=NO","ou21olxmeq","1","75","70","80","","","","","","","","","wrestle","gossip1","unrelated","experimental","j","true","",""
"1007","<p>Excellent! You have finished block 2 of 8.</p>
                     <p>Feel free to take a 30 second break.</p>
                     <p>Press any key when you're ready to continue.</p>","j","html-keyboard-response","296","2.1.0","1936541","J=YES, F=NO","ou21olxmeq","1","75","70","80","","","","","","","","","","","","","","","",""
"527","<p>Starting main block 3 of 8. Press any key to continue.</p>","j","html-keyboard-response","297","2.1.0","1937069","J=YES, F=NO","ou21olxmeq","1","75","70","80","","","","","","","","","","","","","","","",""
"null","<p style=""font-size: 50px;"">+</p>","null","html-keyboard-response","298","2.1.0","1937382","J=YES, F=NO","ou21olxmeq","1","75","70","80","","","","","","","","","","","","","","","",""
"null","audio/beep-329314.mp3","null","audio-keyboard-response","299","2.1.0","1938916","J=YES, F=NO","ou21olxmeq","1","75","70","80","","","","","","","","","","","","","","","",""
"null","audio/case1.wav","null","audio-keyboard-response","300","2.1.0","1939455","J=YES, F=NO","ou21olxmeq","1","75","70","80","","","","","","","","","","","","","","","",""
"462","
          <p id=""word"" style=""font-size: 40px;"">close</p>
          <p style=""font-size: 16px;"">J = YES &nbsp;&nbsp;&nbsp; F = NO</p>
        ","j","html-keyboard-response","301","2.1.0","1939917","J=YES, F=NO","ou21olxmeq","1","75","70","80","","","","","","","","","close","case1","metaphor","experimental","j","true","",""
"null","<p style=""font-size: 50px;"">+</p>","null","html-keyboard-response","302","2.1.0","1940226","J=YES, F=NO","ou21olxmeq","1","75","70","80","","","","","","","","","","","","","","","",""
"null","audio/beep-329314.mp3","null","audio-keyboard-response","303","2.1.0","1941755","J=YES, F=NO","ou21olxmeq","1","75","70","80","","","","","","","","","","","","","","","",""
"null","audio/kettle1.wav","null","audio-keyboard-response","304","2.1.0","1942255","J=YES, F=NO","ou21olxmeq","1","75","70","80","","","","","","","","","","","","","","","",""
"518","
          <p id=""word"" style=""font-size: 40px;"">wrap</p>
          <p style=""font-size: 16px;"">J = YES &nbsp;&nbsp;&nbsp; F = NO</p>
        ","j","html-keyboard-response","305","2.1.0","1942774","J=YES, F=NO","ou21olxmeq","1","75","70","80","","","","","","","","","wrap","kettle1","filler","filler","j","true","",""
"null","<p style=""font-size: 50px;"">+</p>","null","html-keyboard-response","306","2.1.0","1943086","J=YES, F=NO","ou21olxmeq","1","75","70","80","","","","","","","","","","","","","","","",""
"null","audio/beep-329314.mp3","null","audio-keyboard-response","307","2.1.0","1944615","J=YES, F=NO","ou21olxmeq","1","75","70","80","","","","","","","","","","","","","","","",""
"null","audio/emotion.wav","null","audio-keyboard-response","308","2.1.0","1945295","J=YES, F=NO","ou21olxmeq","1","75","70","80","","","","","","","","","","","","","","","",""
"757","
          <p id=""word"" style=""font-size: 40px;"">devering</p>
          <p style=""font-size: 16px;"">J = YES &nbsp;&nbsp;&nbsp; F = NO</p>
        ","f","html-keyboard-response","309","2.1.0","1946053","J=YES, F=NO","ou21olxmeq","1","75","70","80","","","","","","","","","devering","emotion","pseudoword","pseudoword","f","true","",""
"null","<p style=""font-size: 50px;"">+</p>","null","html-keyboard-response","310","2.1.0","1946369","J=YES, F=NO","ou21olxmeq","1","75","70","80","","","","","","","","","","","","","","","",""
"null","audio/beep-329314.mp3","null","audio-keyboard-response","311","2.1.0","1947895","J=YES, F=NO","ou21olxmeq","1","75","70","80","","","","","","","","","","","","","","","",""
"null","audio/plot1.wav","null","audio-keyboard-response","312","2.1.0","1948475","J=YES, F=NO","ou21olxmeq","1","75","70","80","","","","","","","","","","","","","","","",""
"null","
          <p id=""word"" style=""font-size: 40px;"">glenter</p>
          <p style=""font-size: 16px;"">J = YES &nbsp;&nbsp;&nbsp; F = NO</p>
        ","null","html-keyboard-response","313","2.1.0","1949988","J=YES, F=NO","ou21olxmeq","1","75","70","80","","","","","","","","","glenter","plot1","pseudoword","pseudoword","f","false","",""
"null","<p style=""font-size: 50px;"">+</p>","null","html-keyboard-response","314","2.1.0","1950303","J=YES, F=NO","ou21olxmeq","1","75","70","80","","","","","","","","","","","","","","","",""
"null","audio/beep-329314.mp3","null","audio-keyboard-response","315","2.1.0","1951835","J=YES, F=NO","ou21olxmeq","1","75","70","80","","","","","","","","","","","","","","","",""
"null","audio/chance.wav","null","audio-keyboard-response","316","2.1.0","1952695","J=YES, F=NO","ou21olxmeq","1","75","70","80","","","","","","","","","","","","","","","",""
"566","
          <p id=""word"" style=""font-size: 40px;"">seize</p>
          <p style=""font-size: 16px;"">J = YES &nbsp;&nbsp;&nbsp; F = NO</p>
        ","f","html-keyboard-response","317","2.1.0","1953261","J=YES, F=NO","ou21olxmeq","1","75","70","80","","","","","","","","","seize","chance","metaphor","experimental","j","false","",""
"null","<p style=""font-size: 50px;"">+</p>","null","html-keyboard-response","318","2.1.0","1953567","J=YES, F=NO","ou21olxmeq","1","75","70","80","","","","","","","","","","","","","","","",""
"null","audio/beep-329314.mp3","null","audio-keyboard-response","319","2.1.0","1955095","J=YES, F=NO","ou21olxmeq","1","75","70","80","","","","","","","","","","","","","","","",""
"null","audio/terrain.wav","null","audio-keyboard-response","320","2.1.0","1955716","J=YES, F=NO","ou21olxmeq","1","75","70","80","","","","","","","","","","","","","","","",""
"577","
          <p id=""word"" style=""font-size: 40px;"">twist</p>
          <p style=""font-size: 16px;"">J = YES &nbsp;&nbsp;&nbsp; F = NO</p>
        ","j","html-keyboard-response","321","2.1.0","1956294","J=YES, F=NO","ou21olxmeq","1","75","70","80","","","","","","","","","twist","terrain","filler","filler","j","true","",""
"null","<p style=""font-size: 50px;"">+</p>","null","html-keyboard-response","322","2.1.0","1956601","J=YES, F=NO","ou21olxmeq","1","75","70","80","","","","","","","","","","","","","","","",""
"null","audio/beep-329314.mp3","null","audio-keyboard-response","323","2.1.0","1958135","J=YES, F=NO","ou21olxmeq","1","75","70","80","","","","","","","","","","","","","","","",""
"null","audio/pig.wav","null","audio-keyboard-response","324","2.1.0","1958515","J=YES, F=NO","ou21olxmeq","1","75","70","80","","","","","","","","","","","","","","","",""
"554","
          <p id=""word"" style=""font-size: 40px;"">tirlike</p>
          <p style=""font-size: 16px;"">J = YES &nbsp;&nbsp;&nbsp; F = NO</p>
        ","f","html-keyboard-response","325","2.1.0","1959069","J=YES, F=NO","ou21olxmeq","1","75","70","80","","","","","","","","","tirlike","pig","pseudoword","pseudoword","f","true","",""
"null","<p style=""font-size: 50px;"">+</p>","null","html-keyboard-response","326","2.1.0","1959372","J=YES, F=NO","ou21olxmeq","1","75","70","80","","","","","","","","","","","","","","","",""
"null","audio/beep-329314.mp3","null","audio-keyboard-response","327","2.1.0","1960895","J=YES, F=NO","ou21olxmeq","1","75","70","80","","","","","","","","","","","","","","","",""
"null","audio/ego.wav","null","audio-keyboard-response","328","2.1.0","1961476","J=YES, F=NO","ou21olxmeq","1","75","70","80","","","","","","","","","","","","","","","",""
"673","
          <p id=""word"" style=""font-size: 40px;"">bruite</p>
          <p style=""font-size: 16px;"">J = YES &nbsp;&nbsp;&nbsp; F = NO</p>
        ","f","html-keyboard-response","329","2.1.0","1962149","J=YES, F=NO","ou21olxmeq","1","75","70","80","","","","","","","","","bruite","ego","pseudoword","pseudoword","f","true","",""
"null","<p style=""font-size: 50px;"">+</p>","null","html-keyboard-response","330","2.1.0","1962458","J=YES, F=NO","ou21olxmeq","1","75","70","80","","","","","","","","","","","","","","","",""
"null","audio/beep-329314.mp3","null","audio-keyboard-response","331","2.1.0","1963996","J=YES, F=NO","ou21olxmeq","1","75","70","80","","","","","","","","","","","","","","","",""
"null","audio/arm.wav","null","audio-keyboard-response","332","2.1.0","1964535","J=YES, F=NO","ou21olxmeq","1","75","70","80","","","","","","","","","","","","","","","",""
"622","
          <p id=""word"" style=""font-size: 40px;"">pigne</p>
          <p style=""font-size: 16px;"">J = YES &nbsp;&nbsp;&nbsp; F = NO</p>
        ","f","html-keyboard-response","333","2.1.0","1965158","J=YES, F=NO","ou21olxmeq","1","75","70","80","","","","","","","","","pigne","arm","pseudoword","pseudoword","f","true","",""
"null","<p style=""font-size: 50px;"">+</p>","null","html-keyboard-response","334","2.1.0","1965470","J=YES, F=NO","ou21olxmeq","1","75","70","80","","","","","","","","","","","","","","","",""
"null","audio/beep-329314.mp3","null","audio-keyboard-response","335","2.1.0","1966996","J=YES, F=NO","ou21olxmeq","1","75","70","80","","","","","","","","","","","","","","","",""
"null","audio/camera1.wav","null","audio-keyboard-response","336","2.1.0","1967515","J=YES, F=NO","ou21olxmeq","1","75","70","80","","","","","","","","","","","","","","","",""
"554","
          <p id=""word"" style=""font-size: 40px;"">bring</p>
          <p style=""font-size: 16px;"">J = YES &nbsp;&nbsp;&nbsp; F = NO</p>
        ","j","html-keyboard-response","337","2.1.0","1968069","J=YES, F=NO","ou21olxmeq","1","75","70","80","","","","","","","","","bring","camera1","literal","experimental","j","true","",""
"null","<p style=""font-size: 50px;"">+</p>","null","html-keyboard-response","338","2.1.0","1968372","J=YES, F=NO","ou21olxmeq","1","75","70","80","","","","","","","","","","","","","","","",""
"null","audio/beep-329314.mp3","null","audio-keyboard-response","339","2.1.0","1969895","J=YES, F=NO","ou21olxmeq","1","75","70","80","","","","","","","","","","","","","","","",""
"null","audio/van1.wav","null","audio-keyboard-response","340","2.1.0","1970415","J=YES, F=NO","ou21olxmeq","1","75","70","80","","","","","","","","","","","","","","","",""
"485","
          <p id=""word"" style=""font-size: 40px;"">push</p>
          <p style=""font-size: 16px;"">J = YES &nbsp;&nbsp;&nbsp; F = NO</p>
        ","j","html-keyboard-response","341","2.1.0","1970901","J=YES, F=NO","ou21olxmeq","1","75","70","80","","","","","","","","","push","van1","filler","filler","j","true","",""
"null","<p style=""font-size: 50px;"">+</p>","null","html-keyboard-response","342","2.1.0","1971211","J=YES, F=NO","ou21olxmeq","1","75","70","80","","","","","","","","","","","","","","","",""
"null","audio/beep-329314.mp3","null","audio-keyboard-response","343","2.1.0","1972735","J=YES, F=NO","ou21olxmeq","1","75","70","80","","","","","","","","","","","","","","","",""
"null","audio/mirror1.wav","null","audio-keyboard-response","344","2.1.0","1973155","J=YES, F=NO","ou21olxmeq","1","75","70","80","","","","","","","","","","","","","","","",""
"490","
          <p id=""word"" style=""font-size: 40px;"">fight</p>
          <p style=""font-size: 16px;"">J = YES &nbsp;&nbsp;&nbsp; F = NO</p>
        ","j","html-keyboard-response","345","2.1.0","1973645","J=YES, F=NO","ou21olxmeq","1","75","70","80","","","","","","","","","fight","mirror1","unrelated","experimental","j","true","",""
"null","<p style=""font-size: 50px;"">+</p>","null","html-keyboard-response","346","2.1.0","1973953","J=YES, F=NO","ou21olxmeq","1","75","70","80","","","","","","","","","","","","","","","",""
"null","audio/beep-329314.mp3","null","audio-keyboard-response","347","2.1.0","1975475","J=YES, F=NO","ou21olxmeq","1","75","70","80","","","","","","","","","","","","","","","",""
"null","audio/garden1.wav","null","audio-keyboard-response","348","2.1.0","1976135","J=YES, F=NO","ou21olxmeq","1","75","70","80","","","","","","","","","","","","","","","",""
"486","
          <p id=""word"" style=""font-size: 40px;"">invest</p>
          <p style=""font-size: 16px;"">J = YES &nbsp;&nbsp;&nbsp; F = NO</p>
        ","j","html-keyboard-response","349","2.1.0","1976622","J=YES, F=NO","ou21olxmeq","1","75","70","80","","","","","","","","","invest","garden1","unrelated","experimental","j","true","",""
"null","<p style=""font-size: 50px;"">+</p>","null","html-keyboard-response","350","2.1.0","1976931","J=YES, F=NO","ou21olxmeq","1","75","70","80","","","","","","","","","","","","","","","",""
"null","audio/beep-329314.mp3","null","audio-keyboard-response","351","2.1.0","1978455","J=YES, F=NO","ou21olxmeq","1","75","70","80","","","","","","","","","","","","","","","",""
"null","audio/foe1.wav","null","audio-keyboard-response","352","2.1.0","1978996","J=YES, F=NO","ou21olxmeq","1","75","70","80","","","","","","","","","","","","","","","",""
"601","
          <p id=""word"" style=""font-size: 40px;"">creth</p>
          <p style=""font-size: 16px;"">J = YES &nbsp;&nbsp;&nbsp; F = NO</p>
        ","f","html-keyboard-response","353","2.1.0","1979597","J=YES, F=NO","ou21olxmeq","1","75","70","80","","","","","","","","","creth","foe1","pseudoword","pseudoword","f","true","",""
"null","<p style=""font-size: 50px;"">+</p>","null","html-keyboard-response","354","2.1.0","1979902","J=YES, F=NO","ou21olxmeq","1","75","70","80","","","","","","","","","","","","","","","",""
"null","audio/beep-329314.mp3","null","audio-keyboard-response","355","2.1.0","1981435","J=YES, F=NO","ou21olxmeq","1","75","70","80","","","","","","","","","","","","","","","",""
"null","audio/planet1.wav","null","audio-keyboard-response","356","2.1.0","1982015","J=YES, F=NO","ou21olxmeq","1","75","70","80","","","","","","","","","","","","","","","",""
"702","
          <p id=""word"" style=""font-size: 40px;"">cratched</p>
          <p style=""font-size: 16px;"">J = YES &nbsp;&nbsp;&nbsp; F = NO</p>
        ","j","html-keyboard-response","357","2.1.0","1982717","J=YES, F=NO","ou21olxmeq","1","75","70","80","","","","","","","","","cratched","planet1","pseudoword","pseudoword","f","false","",""
"null","<p style=""font-size: 50px;"">+</p>","null","html-keyboard-response","358","2.1.0","1983025","J=YES, F=NO","ou21olxmeq","1","75","70","80","","","","","","","","","","","","","","","",""
"null","audio/beep-329314.mp3","null","audio-keyboard-response","359","2.1.0","1984555","J=YES, F=NO","ou21olxmeq","1","75","70","80","","","","","","","","","","","","","","","",""
"null","audio/mind.wav","null","audio-keyboard-response","360","2.1.0","1985116","J=YES, F=NO","ou21olxmeq","1","75","70","80","","","","","","","","","","","","","","","",""
"633","
          <p id=""word"" style=""font-size: 40px;"">crainate</p>
          <p style=""font-size: 16px;"">J = YES &nbsp;&nbsp;&nbsp; F = NO</p>
        ","f","html-keyboard-response","361","2.1.0","1985749","J=YES, F=NO","ou21olxmeq","1","75","70","80","","","","","","","","","crainate","mind","pseudoword","pseudoword","f","true","",""
"751","<p>Excellent! You have finished block 3 of 8.</p>
                     <p>Feel free to take a 30 second break.</p>
                     <p>Press any key when you're ready to continue.</p>","f","html-keyboard-response","362","2.1.0","1986501","J=YES, F=NO","ou21olxmeq","1","75","70","80","","","","","","","","","","","","","","","",""
"544","<p>Starting main block 4 of 8. Press any key to continue.</p>","f","html-keyboard-response","363","2.1.0","1987046","J=YES, F=NO","ou21olxmeq","1","75","70","80","","","","","","","","","","","","","","","",""
"null","<p style=""font-size: 50px;"">+</p>","null","html-keyboard-response","364","2.1.0","1987359","J=YES, F=NO","ou21olxmeq","1","75","70","80","","","","","","","","","","","","","","","",""
"null","audio/beep-329314.mp3","null","audio-keyboard-response","365","2.1.0","1988895","J=YES, F=NO","ou21olxmeq","1","75","70","80","","","","","","","","","","","","","","","",""
"null","audio/soul.wav","null","audio-keyboard-response","366","2.1.0","1989615","J=YES, F=NO","ou21olxmeq","1","75","70","80","","","","","","","","","","","","","","","",""
"502","
          <p id=""word"" style=""font-size: 40px;"">sell</p>
          <p style=""font-size: 16px;"">J = YES &nbsp;&nbsp;&nbsp; F = NO</p>
        ","j","html-keyboard-response","367","2.1.0","1990117","J=YES, F=NO","ou21olxmeq","1","75","70","80","","","","","","","","","sell","soul","metaphor","experimental","j","true","",""
"null","<p style=""font-size: 50px;"">+</p>","null","html-keyboard-response","368","2.1.0","1990427","J=YES, F=NO","ou21olxmeq","1","75","70","80","","","","","","","","","","","","","","","",""
"null","audio/beep-329314.mp3","null","audio-keyboard-response","369","2.1.0","1991956","J=YES, F=NO","ou21olxmeq","1","75","70","80","","","","","","","","","","","","","","","",""
"null","audio/floor.wav","null","audio-keyboard-response","370","2.1.0","1992495","J=YES, F=NO","ou21olxmeq","1","75","70","80","","","","","","","","","","","","","","","",""
"598","
          <p id=""word"" style=""font-size: 40px;"">mop</p>
          <p style=""font-size: 16px;"">J = YES &nbsp;&nbsp;&nbsp; F = NO</p>
        ","j","html-keyboard-response","371","2.1.0","1993094","J=YES, F=NO","ou21olxmeq","1","75","70","80","","","","","","","","","mop","floor","filler","filler","j","true","",""
"null","<p style=""font-size: 50px;"">+</p>","null","html-keyboard-response","372","2.1.0","1993400","J=YES, F=NO","ou21olxmeq","1","75","70","80","","","","","","","","","","","","","","","",""
"null","audio/beep-329314.mp3","null","audio-keyboard-response","373","2.1.0","1994935","J=YES, F=NO","ou21olxmeq","1","75","70","80","","","","","","","","","","","","","","","",""
"null","audio/skin1.wav","null","audio-keyboard-response","374","2.1.0","1995635","J=YES, F=NO","ou21olxmeq","1","75","70","80","","","","","","","","","","","","","","","",""
"482","
          <p id=""word"" style=""font-size: 40px;"">expose</p>
          <p style=""font-size: 16px;"">J = YES &nbsp;&nbsp;&nbsp; F = NO</p>
        ","j","html-keyboard-response","375","2.1.0","1996117","J=YES, F=NO","ou21olxmeq","1","75","70","80","","","","","","","","","expose","skin1","literal","experimental","j","true","",""
"null","<p style=""font-size: 50px;"">+</p>","null","html-keyboard-response","376","2.1.0","1996424","J=YES, F=NO","ou21olxmeq","1","75","70","80","","","","","","","","","","","","","","","",""
"null","audio/beep-329314.mp3","null","audio-keyboard-response","377","2.1.0","1997956","J=YES, F=NO","ou21olxmeq","1","75","70","80","","","","","","","","","","","","","","","",""
"null","audio/trust.wav","null","audio-keyboard-response","378","2.1.0","1998575","J=YES, F=NO","ou21olxmeq","1","75","70","80","","","","","","","","","","","","","","","",""
"573","
          <p id=""word"" style=""font-size: 40px;"">swint</p>
          <p style=""font-size: 16px;"">J = YES &nbsp;&nbsp;&nbsp; F = NO</p>
        ","f","html-keyboard-response","379","2.1.0","1999149","J=YES, F=NO","ou21olxmeq","1","75","70","80","","","","","","","","","swint","trust","pseudoword","pseudoword","f","true","",""
"null","<p style=""font-size: 50px;"">+</p>","null","html-keyboard-response","380","2.1.0","1999457","J=YES, F=NO","ou21olxmeq","1","75","70","80","","","","","","","","","","","","","","","",""
"null","audio/beep-329314.mp3","null","audio-keyboard-response","381","2.1.0","2000995","J=YES, F=NO","ou21olxmeq","1","75","70","80","","","","","","","","","","","","","","","",""
"null","audio/meal.wav","null","audio-keyboard-response","382","2.1.0","2001475","J=YES, F=NO","ou21olxmeq","1","75","70","80","","","","","","","","","","","","","","","",""
"545","
          <p id=""word"" style=""font-size: 40px;"">gallite</p>
          <p style=""font-size: 16px;"">J = YES &nbsp;&nbsp;&nbsp; F = NO</p>
        ","f","html-keyboard-response","383","2.1.0","2002021","J=YES, F=NO","ou21olxmeq","1","75","70","80","","","","","","","","","gallite","meal","pseudoword","pseudoword","f","true","",""
"null","<p style=""font-size: 50px;"">+</p>","null","html-keyboard-response","384","2.1.0","2002323","J=YES, F=NO","ou21olxmeq","1","75","70","80","","","","","","","","","","","","","","","",""
"null","audio/beep-329314.mp3","null","audio-keyboard-response","385","2.1.0","2003855","J=YES, F=NO","ou21olxmeq","1","75","70","80","","","","","","","","","","","","","","","",""
"null","audio/street.wav","null","audio-keyboard-response","386","2.1.0","2004676","J=YES, F=NO","ou21olxmeq","1","75","70","80","","","","","","","","","","","","","","","",""
"537","
          <p id=""word"" style=""font-size: 40px;"">hold</p>
          <p style=""font-size: 16px;"">J = YES &nbsp;&nbsp;&nbsp; F = NO</p>
        ","j","html-keyboard-response","387","2.1.0","2005214","J=YES, F=NO","ou21olxmeq","1","75","70","80","","","","","","","","","hold","street","unrelated","experimental","j","true","",""
"null","<p style=""font-size: 50px;"">+</p>","null","html-keyboard-response","388","2.1.0","2005525","J=YES, F=NO","ou21olxmeq","1","75","70","80","","","","","","","","","","","","","","","",""
"null","audio/beep-329314.mp3","null","audio-keyboard-response","389","2.1.0","2007055","J=YES, F=NO","ou21olxmeq","1","75","70","80","","","","","","","","","","","","","","","",""
