"rt","stimulus","response","trial_type","trial_index","plugin_version","time_elapsed","response_mapping","subject_id","list_index","lextale_score","lextale_word_score","lextale_nonword_score","success","timeout","failed_images","failed_audio","failed_video","task","isWord","isDummy","target","prime","prime_type","stimulus_type","correct_response","correct","section","question_order"
"6323","
    <div style=""max-width: 800px; margin: auto; text-align: left;"">
      <h2>STANFORD UNIVERSITY</h2>
      <h3>Research Information Sheet</h3>
      <p><strong>Protocol Director:</strong> Robert Hawkins<br>
      <strong>Protocol Title:</strong> Communication and social cognition in natural audiovisual contexts<br>
      <strong>IRB#:</strong> 77226</p>

      <p><strong>DESCRIPTION:</strong> You are invited to participate in a research study about language and communication. The purpose of the research is to understand how you interact and communicate with other people in naturalistic settings as a fluent English speaker. This research will be conducted through the Prolific platform, including participants from the US, UK, and Canada. If you decide to participate in this research, you will play a communication game in a group with one or more partners.</p>

      <p><strong>TIME INVOLVEMENT:</strong> The task will last the amount of time advertised on Prolific. You are free to withdraw from the study at any time.</p>

      <p><strong>RISKS AND BENEFITS:</strong> You may become frustrated if your partner gets distracted, or experience discomfort if other participants in your group send text that is inappropriate for the task. We ask you to please be respectful of other participants you might be interacting with to mitigate these risks. You may also experience discomfort when being asked to discuss or challenge emotionally salient political beliefs. Study data will be stored securely, in compliance with Stanford University standards, minimizing the risk of confidentiality breach. This study advances our scientific understanding of how people communicate and collaborate in naturalistic settings. This study may lead to further insights about what can go wrong in teamwork, suggest potential interventions to overcome these barriers, and help to develop assistive technologies that collaborate with human partners. We cannot and do not guarantee or promise that you will receive any benefits from this study.</p>

      <p><strong>PAYMENTS:</strong> You will receive payment in the amount advertised on Prolific. If you do not complete this study, you will receive prorated payment based on the time that you have spent. Additionally, you may be eligible for bonus payments as described in the instructions.</p>

      <p><strong>PARTICIPANT’S RIGHTS:</strong> If you have read this form and have decided to participate in this project, please understand your participation is voluntary and you have the right to withdraw your consent or discontinue participation at any time without penalty or loss of benefits to which you are otherwise entitled. The alternative is not to participate. You have the right to refuse to answer particular questions. The results of this research study may be presented at scientific or professional meetings or published in scientific journals. Your individual privacy will be maintained in all published and written data resulting from the study. In accordance with scientific norms, the data from this study may be used or shared with other researchers for future research (after removing personally identifying information) without additional consent from you.</p>

      <p><strong>CONTACT INFORMATION:</strong><br>
      Questions: If you have any questions, concerns or complaints about this research, its procedures, risks and benefits, contact the Protocol Director, Robert Hawkins (<a href=""mailto:rdhawkins@stanford.edu"">rdhawkins@stanford.edu</a>, 217-549-6923).<br>
      Independent Contact: If you are not satisfied with how this study is being conducted, or if you have any concerns, complaints, or general questions about the research or your rights as a participant, please contact the Stanford Institutional Review Board (IRB) to speak to someone independent of the research team at 650-723-2480 or toll free at 1-866-680-2906, or email at <a href=""mailto:irbnon-med@stanford.edu"">irbnon-med@stanford.edu</a>. You can also write to the Stanford IRB, Stanford University, 1705 El Camino Real, Palo Alto, CA 94306.</p>

      <p><strong>Please save or print a copy of this page for your records.</strong></p>
      <p>If you agree to participate in this research, click ""Continue"" below.</p>
    </div>
  ","0","html-button-response","0","2.1.0","6331","F=YES, J=NO","p8ejnb7815","1","64","78","50","","","","","","","","","","","","","","","",""
"11046","
    <div style=""max-width: 800px; margin: auto; text-align: left;"">
      <h2>Welcome!</h2>
      <p>Thank you for participating in this study. The experiment consists of three parts:</p>
      <ol>
        <li>An English vocabulary test</li>
        <li>A main task in which you will hear and see words, and decide whether the written word is a real English word</li>
        <li>A brief survey about your background</li>
      </ol>
      <p>Each part will be introduced before it begins.</p>
      <p>Please make sure you are in a quiet environment and can hear audio clearly for the final task.</p>
      <p style=""margin-top: 2em;"">Press any key to begin.</p>
    </div>
  "," ","html-keyboard-response","1","2.1.0","17379","F=YES, J=NO","p8ejnb7815","1","64","78","50","","","","","","","","","","","","","","","",""
"","","","preload","2","2.1.0","19281","F=YES, J=NO","p8ejnb7815","1","64","78","50","true","false","[]","[]","[]","","","","","","","","","","",""
"7153","
    <div style=""max-width: 800px; margin: auto; text-align: left;"">
      <h2>Part 1: Vocabulary Test</h2>
      <p>You will now complete the first part of the study: a short English vocabulary test.</p>
      <p>This test is called <strong>LexTALE</strong> and helps us get a general sense of your English proficiency.</p>
      <p style=""margin-top: 2em;"">Press any key to continue.</p>
    </div>
  "," ","html-keyboard-response","3","2.1.0","26434","F=YES, J=NO","p8ejnb7815","1","64","78","50","","","","","","","","","","","","","","","",""
"14543","
    <div style=""max-width: 800px; margin: auto; text-align: left;"">
      <h2>LexTALE Vocabulary Test</h2>
      <p>In this test, you will see a series of letter strings—one at a time.</p>
      <p>Your task is to decide whether each string is a real English word.</p>
      <p><strong>Key responses:</strong></p>
      <ul>
        <li><strong>F</strong> = YES (real English word)</li>
        <li><strong>J</strong> = NO (not a real English word)</li>
      </ul>
      <p>There is no time limit, but please try to be accurate.</p>
      <p style=""margin-top: 2em;"">Press any key to begin.</p>
    </div>
  "," ","html-keyboard-response","4","2.1.0","40978","F=YES, J=NO","p8ejnb7815","1","64","78","50","","","","","","","","","","","","","","","",""
"1680","
  <p style=""font-size: 40px;"">platery</p>
  <p style=""font-size: 16px;"">F = YES &nbsp;&nbsp;&nbsp; J = NO</p>
","f","html-keyboard-response","5","2.1.0","42659","F=YES, J=NO","p8ejnb7815","1","64","78","50","","","","","","lextale","false","true","","","","","","","",""
"1744","
  <p style=""font-size: 40px;"">denial</p>
  <p style=""font-size: 16px;"">F = YES &nbsp;&nbsp;&nbsp; J = NO</p>
","j","html-keyboard-response","6","2.1.0","44403","F=YES, J=NO","p8ejnb7815","1","64","78","50","","","","","","lextale","true","true","","","","","","","",""
"1775","
  <p style=""font-size: 40px;"">marrit</p>
  <p style=""font-size: 16px;"">F = YES &nbsp;&nbsp;&nbsp; J = NO</p>
","f","html-keyboard-response","7","2.1.0","46178","F=YES, J=NO","p8ejnb7815","1","64","78","50","","","","","","lextale","false","true","","","","","","","",""
"751","
  <p style=""font-size: 40px;"">bottle</p>
  <p style=""font-size: 16px;"">F = YES &nbsp;&nbsp;&nbsp; J = NO</p>
","f","html-keyboard-response","8","2.1.0","46930","F=YES, J=NO","p8ejnb7815","1","64","78","50","","","","","","lextale","true","false","","","","","","","",""
"1151","
  <p style=""font-size: 40px;"">birst</p>
  <p style=""font-size: 16px;"">F = YES &nbsp;&nbsp;&nbsp; J = NO</p>
","j","html-keyboard-response","9","2.1.0","48082","F=YES, J=NO","p8ejnb7815","1","64","78","50","","","","","","lextale","false","false","","","","","","","",""
"2783","
  <p style=""font-size: 40px;"">envy</p>
  <p style=""font-size: 16px;"">F = YES &nbsp;&nbsp;&nbsp; J = NO</p>
","f","html-keyboard-response","10","2.1.0","50866","F=YES, J=NO","p8ejnb7815","1","64","78","50","","","","","","lextale","true","false","","","","","","","",""
"1151","
  <p style=""font-size: 40px;"">brang</p>
  <p style=""font-size: 16px;"">F = YES &nbsp;&nbsp;&nbsp; J = NO</p>
","j","html-keyboard-response","11","2.1.0","52018","F=YES, J=NO","p8ejnb7815","1","64","78","50","","","","","","lextale","false","false","","","","","","","",""
"768","
  <p style=""font-size: 40px;"">huge</p>
  <p style=""font-size: 16px;"">F = YES &nbsp;&nbsp;&nbsp; J = NO</p>
","f","html-keyboard-response","12","2.1.0","52786","F=YES, J=NO","p8ejnb7815","1","64","78","50","","","","","","lextale","true","false","","","","","","","",""
"2175","
  <p style=""font-size: 40px;"">plove</p>
  <p style=""font-size: 16px;"">F = YES &nbsp;&nbsp;&nbsp; J = NO</p>
","j","html-keyboard-response","13","2.1.0","54962","F=YES, J=NO","p8ejnb7815","1","64","78","50","","","","","","lextale","false","false","","","","","","","",""
"751","
  <p style=""font-size: 40px;"">border</p>
  <p style=""font-size: 16px;"">F = YES &nbsp;&nbsp;&nbsp; J = NO</p>
","f","html-keyboard-response","14","2.1.0","55714","F=YES, J=NO","p8ejnb7815","1","64","78","50","","","","","","lextale","true","false","","","","","","","",""
"1407","
  <p style=""font-size: 40px;"">flimsy</p>
  <p style=""font-size: 16px;"">F = YES &nbsp;&nbsp;&nbsp; J = NO</p>
","j","html-keyboard-response","15","2.1.0","57122","F=YES, J=NO","p8ejnb7815","1","64","78","50","","","","","","lextale","true","false","","","","","","","",""
"672","
  <p style=""font-size: 40px;"">drain</p>
  <p style=""font-size: 16px;"">F = YES &nbsp;&nbsp;&nbsp; J = NO</p>
","f","html-keyboard-response","16","2.1.0","57794","F=YES, J=NO","p8ejnb7815","1","64","78","50","","","","","","lextale","true","false","","","","","","","",""
"2255","
  <p style=""font-size: 40px;"">twindle</p>
  <p style=""font-size: 16px;"">F = YES &nbsp;&nbsp;&nbsp; J = NO</p>
","f","html-keyboard-response","17","2.1.0","60050","F=YES, J=NO","p8ejnb7815","1","64","78","50","","","","","","lextale","false","false","","","","","","","",""
"735","
  <p style=""font-size: 40px;"">propose</p>
  <p style=""font-size: 16px;"">F = YES &nbsp;&nbsp;&nbsp; J = NO</p>
","f","html-keyboard-response","18","2.1.0","60786","F=YES, J=NO","p8ejnb7815","1","64","78","50","","","","","","lextale","true","false","","","","","","","",""
"1408","
  <p style=""font-size: 40px;"">forlay</p>
  <p style=""font-size: 16px;"">F = YES &nbsp;&nbsp;&nbsp; J = NO</p>
","f","html-keyboard-response","19","2.1.0","62194","F=YES, J=NO","p8ejnb7815","1","64","78","50","","","","","","lextale","false","false","","","","","","","",""
"2880","
  <p style=""font-size: 40px;"">tenant</p>
  <p style=""font-size: 16px;"">F = YES &nbsp;&nbsp;&nbsp; J = NO</p>
","f","html-keyboard-response","20","2.1.0","65074","F=YES, J=NO","p8ejnb7815","1","64","78","50","","","","","","lextale","true","false","","","","","","","",""
"847","
  <p style=""font-size: 40px;"">strain</p>
  <p style=""font-size: 16px;"">F = YES &nbsp;&nbsp;&nbsp; J = NO</p>
","f","html-keyboard-response","21","2.1.0","65922","F=YES, J=NO","p8ejnb7815","1","64","78","50","","","","","","lextale","true","false","","","","","","","",""
"1599","
  <p style=""font-size: 40px;"">holster</p>
  <p style=""font-size: 16px;"">F = YES &nbsp;&nbsp;&nbsp; J = NO</p>
","j","html-keyboard-response","22","2.1.0","67522","F=YES, J=NO","p8ejnb7815","1","64","78","50","","","","","","lextale","true","false","","","","","","","",""
"1664","
  <p style=""font-size: 40px;"">hinder</p>
  <p style=""font-size: 16px;"">F = YES &nbsp;&nbsp;&nbsp; J = NO</p>
","j","html-keyboard-response","23","2.1.0","69186","F=YES, J=NO","p8ejnb7815","1","64","78","50","","","","","","lextale","true","false","","","","","","","",""
"1855","
  <p style=""font-size: 40px;"">swindle</p>
  <p style=""font-size: 16px;"">F = YES &nbsp;&nbsp;&nbsp; J = NO</p>
","f","html-keyboard-response","24","2.1.0","71042","F=YES, J=NO","p8ejnb7815","1","64","78","50","","","","","","lextale","true","false","","","","","","","",""
"1024","
  <p style=""font-size: 40px;"">nuder</p>
  <p style=""font-size: 16px;"">F = YES &nbsp;&nbsp;&nbsp; J = NO</p>
","j","html-keyboard-response","25","2.1.0","72066","F=YES, J=NO","p8ejnb7815","1","64","78","50","","","","","","lextale","false","false","","","","","","","",""
"640","
  <p style=""font-size: 40px;"">pillow</p>
  <p style=""font-size: 16px;"">F = YES &nbsp;&nbsp;&nbsp; J = NO</p>
","f","html-keyboard-response","26","2.1.0","72707","F=YES, J=NO","p8ejnb7815","1","64","78","50","","","","","","lextale","true","false","","","","","","","",""
"1359","
  <p style=""font-size: 40px;"">shumble</p>
  <p style=""font-size: 16px;"">F = YES &nbsp;&nbsp;&nbsp; J = NO</p>
","f","html-keyboard-response","27","2.1.0","74066","F=YES, J=NO","p8ejnb7815","1","64","78","50","","","","","","lextale","false","false","","","","","","","",""
"1983","
  <p style=""font-size: 40px;"">thirst</p>
  <p style=""font-size: 16px;"">F = YES &nbsp;&nbsp;&nbsp; J = NO</p>
","f","html-keyboard-response","28","2.1.0","76050","F=YES, J=NO","p8ejnb7815","1","64","78","50","","","","","","lextale","true","false","","","","","","","",""
"1280","
  <p style=""font-size: 40px;"">unsail</p>
  <p style=""font-size: 16px;"">F = YES &nbsp;&nbsp;&nbsp; J = NO</p>
","f","html-keyboard-response","29","2.1.0","77331","F=YES, J=NO","p8ejnb7815","1","64","78","50","","","","","","lextale","false","false","","","","","","","",""
"1104","
  <p style=""font-size: 40px;"">rifle</p>
  <p style=""font-size: 16px;"">F = YES &nbsp;&nbsp;&nbsp; J = NO</p>
","f","html-keyboard-response","30","2.1.0","78435","F=YES, J=NO","p8ejnb7815","1","64","78","50","","","","","","lextale","true","false","","","","","","","",""
"1360","
  <p style=""font-size: 40px;"">mush</p>
  <p style=""font-size: 16px;"">F = YES &nbsp;&nbsp;&nbsp; J = NO</p>
","j","html-keyboard-response","31","2.1.0","79795","F=YES, J=NO","p8ejnb7815","1","64","78","50","","","","","","lextale","false","false","","","","","","","",""
"1951","
  <p style=""font-size: 40px;"">drench</p>
  <p style=""font-size: 16px;"">F = YES &nbsp;&nbsp;&nbsp; J = NO</p>
","f","html-keyboard-response","32","2.1.0","81746","F=YES, J=NO","p8ejnb7815","1","64","78","50","","","","","","lextale","true","false","","","","","","","",""
"1808","
  <p style=""font-size: 40px;"">snirt</p>
  <p style=""font-size: 16px;"">F = YES &nbsp;&nbsp;&nbsp; J = NO</p>
","j","html-keyboard-response","33","2.1.0","83554","F=YES, J=NO","p8ejnb7815","1","64","78","50","","","","","","lextale","false","false","","","","","","","",""
"927","
  <p style=""font-size: 40px;"">bitter</p>
  <p style=""font-size: 16px;"">F = YES &nbsp;&nbsp;&nbsp; J = NO</p>
","f","html-keyboard-response","34","2.1.0","84482","F=YES, J=NO","p8ejnb7815","1","64","78","50","","","","","","lextale","true","false","","","","","","","",""
"960","
  <p style=""font-size: 40px;"">pliff</p>
  <p style=""font-size: 16px;"">F = YES &nbsp;&nbsp;&nbsp; J = NO</p>
","j","html-keyboard-response","35","2.1.0","85442","F=YES, J=NO","p8ejnb7815","1","64","78","50","","","","","","lextale","false","false","","","","","","","",""
"832","
  <p style=""font-size: 40px;"">tablet</p>
  <p style=""font-size: 16px;"">F = YES &nbsp;&nbsp;&nbsp; J = NO</p>
","f","html-keyboard-response","36","2.1.0","86274","F=YES, J=NO","p8ejnb7815","1","64","78","50","","","","","","lextale","true","false","","","","","","","",""
"1007","
  <p style=""font-size: 40px;"">glimmer</p>
  <p style=""font-size: 16px;"">F = YES &nbsp;&nbsp;&nbsp; J = NO</p>
","f","html-keyboard-response","37","2.1.0","87282","F=YES, J=NO","p8ejnb7815","1","64","78","50","","","","","","lextale","true","false","","","","","","","",""
"880","
  <p style=""font-size: 40px;"">slink</p>
  <p style=""font-size: 16px;"">F = YES &nbsp;&nbsp;&nbsp; J = NO</p>
","f","html-keyboard-response","38","2.1.0","88162","F=YES, J=NO","p8ejnb7815","1","64","78","50","","","","","","lextale","true","false","","","","","","","",""
"1232","
  <p style=""font-size: 40px;"">clever</p>
  <p style=""font-size: 16px;"">F = YES &nbsp;&nbsp;&nbsp; J = NO</p>
","f","html-keyboard-response","39","2.1.0","89394","F=YES, J=NO","p8ejnb7815","1","64","78","50","","","","","","lextale","true","false","","","","","","","",""
"1023","
  <p style=""font-size: 40px;"">grum</p>
  <p style=""font-size: 16px;"">F = YES &nbsp;&nbsp;&nbsp; J = NO</p>
","f","html-keyboard-response","40","2.1.0","90418","F=YES, J=NO","p8ejnb7815","1","64","78","50","","","","","","lextale","false","false","","","","","","","",""
"3568","
  <p style=""font-size: 40px;"">string</p>
  <p style=""font-size: 16px;"">F = YES &nbsp;&nbsp;&nbsp; J = NO</p>
","f","html-keyboard-response","41","2.1.0","93987","F=YES, J=NO","p8ejnb7815","1","64","78","50","","","","","","lextale","true","false","","","","","","","",""
"864","
  <p style=""font-size: 40px;"">plim</p>
  <p style=""font-size: 16px;"">F = YES &nbsp;&nbsp;&nbsp; J = NO</p>
","j","html-keyboard-response","42","2.1.0","94852","F=YES, J=NO","p8ejnb7815","1","64","78","50","","","","","","lextale","false","false","","","","","","","",""
"734","
  <p style=""font-size: 40px;"">cable</p>
  <p style=""font-size: 16px;"">F = YES &nbsp;&nbsp;&nbsp; J = NO</p>
","f","html-keyboard-response","43","2.1.0","95586","F=YES, J=NO","p8ejnb7815","1","64","78","50","","","","","","lextale","true","false","","","","","","","",""
"5072","
  <p style=""font-size: 40px;"">shrivel</p>
  <p style=""font-size: 16px;"">F = YES &nbsp;&nbsp;&nbsp; J = NO</p>
","f","html-keyboard-response","44","2.1.0","100658","F=YES, J=NO","p8ejnb7815","1","64","78","50","","","","","","lextale","true","false","","","","","","","",""
"1072","
  <p style=""font-size: 40px;"">tarnish</p>
  <p style=""font-size: 16px;"">F = YES &nbsp;&nbsp;&nbsp; J = NO</p>
","f","html-keyboard-response","45","2.1.0","101730","F=YES, J=NO","p8ejnb7815","1","64","78","50","","","","","","lextale","true","false","","","","","","","",""
"799","
  <p style=""font-size: 40px;"">blim</p>
  <p style=""font-size: 16px;"">F = YES &nbsp;&nbsp;&nbsp; J = NO</p>
","j","html-keyboard-response","46","2.1.0","102530","F=YES, J=NO","p8ejnb7815","1","64","78","50","","","","","","lextale","false","false","","","","","","","",""
"1152","
  <p style=""font-size: 40px;"">stifle</p>
  <p style=""font-size: 16px;"">F = YES &nbsp;&nbsp;&nbsp; J = NO</p>
","f","html-keyboard-response","47","2.1.0","103682","F=YES, J=NO","p8ejnb7815","1","64","78","50","","","","","","lextale","true","false","","","","","","","",""
"960","
  <p style=""font-size: 40px;"">bint</p>
  <p style=""font-size: 16px;"">F = YES &nbsp;&nbsp;&nbsp; J = NO</p>
","j","html-keyboard-response","48","2.1.0","104643","F=YES, J=NO","p8ejnb7815","1","64","78","50","","","","","","lextale","false","false","","","","","","","",""
"1407","
  <p style=""font-size: 40px;"">purple</p>
  <p style=""font-size: 16px;"">F = YES &nbsp;&nbsp;&nbsp; J = NO</p>
","f","html-keyboard-response","49","2.1.0","106050","F=YES, J=NO","p8ejnb7815","1","64","78","50","","","","","","lextale","true","false","","","","","","","",""
"1615","
  <p style=""font-size: 40px;"">wriggle</p>
  <p style=""font-size: 16px;"">F = YES &nbsp;&nbsp;&nbsp; J = NO</p>
","f","html-keyboard-response","50","2.1.0","107666","F=YES, J=NO","p8ejnb7815","1","64","78","50","","","","","","lextale","true","false","","","","","","","",""
"1056","
  <p style=""font-size: 40px;"">mangle</p>
  <p style=""font-size: 16px;"">F = YES &nbsp;&nbsp;&nbsp; J = NO</p>
","f","html-keyboard-response","51","2.1.0","108722","F=YES, J=NO","p8ejnb7815","1","64","78","50","","","","","","lextale","true","false","","","","","","","",""
"976","
  <p style=""font-size: 40px;"">shramp</p>
  <p style=""font-size: 16px;"">F = YES &nbsp;&nbsp;&nbsp; J = NO</p>
","f","html-keyboard-response","52","2.1.0","109699","F=YES, J=NO","p8ejnb7815","1","64","78","50","","","","","","lextale","false","false","","","","","","","",""
"975","
  <p style=""font-size: 40px;"">flirt</p>
  <p style=""font-size: 16px;"">F = YES &nbsp;&nbsp;&nbsp; J = NO</p>
","f","html-keyboard-response","53","2.1.0","110674","F=YES, J=NO","p8ejnb7815","1","64","78","50","","","","","","lextale","true","false","","","","","","","",""
"815","
  <p style=""font-size: 40px;"">frip</p>
  <p style=""font-size: 16px;"">F = YES &nbsp;&nbsp;&nbsp; J = NO</p>
","f","html-keyboard-response","54","2.1.0","111490","F=YES, J=NO","p8ejnb7815","1","64","78","50","","","","","","lextale","false","false","","","","","","","",""
"2031","
  <p style=""font-size: 40px;"">tangle</p>
  <p style=""font-size: 16px;"">F = YES &nbsp;&nbsp;&nbsp; J = NO</p>
","f","html-keyboard-response","55","2.1.0","113522","F=YES, J=NO","p8ejnb7815","1","64","78","50","","","","","","lextale","true","false","","","","","","","",""
"783","
  <p style=""font-size: 40px;"">crumble</p>
  <p style=""font-size: 16px;"">F = YES &nbsp;&nbsp;&nbsp; J = NO</p>
","f","html-keyboard-response","56","2.1.0","114306","F=YES, J=NO","p8ejnb7815","1","64","78","50","","","","","","lextale","true","false","","","","","","","",""
"1104","
  <p style=""font-size: 40px;"">wrinkle</p>
  <p style=""font-size: 16px;"">F = YES &nbsp;&nbsp;&nbsp; J = NO</p>
","f","html-keyboard-response","57","2.1.0","115410","F=YES, J=NO","p8ejnb7815","1","64","78","50","","","","","","lextale","true","false","","","","","","","",""
"831","
  <p style=""font-size: 40px;"">slumb</p>
  <p style=""font-size: 16px;"">F = YES &nbsp;&nbsp;&nbsp; J = NO</p>
","f","html-keyboard-response","58","2.1.0","116242","F=YES, J=NO","p8ejnb7815","1","64","78","50","","","","","","lextale","false","false","","","","","","","",""
"1632","
  <p style=""font-size: 40px;"">jungle</p>
  <p style=""font-size: 16px;"">F = YES &nbsp;&nbsp;&nbsp; J = NO</p>
","f","html-keyboard-response","59","2.1.0","117874","F=YES, J=NO","p8ejnb7815","1","64","78","50","","","","","","lextale","true","false","","","","","","","",""
"719","
  <p style=""font-size: 40px;"">frolick</p>
  <p style=""font-size: 16px;"">F = YES &nbsp;&nbsp;&nbsp; J = NO</p>
","f","html-keyboard-response","60","2.1.0","118594","F=YES, J=NO","p8ejnb7815","1","64","78","50","","","","","","lextale","false","false","","","","","","","",""
"2895","
      <h2>LexTALE Test Completed</h2>
      <p>Your LexTALE vocabulary score is: <strong>64%</strong></p>
      <p>Press any key to continue.</p>
    "," ","html-keyboard-response","61","2.1.0","121490","F=YES, J=NO","p8ejnb7815","1","64","78","50","","","","","","","","","","","","","","","",""
"2591","
    <div style=""max-width: 800px; margin: auto; text-align: left;"">
      <h2>Break Time</h2>
      <p>You have completed the first part of the study.</p>
      <p>You may take a short <strong>30-second break</strong> before continuing.</p>
      <p>When you’re ready, press any key to continue to the final task.</p>
    </div>
  "," ","html-keyboard-response","62","2.1.0","124082","F=YES, J=NO","p8ejnb7815","1","64","78","50","","","","","","","","","","","","","","","",""
"13232","
    <div style=""max-width: 800px; margin: auto; text-align: left;"">
      <h2>Part 2: Lexical Decision Task</h2>
      <p>You will now begin the second part of the study.</p>
      <p>Each trial will follow this sequence:</p>
      <ul>
        <li>A fixation cross (+) appears at the center of the screen.</li>
        <li>You will hear a short beep followed by a spoken word.</li>
        <li>A written word will appear briefly on the screen.</li>
      </ul>
      <p>Your task is to judge whether the <strong>written word</strong> is a real English word.</p>
      <p style=""margin-top: 1em;""><strong>Key responses:</strong></p>
      <ul>
        <li><strong>F</strong> = YES (real English word)</li>
        <li><strong>J</strong> = NO (not a real English word)</li>
      </ul>
      <p>Please respond as quickly and accurately as you can.</p>
      <p style=""margin-top: 2em;"">Press any key to continue.</p>
    </div>
  "," ","html-keyboard-response","63","2.1.0","137314","F=YES, J=NO","p8ejnb7815","1","64","78","50","","","","","","","","","","","","","","","",""
"258559","
    <div style=""max-width: 800px; margin: auto; text-align: left;"">
      <h2>Before You Begin</h2>
      <p>Make sure your sound is turned on.</p>
      <p>You will hear audio during each trial, but your decision should be based only on the <strong>written word</strong> you see on the screen.</p>
      <p><strong>Reminder:</strong></p>
      <ul>
        <li><strong>F</strong> = YES (real English word)</li>
        <li><strong>J</strong> = NO (not a real English word)</li>
      </ul>
      <p style=""margin-top: 2em;"">Press any key when you are ready to begin.</p>
    </div>
  "," ","html-keyboard-response","64","2.1.0","395874","F=YES, J=NO","p8ejnb7815","1","64","78","50","","","","","","","","","","","","","","","",""
"4175","
    <div style=""max-width: 800px; margin: auto; text-align: left;"">
      <h2>Part 2: Practice Trials</h2>
      <p>You will now complete a few <strong>practice trials</strong> to get familiar with the task.</p>
      <p>These trials are <strong>not scored</strong> and are only to help you get used to the format.</p>
      <p style=""margin-top: 2em;"">Press any key to begin.</p>
    </div>
  "," ","html-keyboard-response","65","2.1.0","400050","F=YES, J=NO","p8ejnb7815","1","64","78","50","","","","","","","","","","","","","","","",""
"2671","<p>Starting practice block 1 of 2. Press any key to continue.</p>"," ","html-keyboard-response","66","2.1.0","402722","F=YES, J=NO","p8ejnb7815","1","64","78","50","","","","","","","","","","","","","","","",""
"null","<p style=""font-size: 50px;"">+</p>","null","html-keyboard-response","67","2.1.0","403031","F=YES, J=NO","p8ejnb7815","1","64","78","50","","","","","","","","","","","","","","","",""
"null","audio/beep-329314.mp3","null","audio-keyboard-response","68","2.1.0","404565","F=YES, J=NO","p8ejnb7815","1","64","78","50","","","","","","","","","","","","","","","",""
"null","audio/sugar1.wav","null","audio-keyboard-response","69","2.1.0","405035","F=YES, J=NO","p8ejnb7815","1","64","78","50","","","","","","","","","","","","","","","",""
"null","
          <p id=""word"" style=""font-size: 40px;"">glung</p>
          <p style=""font-size: 16px;"">F = YES &nbsp;&nbsp;&nbsp; J = NO</p>
        ","null","html-keyboard-response","70","2.1.0","406543","F=YES, J=NO","p8ejnb7815","1","64","78","50","","","","","","","","","glung","sugar1","pseudoword","pseudoword","j","false","",""
"null","<p style=""font-size: 50px;"">+</p>","null","html-keyboard-response","71","2.1.0","406853","F=YES, J=NO","p8ejnb7815","1","64","78","50","","","","","","","","","","","","","","","",""
"null","audio/beep-329314.mp3","null","audio-keyboard-response","72","2.1.0","408385","F=YES, J=NO","p8ejnb7815","1","64","78","50","","","","","","","","","","","","","","","",""
"null","audio/pine.wav","null","audio-keyboard-response","73","2.1.0","409035","F=YES, J=NO","p8ejnb7815","1","64","78","50","","","","","","","","","","","","","","","",""
"null","
          <p id=""word"" style=""font-size: 40px;"">crebble</p>
          <p style=""font-size: 16px;"">F = YES &nbsp;&nbsp;&nbsp; J = NO</p>
        ","null","html-keyboard-response","74","2.1.0","410539","F=YES, J=NO","p8ejnb7815","1","64","78","50","","","","","","","","","crebble","pine","pseudoword","pseudoword","j","false","",""
"null","<p style=""font-size: 50px;"">+</p>","null","html-keyboard-response","75","2.1.0","410851","F=YES, J=NO","p8ejnb7815","1","64","78","50","","","","","","","","","","","","","","","",""
"null","audio/beep-329314.mp3","null","audio-keyboard-response","76","2.1.0","412385","F=YES, J=NO","p8ejnb7815","1","64","78","50","","","","","","","","","","","","","","","",""
"null","audio/show.wav","null","audio-keyboard-response","77","2.1.0","413075","F=YES, J=NO","p8ejnb7815","1","64","78","50","","","","","","","","","","","","","","","",""
"null","
          <p id=""word"" style=""font-size: 40px;"">smark</p>
          <p style=""font-size: 16px;"">F = YES &nbsp;&nbsp;&nbsp; J = NO</p>
        ","null","html-keyboard-response","78","2.1.0","414582","F=YES, J=NO","p8ejnb7815","1","64","78","50","","","","","","","","","smark","show","pseudoword","pseudoword","j","false","",""
"null","<p style=""font-size: 50px;"">+</p>","null","html-keyboard-response","79","2.1.0","414891","F=YES, J=NO","p8ejnb7815","1","64","78","50","","","","","","","","","","","","","","","",""
"null","audio/beep-329314.mp3","null","audio-keyboard-response","80","2.1.0","416425","F=YES, J=NO","p8ejnb7815","1","64","78","50","","","","","","","","","","","","","","","",""
"null","audio/pattern.wav","null","audio-keyboard-response","81","2.1.0","417095","F=YES, J=NO","p8ejnb7815","1","64","78","50","","","","","","","","","","","","","","","",""
"null","
          <p id=""word"" style=""font-size: 40px;"">tug</p>
          <p style=""font-size: 16px;"">F = YES &nbsp;&nbsp;&nbsp; J = NO</p>
        ","null","html-keyboard-response","82","2.1.0","418611","F=YES, J=NO","p8ejnb7815","1","64","78","50","","","","","","","","","tug","pattern","filler","filler","f","false","",""
"null","<p style=""font-size: 50px;"">+</p>","null","html-keyboard-response","83","2.1.0","418921","F=YES, J=NO","p8ejnb7815","1","64","78","50","","","","","","","","","","","","","","","",""
"null","audio/beep-329314.mp3","null","audio-keyboard-response","84","2.1.0","420445","F=YES, J=NO","p8ejnb7815","1","64","78","50","","","","","","","","","","","","","","","",""
"null","audio/bottle.wav","null","audio-keyboard-response","85","2.1.0","421095","F=YES, J=NO","p8ejnb7815","1","64","78","50","","","","","","","","","","","","","","","",""
"null","
          <p id=""word"" style=""font-size: 40px;"">watch</p>
          <p style=""font-size: 16px;"">F = YES &nbsp;&nbsp;&nbsp; J = NO</p>
        ","null","html-keyboard-response","86","2.1.0","422601","F=YES, J=NO","p8ejnb7815","1","64","78","50","","","","","","","","","watch","bottle","filler","filler","f","false","",""
"null","<p style=""font-size: 50px;"">+</p>","null","html-keyboard-response","87","2.1.0","422911","F=YES, J=NO","p8ejnb7815","1","64","78","50","","","","","","","","","","","","","","","",""
"null","audio/beep-329314.mp3","null","audio-keyboard-response","88","2.1.0","424445","F=YES, J=NO","p8ejnb7815","1","64","78","50","","","","","","","","","","","","","","","",""
"null","audio/birth1.wav","null","audio-keyboard-response","89","2.1.0","425155","F=YES, J=NO","p8ejnb7815","1","64","78","50","","","","","","","","","","","","","","","",""
"null","
          <p id=""word"" style=""font-size: 40px;"">peel</p>
          <p style=""font-size: 16px;"">F = YES &nbsp;&nbsp;&nbsp; J = NO</p>
        ","null","html-keyboard-response","90","2.1.0","426667","F=YES, J=NO","p8ejnb7815","1","64","78","50","","","","","","","","","peel","birth1","filler","filler","f","false","",""
"null","<p style=""font-size: 50px;"">+</p>","null","html-keyboard-response","91","2.1.0","426977","F=YES, J=NO","p8ejnb7815","1","64","78","50","","","","","","","","","","","","","","","",""
"null","audio/beep-329314.mp3","null","audio-keyboard-response","92","2.1.0","428505","F=YES, J=NO","p8ejnb7815","1","64","78","50","","","","","","","","","","","","","","","",""
"null","audio/van1.wav","null","audio-keyboard-response","93","2.1.0","429154","F=YES, J=NO","p8ejnb7815","1","64","78","50","","","","","","","","","","","","","","","",""
"null","
          <p id=""word"" style=""font-size: 40px;"">push</p>
          <p style=""font-size: 16px;"">F = YES &nbsp;&nbsp;&nbsp; J = NO</p>
        ","null","html-keyboard-response","94","2.1.0","430658","F=YES, J=NO","p8ejnb7815","1","64","78","50","","","","","","","","","push","van1","filler","filler","f","false","",""
"null","<p style=""font-size: 50px;"">+</p>","null","html-keyboard-response","95","2.1.0","430969","F=YES, J=NO","p8ejnb7815","1","64","78","50","","","","","","","","","","","","","","","",""
"null","audio/beep-329314.mp3","null","audio-keyboard-response","96","2.1.0","432504","F=YES, J=NO","p8ejnb7815","1","64","78","50","","","","","","","","","","","","","","","",""
"null","audio/menu.wav","null","audio-keyboard-response","97","2.1.0","433074","F=YES, J=NO","p8ejnb7815","1","64","78","50","","","","","","","","","","","","","","","",""
"null","
          <p id=""word"" style=""font-size: 40px;"">slice</p>
          <p style=""font-size: 16px;"">F = YES &nbsp;&nbsp;&nbsp; J = NO</p>
        ","null","html-keyboard-response","98","2.1.0","434575","F=YES, J=NO","p8ejnb7815","1","64","78","50","","","","","","","","","slice","menu","filler","filler","f","false","",""
"null","<p style=""font-size: 50px;"">+</p>","null","html-keyboard-response","99","2.1.0","434886","F=YES, J=NO","p8ejnb7815","1","64","78","50","","","","","","","","","","","","","","","",""
"null","audio/beep-329314.mp3","null","audio-keyboard-response","100","2.1.0","436424","F=YES, J=NO","p8ejnb7815","1","64","78","50","","","","","","","","","","","","","","","",""
"null","audio/dollar.wav","null","audio-keyboard-response","101","2.1.0","436814","F=YES, J=NO","p8ejnb7815","1","64","78","50","","","","","","","","","","","","","","","",""
"null","
          <p id=""word"" style=""font-size: 40px;"">gliptism</p>
          <p style=""font-size: 16px;"">F = YES &nbsp;&nbsp;&nbsp; J = NO</p>
        ","null","html-keyboard-response","102","2.1.0","438317","F=YES, J=NO","p8ejnb7815","1","64","78","50","","","","","","","","","gliptism","dollar","pseudoword","pseudoword","j","false","",""
"null","<p style=""font-size: 50px;"">+</p>","null","html-keyboard-response","103","2.1.0","438625","F=YES, J=NO","p8ejnb7815","1","64","78","50","","","","","","","","","","","","","","","",""
"null","audio/beep-329314.mp3","null","audio-keyboard-response","104","2.1.0","440164","F=YES, J=NO","p8ejnb7815","1","64","78","50","","","","","","","","","","","","","","","",""
"null","audio/relief.wav","null","audio-keyboard-response","105","2.1.0","440974","F=YES, J=NO","p8ejnb7815","1","64","78","50","","","","","","","","","","","","","","","",""
"null","
          <p id=""word"" style=""font-size: 40px;"">grigg</p>
          <p style=""font-size: 16px;"">F = YES &nbsp;&nbsp;&nbsp; J = NO</p>
        ","null","html-keyboard-response","106","2.1.0","442487","F=YES, J=NO","p8ejnb7815","1","64","78","50","","","","","","","","","grigg","relief","pseudoword","pseudoword","j","false","",""
"null","<p style=""font-size: 50px;"">+</p>","null","html-keyboard-response","107","2.1.0","442798","F=YES, J=NO","p8ejnb7815","1","64","78","50","","","","","","","","","","","","","","","",""
"null","audio/beep-329314.mp3","null","audio-keyboard-response","108","2.1.0","444324","F=YES, J=NO","p8ejnb7815","1","64","78","50","","","","","","","","","","","","","","","",""
"null","audio/floor.wav","null","audio-keyboard-response","109","2.1.0","445034","F=YES, J=NO","p8ejnb7815","1","64","78","50","","","","","","","","","","","","","","","",""
"null","
          <p id=""word"" style=""font-size: 40px;"">mop</p>
          <p style=""font-size: 16px;"">F = YES &nbsp;&nbsp;&nbsp; J = NO</p>
        ","null","html-keyboard-response","110","2.1.0","446545","F=YES, J=NO","p8ejnb7815","1","64","78","50","","","","","","","","","mop","floor","filler","filler","f","false","",""
"null","<p style=""font-size: 50px;"">+</p>","null","html-keyboard-response","111","2.1.0","446855","F=YES, J=NO","p8ejnb7815","1","64","78","50","","","","","","","","","","","","","","","",""
"null","audio/beep-329314.mp3","null","audio-keyboard-response","112","2.1.0","448384","F=YES, J=NO","p8ejnb7815","1","64","78","50","","","","","","","","","","","","","","","",""
"null","audio/brain.wav","null","audio-keyboard-response","113","2.1.0","449054","F=YES, J=NO","p8ejnb7815","1","64","78","50","","","","","","","","","","","","","","","",""
"null","
          <p id=""word"" style=""font-size: 40px;"">throw</p>
          <p style=""font-size: 16px;"">F = YES &nbsp;&nbsp;&nbsp; J = NO</p>
        ","null","html-keyboard-response","114","2.1.0","450567","F=YES, J=NO","p8ejnb7815","1","64","78","50","","","","","","","","","throw","brain","filler","filler","f","false","",""
"145323","<p>Starting practice block 2 of 2. Press any key to continue.</p>"," ","html-keyboard-response","115","2.1.0","595890","F=YES, J=NO","p8ejnb7815","1","64","78","50","","","","","","","","","","","","","","","",""
"null","<p style=""font-size: 50px;"">+</p>","null","html-keyboard-response","116","2.1.0","596193","F=YES, J=NO","p8ejnb7815","1","64","78","50","","","","","","","","","","","","","","","",""
"null","audio/beep-329314.mp3","null","audio-keyboard-response","117","2.1.0","597739","F=YES, J=NO","p8ejnb7815","1","64","78","50","","","","","","","","","","","","","","","",""
"null","audio/weight1.wav","null","audio-keyboard-response","118","2.1.0","598249","F=YES, J=NO","p8ejnb7815","1","64","78","50","","","","","","","","","","","","","","","",""
"null","
          <p id=""word"" style=""font-size: 40px;"">crimsh</p>
          <p style=""font-size: 16px;"">F = YES &nbsp;&nbsp;&nbsp; J = NO</p>
        ","null","html-keyboard-response","119","2.1.0","599763","F=YES, J=NO","p8ejnb7815","1","64","78","50","","","","","","","","","crimsh","weight1","pseudoword","pseudoword","j","false","",""
"null","<p style=""font-size: 50px;"">+</p>","null","html-keyboard-response","120","2.1.0","600074","F=YES, J=NO","p8ejnb7815","1","64","78","50","","","","","","","","","","","","","","","",""
"null","audio/beep-329314.mp3","null","audio-keyboard-response","121","2.1.0","601599","F=YES, J=NO","p8ejnb7815","1","64","78","50","","","","","","","","","","","","","","","",""
"null","audio/voice.wav","null","audio-keyboard-response","122","2.1.0","602209","F=YES, J=NO","p8ejnb7815","1","64","78","50","","","","","","","","","","","","","","","",""
"977","
          <p id=""word"" style=""font-size: 40px;"">grintle</p>
          <p style=""font-size: 16px;"">F = YES &nbsp;&nbsp;&nbsp; J = NO</p>
        ","f","html-keyboard-response","123","2.1.0","603186","F=YES, J=NO","p8ejnb7815","1","64","78","50","","","","","","","","","grintle","voice","pseudoword","pseudoword","j","false","",""
"null","<p style=""font-size: 50px;"">+</p>","null","html-keyboard-response","124","2.1.0","603489","F=YES, J=NO","p8ejnb7815","1","64","78","50","","","","","","","","","","","","","","","",""
"null","audio/beep-329314.mp3","null","audio-keyboard-response","125","2.1.0","605019","F=YES, J=NO","p8ejnb7815","1","64","78","50","","","","","","","","","","","","","","","",""
"null","audio/mind.wav","null","audio-keyboard-response","126","2.1.0","605589","F=YES, J=NO","p8ejnb7815","1","64","78","50","","","","","","","","","","","","","","","",""
"749","
          <p id=""word"" style=""font-size: 40px;"">crainate</p>
          <p style=""font-size: 16px;"">F = YES &nbsp;&nbsp;&nbsp; J = NO</p>
        ","f","html-keyboard-response","127","2.1.0","606338","F=YES, J=NO","p8ejnb7815","1","64","78","50","","","","","","","","","crainate","mind","pseudoword","pseudoword","j","false","",""
"null","<p style=""font-size: 50px;"">+</p>","null","html-keyboard-response","128","2.1.0","606643","F=YES, J=NO","p8ejnb7815","1","64","78","50","","","","","","","","","","","","","","","",""
"null","audio/beep-329314.mp3","null","audio-keyboard-response","129","2.1.0","608179","F=YES, J=NO","p8ejnb7815","1","64","78","50","","","","","","","","","","","","","","","",""
"null","audio/kettle1.wav","null","audio-keyboard-response","130","2.1.0","608809","F=YES, J=NO","p8ejnb7815","1","64","78","50","","","","","","","","","","","","","","","",""
"761","
          <p id=""word"" style=""font-size: 40px;"">wrap</p>
          <p style=""font-size: 16px;"">F = YES &nbsp;&nbsp;&nbsp; J = NO</p>
        ","f","html-keyboard-response","131","2.1.0","609570","F=YES, J=NO","p8ejnb7815","1","64","78","50","","","","","","","","","wrap","kettle1","filler","filler","f","true","",""
"null","<p style=""font-size: 50px;"">+</p>","null","html-keyboard-response","132","2.1.0","609880","F=YES, J=NO","p8ejnb7815","1","64","78","50","","","","","","","","","","","","","","","",""
"null","audio/beep-329314.mp3","null","audio-keyboard-response","133","2.1.0","611419","F=YES, J=NO","p8ejnb7815","1","64","78","50","","","","","","","","","","","","","","","",""
"null","audio/novel.wav","null","audio-keyboard-response","134","2.1.0","611929","F=YES, J=NO","p8ejnb7815","1","64","78","50","","","","","","","","","","","","","","","",""
"793","
          <p id=""word"" style=""font-size: 40px;"">type</p>
          <p style=""font-size: 16px;"">F = YES &nbsp;&nbsp;&nbsp; J = NO</p>
        ","f","html-keyboard-response","135","2.1.0","612722","F=YES, J=NO","p8ejnb7815","1","64","78","50","","","","","","","","","type","novel","filler","filler","f","true","",""
"null","<p style=""font-size: 50px;"">+</p>","null","html-keyboard-response","136","2.1.0","613033","F=YES, J=NO","p8ejnb7815","1","64","78","50","","","","","","","","","","","","","","","",""
"null","audio/beep-329314.mp3","null","audio-keyboard-response","137","2.1.0","614558","F=YES, J=NO","p8ejnb7815","1","64","78","50","","","","","","","","","","","","","","","",""
"null","audio/battle1.wav","null","audio-keyboard-response","138","2.1.0","615028","F=YES, J=NO","p8ejnb7815","1","64","78","50","","","","","","","","","","","","","","","",""
"1213","
          <p id=""word"" style=""font-size: 40px;"">boil</p>
          <p style=""font-size: 16px;"">F = YES &nbsp;&nbsp;&nbsp; J = NO</p>
        ","f","html-keyboard-response","139","2.1.0","616242","F=YES, J=NO","p8ejnb7815","1","64","78","50","","","","","","","","","boil","battle1","filler","filler","f","true","",""
"null","<p style=""font-size: 50px;"">+</p>","null","html-keyboard-response","140","2.1.0","616544","F=YES, J=NO","p8ejnb7815","1","64","78","50","","","","","","","","","","","","","","","",""
"null","audio/beep-329314.mp3","null","audio-keyboard-response","141","2.1.0","618078","F=YES, J=NO","p8ejnb7815","1","64","78","50","","","","","","","","","","","","","","","",""
"null","audio/trust.wav","null","audio-keyboard-response","142","2.1.0","618868","F=YES, J=NO","p8ejnb7815","1","64","78","50","","","","","","","","","","","","","","","",""
"1005","
          <p id=""word"" style=""font-size: 40px;"">swint</p>
          <p style=""font-size: 16px;"">F = YES &nbsp;&nbsp;&nbsp; J = NO</p>
        ","f","html-keyboard-response","143","2.1.0","619874","F=YES, J=NO","p8ejnb7815","1","64","78","50","","","","","","","","","swint","trust","pseudoword","pseudoword","j","false","",""
"null","<p style=""font-size: 50px;"">+</p>","null","html-keyboard-response","144","2.1.0","620176","F=YES, J=NO","p8ejnb7815","1","64","78","50","","","","","","","","","","","","","","","",""
"null","audio/beep-329314.mp3","null","audio-keyboard-response","145","2.1.0","621698","F=YES, J=NO","p8ejnb7815","1","64","78","50","","","","","","","","","","","","","","","",""
"null","audio/camera1.wav","null","audio-keyboard-response","146","2.1.0","622348","F=YES, J=NO","p8ejnb7815","1","64","78","50","","","","","","","","","","","","","","","",""
"741","
          <p id=""word"" style=""font-size: 40px;"">stir</p>
          <p style=""font-size: 16px;"">F = YES &nbsp;&nbsp;&nbsp; J = NO</p>
        ","f","html-keyboard-response","147","2.1.0","623090","F=YES, J=NO","p8ejnb7815","1","64","78","50","","","","","","","","","stir","camera1","filler","filler","f","true","",""
"null","<p style=""font-size: 50px;"">+</p>","null","html-keyboard-response","148","2.1.0","623404","F=YES, J=NO","p8ejnb7815","1","64","78","50","","","","","","","","","","","","","","","",""
"null","audio/beep-329314.mp3","null","audio-keyboard-response","149","2.1.0","624938","F=YES, J=NO","p8ejnb7815","1","64","78","50","","","","","","","","","","","","","","","",""
"null","audio/effort.wav","null","audio-keyboard-response","150","2.1.0","625688","F=YES, J=NO","p8ejnb7815","1","64","78","50","","","","","","","","","","","","","","","",""
"873","
          <p id=""word"" style=""font-size: 40px;"">whonk</p>
          <p style=""font-size: 16px;"">F = YES &nbsp;&nbsp;&nbsp; J = NO</p>
        ","j","html-keyboard-response","151","2.1.0","626562","F=YES, J=NO","p8ejnb7815","1","64","78","50","","","","","","","","","whonk","effort","pseudoword","pseudoword","j","true","",""
"null","<p style=""font-size: 50px;"">+</p>","null","html-keyboard-response","152","2.1.0","626871","F=YES, J=NO","p8ejnb7815","1","64","78","50","","","","","","","","","","","","","","","",""
"null","audio/beep-329314.mp3","null","audio-keyboard-response","153","2.1.0","628398","F=YES, J=NO","p8ejnb7815","1","64","78","50","","","","","","","","","","","","","","","",""
"null","audio/hotel1.wav","null","audio-keyboard-response","154","2.1.0","629228","F=YES, J=NO","p8ejnb7815","1","64","78","50","","","","","","","","","","","","","","","",""
"549","
          <p id=""word"" style=""font-size: 40px;"">flanter</p>
          <p style=""font-size: 16px;"">F = YES &nbsp;&nbsp;&nbsp; J = NO</p>
        ","f","html-keyboard-response","155","2.1.0","629778","F=YES, J=NO","p8ejnb7815","1","64","78","50","","","","","","","","","flanter","hotel1","pseudoword","pseudoword","j","false","",""
"null","<p style=""font-size: 50px;"">+</p>","null","html-keyboard-response","156","2.1.0","630082","F=YES, J=NO","p8ejnb7815","1","64","78","50","","","","","","","","","","","","","","","",""
"null","audio/beep-329314.mp3","null","audio-keyboard-response","157","2.1.0","631618","F=YES, J=NO","p8ejnb7815","1","64","78","50","","","","","","","","","","","","","","","",""
"null","audio/trout1.wav","null","audio-keyboard-response","158","2.1.0","632368","F=YES, J=NO","p8ejnb7815","1","64","78","50","","","","","","","","","","","","","","","",""
"449","
          <p id=""word"" style=""font-size: 40px;"">spimt</p>
          <p style=""font-size: 16px;"">F = YES &nbsp;&nbsp;&nbsp; J = NO</p>
        ","f","html-keyboard-response","159","2.1.0","632818","F=YES, J=NO","p8ejnb7815","1","64","78","50","","","","","","","","","spimt","trout1","pseudoword","pseudoword","j","false","",""
"null","<p style=""font-size: 50px;"">+</p>","null","html-keyboard-response","160","2.1.0","633129","F=YES, J=NO","p8ejnb7815","1","64","78","50","","","","","","","","","","","","","","","",""
"null","audio/beep-329314.mp3","null","audio-keyboard-response","161","2.1.0","634658","F=YES, J=NO","p8ejnb7815","1","64","78","50","","","","","","","","","","","","","","","",""
"null","audio/bridge.wav","null","audio-keyboard-response","162","2.1.0","635368","F=YES, J=NO","p8ejnb7815","1","64","78","50","","","","","","","","","","","","","","","",""
"521","
          <p id=""word"" style=""font-size: 40px;"">crack</p>
          <p style=""font-size: 16px;"">F = YES &nbsp;&nbsp;&nbsp; J = NO</p>
        ","f","html-keyboard-response","163","2.1.0","635890","F=YES, J=NO","p8ejnb7815","1","64","78","50","","","","","","","","","crack","bridge","filler","filler","f","true","",""
"19296","
    <div style=""max-width: 800px; margin: auto; text-align: left;"">
      <h2>Part 2: Main Trials</h2>
      <p>Great job on the practice trials!</p>
      <p>You will now begin the <strong>main set of trials</strong>.</p>
      <p>Remember your key assignments:</p>
      <ul>
        <li><strong>F</strong> = YES (real English word)</li>
        <li><strong>J</strong> = NO (not a real English word)</li>
      </ul>
      <p>Try to respond as <strong>quickly and accurately</strong> as possible.</p>
      <p style=""margin-top: 2em;"">Press any key to begin the main trials.</p>
    </div>
  "," ","html-keyboard-response","164","2.1.0","655186","F=YES, J=NO","p8ejnb7815","1","64","78","50","","","","","","","","","","","","","","","",""
"2303","<p>Starting main block 1 of 8. Press any key to continue.</p>"," ","html-keyboard-response","165","2.1.0","657490","F=YES, J=NO","p8ejnb7815","1","64","78","50","","","","","","","","","","","","","","","",""
"null","<p style=""font-size: 50px;"">+</p>","null","html-keyboard-response","166","2.1.0","657802","F=YES, J=NO","p8ejnb7815","1","64","78","50","","","","","","","","","","","","","","","",""
"null","audio/beep-329314.mp3","null","audio-keyboard-response","167","2.1.0","659343","F=YES, J=NO","p8ejnb7815","1","64","78","50","","","","","","","","","","","","","","","",""
"null","audio/cash1.wav","null","audio-keyboard-response","168","2.1.0","660043","F=YES, J=NO","p8ejnb7815","1","64","78","50","","","","","","","","","","","","","","","",""
"118","
          <p id=""word"" style=""font-size: 40px;"">invest</p>
          <p style=""font-size: 16px;"">F = YES &nbsp;&nbsp;&nbsp; J = NO</p>
        ","f","html-keyboard-response","169","2.1.0","660162","F=YES, J=NO","p8ejnb7815","1","64","78","50","","","","","","","","","invest","cash1","literal","experimental","f","true","",""
"null","<p style=""font-size: 50px;"">+</p>","null","html-keyboard-response","170","2.1.0","660475","F=YES, J=NO","p8ejnb7815","1","64","78","50","","","","","","","","","","","","","","","",""
"null","audio/beep-329314.mp3","null","audio-keyboard-response","171","2.1.0","662003","F=YES, J=NO","p8ejnb7815","1","64","78","50","","","","","","","","","","","","","","","",""
"null","audio/card1.wav","null","audio-keyboard-response","172","2.1.0","662703","F=YES, J=NO","p8ejnb7815","1","64","78","50","","","","","","","","","","","","","","","",""
"754","
          <p id=""word"" style=""font-size: 40px;"">land</p>
          <p style=""font-size: 16px;"">F = YES &nbsp;&nbsp;&nbsp; J = NO</p>
        ","f","html-keyboard-response","173","2.1.0","663458","F=YES, J=NO","p8ejnb7815","1","64","78","50","","","","","","","","","land","card1","unrelated","experimental","f","true","",""
"null","<p style=""font-size: 50px;"">+</p>","null","html-keyboard-response","174","2.1.0","663768","F=YES, J=NO","p8ejnb7815","1","64","78","50","","","","","","","","","","","","","","","",""
"null","audio/beep-329314.mp3","null","audio-keyboard-response","175","2.1.0","665303","F=YES, J=NO","p8ejnb7815","1","64","78","50","","","","","","","","","","","","","","","",""
"null","audio/road.wav","null","audio-keyboard-response","176","2.1.0","665723","F=YES, J=NO","p8ejnb7815","1","64","78","50","","","","","","","","","","","","","","","",""
"534","
          <p id=""word"" style=""font-size: 40px;"">wappings</p>
          <p style=""font-size: 16px;"">F = YES &nbsp;&nbsp;&nbsp; J = NO</p>
        ","f","html-keyboard-response","177","2.1.0","666258","F=YES, J=NO","p8ejnb7815","1","64","78","50","","","","","","","","","wappings","road","pseudoword","pseudoword","j","false","",""
"null","<p style=""font-size: 50px;"">+</p>","null","html-keyboard-response","178","2.1.0","666560","F=YES, J=NO","p8ejnb7815","1","64","78","50","","","","","","","","","","","","","","","",""
"null","audio/beep-329314.mp3","null","audio-keyboard-response","179","2.1.0","668083","F=YES, J=NO","p8ejnb7815","1","64","78","50","","","","","","","","","","","","","","","",""
"null","audio/milk.wav","null","audio-keyboard-response","180","2.1.0","668803","F=YES, J=NO","p8ejnb7815","1","64","78","50","","","","","","","","","","","","","","","",""
"670","
          <p id=""word"" style=""font-size: 40px;"">digest</p>
          <p style=""font-size: 16px;"">F = YES &nbsp;&nbsp;&nbsp; J = NO</p>
        ","f","html-keyboard-response","181","2.1.0","669474","F=YES, J=NO","p8ejnb7815","1","64","78","50","","","","","","","","","digest","milk","literal","experimental","f","true","",""
"null","<p style=""font-size: 50px;"">+</p>","null","html-keyboard-response","182","2.1.0","669780","F=YES, J=NO","p8ejnb7815","1","64","78","50","","","","","","","","","","","","","","","",""
"null","audio/beep-329314.mp3","null","audio-keyboard-response","183","2.1.0","671303","F=YES, J=NO","p8ejnb7815","1","64","78","50","","","","","","","","","","","","","","","",""
"null","audio/belief.wav","null","audio-keyboard-response","184","2.1.0","672083","F=YES, J=NO","p8ejnb7815","1","64","78","50","","","","","","","","","","","","","","","",""
"718","
          <p id=""word"" style=""font-size: 40px;"">share</p>
          <p style=""font-size: 16px;"">F = YES &nbsp;&nbsp;&nbsp; J = NO</p>
        ","f","html-keyboard-response","185","2.1.0","672802","F=YES, J=NO","p8ejnb7815","1","64","78","50","","","","","","","","","share","belief","metaphor","experimental","f","true","",""
"null","<p style=""font-size: 50px;"">+</p>","null","html-keyboard-response","186","2.1.0","673114","F=YES, J=NO","p8ejnb7815","1","64","78","50","","","","","","","","","","","","","","","",""
"null","audio/beep-329314.mp3","null","audio-keyboard-response","187","2.1.0","674643","F=YES, J=NO","p8ejnb7815","1","64","78","50","","","","","","","","","","","","","","","",""
"null","audio/voice.wav","null","audio-keyboard-response","188","2.1.0","675242","F=YES, J=NO","p8ejnb7815","1","64","78","50","","","","","","","","","","","","","","","",""
"663","
          <p id=""word"" style=""font-size: 40px;"">flood</p>
          <p style=""font-size: 16px;"">F = YES &nbsp;&nbsp;&nbsp; J = NO</p>
        ","f","html-keyboard-response","189","2.1.0","675906","F=YES, J=NO","p8ejnb7815","1","64","78","50","","","","","","","","","flood","voice","unrelated","experimental","f","true","",""
"null","<p style=""font-size: 50px;"">+</p>","null","html-keyboard-response","190","2.1.0","676219","F=YES, J=NO","p8ejnb7815","1","64","78","50","","","","","","","","","","","","","","","",""
"null","audio/beep-329314.mp3","null","audio-keyboard-response","191","2.1.0","677743","F=YES, J=NO","p8ejnb7815","1","64","78","50","","","","","","","","","","","","","","","",""
"null","audio/strength.wav","null","audio-keyboard-response","192","2.1.0","678643","F=YES, J=NO","p8ejnb7815","1","64","78","50","","","","","","","","","","","","","","","",""
"815","
          <p id=""word"" style=""font-size: 40px;"">plabet</p>
          <p style=""font-size: 16px;"">F = YES &nbsp;&nbsp;&nbsp; J = NO</p>
        ","f","html-keyboard-response","193","2.1.0","679458","F=YES, J=NO","p8ejnb7815","1","64","78","50","","","","","","","","","plabet","strength","pseudoword","pseudoword","j","false","",""
"null","<p style=""font-size: 50px;"">+</p>","null","html-keyboard-response","194","2.1.0","679765","F=YES, J=NO","p8ejnb7815","1","64","78","50","","","","","","","","","","","","","","","",""
"null","audio/beep-329314.mp3","null","audio-keyboard-response","195","2.1.0","681303","F=YES, J=NO","p8ejnb7815","1","64","78","50","","","","","","","","","","","","","","","",""
"null","audio/wealth1.wav","null","audio-keyboard-response","196","2.1.0","682022","F=YES, J=NO","p8ejnb7815","1","64","78","50","","","","","","","","","","","","","","","",""
"827","
          <p id=""word"" style=""font-size: 40px;"">possess</p>
          <p style=""font-size: 16px;"">F = YES &nbsp;&nbsp;&nbsp; J = NO</p>
        ","f","html-keyboard-response","197","2.1.0","682850","F=YES, J=NO","p8ejnb7815","1","64","78","50","","","","","","","","","possess","wealth1","literal","experimental","f","true","",""
"null","<p style=""font-size: 50px;"">+</p>","null","html-keyboard-response","198","2.1.0","683165","F=YES, J=NO","p8ejnb7815","1","64","78","50","","","","","","","","","","","","","","","",""
"null","audio/beep-329314.mp3","null","audio-keyboard-response","199","2.1.0","684703","F=YES, J=NO","p8ejnb7815","1","64","78","50","","","","","","","","","","","","","","","",""
"null","audio/corpse1.wav","null","audio-keyboard-response","200","2.1.0","685482","F=YES, J=NO","p8ejnb7815","1","64","78","50","","","","","","","","","","","","","","","",""
"1031","
          <p id=""word"" style=""font-size: 40px;"">glonet</p>
          <p style=""font-size: 16px;"">F = YES &nbsp;&nbsp;&nbsp; J = NO</p>
        ","f","html-keyboard-response","201","2.1.0","686514","F=YES, J=NO","p8ejnb7815","1","64","78","50","","","","","","","","","glonet","corpse1","pseudoword","pseudoword","j","false","",""
"null","<p style=""font-size: 50px;"">+</p>","null","html-keyboard-response","202","2.1.0","686818","F=YES, J=NO","p8ejnb7815","1","64","78","50","","","","","","","","","","","","","","","",""
"null","audio/beep-329314.mp3","null","audio-keyboard-response","203","2.1.0","688342","F=YES, J=NO","p8ejnb7815","1","64","78","50","","","","","","","","","","","","","","","",""
"null","audio/noise1.wav","null","audio-keyboard-response","204","2.1.0","689122","F=YES, J=NO","p8ejnb7815","1","64","78","50","","","","","","","","","","","","","","","",""
"815","
          <p id=""word"" style=""font-size: 40px;"">slintered</p>
          <p style=""font-size: 16px;"">F = YES &nbsp;&nbsp;&nbsp; J = NO</p>
        ","f","html-keyboard-response","205","2.1.0","689938","F=YES, J=NO","p8ejnb7815","1","64","78","50","","","","","","","","","slintered","noise1","pseudoword","pseudoword","j","false","",""
"null","<p style=""font-size: 50px;"">+</p>","null","html-keyboard-response","206","2.1.0","690244","F=YES, J=NO","p8ejnb7815","1","64","78","50","","","","","","","","","","","","","","","",""
"null","audio/beep-329314.mp3","null","audio-keyboard-response","207","2.1.0","691782","F=YES, J=NO","p8ejnb7815","1","64","78","50","","","","","","","","","","","","","","","",""
"null","audio/fence.wav","null","audio-keyboard-response","208","2.1.0","692582","F=YES, J=NO","p8ejnb7815","1","64","78","50","","","","","","","","","","","","","","","",""
"747","
          <p id=""word"" style=""font-size: 40px;"">trim</p>
          <p style=""font-size: 16px;"">F = YES &nbsp;&nbsp;&nbsp; J = NO</p>
        ","f","html-keyboard-response","209","2.1.0","693330","F=YES, J=NO","p8ejnb7815","1","64","78","50","","","","","","","","","trim","fence","filler","filler","f","true","",""
"null","<p style=""font-size: 50px;"">+</p>","null","html-keyboard-response","210","2.1.0","693640","F=YES, J=NO","p8ejnb7815","1","64","78","50","","","","","","","","","","","","","","","",""
"null","audio/beep-329314.mp3","null","audio-keyboard-response","211","2.1.0","695162","F=YES, J=NO","p8ejnb7815","1","64","78","50","","","","","","","","","","","","","","","",""
"null","audio/empire.wav","null","audio-keyboard-response","212","2.1.0","695942","F=YES, J=NO","p8ejnb7815","1","64","78","50","","","","","","","","","","","","","","","",""
"795","
          <p id=""word"" style=""font-size: 40px;"">slorby</p>
          <p style=""font-size: 16px;"">F = YES &nbsp;&nbsp;&nbsp; J = NO</p>
        ","j","html-keyboard-response","213","2.1.0","696738","F=YES, J=NO","p8ejnb7815","1","64","78","50","","","","","","","","","slorby","empire","pseudoword","pseudoword","j","true","",""
"null","<p style=""font-size: 50px;"">+</p>","null","html-keyboard-response","214","2.1.0","697053","F=YES, J=NO","p8ejnb7815","1","64","78","50","","","","","","","","","","","","","","","",""
"null","audio/beep-329314.mp3","null","audio-keyboard-response","215","2.1.0","698582","F=YES, J=NO","p8ejnb7815","1","64","78","50","","","","","","","","","","","","","","","",""
"null","audio/truth1.wav","null","audio-keyboard-response","216","2.1.0","699302","F=YES, J=NO","p8ejnb7815","1","64","78","50","","","","","","","","","","","","","","","",""
"971","
          <p id=""word"" style=""font-size: 40px;"">calitom</p>
          <p style=""font-size: 16px;"">F = YES &nbsp;&nbsp;&nbsp; J = NO</p>
        ","j","html-keyboard-response","217","2.1.0","700274","F=YES, J=NO","p8ejnb7815","1","64","78","50","","","","","","","","","calitom","truth1","pseudoword","pseudoword","j","true","",""
"null","<p style=""font-size: 50px;"">+</p>","null","html-keyboard-response","218","2.1.0","700577","F=YES, J=NO","p8ejnb7815","1","64","78","50","","","","","","","","","","","","","","","",""
"null","audio/beep-329314.mp3","null","audio-keyboard-response","219","2.1.0","702102","F=YES, J=NO","p8ejnb7815","1","64","78","50","","","","","","","","","","","","","","","",""
"null","audio/mile1.wav","null","audio-keyboard-response","220","2.1.0","702742","F=YES, J=NO","p8ejnb7815","1","64","78","50","","","","","","","","","","","","","","","",""
"731","
          <p id=""word"" style=""font-size: 40px;"">run</p>
          <p style=""font-size: 16px;"">F = YES &nbsp;&nbsp;&nbsp; J = NO</p>
        ","f","html-keyboard-response","221","2.1.0","703474","F=YES, J=NO","p8ejnb7815","1","64","78","50","","","","","","","","","run","mile1","literal","experimental","f","true","",""
"null","<p style=""font-size: 50px;"">+</p>","null","html-keyboard-response","222","2.1.0","703778","F=YES, J=NO","p8ejnb7815","1","64","78","50","","","","","","","","","","","","","","","",""
"null","audio/beep-329314.mp3","null","audio-keyboard-response","223","2.1.0","705302","F=YES, J=NO","p8ejnb7815","1","64","78","50","","","","","","","","","","","","","","","",""
"null","audio/theory1.wav","null","audio-keyboard-response","224","2.1.0","706102","F=YES, J=NO","p8ejnb7815","1","64","78","50","","","","","","","","","","","","","","","",""
"1115","
          <p id=""word"" style=""font-size: 40px;"">scolve</p>
          <p style=""font-size: 16px;"">F = YES &nbsp;&nbsp;&nbsp; J = NO</p>
        ","j","html-keyboard-response","225","2.1.0","707218","F=YES, J=NO","p8ejnb7815","1","64","78","50","","","","","","","","","scolve","theory1","pseudoword","pseudoword","j","true","",""
"null","<p style=""font-size: 50px;"">+</p>","null","html-keyboard-response","226","2.1.0","707529","F=YES, J=NO","p8ejnb7815","1","64","78","50","","","","","","","","","","","","","","","",""
"null","audio/beep-329314.mp3","null","audio-keyboard-response","227","2.1.0","709062","F=YES, J=NO","p8ejnb7815","1","64","78","50","","","","","","","","","","","","","","","",""
"null","audio/mouth1.wav","null","audio-keyboard-response","228","2.1.0","709782","F=YES, J=NO","p8ejnb7815","1","64","78","50","","","","","","","","","","","","","","","",""
"668","
          <p id=""word"" style=""font-size: 40px;"">spolial</p>
          <p style=""font-size: 16px;"">F = YES &nbsp;&nbsp;&nbsp; J = NO</p>
        ","f","html-keyboard-response","229","2.1.0","710450","F=YES, J=NO","p8ejnb7815","1","64","78","50","","","","","","","","","spolial","mouth1","pseudoword","pseudoword","j","false","",""
"270655","<p>Excellent! You have finished block 1 of 8.</p>
                     <p>Feel free to take a 30 second break.</p>
                     <p>Press any key when you're ready to continue.</p>"," ","html-keyboard-response","230","2.1.0","981106","F=YES, J=NO","p8ejnb7815","1","64","78","50","","","","","","","","","","","","","","","",""
"2047","<p>Starting main block 2 of 8. Press any key to continue.</p>"," ","html-keyboard-response","231","2.1.0","983154","F=YES, J=NO","p8ejnb7815","1","64","78","50","","","","","","","","","","","","","","","",""
"null","<p style=""font-size: 50px;"">+</p>","null","html-keyboard-response","232","2.1.0","983464","F=YES, J=NO","p8ejnb7815","1","64","78","50","","","","","","","","","","","","","","","",""
"null","audio/beep-329314.mp3","null","audio-keyboard-response","233","2.1.0","985008","F=YES, J=NO","p8ejnb7815","1","64","78","50","","","","","","","","","","","","","","","",""
"null","audio/foe1.wav","null","audio-keyboard-response","234","2.1.0","985657","F=YES, J=NO","p8ejnb7815","1","64","78","50","","","","","","","","","","","","","","","",""
"872","
          <p id=""word"" style=""font-size: 40px;"">conquer</p>
          <p style=""font-size: 16px;"">F = YES &nbsp;&nbsp;&nbsp; J = NO</p>
        ","f","html-keyboard-response","235","2.1.0","986530","F=YES, J=NO","p8ejnb7815","1","64","78","50","","","","","","","","","conquer","foe1","literal","experimental","f","true","",""
"null","<p style=""font-size: 50px;"">+</p>","null","html-keyboard-response","236","2.1.0","986837","F=YES, J=NO","p8ejnb7815","1","64","78","50","","","","","","","","","","","","","","","",""
"null","audio/beep-329314.mp3","null","audio-keyboard-response","237","2.1.0","988368","F=YES, J=NO","p8ejnb7815","1","64","78","50","","","","","","","","","","","","","","","",""
"null","audio/mood1.wav","null","audio-keyboard-response","238","2.1.0","988978","F=YES, J=NO","p8ejnb7815","1","64","78","50","","","","","","","","","","","","","","","",""
"543","
          <p id=""word"" style=""font-size: 40px;"">give</p>
          <p style=""font-size: 16px;"">F = YES &nbsp;&nbsp;&nbsp; J = NO</p>
        ","f","html-keyboard-response","239","2.1.0","989522","F=YES, J=NO","p8ejnb7815","1","64","78","50","","","","","","","","","give","mood1","unrelated","experimental","f","true","",""
"null","<p style=""font-size: 50px;"">+</p>","null","html-keyboard-response","240","2.1.0","989826","F=YES, J=NO","p8ejnb7815","1","64","78","50","","","","","","","","","","","","","","","",""
"null","audio/beep-329314.mp3","null","audio-keyboard-response","241","2.1.0","991348","F=YES, J=NO","p8ejnb7815","1","64","78","50","","","","","","","","","","","","","","","",""
"null","audio/mind.wav","null","audio-keyboard-response","242","2.1.0","991898","F=YES, J=NO","p8ejnb7815","1","64","78","50","","","","","","","","","","","","","","","",""
"584","
          <p id=""word"" style=""font-size: 40px;"">clear</p>
          <p style=""font-size: 16px;"">F = YES &nbsp;&nbsp;&nbsp; J = NO</p>
        ","f","html-keyboard-response","243","2.1.0","992482","F=YES, J=NO","p8ejnb7815","1","64","78","50","","","","","","","","","clear","mind","metaphor","experimental","f","true","",""
"null","<p style=""font-size: 50px;"">+</p>","null","html-keyboard-response","244","2.1.0","992790","F=YES, J=NO","p8ejnb7815","1","64","78","50","","","","","","","","","","","","","","","",""
"null","audio/beep-329314.mp3","null","audio-keyboard-response","245","2.1.0","994328","F=YES, J=NO","p8ejnb7815","1","64","78","50","","","","","","","","","","","","","","","",""
"null","audio/beach1.wav","null","audio-keyboard-response","246","2.1.0","995077","F=YES, J=NO","p8ejnb7815","1","64","78","50","","","","","","","","","","","","","","","",""
"604","
          <p id=""word"" style=""font-size: 40px;"">drive</p>
          <p style=""font-size: 16px;"">F = YES &nbsp;&nbsp;&nbsp; J = NO</p>
        ","f","html-keyboard-response","247","2.1.0","995681","F=YES, J=NO","p8ejnb7815","1","64","78","50","","","","","","","","","drive","beach1","filler","filler","f","true","",""
"null","<p style=""font-size: 50px;"">+</p>","null","html-keyboard-response","248","2.1.0","995992","F=YES, J=NO","p8ejnb7815","1","64","78","50","","","","","","","","","","","","","","","",""
"null","audio/beep-329314.mp3","null","audio-keyboard-response","249","2.1.0","997527","F=YES, J=NO","p8ejnb7815","1","64","78","50","","","","","","","","","","","","","","","",""
"null","audio/butter1.wav","null","audio-keyboard-response","250","2.1.0","998117","F=YES, J=NO","p8ejnb7815","1","64","78","50","","","","","","","","","","","","","","","",""
"571","
          <p id=""word"" style=""font-size: 40px;"">chew</p>
          <p style=""font-size: 16px;"">F = YES &nbsp;&nbsp;&nbsp; J = NO</p>
        ","f","html-keyboard-response","251","2.1.0","998689","F=YES, J=NO","p8ejnb7815","1","64","78","50","","","","","","","","","chew","butter1","filler","filler","f","true","",""
"null","<p style=""font-size: 50px;"">+</p>","null","html-keyboard-response","252","2.1.0","998997","F=YES, J=NO","p8ejnb7815","1","64","78","50","","","","","","","","","","","","","","","",""
"null","audio/beep-329314.mp3","null","audio-keyboard-response","253","2.1.0","1000527","F=YES, J=NO","p8ejnb7815","1","64","78","50","","","","","","","","","","","","","","","",""
"null","audio/gossip1.wav","null","audio-keyboard-response","254","2.1.0","1001317","F=YES, J=NO","p8ejnb7815","1","64","78","50","","","","","","","","","","","","","","","",""
"795","
          <p id=""word"" style=""font-size: 40px;"">camerish</p>
          <p style=""font-size: 16px;"">F = YES &nbsp;&nbsp;&nbsp; J = NO</p>
        ","j","html-keyboard-response","255","2.1.0","1002113","F=YES, J=NO","p8ejnb7815","1","64","78","50","","","","","","","","","camerish","gossip1","pseudoword","pseudoword","j","true","",""
"null","<p style=""font-size: 50px;"">+</p>","null","html-keyboard-response","256","2.1.0","1002417","F=YES, J=NO","p8ejnb7815","1","64","78","50","","","","","","","","","","","","","","","",""
"null","audio/beep-329314.mp3","null","audio-keyboard-response","257","2.1.0","1003947","F=YES, J=NO","p8ejnb7815","1","64","78","50","","","","","","","","","","","","","","","",""
"null","audio/ankle1.wav","null","audio-keyboard-response","258","2.1.0","1004637","F=YES, J=NO","p8ejnb7815","1","64","78","50","","","","","","","","","","","","","","","",""
"612","
          <p id=""word"" style=""font-size: 40px;"">switm</p>
          <p style=""font-size: 16px;"">F = YES &nbsp;&nbsp;&nbsp; J = NO</p>
        ","f","html-keyboard-response","259","2.1.0","1005249","F=YES, J=NO","p8ejnb7815","1","64","78","50","","","","","","","","","switm","ankle1","pseudoword","pseudoword","j","false","",""
"null","<p style=""font-size: 50px;"">+</p>","null","html-keyboard-response","260","2.1.0","1005551","F=YES, J=NO","p8ejnb7815","1","64","78","50","","","","","","","","","","","","","","","",""
"null","audio/beep-329314.mp3","null","audio-keyboard-response","261","2.1.0","1007087","F=YES, J=NO","p8ejnb7815","1","64","78","50","","","","","","","","","","","","","","","",""
"null","audio/handle.wav","null","audio-keyboard-response","262","2.1.0","1007857","F=YES, J=NO","p8ejnb7815","1","64","78","50","","","","","","","","","","","","","","","",""
"656","
          <p id=""word"" style=""font-size: 40px;"">grasp</p>
          <p style=""font-size: 16px;"">F = YES &nbsp;&nbsp;&nbsp; J = NO</p>
        ","f","html-keyboard-response","263","2.1.0","1008514","F=YES, J=NO","p8ejnb7815","1","64","78","50","","","","","","","","","grasp","handle","literal","experimental","f","true","",""
"null","<p style=""font-size: 50px;"">+</p>","null","html-keyboard-response","264","2.1.0","1008827","F=YES, J=NO","p8ejnb7815","1","64","78","50","","","","","","","","","","","","","","","",""
"null","audio/beep-329314.mp3","null","audio-keyboard-response","265","2.1.0","1010367","F=YES, J=NO","p8ejnb7815","1","64","78","50","","","","","","","","","","","","","","","",""
"null","audio/plot1.wav","null","audio-keyboard-response","266","2.1.0","1011077","F=YES, J=NO","p8ejnb7815","1","64","78","50","","","","","","","","","","","","","","","",""
"701","
          <p id=""word"" style=""font-size: 40px;"">weave</p>
          <p style=""font-size: 16px;"">F = YES &nbsp;&nbsp;&nbsp; J = NO</p>
        ","f","html-keyboard-response","267","2.1.0","1011778","F=YES, J=NO","p8ejnb7815","1","64","78","50","","","","","","","","","weave","plot1","metaphor","experimental","f","true","",""
"null","<p style=""font-size: 50px;"">+</p>","null","html-keyboard-response","268","2.1.0","1012086","F=YES, J=NO","p8ejnb7815","1","64","78","50","","","","","","","","","","","","","","","",""
"null","audio/beep-329314.mp3","null","audio-keyboard-response","269","2.1.0","1013607","F=YES, J=NO","p8ejnb7815","1","64","78","50","","","","","","","","","","","","","","","",""
"null","audio/cash1.wav","null","audio-keyboard-response","270","2.1.0","1014157","F=YES, J=NO","p8ejnb7815","1","64","78","50","","","","","","","","","","","","","","","",""
"964","
          <p id=""word"" style=""font-size: 40px;"">splear</p>
          <p style=""font-size: 16px;"">F = YES &nbsp;&nbsp;&nbsp; J = NO</p>
        ","f","html-keyboard-response","271","2.1.0","1015122","F=YES, J=NO","p8ejnb7815","1","64","78","50","","","","","","","","","splear","cash1","pseudoword","pseudoword","j","false","",""
"null","<p style=""font-size: 50px;"">+</p>","null","html-keyboard-response","272","2.1.0","1015424","F=YES, J=NO","p8ejnb7815","1","64","78","50","","","","","","","","","","","","","","","",""
"null","audio/beep-329314.mp3","null","audio-keyboard-response","273","2.1.0","1016947","F=YES, J=NO","p8ejnb7815","1","64","78","50","","","","","","","","","","","","","","","",""
"null","audio/ankle1.wav","null","audio-keyboard-response","274","2.1.0","1017457","F=YES, J=NO","p8ejnb7815","1","64","78","50","","","","","","","","","","","","","","","",""
"768","
          <p id=""word"" style=""font-size: 40px;"">kick</p>
          <p style=""font-size: 16px;"">F = YES &nbsp;&nbsp;&nbsp; J = NO</p>
        ","f","html-keyboard-response","275","2.1.0","1018226","F=YES, J=NO","p8ejnb7815","1","64","78","50","","","","","","","","","kick","ankle1","filler","filler","f","true","",""
"null","<p style=""font-size: 50px;"">+</p>","null","html-keyboard-response","276","2.1.0","1018533","F=YES, J=NO","p8ejnb7815","1","64","78","50","","","","","","","","","","","","","","","",""
"null","audio/beep-329314.mp3","null","audio-keyboard-response","277","2.1.0","1020067","F=YES, J=NO","p8ejnb7815","1","64","78","50","","","","","","","","","","","","","","","",""
"null","audio/smirk1.wav","null","audio-keyboard-response","278","2.1.0","1020937","F=YES, J=NO","p8ejnb7815","1","64","78","50","","","","","","","","","","","","","","","",""
"552","
          <p id=""word"" style=""font-size: 40px;"">wipe</p>
          <p style=""font-size: 16px;"">F = YES &nbsp;&nbsp;&nbsp; J = NO</p>
        ","f","html-keyboard-response","279","2.1.0","1021489","F=YES, J=NO","p8ejnb7815","1","64","78","50","","","","","","","","","wipe","smirk1","metaphor","experimental","f","true","",""
"null","<p style=""font-size: 50px;"">+</p>","null","html-keyboard-response","280","2.1.0","1021802","F=YES, J=NO","p8ejnb7815","1","64","78","50","","","","","","","","","","","","","","","",""
"null","audio/beep-329314.mp3","null","audio-keyboard-response","281","2.1.0","1023327","F=YES, J=NO","p8ejnb7815","1","64","78","50","","","","","","","","","","","","","","","",""
"null","audio/desire.wav","null","audio-keyboard-response","282","2.1.0","1024117","F=YES, J=NO","p8ejnb7815","1","64","78","50","","","","","","","","","","","","","","","",""
"733","
          <p id=""word"" style=""font-size: 40px;"">nophed</p>
          <p style=""font-size: 16px;"">F = YES &nbsp;&nbsp;&nbsp; J = NO</p>
        ","f","html-keyboard-response","283","2.1.0","1024850","F=YES, J=NO","p8ejnb7815","1","64","78","50","","","","","","","","","nophed","desire","pseudoword","pseudoword","j","false","",""
"null","<p style=""font-size: 50px;"">+</p>","null","html-keyboard-response","284","2.1.0","1025153","F=YES, J=NO","p8ejnb7815","1","64","78","50","","","","","","","","","","","","","","","",""
"null","audio/beep-329314.mp3","null","audio-keyboard-response","285","2.1.0","1026687","F=YES, J=NO","p8ejnb7815","1","64","78","50","","","","","","","","","","","","","","","",""
"null","audio/breath.wav","null","audio-keyboard-response","286","2.1.0","1027397","F=YES, J=NO","p8ejnb7815","1","64","78","50","","","","","","","","","","","","","","","",""
"1148","
          <p id=""word"" style=""font-size: 40px;"">twets</p>
          <p style=""font-size: 16px;"">F = YES &nbsp;&nbsp;&nbsp; J = NO</p>
        ","j","html-keyboard-response","287","2.1.0","1028546","F=YES, J=NO","p8ejnb7815","1","64","78","50","","","","","","","","","twets","breath","pseudoword","pseudoword","j","true","",""
"null","<p style=""font-size: 50px;"">+</p>","null","html-keyboard-response","288","2.1.0","1028852","F=YES, J=NO","p8ejnb7815","1","64","78","50","","","","","","","","","","","","","","","",""
"null","audio/beep-329314.mp3","null","audio-keyboard-response","289","2.1.0","1030387","F=YES, J=NO","p8ejnb7815","1","64","78","50","","","","","","","","","","","","","","","",""
"null","audio/alarm1.wav","null","audio-keyboard-response","290","2.1.0","1031117","F=YES, J=NO","p8ejnb7815","1","64","78","50","","","","","","","","","","","","","","","",""
"676","
          <p id=""word"" style=""font-size: 40px;"">lock</p>
          <p style=""font-size: 16px;"">F = YES &nbsp;&nbsp;&nbsp; J = NO</p>
        ","f","html-keyboard-response","291","2.1.0","1031793","F=YES, J=NO","p8ejnb7815","1","64","78","50","","","","","","","","","lock","alarm1","filler","filler","f","true","",""
"null","<p style=""font-size: 50px;"">+</p>","null","html-keyboard-response","292","2.1.0","1032097","F=YES, J=NO","p8ejnb7815","1","64","78","50","","","","","","","","","","","","","","","",""
"null","audio/beep-329314.mp3","null","audio-keyboard-response","293","2.1.0","1033627","F=YES, J=NO","p8ejnb7815","1","64","78","50","","","","","","","","","","","","","","","",""
"null","audio/survey1.wav","null","audio-keyboard-response","294","2.1.0","1034517","F=YES, J=NO","p8ejnb7815","1","64","78","50","","","","","","","","","","","","","","","",""
"876","
          <p id=""word"" style=""font-size: 40px;"">imploth</p>
          <p style=""font-size: 16px;"">F = YES &nbsp;&nbsp;&nbsp; J = NO</p>
        ","f","html-keyboard-response","295","2.1.0","1035394","F=YES, J=NO","p8ejnb7815","1","64","78","50","","","","","","","","","imploth","survey1","pseudoword","pseudoword","j","false","",""
"4207","<p>Excellent! You have finished block 2 of 8.</p>
                     <p>Feel free to take a 30 second break.</p>
                     <p>Press any key when you're ready to continue.</p>"," ","html-keyboard-response","296","2.1.0","1039602","F=YES, J=NO","p8ejnb7815","1","64","78","50","","","","","","","","","","","","","","","",""
"960","<p>Starting main block 3 of 8. Press any key to continue.</p>"," ","html-keyboard-response","297","2.1.0","1040561","F=YES, J=NO","p8ejnb7815","1","64","78","50","","","","","","","","","","","","","","","",""
"null","<p style=""font-size: 50px;"">+</p>","null","html-keyboard-response","298","2.1.0","1040865","F=YES, J=NO","p8ejnb7815","1","64","78","50","","","","","","","","","","","","","","","",""
"null","audio/beep-329314.mp3","null","audio-keyboard-response","299","2.1.0","1042386","F=YES, J=NO","p8ejnb7815","1","64","78","50","","","","","","","","","","","","","","","",""
"null","audio/pig.wav","null","audio-keyboard-response","300","2.1.0","1042776","F=YES, J=NO","p8ejnb7815","1","64","78","50","","","","","","","","","","","","","","","",""
"601","
          <p id=""word"" style=""font-size: 40px;"">feed</p>
          <p style=""font-size: 16px;"">F = YES &nbsp;&nbsp;&nbsp; J = NO</p>
        ","f","html-keyboard-response","301","2.1.0","1043378","F=YES, J=NO","p8ejnb7815","1","64","78","50","","","","","","","","","feed","pig","literal","experimental","f","true","",""
"null","<p style=""font-size: 50px;"">+</p>","null","html-keyboard-response","302","2.1.0","1043688","F=YES, J=NO","p8ejnb7815","1","64","78","50","","","","","","","","","","","","","","","",""
"null","audio/beep-329314.mp3","null","audio-keyboard-response","303","2.1.0","1045226","F=YES, J=NO","p8ejnb7815","1","64","78","50","","","","","","","","","","","","","","","",""
"null","audio/uncle1.wav","null","audio-keyboard-response","304","2.1.0","1045896","F=YES, J=NO","p8ejnb7815","1","64","78","50","","","","","","","","","","","","","","","",""
"601","
          <p id=""word"" style=""font-size: 40px;"">dramble</p>
          <p style=""font-size: 16px;"">F = YES &nbsp;&nbsp;&nbsp; J = NO</p>
        ","f","html-keyboard-response","305","2.1.0","1046497","F=YES, J=NO","p8ejnb7815","1","64","78","50","","","","","","","","","dramble","uncle1","pseudoword","pseudoword","j","false","",""
"null","<p style=""font-size: 50px;"">+</p>","null","html-keyboard-response","306","2.1.0","1046811","F=YES, J=NO","p8ejnb7815","1","64","78","50","","","","","","","","","","","","","","","",""
"null","audio/beep-329314.mp3","null","audio-keyboard-response","307","2.1.0","1048346","F=YES, J=NO","p8ejnb7815","1","64","78","50","","","","","","","","","","","","","","","",""
"null","audio/train.wav","null","audio-keyboard-response","308","2.1.0","1048996","F=YES, J=NO","p8ejnb7815","1","64","78","50","","","","","","","","","","","","","","","",""
"1468","
          <p id=""word"" style=""font-size: 40px;"">catch</p>
          <p style=""font-size: 16px;"">F = YES &nbsp;&nbsp;&nbsp; J = NO</p>
        ","f","html-keyboard-response","309","2.1.0","1050465","F=YES, J=NO","p8ejnb7815","1","64","78","50","","","","","","","","","catch","train","metaphor","experimental","f","true","",""
"null","<p style=""font-size: 50px;"">+</p>","null","html-keyboard-response","310","2.1.0","1050773","F=YES, J=NO","p8ejnb7815","1","64","78","50","","","","","","","","","","","","","","","",""
"null","audio/beep-329314.mp3","null","audio-keyboard-response","311","2.1.0","1052306","F=YES, J=NO","p8ejnb7815","1","64","78","50","","","","","","","","","","","","","","","",""
"null","audio/beach1.wav","null","audio-keyboard-response","312","2.1.0","1052876","F=YES, J=NO","p8ejnb7815","1","64","78","50","","","","","","","","","","","","","","","",""
"582","
          <p id=""word"" style=""font-size: 40px;"">cut</p>
          <p style=""font-size: 16px;"">F = YES &nbsp;&nbsp;&nbsp; J = NO</p>
        ","f","html-keyboard-response","313","2.1.0","1053458","F=YES, J=NO","p8ejnb7815","1","64","78","50","","","","","","","","","cut","beach1","unrelated","experimental","f","true","",""
"null","<p style=""font-size: 50px;"">+</p>","null","html-keyboard-response","314","2.1.0","1053768","F=YES, J=NO","p8ejnb7815","1","64","78","50","","","","","","","","","","","","","","","",""
"null","audio/beep-329314.mp3","null","audio-keyboard-response","315","2.1.0","1055306","F=YES, J=NO","p8ejnb7815","1","64","78","50","","","","","","","","","","","","","","","",""
"null","audio/arm.wav","null","audio-keyboard-response","316","2.1.0","1056016","F=YES, J=NO","p8ejnb7815","1","64","78","50","","","","","","","","","","","","","","","",""
"561","
          <p id=""word"" style=""font-size: 40px;"">pigne</p>
          <p style=""font-size: 16px;"">F = YES &nbsp;&nbsp;&nbsp; J = NO</p>
        ","f","html-keyboard-response","317","2.1.0","1056577","F=YES, J=NO","p8ejnb7815","1","64","78","50","","","","","","","","","pigne","arm","pseudoword","pseudoword","j","false","",""
"null","<p style=""font-size: 50px;"">+</p>","null","html-keyboard-response","318","2.1.0","1056891","F=YES, J=NO","p8ejnb7815","1","64","78","50","","","","","","","","","","","","","","","",""
"null","audio/beep-329314.mp3","null","audio-keyboard-response","319","2.1.0","1058426","F=YES, J=NO","p8ejnb7815","1","64","78","50","","","","","","","","","","","","","","","",""
"null","audio/holiday1.wav","null","audio-keyboard-response","320","2.1.0","1059216","F=YES, J=NO","p8ejnb7815","1","64","78","50","","","","","","","","","","","","","","","",""
"673","
          <p id=""word"" style=""font-size: 40px;"">spend</p>
          <p style=""font-size: 16px;"">F = YES &nbsp;&nbsp;&nbsp; J = NO</p>
        ","f","html-keyboard-response","321","2.1.0","1059889","F=YES, J=NO","p8ejnb7815","1","64","78","50","","","","","","","","","spend","holiday1","metaphor","experimental","f","true","",""
"null","<p style=""font-size: 50px;"">+</p>","null","html-keyboard-response","322","2.1.0","1060198","F=YES, J=NO","p8ejnb7815","1","64","78","50","","","","","","","","","","","","","","","",""
"null","audio/beep-329314.mp3","null","audio-keyboard-response","323","2.1.0","1061726","F=YES, J=NO","p8ejnb7815","1","64","78","50","","","","","","","","","","","","","","","",""
"null","audio/neck.wav","null","audio-keyboard-response","324","2.1.0","1062436","F=YES, J=NO","p8ejnb7815","1","64","78","50","","","","","","","","","","","","","","","",""
"749","
          <p id=""word"" style=""font-size: 40px;"">werling</p>
          <p style=""font-size: 16px;"">F = YES &nbsp;&nbsp;&nbsp; J = NO</p>
        ","j","html-keyboard-response","325","2.1.0","1063185","F=YES, J=NO","p8ejnb7815","1","64","78","50","","","","","","","","","werling","neck","pseudoword","pseudoword","j","true","",""
"null","<p style=""font-size: 50px;"">+</p>","null","html-keyboard-response","326","2.1.0","1063498","F=YES, J=NO","p8ejnb7815","1","64","78","50","","","","","","","","","","","","","","","",""
"null","audio/beep-329314.mp3","null","audio-keyboard-response","327","2.1.0","1065026","F=YES, J=NO","p8ejnb7815","1","64","78","50","","","","","","","","","","","","","","","",""
"null","audio/window1.wav","null","audio-keyboard-response","328","2.1.0","1065796","F=YES, J=NO","p8ejnb7815","1","64","78","50","","","","","","","","","","","","","","","",""
"541","
          <p id=""word"" style=""font-size: 40px;"">break</p>
          <p style=""font-size: 16px;"">F = YES &nbsp;&nbsp;&nbsp; J = NO</p>
        ","f","html-keyboard-response","329","2.1.0","1066337","F=YES, J=NO","p8ejnb7815","1","64","78","50","","","","","","","","","break","window1","literal","experimental","f","true","",""
"null","<p style=""font-size: 50px;"">+</p>","null","html-keyboard-response","330","2.1.0","1066645","F=YES, J=NO","p8ejnb7815","1","64","78","50","","","","","","","","","","","","","","","",""
"null","audio/beep-329314.mp3","null","audio-keyboard-response","331","2.1.0","1068186","F=YES, J=NO","p8ejnb7815","1","64","78","50","","","","","","","","","","","","","","","",""
"null","audio/budget1.wav","null","audio-keyboard-response","332","2.1.0","1068956","F=YES, J=NO","p8ejnb7815","1","64","78","50","","","","","","","","","","","","","","","",""
"789","
          <p id=""word"" style=""font-size: 40px;"">sulist</p>
          <p style=""font-size: 16px;"">F = YES &nbsp;&nbsp;&nbsp; J = NO</p>
        ","j","html-keyboard-response","333","2.1.0","1069746","F=YES, J=NO","p8ejnb7815","1","64","78","50","","","","","","","","","sulist","budget1","pseudoword","pseudoword","j","true","",""
"null","<p style=""font-size: 50px;"">+</p>","null","html-keyboard-response","334","2.1.0","1070061","F=YES, J=NO","p8ejnb7815","1","64","78","50","","","","","","","","","","","","","","","",""
"null","audio/beep-329314.mp3","null","audio-keyboard-response","335","2.1.0","1071586","F=YES, J=NO","p8ejnb7815","1","64","78","50","","","","","","","","","","","","","","","",""
"null","audio/plot1.wav","null","audio-keyboard-response","336","2.1.0","1072115","F=YES, J=NO","p8ejnb7815","1","64","78","50","","","","","","","","","","","","","","","",""
"749","
          <p id=""word"" style=""font-size: 40px;"">glenter</p>
          <p style=""font-size: 16px;"">F = YES &nbsp;&nbsp;&nbsp; J = NO</p>
        ","j","html-keyboard-response","337","2.1.0","1072865","F=YES, J=NO","p8ejnb7815","1","64","78","50","","","","","","","","","glenter","plot1","pseudoword","pseudoword","j","true","",""
"null","<p style=""font-size: 50px;"">+</p>","null","html-keyboard-response","338","2.1.0","1073173","F=YES, J=NO","p8ejnb7815","1","64","78","50","","","","","","","","","","","","","","","",""
"null","audio/beep-329314.mp3","null","audio-keyboard-response","339","2.1.0","1074705","F=YES, J=NO","p8ejnb7815","1","64","78","50","","","","","","","","","","","","","","","",""
"null","audio/weight1.wav","null","audio-keyboard-response","340","2.1.0","1075216","F=YES, J=NO","p8ejnb7815","1","64","78","50","","","","","","","","","","","","","","","",""
"977","
          <p id=""word"" style=""font-size: 40px;"">support</p>
          <p style=""font-size: 16px;"">F = YES &nbsp;&nbsp;&nbsp; J = NO</p>
        ","f","html-keyboard-response","341","2.1.0","1076193","F=YES, J=NO","p8ejnb7815","1","64","78","50","","","","","","","","","support","weight1","literal","experimental","f","true","",""
"null","<p style=""font-size: 50px;"">+</p>","null","html-keyboard-response","342","2.1.0","1076509","F=YES, J=NO","p8ejnb7815","1","64","78","50","","","","","","","","","","","","","","","",""
"null","audio/beep-329314.mp3","null","audio-keyboard-response","343","2.1.0","1078046","F=YES, J=NO","p8ejnb7815","1","64","78","50","","","","","","","","","","","","","","","",""
"null","audio/ego.wav","null","audio-keyboard-response","344","2.1.0","1078735","F=YES, J=NO","p8ejnb7815","1","64","78","50","","","","","","","","","","","","","","","",""
"689","
          <p id=""word"" style=""font-size: 40px;"">bruite</p>
          <p style=""font-size: 16px;"">F = YES &nbsp;&nbsp;&nbsp; J = NO</p>
        ","j","html-keyboard-response","345","2.1.0","1079425","F=YES, J=NO","p8ejnb7815","1","64","78","50","","","","","","","","","bruite","ego","pseudoword","pseudoword","j","true","",""
"null","<p style=""font-size: 50px;"">+</p>","null","html-keyboard-response","346","2.1.0","1079731","F=YES, J=NO","p8ejnb7815","1","64","78","50","","","","","","","","","","","","","","","",""
"null","audio/beep-329314.mp3","null","audio-keyboard-response","347","2.1.0","1081265","F=YES, J=NO","p8ejnb7815","1","64","78","50","","","","","","","","","","","","","","","",""
"null","audio/pain1.wav","null","audio-keyboard-response","348","2.1.0","1081715","F=YES, J=NO","p8ejnb7815","1","64","78","50","","","","","","","","","","","","","","","",""
"1086","
          <p id=""word"" style=""font-size: 40px;"">tritted</p>
          <p style=""font-size: 16px;"">F = YES &nbsp;&nbsp;&nbsp; J = NO</p>
        ","j","html-keyboard-response","349","2.1.0","1082801","F=YES, J=NO","p8ejnb7815","1","64","78","50","","","","","","","","","tritted","pain1","pseudoword","pseudoword","j","true","",""
"null","<p style=""font-size: 50px;"">+</p>","null","html-keyboard-response","350","2.1.0","1083111","F=YES, J=NO","p8ejnb7815","1","64","78","50","","","","","","","","","","","","","","","",""
"null","audio/beep-329314.mp3","null","audio-keyboard-response","351","2.1.0","1084645","F=YES, J=NO","p8ejnb7815","1","64","78","50","","","","","","","","","","","","","","","",""
"null","audio/vehicle1.wav","null","audio-keyboard-response","352","2.1.0","1085455","F=YES, J=NO","p8ejnb7815","1","64","78","50","","","","","","","","","","","","","","","",""
"706","
          <p id=""word"" style=""font-size: 40px;"">dropt</p>
          <p style=""font-size: 16px;"">F = YES &nbsp;&nbsp;&nbsp; J = NO</p>
        ","f","html-keyboard-response","353","2.1.0","1086161","F=YES, J=NO","p8ejnb7815","1","64","78","50","","","","","","","","","dropt","vehicle1","pseudoword","pseudoword","j","false","",""
"null","<p style=""font-size: 50px;"">+</p>","null","html-keyboard-response","354","2.1.0","1086474","F=YES, J=NO","p8ejnb7815","1","64","78","50","","","","","","","","","","","","","","","",""
"null","audio/beep-329314.mp3","null","audio-keyboard-response","355","2.1.0","1088005","F=YES, J=NO","p8ejnb7815","1","64","78","50","","","","","","","","","","","","","","","",""
"null","audio/church1.wav","null","audio-keyboard-response","356","2.1.0","1088835","F=YES, J=NO","p8ejnb7815","1","64","78","50","","","","","","","","","","","","","","","",""
"670","
          <p id=""word"" style=""font-size: 40px;"">cover</p>
          <p style=""font-size: 16px;"">F = YES &nbsp;&nbsp;&nbsp; J = NO</p>
        ","f","html-keyboard-response","357","2.1.0","1089506","F=YES, J=NO","p8ejnb7815","1","64","78","50","","","","","","","","","cover","church1","unrelated","experimental","f","true","",""
"null","<p style=""font-size: 50px;"">+</p>","null","html-keyboard-response","358","2.1.0","1089814","F=YES, J=NO","p8ejnb7815","1","64","78","50","","","","","","","","","","","","","","","",""
"null","audio/beep-329314.mp3","null","audio-keyboard-response","359","2.1.0","1091345","F=YES, J=NO","p8ejnb7815","1","64","78","50","","","","","","","","","","","","","","","",""
"null","audio/account1.wav","null","audio-keyboard-response","360","2.1.0","1092195","F=YES, J=NO","p8ejnb7815","1","64","78","50","","","","","","","","","","","","","","","",""
"670","
          <p id=""word"" style=""font-size: 40px;"">open</p>
          <p style=""font-size: 16px;"">F = YES &nbsp;&nbsp;&nbsp; J = NO</p>
        ","f","html-keyboard-response","361","2.1.0","1092866","F=YES, J=NO","p8ejnb7815","1","64","78","50","","","","","","","","","open","account1","metaphor","experimental","f","true","",""
"67535","<p>Excellent! You have finished block 3 of 8.</p>
                     <p>Feel free to take a 30 second break.</p>
                     <p>Press any key when you're ready to continue.</p>"," ","html-keyboard-response","362","2.1.0","1160401","F=YES, J=NO","p8ejnb7815","1","64","78","50","","","","","","","","","","","","","","","",""
"1936","<p>Starting main block 4 of 8. Press any key to continue.</p>"," ","html-keyboard-response","363","2.1.0","1162337","F=YES, J=NO","p8ejnb7815","1","64","78","50","","","","","","","","","","","","","","","",""
"null","<p style=""font-size: 50px;"">+</p>","null","html-keyboard-response","364","2.1.0","1162638","F=YES, J=NO","p8ejnb7815","1","64","78","50","","","","","","","","","","","","","","","",""
"null","audio/beep-329314.mp3","null","audio-keyboard-response","365","2.1.0","1164180","F=YES, J=NO","p8ejnb7815","1","64","78","50","","","","","","","","","","","","","","","",""
"null","audio/tomato.wav","null","audio-keyboard-response","366","2.1.0","1164989","F=YES, J=NO","p8ejnb7815","1","64","78","50","","","","","","","","","","","","","","","",""
"884","
          <p id=""word"" style=""font-size: 40px;"">gladies</p>
          <p style=""font-size: 16px;"">F = YES &nbsp;&nbsp;&nbsp; J = NO</p>
        ","j","html-keyboard-response","367","2.1.0","1165874","F=YES, J=NO","p8ejnb7815","1","64","78","50","","","","","","","","","gladies","tomato","pseudoword","pseudoword","j","true","",""
"null","<p style=""font-size: 50px;"">+</p>","null","html-keyboard-response","368","2.1.0","1166182","F=YES, J=NO","p8ejnb7815","1","64","78","50","","","","","","","","","","","","","","","",""
"null","audio/beep-329314.mp3","null","audio-keyboard-response","369","2.1.0","1167720","F=YES, J=NO","p8ejnb7815","1","64","78","50","","","","","","","","","","","","","","","",""
"null","audio/flaw.wav","null","audio-keyboard-response","370","2.1.0","1168509","F=YES, J=NO","p8ejnb7815","1","64","78","50","","","","","","","","","","","","","","","",""
"660","
          <p id=""word"" style=""font-size: 40px;"">hide</p>
          <p style=""font-size: 16px;"">F = YES &nbsp;&nbsp;&nbsp; J = NO</p>
        ","f","html-keyboard-response","371","2.1.0","1169169","F=YES, J=NO","p8ejnb7815","1","64","78","50","","","","","","","","","hide","flaw","metaphor","experimental","f","true","",""
"null","<p style=""font-size: 50px;"">+</p>","null","html-keyboard-response","372","2.1.0","1169484","F=YES, J=NO","p8ejnb7815","1","64","78","50","","","","","","","","","","","","","","","",""
"null","audio/beep-329314.mp3","null","audio-keyboard-response","373","2.1.0","1171019","F=YES, J=NO","p8ejnb7815","1","64","78","50","","","","","","","","","","","","","","","",""
"null","audio/tunnel.wav","null","audio-keyboard-response","374","2.1.0","1171449","F=YES, J=NO","p8ejnb7815","1","64","78","50","","","","","","","","","","","","","","","",""
"616","
          <p id=""word"" style=""font-size: 40px;"">gred</p>
          <p style=""font-size: 16px;"">F = YES &nbsp;&nbsp;&nbsp; J = NO</p>
        ","f","html-keyboard-response","375","2.1.0","1172066","F=YES, J=NO","p8ejnb7815","1","64","78","50","","","","","","","","","gred","tunnel","pseudoword","pseudoword","j","false","",""
"null","<p style=""font-size: 50px;"">+</p>","null","html-keyboard-response","376","2.1.0","1172370","F=YES, J=NO","p8ejnb7815","1","64","78","50","","","","","","","","","","","","","","","",""
"null","audio/beep-329314.mp3","null","audio-keyboard-response","377","2.1.0","1173899","F=YES, J=NO","p8ejnb7815","1","64","78","50","","","","","","","","","","","","","","","",""
"null","audio/cave1.wav","null","audio-keyboard-response","378","2.1.0","1174589","F=YES, J=NO","p8ejnb7815","1","64","78","50","","","","","","","","","","","","","","","",""
"547","
          <p id=""word"" style=""font-size: 40px;"">hurt</p>
          <p style=""font-size: 16px;"">F = YES &nbsp;&nbsp;&nbsp; J = NO</p>
        ","f","html-keyboard-response","379","2.1.0","1175137","F=YES, J=NO","p8ejnb7815","1","64","78","50","","","","","","","","","hurt","cave1","unrelated","experimental","f","true","",""
"null","<p style=""font-size: 50px;"">+</p>","null","html-keyboard-response","380","2.1.0","1175443","F=YES, J=NO","p8ejnb7815","1","64","78","50","","","","","","","","","","","","","","","",""
"null","audio/beep-329314.mp3","null","audio-keyboard-response","381","2.1.0","1176979","F=YES, J=NO","p8ejnb7815","1","64","78","50","","","","","","","","","","","","","","","",""
"null","audio/dollar.wav","null","audio-keyboard-response","382","2.1.0","1177349","F=YES, J=NO","p8ejnb7815","1","64","78","50","","","","","","","","","","","","","","","",""
"700","
          <p id=""word"" style=""font-size: 40px;"">save</p>
          <p style=""font-size: 16px;"">F = YES &nbsp;&nbsp;&nbsp; J = NO</p>
        ","f","html-keyboard-response","383","2.1.0","1178049","F=YES, J=NO","p8ejnb7815","1","64","78","50","","","","","","","","","save","dollar","literal","experimental","f","true","",""
"null","<p style=""font-size: 50px;"">+</p>","null","html-keyboard-response","384","2.1.0","1178362","F=YES, J=NO","p8ejnb7815","1","64","78","50","","","","","","","","","","","","","","","",""
"null","audio/beep-329314.mp3","null","audio-keyboard-response","385","2.1.0","1179899","F=YES, J=NO","p8ejnb7815","1","64","78","50","","","","","","","","","","","","","","","",""
"null","audio/grass.wav","null","audio-keyboard-response","386","2.1.0","1180709","F=YES, J=NO","p8ejnb7815","1","64","78","50","","","","","","","","","","","","","","","",""
"795","
          <p id=""word"" style=""font-size: 40px;"">milames</p>
          <p style=""font-size: 16px;"">F = YES &nbsp;&nbsp;&nbsp; J = NO</p>
        ","j","html-keyboard-response","387","2.1.0","1181505","F=YES, J=NO","p8ejnb7815","1","64","78","50","","","","","","","","","milames","grass","pseudoword","pseudoword","j","true","",""
"null","<p style=""font-size: 50px;"">+</p>","null","html-keyboard-response","388","2.1.0","1181808","F=YES, J=NO","p8ejnb7815","1","64","78","50","","","","","","","","","","","","","","","",""
"null","audio/beep-329314.mp3","null","audio-keyboard-response","389","2.1.0","1183339","F=YES, J=NO","p8ejnb7815","1","64","78","50","","","","","","","","","","","","","","","",""
"null","audio/flaw.wav","null","audio-keyboard-response","390","2.1.0","1183949","F=YES, J=NO","p8ejnb7815","1","64","78","50","","","","","","","","","","","","","","","",""
"548","
          <p id=""word"" style=""font-size: 40px;"">thwool</p>
          <p style=""font-size: 16px;"">F = YES &nbsp;&nbsp;&nbsp; J = NO</p>
