"rt","stimulus","response","trial_type","trial_index","plugin_version","time_elapsed","response_mapping","subject_id","list_index","lextale_score","lextale_word_score","lextale_nonword_score","success","timeout","failed_images","failed_audio","failed_video","task","isWord","isDummy","target","prime","prime_type","stimulus_type","correct_response","correct","section","question_order"
"54546","
    <div style=""max-width: 800px; margin: auto; text-align: left;"">
      <h2>STANFORD UNIVERSITY</h2>
      <h3>Research Information Sheet</h3>
      <p><strong>Protocol Director:</strong> Robert Hawkins<br>
      <strong>Protocol Title:</strong> Communication and social cognition in natural audiovisual contexts<br>
      <strong>IRB#:</strong> 77226</p>

      <p><strong>DESCRIPTION:</strong> You are invited to participate in a research study about language and communication. The purpose of the research is to understand how you interact and communicate with other people in naturalistic settings as a fluent English speaker. This research will be conducted through the Prolific platform, including participants from the US, UK, and Canada. If you decide to participate in this research, you will play a communication game in a group with one or more partners.</p>

      <p><strong>TIME INVOLVEMENT:</strong> The task will last the amount of time advertised on Prolific. You are free to withdraw from the study at any time.</p>

      <p><strong>RISKS AND BENEFITS:</strong> You may become frustrated if your partner gets distracted, or experience discomfort if other participants in your group send text that is inappropriate for the task. We ask you to please be respectful of other participants you might be interacting with to mitigate these risks. You may also experience discomfort when being asked to discuss or challenge emotionally salient political beliefs. Study data will be stored securely, in compliance with Stanford University standards, minimizing the risk of confidentiality breach. This study advances our scientific understanding of how people communicate and collaborate in naturalistic settings. This study may lead to further insights about what can go wrong in teamwork, suggest potential interventions to overcome these barriers, and help to develop assistive technologies that collaborate with human partners. We cannot and do not guarantee or promise that you will receive any benefits from this study.</p>

      <p><strong>PAYMENTS:</strong> You will receive payment in the amount advertised on Prolific. If you do not complete this study, you will receive prorated payment based on the time that you have spent. Additionally, you may be eligible for bonus payments as described in the instructions.</p>

      <p><strong>PARTICIPANT’S RIGHTS:</strong> If you have read this form and have decided to participate in this project, please understand your participation is voluntary and you have the right to withdraw your consent or discontinue participation at any time without penalty or loss of benefits to which you are otherwise entitled. The alternative is not to participate. You have the right to refuse to answer particular questions. The results of this research study may be presented at scientific or professional meetings or published in scientific journals. Your individual privacy will be maintained in all published and written data resulting from the study. In accordance with scientific norms, the data from this study may be used or shared with other researchers for future research (after removing personally identifying information) without additional consent from you.</p>

      <p><strong>CONTACT INFORMATION:</strong><br>
      Questions: If you have any questions, concerns or complaints about this research, its procedures, risks and benefits, contact the Protocol Director, Robert Hawkins (<a href=""mailto:rdhawkins@stanford.edu"">rdhawkins@stanford.edu</a>, 217-549-6923).<br>
      Independent Contact: If you are not satisfied with how this study is being conducted, or if you have any concerns, complaints, or general questions about the research or your rights as a participant, please contact the Stanford Institutional Review Board (IRB) to speak to someone independent of the research team at 650-723-2480 or toll free at 1-866-680-2906, or email at <a href=""mailto:irbnon-med@stanford.edu"">irbnon-med@stanford.edu</a>. You can also write to the Stanford IRB, Stanford University, 1705 El Camino Real, Palo Alto, CA 94306.</p>

      <p><strong>Please save or print a copy of this page for your records.</strong></p>
      <p>If you agree to participate in this research, click ""Continue"" below.</p>
    </div>
  ","0","html-button-response","0","2.1.0","54564","F=YES, J=NO","paules9gvo","0","79","83","75","","","","","","","","","","","","","","","",""
"2099","
    <div style=""max-width: 800px; margin: auto; text-align: left;"">
      <h2>Welcome!</h2>
      <p>Thank you for participating in this study. The experiment consists of three parts:</p>
      <ol>
        <li>An English vocabulary test</li>
        <li>A main task in which you will hear and see words, and decide whether the written word is a real English word</li>
        <li>A brief survey about your background</li>
      </ol>
      <p>Each part will be introduced before it begins.</p>
      <p>Please make sure you are in a quiet environment and can hear audio clearly for the final task.</p>
      <p style=""margin-top: 2em;"">Press any key to begin.</p>
    </div>
  ","Enter","html-keyboard-response","1","2.1.0","56669","F=YES, J=NO","paules9gvo","0","79","83","75","","","","","","","","","","","","","","","",""
"","","","preload","2","2.1.0","58920","F=YES, J=NO","paules9gvo","0","79","83","75","true","false","[]","[]","[]","","","","","","","","","","",""
"2443","
    <div style=""max-width: 800px; margin: auto; text-align: left;"">
      <h2>Part 1: Vocabulary Test</h2>
      <p>You will now complete the first part of the study: a short English vocabulary test.</p>
      <p>This test is called <strong>LexTALE</strong> and helps us get a general sense of your English proficiency.</p>
      <p style=""margin-top: 2em;"">Press any key to continue.</p>
    </div>
  ","Enter","html-keyboard-response","3","2.1.0","61365","F=YES, J=NO","paules9gvo","0","79","83","75","","","","","","","","","","","","","","","",""
"7381","
    <div style=""max-width: 800px; margin: auto; text-align: left;"">
      <h2>LexTALE Vocabulary Test</h2>
      <p>In this test, you will see a series of letter strings—one at a time.</p>
      <p>Your task is to decide whether each string is a real English word.</p>
      <p><strong>Key responses:</strong></p>
      <ul>
        <li><strong>F</strong> = YES (real English word)</li>
        <li><strong>J</strong> = NO (not a real English word)</li>
      </ul>
      <p>There is no time limit, but please try to be accurate.</p>
      <p style=""margin-top: 2em;"">Press any key to begin.</p>
    </div>
  "," ","html-keyboard-response","4","2.1.0","68748","F=YES, J=NO","paules9gvo","0","79","83","75","","","","","","","","","","","","","","","",""
"3067","
  <p style=""font-size: 40px;"">platery</p>
  <p style=""font-size: 16px;"">F = YES &nbsp;&nbsp;&nbsp; J = NO</p>
","f","html-keyboard-response","5","2.1.0","71817","F=YES, J=NO","paules9gvo","0","79","83","75","","","","","","lextale","false","true","","","","","","","",""
"1972","
  <p style=""font-size: 40px;"">denial</p>
  <p style=""font-size: 16px;"">F = YES &nbsp;&nbsp;&nbsp; J = NO</p>
","f","html-keyboard-response","6","2.1.0","73791","F=YES, J=NO","paules9gvo","0","79","83","75","","","","","","lextale","true","true","","","","","","","",""
"1127","
  <p style=""font-size: 40px;"">marrit</p>
  <p style=""font-size: 16px;"">F = YES &nbsp;&nbsp;&nbsp; J = NO</p>
","j","html-keyboard-response","7","2.1.0","74920","F=YES, J=NO","paules9gvo","0","79","83","75","","","","","","lextale","false","true","","","","","","","",""
"1183","
  <p style=""font-size: 40px;"">bottle</p>
  <p style=""font-size: 16px;"">F = YES &nbsp;&nbsp;&nbsp; J = NO</p>
","f","html-keyboard-response","8","2.1.0","76105","F=YES, J=NO","paules9gvo","0","79","83","75","","","","","","lextale","true","false","","","","","","","",""
"801","
  <p style=""font-size: 40px;"">birst</p>
  <p style=""font-size: 16px;"">F = YES &nbsp;&nbsp;&nbsp; J = NO</p>
","j","html-keyboard-response","9","2.1.0","76908","F=YES, J=NO","paules9gvo","0","79","83","75","","","","","","lextale","false","false","","","","","","","",""
"739","
  <p style=""font-size: 40px;"">envy</p>
  <p style=""font-size: 16px;"">F = YES &nbsp;&nbsp;&nbsp; J = NO</p>
","f","html-keyboard-response","10","2.1.0","77648","F=YES, J=NO","paules9gvo","0","79","83","75","","","","","","lextale","true","false","","","","","","","",""
"1337","
  <p style=""font-size: 40px;"">brang</p>
  <p style=""font-size: 16px;"">F = YES &nbsp;&nbsp;&nbsp; J = NO</p>
","j","html-keyboard-response","11","2.1.0","78987","F=YES, J=NO","paules9gvo","0","79","83","75","","","","","","lextale","false","false","","","","","","","",""
"708","
  <p style=""font-size: 40px;"">huge</p>
  <p style=""font-size: 16px;"">F = YES &nbsp;&nbsp;&nbsp; J = NO</p>
","f","html-keyboard-response","12","2.1.0","79697","F=YES, J=NO","paules9gvo","0","79","83","75","","","","","","lextale","true","false","","","","","","","",""
"721","
  <p style=""font-size: 40px;"">plove</p>
  <p style=""font-size: 16px;"">F = YES &nbsp;&nbsp;&nbsp; J = NO</p>
","j","html-keyboard-response","13","2.1.0","80419","F=YES, J=NO","paules9gvo","0","79","83","75","","","","","","lextale","false","false","","","","","","","",""
"697","
  <p style=""font-size: 40px;"">border</p>
  <p style=""font-size: 16px;"">F = YES &nbsp;&nbsp;&nbsp; J = NO</p>
","f","html-keyboard-response","14","2.1.0","81119","F=YES, J=NO","paules9gvo","0","79","83","75","","","","","","lextale","true","false","","","","","","","",""
"1227","
  <p style=""font-size: 40px;"">flimsy</p>
  <p style=""font-size: 16px;"">F = YES &nbsp;&nbsp;&nbsp; J = NO</p>
","f","html-keyboard-response","15","2.1.0","82347","F=YES, J=NO","paules9gvo","0","79","83","75","","","","","","lextale","true","false","","","","","","","",""
"1258","
  <p style=""font-size: 40px;"">drain</p>
  <p style=""font-size: 16px;"">F = YES &nbsp;&nbsp;&nbsp; J = NO</p>
","f","html-keyboard-response","16","2.1.0","83607","F=YES, J=NO","paules9gvo","0","79","83","75","","","","","","lextale","true","false","","","","","","","",""
"866","
  <p style=""font-size: 40px;"">twindle</p>
  <p style=""font-size: 16px;"">F = YES &nbsp;&nbsp;&nbsp; J = NO</p>
","j","html-keyboard-response","17","2.1.0","84474","F=YES, J=NO","paules9gvo","0","79","83","75","","","","","","lextale","false","false","","","","","","","",""
"763","
  <p style=""font-size: 40px;"">propose</p>
  <p style=""font-size: 16px;"">F = YES &nbsp;&nbsp;&nbsp; J = NO</p>
","f","html-keyboard-response","18","2.1.0","85239","F=YES, J=NO","paules9gvo","0","79","83","75","","","","","","lextale","true","false","","","","","","","",""
"863","
  <p style=""font-size: 40px;"">forlay</p>
  <p style=""font-size: 16px;"">F = YES &nbsp;&nbsp;&nbsp; J = NO</p>
","j","html-keyboard-response","19","2.1.0","86103","F=YES, J=NO","paules9gvo","0","79","83","75","","","","","","lextale","false","false","","","","","","","",""
"983","
  <p style=""font-size: 40px;"">tenant</p>
  <p style=""font-size: 16px;"">F = YES &nbsp;&nbsp;&nbsp; J = NO</p>
","f","html-keyboard-response","20","2.1.0","87087","F=YES, J=NO","paules9gvo","0","79","83","75","","","","","","lextale","true","false","","","","","","","",""
"902","
  <p style=""font-size: 40px;"">strain</p>
  <p style=""font-size: 16px;"">F = YES &nbsp;&nbsp;&nbsp; J = NO</p>
","f","html-keyboard-response","21","2.1.0","87991","F=YES, J=NO","paules9gvo","0","79","83","75","","","","","","lextale","true","false","","","","","","","",""
"1007","
  <p style=""font-size: 40px;"">holster</p>
  <p style=""font-size: 16px;"">F = YES &nbsp;&nbsp;&nbsp; J = NO</p>
","f","html-keyboard-response","22","2.1.0","88999","F=YES, J=NO","paules9gvo","0","79","83","75","","","","","","lextale","true","false","","","","","","","",""
"767","
  <p style=""font-size: 40px;"">hinder</p>
  <p style=""font-size: 16px;"">F = YES &nbsp;&nbsp;&nbsp; J = NO</p>
","f","html-keyboard-response","23","2.1.0","89768","F=YES, J=NO","paules9gvo","0","79","83","75","","","","","","lextale","true","false","","","","","","","",""
"978","
  <p style=""font-size: 40px;"">swindle</p>
  <p style=""font-size: 16px;"">F = YES &nbsp;&nbsp;&nbsp; J = NO</p>
","f","html-keyboard-response","24","2.1.0","90747","F=YES, J=NO","paules9gvo","0","79","83","75","","","","","","lextale","true","false","","","","","","","",""
"799","
  <p style=""font-size: 40px;"">nuder</p>
  <p style=""font-size: 16px;"">F = YES &nbsp;&nbsp;&nbsp; J = NO</p>
","j","html-keyboard-response","25","2.1.0","91547","F=YES, J=NO","paules9gvo","0","79","83","75","","","","","","lextale","false","false","","","","","","","",""
"653","
  <p style=""font-size: 40px;"">pillow</p>
  <p style=""font-size: 16px;"">F = YES &nbsp;&nbsp;&nbsp; J = NO</p>
","f","html-keyboard-response","26","2.1.0","92201","F=YES, J=NO","paules9gvo","0","79","83","75","","","","","","lextale","true","false","","","","","","","",""
"823","
  <p style=""font-size: 40px;"">shumble</p>
  <p style=""font-size: 16px;"">F = YES &nbsp;&nbsp;&nbsp; J = NO</p>
","j","html-keyboard-response","27","2.1.0","93025","F=YES, J=NO","paules9gvo","0","79","83","75","","","","","","lextale","false","false","","","","","","","",""
"1058","
  <p style=""font-size: 40px;"">thirst</p>
  <p style=""font-size: 16px;"">F = YES &nbsp;&nbsp;&nbsp; J = NO</p>
","f","html-keyboard-response","28","2.1.0","94084","F=YES, J=NO","paules9gvo","0","79","83","75","","","","","","lextale","true","false","","","","","","","",""
"1188","
  <p style=""font-size: 40px;"">unsail</p>
  <p style=""font-size: 16px;"">F = YES &nbsp;&nbsp;&nbsp; J = NO</p>
","f","html-keyboard-response","29","2.1.0","95288","F=YES, J=NO","paules9gvo","0","79","83","75","","","","","","lextale","false","false","","","","","","","",""
"877","
  <p style=""font-size: 40px;"">rifle</p>
  <p style=""font-size: 16px;"">F = YES &nbsp;&nbsp;&nbsp; J = NO</p>
","f","html-keyboard-response","30","2.1.0","96166","F=YES, J=NO","paules9gvo","0","79","83","75","","","","","","lextale","true","false","","","","","","","",""
"1373","
  <p style=""font-size: 40px;"">mush</p>
  <p style=""font-size: 16px;"">F = YES &nbsp;&nbsp;&nbsp; J = NO</p>
","f","html-keyboard-response","31","2.1.0","97540","F=YES, J=NO","paules9gvo","0","79","83","75","","","","","","lextale","false","false","","","","","","","",""
"778","
  <p style=""font-size: 40px;"">drench</p>
  <p style=""font-size: 16px;"">F = YES &nbsp;&nbsp;&nbsp; J = NO</p>
","f","html-keyboard-response","32","2.1.0","98319","F=YES, J=NO","paules9gvo","0","79","83","75","","","","","","lextale","true","false","","","","","","","",""
"1117","
  <p style=""font-size: 40px;"">snirt</p>
  <p style=""font-size: 16px;"">F = YES &nbsp;&nbsp;&nbsp; J = NO</p>
","j","html-keyboard-response","33","2.1.0","99438","F=YES, J=NO","paules9gvo","0","79","83","75","","","","","","lextale","false","false","","","","","","","",""
"768","
  <p style=""font-size: 40px;"">bitter</p>
  <p style=""font-size: 16px;"">F = YES &nbsp;&nbsp;&nbsp; J = NO</p>
","f","html-keyboard-response","34","2.1.0","100207","F=YES, J=NO","paules9gvo","0","79","83","75","","","","","","lextale","true","false","","","","","","","",""
"1002","
  <p style=""font-size: 40px;"">pliff</p>
  <p style=""font-size: 16px;"">F = YES &nbsp;&nbsp;&nbsp; J = NO</p>
","j","html-keyboard-response","35","2.1.0","101210","F=YES, J=NO","paules9gvo","0","79","83","75","","","","","","lextale","false","false","","","","","","","",""
"1093","
  <p style=""font-size: 40px;"">tablet</p>
  <p style=""font-size: 16px;"">F = YES &nbsp;&nbsp;&nbsp; J = NO</p>
","f","html-keyboard-response","36","2.1.0","102305","F=YES, J=NO","paules9gvo","0","79","83","75","","","","","","lextale","true","false","","","","","","","",""
"2526","
  <p style=""font-size: 40px;"">glimmer</p>
  <p style=""font-size: 16px;"">F = YES &nbsp;&nbsp;&nbsp; J = NO</p>
","f","html-keyboard-response","37","2.1.0","104832","F=YES, J=NO","paules9gvo","0","79","83","75","","","","","","lextale","true","false","","","","","","","",""
"1997","
  <p style=""font-size: 40px;"">slink</p>
  <p style=""font-size: 16px;"">F = YES &nbsp;&nbsp;&nbsp; J = NO</p>
","j","html-keyboard-response","38","2.1.0","106830","F=YES, J=NO","paules9gvo","0","79","83","75","","","","","","lextale","true","false","","","","","","","",""
"872","
  <p style=""font-size: 40px;"">clever</p>
  <p style=""font-size: 16px;"">F = YES &nbsp;&nbsp;&nbsp; J = NO</p>
","f","html-keyboard-response","39","2.1.0","107704","F=YES, J=NO","paules9gvo","0","79","83","75","","","","","","lextale","true","false","","","","","","","",""
"773","
  <p style=""font-size: 40px;"">grum</p>
  <p style=""font-size: 16px;"">F = YES &nbsp;&nbsp;&nbsp; J = NO</p>
","j","html-keyboard-response","40","2.1.0","108478","F=YES, J=NO","paules9gvo","0","79","83","75","","","","","","lextale","false","false","","","","","","","",""
"677","
  <p style=""font-size: 40px;"">string</p>
  <p style=""font-size: 16px;"">F = YES &nbsp;&nbsp;&nbsp; J = NO</p>
","f","html-keyboard-response","41","2.1.0","109157","F=YES, J=NO","paules9gvo","0","79","83","75","","","","","","lextale","true","false","","","","","","","",""
"693","
  <p style=""font-size: 40px;"">plim</p>
  <p style=""font-size: 16px;"">F = YES &nbsp;&nbsp;&nbsp; J = NO</p>
","j","html-keyboard-response","42","2.1.0","109851","F=YES, J=NO","paules9gvo","0","79","83","75","","","","","","lextale","false","false","","","","","","","",""
"623","
  <p style=""font-size: 40px;"">cable</p>
  <p style=""font-size: 16px;"">F = YES &nbsp;&nbsp;&nbsp; J = NO</p>
","f","html-keyboard-response","43","2.1.0","110475","F=YES, J=NO","paules9gvo","0","79","83","75","","","","","","lextale","true","false","","","","","","","",""
"993","
  <p style=""font-size: 40px;"">shrivel</p>
  <p style=""font-size: 16px;"">F = YES &nbsp;&nbsp;&nbsp; J = NO</p>
","f","html-keyboard-response","44","2.1.0","111469","F=YES, J=NO","paules9gvo","0","79","83","75","","","","","","lextale","true","false","","","","","","","",""
"1257","
  <p style=""font-size: 40px;"">tarnish</p>
  <p style=""font-size: 16px;"">F = YES &nbsp;&nbsp;&nbsp; J = NO</p>
","f","html-keyboard-response","45","2.1.0","112728","F=YES, J=NO","paules9gvo","0","79","83","75","","","","","","lextale","true","false","","","","","","","",""
"924","
  <p style=""font-size: 40px;"">blim</p>
  <p style=""font-size: 16px;"">F = YES &nbsp;&nbsp;&nbsp; J = NO</p>
","j","html-keyboard-response","46","2.1.0","113653","F=YES, J=NO","paules9gvo","0","79","83","75","","","","","","lextale","false","false","","","","","","","",""
"1356","
  <p style=""font-size: 40px;"">stifle</p>
  <p style=""font-size: 16px;"">F = YES &nbsp;&nbsp;&nbsp; J = NO</p>
","f","html-keyboard-response","47","2.1.0","115010","F=YES, J=NO","paules9gvo","0","79","83","75","","","","","","lextale","true","false","","","","","","","",""
"1032","
  <p style=""font-size: 40px;"">bint</p>
  <p style=""font-size: 16px;"">F = YES &nbsp;&nbsp;&nbsp; J = NO</p>
","j","html-keyboard-response","48","2.1.0","116044","F=YES, J=NO","paules9gvo","0","79","83","75","","","","","","lextale","false","false","","","","","","","",""
"659","
  <p style=""font-size: 40px;"">purple</p>
  <p style=""font-size: 16px;"">F = YES &nbsp;&nbsp;&nbsp; J = NO</p>
","f","html-keyboard-response","49","2.1.0","116704","F=YES, J=NO","paules9gvo","0","79","83","75","","","","","","lextale","true","false","","","","","","","",""
"673","
  <p style=""font-size: 40px;"">wriggle</p>
  <p style=""font-size: 16px;"">F = YES &nbsp;&nbsp;&nbsp; J = NO</p>
","f","html-keyboard-response","50","2.1.0","117378","F=YES, J=NO","paules9gvo","0","79","83","75","","","","","","lextale","true","false","","","","","","","",""
"1142","
  <p style=""font-size: 40px;"">mangle</p>
  <p style=""font-size: 16px;"">F = YES &nbsp;&nbsp;&nbsp; J = NO</p>
","f","html-keyboard-response","51","2.1.0","118521","F=YES, J=NO","paules9gvo","0","79","83","75","","","","","","lextale","true","false","","","","","","","",""
"748","
  <p style=""font-size: 40px;"">shramp</p>
  <p style=""font-size: 16px;"">F = YES &nbsp;&nbsp;&nbsp; J = NO</p>
","f","html-keyboard-response","52","2.1.0","119271","F=YES, J=NO","paules9gvo","0","79","83","75","","","","","","lextale","false","false","","","","","","","",""
"1373","
  <p style=""font-size: 40px;"">flirt</p>
  <p style=""font-size: 16px;"">F = YES &nbsp;&nbsp;&nbsp; J = NO</p>
","f","html-keyboard-response","53","2.1.0","120645","F=YES, J=NO","paules9gvo","0","79","83","75","","","","","","lextale","true","false","","","","","","","",""
"1256","
  <p style=""font-size: 40px;"">frip</p>
  <p style=""font-size: 16px;"">F = YES &nbsp;&nbsp;&nbsp; J = NO</p>
","j","html-keyboard-response","54","2.1.0","121903","F=YES, J=NO","paules9gvo","0","79","83","75","","","","","","lextale","false","false","","","","","","","",""
"1048","
  <p style=""font-size: 40px;"">tangle</p>
  <p style=""font-size: 16px;"">F = YES &nbsp;&nbsp;&nbsp; J = NO</p>
","f","html-keyboard-response","55","2.1.0","122952","F=YES, J=NO","paules9gvo","0","79","83","75","","","","","","lextale","true","false","","","","","","","",""
"669","
  <p style=""font-size: 40px;"">crumble</p>
  <p style=""font-size: 16px;"">F = YES &nbsp;&nbsp;&nbsp; J = NO</p>
","f","html-keyboard-response","56","2.1.0","123621","F=YES, J=NO","paules9gvo","0","79","83","75","","","","","","lextale","true","false","","","","","","","",""
"508","
  <p style=""font-size: 40px;"">wrinkle</p>
  <p style=""font-size: 16px;"">F = YES &nbsp;&nbsp;&nbsp; J = NO</p>
","f","html-keyboard-response","57","2.1.0","124130","F=YES, J=NO","paules9gvo","0","79","83","75","","","","","","lextale","true","false","","","","","","","",""
"1333","
  <p style=""font-size: 40px;"">slumb</p>
  <p style=""font-size: 16px;"">F = YES &nbsp;&nbsp;&nbsp; J = NO</p>
","j","html-keyboard-response","58","2.1.0","125464","F=YES, J=NO","paules9gvo","0","79","83","75","","","","","","lextale","false","false","","","","","","","",""
"743","
  <p style=""font-size: 40px;"">jungle</p>
  <p style=""font-size: 16px;"">F = YES &nbsp;&nbsp;&nbsp; J = NO</p>
","f","html-keyboard-response","59","2.1.0","126208","F=YES, J=NO","paules9gvo","0","79","83","75","","","","","","lextale","true","false","","","","","","","",""
"882","
  <p style=""font-size: 40px;"">frolick</p>
  <p style=""font-size: 16px;"">F = YES &nbsp;&nbsp;&nbsp; J = NO</p>
","f","html-keyboard-response","60","2.1.0","127092","F=YES, J=NO","paules9gvo","0","79","83","75","","","","","","lextale","false","false","","","","","","","",""
"1845","
      <h2>LexTALE Test Completed</h2>
      <p>Your LexTALE vocabulary score is: <strong>79%</strong></p>
      <p>Press any key to continue.</p>
    "," ","html-keyboard-response","61","2.1.0","128940","F=YES, J=NO","paules9gvo","0","79","83","75","","","","","","","","","","","","","","","",""
"69085","
    <div style=""max-width: 800px; margin: auto; text-align: left;"">
      <h2>Break Time</h2>
      <p>You have completed the first part of the study.</p>
      <p>You may take a short <strong>30-second break</strong> before continuing.</p>
      <p>When you’re ready, press any key to continue to the final task.</p>
    </div>
  ","Enter","html-keyboard-response","62","2.1.0","198026","F=YES, J=NO","paules9gvo","0","79","83","75","","","","","","","","","","","","","","","",""
"6805","
    <div style=""max-width: 800px; margin: auto; text-align: left;"">
      <h2>Part 2: Lexical Decision Task</h2>
      <p>You will now begin the second part of the study.</p>
      <p>Each trial will follow this sequence:</p>
      <ul>
        <li>A fixation cross (+) appears at the center of the screen.</li>
        <li>You will hear a short beep followed by a spoken word.</li>
        <li>A written word will appear briefly on the screen.</li>
      </ul>
      <p>Your task is to judge whether the <strong>written word</strong> is a real English word.</p>
      <p style=""margin-top: 1em;""><strong>Key responses:</strong></p>
      <ul>
        <li><strong>F</strong> = YES (real English word)</li>
        <li><strong>J</strong> = NO (not a real English word)</li>
      </ul>
      <p>Please respond as quickly and accurately as you can.</p>
      <p style=""margin-top: 2em;"">Press any key to continue.</p>
    </div>
  ","Enter","html-keyboard-response","63","2.1.0","204832","F=YES, J=NO","paules9gvo","0","79","83","75","","","","","","","","","","","","","","","",""
"22275","
    <div style=""max-width: 800px; margin: auto; text-align: left;"">
      <h2>Before You Begin</h2>
      <p>Make sure your sound is turned on.</p>
      <p>You will hear audio during each trial, but your decision should be based only on the <strong>written word</strong> you see on the screen.</p>
      <p><strong>Reminder:</strong></p>
      <ul>
        <li><strong>F</strong> = YES (real English word)</li>
        <li><strong>J</strong> = NO (not a real English word)</li>
      </ul>
      <p style=""margin-top: 2em;"">Press any key when you are ready to begin.</p>
    </div>
  "," ","html-keyboard-response","64","2.1.0","227108","F=YES, J=NO","paules9gvo","0","79","83","75","","","","","","","","","","","","","","","",""
"1157","
    <div style=""max-width: 800px; margin: auto; text-align: left;"">
      <h2>Part 2: Practice Trials</h2>
      <p>You will now complete a few <strong>practice trials</strong> to get familiar with the task.</p>
      <p>These trials are <strong>not scored</strong> and are only to help you get used to the format.</p>
      <p style=""margin-top: 2em;"">Press any key to begin.</p>
    </div>
  "," ","html-keyboard-response","65","2.1.0","228267","F=YES, J=NO","paules9gvo","0","79","83","75","","","","","","","","","","","","","","","",""
"1002","<p>Starting practice block 1 of 2. Press any key to continue.</p>"," ","html-keyboard-response","66","2.1.0","229270","F=YES, J=NO","paules9gvo","0","79","83","75","","","","","","","","","","","","","","","",""
"null","<p style=""font-size: 50px;"">+</p>","null","html-keyboard-response","67","2.1.0","229579","F=YES, J=NO","paules9gvo","0","79","83","75","","","","","","","","","","","","","","","",""
"null","audio/beep-329314.mp3","null","audio-keyboard-response","68","2.1.0","231488","F=YES, J=NO","paules9gvo","0","79","83","75","","","","","","","","","","","","","","","",""
"null","audio/breath.wav","null","audio-keyboard-response","69","2.1.0","232077","F=YES, J=NO","paules9gvo","0","79","83","75","","","","","","","","","","","","","","","",""
"null","
          <p id=""word"" style=""font-size: 40px;"">twets</p>
          <p style=""font-size: 16px;"">F = YES &nbsp;&nbsp;&nbsp; J = NO</p>
        ","null","html-keyboard-response","70","2.1.0","233584","F=YES, J=NO","paules9gvo","0","79","83","75","","","","","","","","","twets","breath","pseudoword","pseudoword","j","false","",""
"null","<p style=""font-size: 50px;"">+</p>","null","html-keyboard-response","71","2.1.0","233887","F=YES, J=NO","paules9gvo","0","79","83","75","","","","","","","","","","","","","","","",""
"null","audio/beep-329314.mp3","null","audio-keyboard-response","72","2.1.0","235706","F=YES, J=NO","paules9gvo","0","79","83","75","","","","","","","","","","","","","","","",""
"null","audio/bomb1.wav","null","audio-keyboard-response","73","2.1.0","238196","F=YES, J=NO","paules9gvo","0","79","83","75","","","","","","","","","","","","","","","",""
"730","
          <p id=""word"" style=""font-size: 40px;"">clean</p>
          <p style=""font-size: 16px;"">F = YES &nbsp;&nbsp;&nbsp; J = NO</p>
        ","f","html-keyboard-response","74","2.1.0","238928","F=YES, J=NO","paules9gvo","0","79","83","75","","","","","","","","","clean","bomb1","filler","filler","f","true","",""
"null","<p style=""font-size: 50px;"">+</p>","null","html-keyboard-response","75","2.1.0","239231","F=YES, J=NO","paules9gvo","0","79","83","75","","","","","","","","","","","","","","","",""
"null","audio/beep-329314.mp3","null","audio-keyboard-response","76","2.1.0","241047","F=YES, J=NO","paules9gvo","0","79","83","75","","","","","","","","","","","","","","","",""
"null","audio/stain.wav","null","audio-keyboard-response","77","2.1.0","241976","F=YES, J=NO","paules9gvo","0","79","83","75","","","","","","","","","","","","","","","",""
"730","
          <p id=""word"" style=""font-size: 40px;"">rumpsied</p>
          <p style=""font-size: 16px;"">F = YES &nbsp;&nbsp;&nbsp; J = NO</p>
        ","j","html-keyboard-response","78","2.1.0","242709","F=YES, J=NO","paules9gvo","0","79","83","75","","","","","","","","","rumpsied","stain","pseudoword","pseudoword","j","true","",""
"null","<p style=""font-size: 50px;"">+</p>","null","html-keyboard-response","79","2.1.0","243026","F=YES, J=NO","paules9gvo","0","79","83","75","","","","","","","","","","","","","","","",""
"null","audio/beep-329314.mp3","null","audio-keyboard-response","80","2.1.0","244846","F=YES, J=NO","paules9gvo","0","79","83","75","","","","","","","","","","","","","","","",""
"null","audio/bottle.wav","null","audio-keyboard-response","81","2.1.0","245556","F=YES, J=NO","paules9gvo","0","79","83","75","","","","","","","","","","","","","","","",""
"580","
          <p id=""word"" style=""font-size: 40px;"">watch</p>
          <p style=""font-size: 16px;"">F = YES &nbsp;&nbsp;&nbsp; J = NO</p>
        ","f","html-keyboard-response","82","2.1.0","246139","F=YES, J=NO","paules9gvo","0","79","83","75","","","","","","","","","watch","bottle","filler","filler","f","true","",""
"null","<p style=""font-size: 50px;"">+</p>","null","html-keyboard-response","83","2.1.0","246442","F=YES, J=NO","paules9gvo","0","79","83","75","","","","","","","","","","","","","","","",""
"null","audio/beep-329314.mp3","null","audio-keyboard-response","84","2.1.0","248247","F=YES, J=NO","paules9gvo","0","79","83","75","","","","","","","","","","","","","","","",""
"null","audio/bridge.wav","null","audio-keyboard-response","85","2.1.0","248816","F=YES, J=NO","paules9gvo","0","79","83","75","","","","","","","","","","","","","","","",""
"537","
          <p id=""word"" style=""font-size: 40px;"">crack</p>
          <p style=""font-size: 16px;"">F = YES &nbsp;&nbsp;&nbsp; J = NO</p>
        ","f","html-keyboard-response","86","2.1.0","249355","F=YES, J=NO","paules9gvo","0","79","83","75","","","","","","","","","crack","bridge","filler","filler","f","true","",""
"null","<p style=""font-size: 50px;"">+</p>","null","html-keyboard-response","87","2.1.0","249664","F=YES, J=NO","paules9gvo","0","79","83","75","","","","","","","","","","","","","","","",""
"null","audio/beep-329314.mp3","null","audio-keyboard-response","88","2.1.0","251486","F=YES, J=NO","paules9gvo","0","79","83","75","","","","","","","","","","","","","","","",""
"null","audio/beach1.wav","null","audio-keyboard-response","89","2.1.0","252316","F=YES, J=NO","paules9gvo","0","79","83","75","","","","","","","","","","","","","","","",""
"482","
          <p id=""word"" style=""font-size: 40px;"">drive</p>
          <p style=""font-size: 16px;"">F = YES &nbsp;&nbsp;&nbsp; J = NO</p>
        ","f","html-keyboard-response","90","2.1.0","252800","F=YES, J=NO","paules9gvo","0","79","83","75","","","","","","","","","drive","beach1","filler","filler","f","true","",""
"null","<p style=""font-size: 50px;"">+</p>","null","html-keyboard-response","91","2.1.0","253102","F=YES, J=NO","paules9gvo","0","79","83","75","","","","","","","","","","","","","","","",""
"null","audio/beep-329314.mp3","null","audio-keyboard-response","92","2.1.0","254907","F=YES, J=NO","paules9gvo","0","79","83","75","","","","","","","","","","","","","","","",""
"null","audio/age1.wav","null","audio-keyboard-response","93","2.1.0","255657","F=YES, J=NO","paules9gvo","0","79","83","75","","","","","","","","","","","","","","","",""
"537","
          <p id=""word"" style=""font-size: 40px;"">bake</p>
          <p style=""font-size: 16px;"">F = YES &nbsp;&nbsp;&nbsp; J = NO</p>
        ","f","html-keyboard-response","94","2.1.0","256196","F=YES, J=NO","paules9gvo","0","79","83","75","","","","","","","","","bake","age1","filler","filler","f","true","",""
"null","<p style=""font-size: 50px;"">+</p>","null","html-keyboard-response","95","2.1.0","256505","F=YES, J=NO","paules9gvo","0","79","83","75","","","","","","","","","","","","","","","",""
"null","audio/beep-329314.mp3","null","audio-keyboard-response","96","2.1.0","258326","F=YES, J=NO","paules9gvo","0","79","83","75","","","","","","","","","","","","","","","",""
"null","audio/alarm1.wav","null","audio-keyboard-response","97","2.1.0","258937","F=YES, J=NO","paules9gvo","0","79","83","75","","","","","","","","","","","","","","","",""
"648","
          <p id=""word"" style=""font-size: 40px;"">lock</p>
          <p style=""font-size: 16px;"">F = YES &nbsp;&nbsp;&nbsp; J = NO</p>
        ","f","html-keyboard-response","98","2.1.0","259587","F=YES, J=NO","paules9gvo","0","79","83","75","","","","","","","","","lock","alarm1","filler","filler","f","true","",""
"null","<p style=""font-size: 50px;"">+</p>","null","html-keyboard-response","99","2.1.0","259899","F=YES, J=NO","paules9gvo","0","79","83","75","","","","","","","","","","","","","","","",""
"null","audio/beep-329314.mp3","null","audio-keyboard-response","100","2.1.0","261707","F=YES, J=NO","paules9gvo","0","79","83","75","","","","","","","","","","","","","","","",""
"null","audio/menu.wav","null","audio-keyboard-response","101","2.1.0","262516","F=YES, J=NO","paules9gvo","0","79","83","75","","","","","","","","","","","","","","","",""
"573","
          <p id=""word"" style=""font-size: 40px;"">slice</p>
          <p style=""font-size: 16px;"">F = YES &nbsp;&nbsp;&nbsp; J = NO</p>
        ","f","html-keyboard-response","102","2.1.0","263091","F=YES, J=NO","paules9gvo","0","79","83","75","","","","","","","","","slice","menu","filler","filler","f","true","",""
"null","<p style=""font-size: 50px;"">+</p>","null","html-keyboard-response","103","2.1.0","263403","F=YES, J=NO","paules9gvo","0","79","83","75","","","","","","","","","","","","","","","",""
"null","audio/beep-329314.mp3","null","audio-keyboard-response","104","2.1.0","265207","F=YES, J=NO","paules9gvo","0","79","83","75","","","","","","","","","","","","","","","",""
"null","audio/alarm1.wav","null","audio-keyboard-response","105","2.1.0","265777","F=YES, J=NO","paules9gvo","0","79","83","75","","","","","","","","","","","","","","","",""
"844","
          <p id=""word"" style=""font-size: 40px;"">swetp</p>
          <p style=""font-size: 16px;"">F = YES &nbsp;&nbsp;&nbsp; J = NO</p>
        ","f","html-keyboard-response","106","2.1.0","266622","F=YES, J=NO","paules9gvo","0","79","83","75","","","","","","","","","swetp","alarm1","pseudoword","pseudoword","j","false","",""
"null","<p style=""font-size: 50px;"">+</p>","null","html-keyboard-response","107","2.1.0","266931","F=YES, J=NO","paules9gvo","0","79","83","75","","","","","","","","","","","","","","","",""
"null","audio/beep-329314.mp3","null","audio-keyboard-response","108","2.1.0","268747","F=YES, J=NO","paules9gvo","0","79","83","75","","","","","","","","","","","","","","","",""
"null","audio/effort.wav","null","audio-keyboard-response","109","2.1.0","269517","F=YES, J=NO","paules9gvo","0","79","83","75","","","","","","","","","","","","","","","",""
"743","
          <p id=""word"" style=""font-size: 40px;"">whonk</p>
          <p style=""font-size: 16px;"">F = YES &nbsp;&nbsp;&nbsp; J = NO</p>
        ","j","html-keyboard-response","110","2.1.0","270262","F=YES, J=NO","paules9gvo","0","79","83","75","","","","","","","","","whonk","effort","pseudoword","pseudoword","j","true","",""
"null","<p style=""font-size: 50px;"">+</p>","null","html-keyboard-response","111","2.1.0","270578","F=YES, J=NO","paules9gvo","0","79","83","75","","","","","","","","","","","","","","","",""
"null","audio/beep-329314.mp3","null","audio-keyboard-response","112","2.1.0","272386","F=YES, J=NO","paules9gvo","0","79","83","75","","","","","","","","","","","","","","","",""
"null","audio/kettle1.wav","null","audio-keyboard-response","113","2.1.0","272876","F=YES, J=NO","paules9gvo","0","79","83","75","","","","","","","","","","","","","","","",""
"675","
          <p id=""word"" style=""font-size: 40px;"">wrap</p>
          <p style=""font-size: 16px;"">F = YES &nbsp;&nbsp;&nbsp; J = NO</p>
        ","f","html-keyboard-response","114","2.1.0","273553","F=YES, J=NO","paules9gvo","0","79","83","75","","","","","","","","","wrap","kettle1","filler","filler","f","true","",""
"2424","<p>Starting practice block 2 of 2. Press any key to continue.</p>"," ","html-keyboard-response","115","2.1.0","275978","F=YES, J=NO","paules9gvo","0","79","83","75","","","","","","","","","","","","","","","",""
"null","<p style=""font-size: 50px;"">+</p>","null","html-keyboard-response","116","2.1.0","276293","F=YES, J=NO","paules9gvo","0","79","83","75","","","","","","","","","","","","","","","",""
"null","audio/beep-329314.mp3","null","audio-keyboard-response","117","2.1.0","278106","F=YES, J=NO","paules9gvo","0","79","83","75","","","","","","","","","","","","","","","",""
"null","audio/show.wav","null","audio-keyboard-response","118","2.1.0","278656","F=YES, J=NO","paules9gvo","0","79","83","75","","","","","","","","","","","","","","","",""
"1136","
          <p id=""word"" style=""font-size: 40px;"">smark</p>
          <p style=""font-size: 16px;"">F = YES &nbsp;&nbsp;&nbsp; J = NO</p>
        ","j","html-keyboard-response","119","2.1.0","279793","F=YES, J=NO","paules9gvo","0","79","83","75","","","","","","","","","smark","show","pseudoword","pseudoword","j","true","",""
"null","<p style=""font-size: 50px;"">+</p>","null","html-keyboard-response","120","2.1.0","280100","F=YES, J=NO","paules9gvo","0","79","83","75","","","","","","","","","","","","","","","",""
"null","audio/beep-329314.mp3","null","audio-keyboard-response","121","2.1.0","281906","F=YES, J=NO","paules9gvo","0","79","83","75","","","","","","","","","","","","","","","",""
"null","audio/brain.wav","null","audio-keyboard-response","122","2.1.0","282476","F=YES, J=NO","paules9gvo","0","79","83","75","","","","","","","","","","","","","","","",""
"516","
          <p id=""word"" style=""font-size: 40px;"">throw</p>
          <p style=""font-size: 16px;"">F = YES &nbsp;&nbsp;&nbsp; J = NO</p>
        ","f","html-keyboard-response","123","2.1.0","282994","F=YES, J=NO","paules9gvo","0","79","83","75","","","","","","","","","throw","brain","filler","filler","f","true","",""
"null","<p style=""font-size: 50px;"">+</p>","null","html-keyboard-response","124","2.1.0","283301","F=YES, J=NO","paules9gvo","0","79","83","75","","","","","","","","","","","","","","","",""
"null","audio/beep-329314.mp3","null","audio-keyboard-response","125","2.1.0","285106","F=YES, J=NO","paules9gvo","0","79","83","75","","","","","","","","","","","","","","","",""
"null","audio/bishop1.wav","null","audio-keyboard-response","126","2.1.0","285716","F=YES, J=NO","paules9gvo","0","79","83","75","","","","","","","","","","","","","","","",""
"482","
          <p id=""word"" style=""font-size: 40px;"">play</p>
          <p style=""font-size: 16px;"">F = YES &nbsp;&nbsp;&nbsp; J = NO</p>
        ","f","html-keyboard-response","127","2.1.0","286200","F=YES, J=NO","paules9gvo","0","79","83","75","","","","","","","","","play","bishop1","filler","filler","f","true","",""
"null","<p style=""font-size: 50px;"">+</p>","null","html-keyboard-response","128","2.1.0","286508","F=YES, J=NO","paules9gvo","0","79","83","75","","","","","","","","","","","","","","","",""
"null","audio/beep-329314.mp3","null","audio-keyboard-response","129","2.1.0","288327","F=YES, J=NO","paules9gvo","0","79","83","75","","","","","","","","","","","","","","","",""
"null","audio/gift1.wav","null","audio-keyboard-response","130","2.1.0","288856","F=YES, J=NO","paules9gvo","0","79","83","75","","","","","","","","","","","","","","","",""
"663","
          <p id=""word"" style=""font-size: 40px;"">protsh</p>
          <p style=""font-size: 16px;"">F = YES &nbsp;&nbsp;&nbsp; J = NO</p>
        ","j","html-keyboard-response","131","2.1.0","289521","F=YES, J=NO","paules9gvo","0","79","83","75","","","","","","","","","protsh","gift1","pseudoword","pseudoword","j","true","",""
"null","<p style=""font-size: 50px;"">+</p>","null","html-keyboard-response","132","2.1.0","289823","F=YES, J=NO","paules9gvo","0","79","83","75","","","","","","","","","","","","","","","",""
"null","audio/beep-329314.mp3","null","audio-keyboard-response","133","2.1.0","291627","F=YES, J=NO","paules9gvo","0","79","83","75","","","","","","","","","","","","","","","",""
"null","audio/window1.wav","null","audio-keyboard-response","134","2.1.0","292317","F=YES, J=NO","paules9gvo","0","79","83","75","","","","","","","","","","","","","","","",""
"739","
          <p id=""word"" style=""font-size: 40px;"">toss</p>
          <p style=""font-size: 16px;"">F = YES &nbsp;&nbsp;&nbsp; J = NO</p>
        ","f","html-keyboard-response","135","2.1.0","293057","F=YES, J=NO","paules9gvo","0","79","83","75","","","","","","","","","toss","window1","filler","filler","f","true","",""
"null","<p style=""font-size: 50px;"">+</p>","null","html-keyboard-response","136","2.1.0","293370","F=YES, J=NO","paules9gvo","0","79","83","75","","","","","","","","","","","","","","","",""
"null","audio/beep-329314.mp3","null","audio-keyboard-response","137","2.1.0","295188","F=YES, J=NO","paules9gvo","0","79","83","75","","","","","","","","","","","","","","","",""
"null","audio/age1.wav","null","audio-keyboard-response","138","2.1.0","295716","F=YES, J=NO","paules9gvo","0","79","83","75","","","","","","","","","","","","","","","",""
"634","
          <p id=""word"" style=""font-size: 40px;"">lachry</p>
          <p style=""font-size: 16px;"">F = YES &nbsp;&nbsp;&nbsp; J = NO</p>
        ","j","html-keyboard-response","139","2.1.0","296352","F=YES, J=NO","paules9gvo","0","79","83","75","","","","","","","","","lachry","age1","pseudoword","pseudoword","j","true","",""
"null","<p style=""font-size: 50px;"">+</p>","null","html-keyboard-response","140","2.1.0","296665","F=YES, J=NO","paules9gvo","0","79","83","75","","","","","","","","","","","","","","","",""
"null","audio/beep-329314.mp3","null","audio-keyboard-response","141","2.1.0","298487","F=YES, J=NO","paules9gvo","0","79","83","75","","","","","","","","","","","","","","","",""
"null","audio/pattern.wav","null","audio-keyboard-response","142","2.1.0","299236","F=YES, J=NO","paules9gvo","0","79","83","75","","","","","","","","","","","","","","","",""
"799","
          <p id=""word"" style=""font-size: 40px;"">tug</p>
          <p style=""font-size: 16px;"">F = YES &nbsp;&nbsp;&nbsp; J = NO</p>
        ","j","html-keyboard-response","143","2.1.0","300037","F=YES, J=NO","paules9gvo","0","79","83","75","","","","","","","","","tug","pattern","filler","filler","f","false","",""
"null","<p style=""font-size: 50px;"">+</p>","null","html-keyboard-response","144","2.1.0","300341","F=YES, J=NO","paules9gvo","0","79","83","75","","","","","","","","","","","","","","","",""
"null","audio/beep-329314.mp3","null","audio-keyboard-response","145","2.1.0","302147","F=YES, J=NO","paules9gvo","0","79","83","75","","","","","","","","","","","","","","","",""
"null","audio/road.wav","null","audio-keyboard-response","146","2.1.0","302596","F=YES, J=NO","paules9gvo","0","79","83","75","","","","","","","","","","","","","","","",""
"775","
          <p id=""word"" style=""font-size: 40px;"">wappings</p>
          <p style=""font-size: 16px;"">F = YES &nbsp;&nbsp;&nbsp; J = NO</p>
        ","f","html-keyboard-response","147","2.1.0","303373","F=YES, J=NO","paules9gvo","0","79","83","75","","","","","","","","","wappings","road","pseudoword","pseudoword","j","false","",""
"null","<p style=""font-size: 50px;"">+</p>","null","html-keyboard-response","148","2.1.0","303677","F=YES, J=NO","paules9gvo","0","79","83","75","","","","","","","","","","","","","","","",""
"null","audio/beep-329314.mp3","null","audio-keyboard-response","149","2.1.0","305487","F=YES, J=NO","paules9gvo","0","79","83","75","","","","","","","","","","","","","","","",""
"null","audio/bush1.wav","null","audio-keyboard-response","150","2.1.0","305977","F=YES, J=NO","paules9gvo","0","79","83","75","","","","","","","","","","","","","","","",""
"780","
          <p id=""word"" style=""font-size: 40px;"">platined</p>
          <p style=""font-size: 16px;"">F = YES &nbsp;&nbsp;&nbsp; J = NO</p>
        ","j","html-keyboard-response","151","2.1.0","306758","F=YES, J=NO","paules9gvo","0","79","83","75","","","","","","","","","platined","bush1","pseudoword","pseudoword","j","true","",""
"null","<p style=""font-size: 50px;"">+</p>","null","html-keyboard-response","152","2.1.0","307060","F=YES, J=NO","paules9gvo","0","79","83","75","","","","","","","","","","","","","","","",""
"null","audio/beep-329314.mp3","null","audio-keyboard-response","153","2.1.0","308867","F=YES, J=NO","paules9gvo","0","79","83","75","","","","","","","","","","","","","","","",""
"null","audio/handle.wav","null","audio-keyboard-response","154","2.1.0","309656","F=YES, J=NO","paules9gvo","0","79","83","75","","","","","","","","","","","","","","","",""
"601","
          <p id=""word"" style=""font-size: 40px;"">moutes</p>
          <p style=""font-size: 16px;"">F = YES &nbsp;&nbsp;&nbsp; J = NO</p>
        ","j","html-keyboard-response","155","2.1.0","310258","F=YES, J=NO","paules9gvo","0","79","83","75","","","","","","","","","moutes","handle","pseudoword","pseudoword","j","true","",""
"null","<p style=""font-size: 50px;"">+</p>","null","html-keyboard-response","156","2.1.0","310571","F=YES, J=NO","paules9gvo","0","79","83","75","","","","","","","","","","","","","","","",""
"null","audio/beep-329314.mp3","null","audio-keyboard-response","157","2.1.0","312388","F=YES, J=NO","paules9gvo","0","79","83","75","","","","","","","","","","","","","","","",""
"null","audio/tax1.wav","null","audio-keyboard-response","158","2.1.0","313277","F=YES, J=NO","paules9gvo","0","79","83","75","","","","","","","","","","","","","","","",""
"640","
          <p id=""word"" style=""font-size: 40px;"">snate</p>
          <p style=""font-size: 16px;"">F = YES &nbsp;&nbsp;&nbsp; J = NO</p>
        ","j","html-keyboard-response","159","2.1.0","313919","F=YES, J=NO","paules9gvo","0","79","83","75","","","","","","","","","snate","tax1","pseudoword","pseudoword","j","true","",""
"null","<p style=""font-size: 50px;"">+</p>","null","html-keyboard-response","160","2.1.0","314235","F=YES, J=NO","paules9gvo","0","79","83","75","","","","","","","","","","","","","","","",""
"null","audio/beep-329314.mp3","null","audio-keyboard-response","161","2.1.0","316047","F=YES, J=NO","paules9gvo","0","79","83","75","","","","","","","","","","","","","","","",""
"null","audio/survey1.wav","null","audio-keyboard-response","162","2.1.0","316877","F=YES, J=NO","paules9gvo","0","79","83","75","","","","","","","","","","","","","","","",""
"876","
          <p id=""word"" style=""font-size: 40px;"">imploth</p>
          <p style=""font-size: 16px;"">F = YES &nbsp;&nbsp;&nbsp; J = NO</p>
        ","f","html-keyboard-response","163","2.1.0","317754","F=YES, J=NO","paules9gvo","0","79","83","75","","","","","","","","","imploth","survey1","pseudoword","pseudoword","j","false","",""
"400686","
    <div style=""max-width: 800px; margin: auto; text-align: left;"">
      <h2>Part 2: Main Trials</h2>
      <p>Great job on the practice trials!</p>
      <p>You will now begin the <strong>main set of trials</strong>.</p>
      <p>Remember your key assignments:</p>
      <ul>
        <li><strong>F</strong> = YES (real English word)</li>
        <li><strong>J</strong> = NO (not a real English word)</li>
      </ul>
      <p>Try to respond as <strong>quickly and accurately</strong> as possible.</p>
      <p style=""margin-top: 2em;"">Press any key to begin the main trials.</p>
    </div>
  ","j","html-keyboard-response","164","2.1.0","718442","F=YES, J=NO","paules9gvo","0","79","83","75","","","","","","","","","","","","","","","",""
"1664","<p>Starting main block 1 of 8. Press any key to continue.</p>","j","html-keyboard-response","165","2.1.0","720107","F=YES, J=NO","paules9gvo","0","79","83","75","","","","","","","","","","","","","","","",""
"null","<p style=""font-size: 50px;"">+</p>","null","html-keyboard-response","166","2.1.0","720416","F=YES, J=NO","paules9gvo","0","79","83","75","","","","","","","","","","","","","","","",""
"null","audio/beep-329314.mp3","null","audio-keyboard-response","167","2.1.0","722382","F=YES, J=NO","paules9gvo","0","79","83","75","","","","","","","","","","","","","","","",""
"null","audio/empire.wav","null","audio-keyboard-response","168","2.1.0","723072","F=YES, J=NO","paules9gvo","0","79","83","75","","","","","","","","","","","","","","","",""
"588","
          <p id=""word"" style=""font-size: 40px;"">bring</p>
          <p style=""font-size: 16px;"">F = YES &nbsp;&nbsp;&nbsp; J = NO</p>
        ","f","html-keyboard-response","169","2.1.0","723662","F=YES, J=NO","paules9gvo","0","79","83","75","","","","","","","","","bring","empire","unrelated","experimental","f","true","",""
"null","<p style=""font-size: 50px;"">+</p>","null","html-keyboard-response","170","2.1.0","723965","F=YES, J=NO","paules9gvo","0","79","83","75","","","","","","","","","","","","","","","",""
"null","audio/beep-329314.mp3","null","audio-keyboard-response","171","2.1.0","725782","F=YES, J=NO","paules9gvo","0","79","83","75","","","","","","","","","","","","","","","",""
"null","audio/pride1.wav","null","audio-keyboard-response","172","2.1.0","726711","F=YES, J=NO","paules9gvo","0","79","83","75","","","","","","","","","","","","","","","",""
"544","
          <p id=""word"" style=""font-size: 40px;"">hurt</p>
          <p style=""font-size: 16px;"">F = YES &nbsp;&nbsp;&nbsp; J = NO</p>
        ","f","html-keyboard-response","173","2.1.0","727257","F=YES, J=NO","paules9gvo","0","79","83","75","","","","","","","","","hurt","pride1","metaphor","experimental","f","true","",""
"null","<p style=""font-size: 50px;"">+</p>","null","html-keyboard-response","174","2.1.0","727564","F=YES, J=NO","paules9gvo","0","79","83","75","","","","","","","","","","","","","","","",""
"null","audio/beep-329314.mp3","null","audio-keyboard-response","175","2.1.0","729382","F=YES, J=NO","paules9gvo","0","79","83","75","","","","","","","","","","","","","","","",""
"null","audio/truth1.wav","null","audio-keyboard-response","176","2.1.0","730332","F=YES, J=NO","paules9gvo","0","79","83","75","","","","","","","","","","","","","","","",""
"772","
          <p id=""word"" style=""font-size: 40px;"">calitom</p>
          <p style=""font-size: 16px;"">F = YES &nbsp;&nbsp;&nbsp; J = NO</p>
        ","j","html-keyboard-response","177","2.1.0","731106","F=YES, J=NO","paules9gvo","0","79","83","75","","","","","","","","","calitom","truth1","pseudoword","pseudoword","j","true","",""
"null","<p style=""font-size: 50px;"">+</p>","null","html-keyboard-response","178","2.1.0","731422","F=YES, J=NO","paules9gvo","0","79","83","75","","","","","","","","","","","","","","","",""
"null","audio/beep-329314.mp3","null","audio-keyboard-response","179","2.1.0","733242","F=YES, J=NO","paules9gvo","0","79","83","75","","","","","","","","","","","","","","","",""
"null","audio/mouth1.wav","null","audio-keyboard-response","180","2.1.0","734212","F=YES, J=NO","paules9gvo","0","79","83","75","","","","","","","","","","","","","","","",""
"662","
          <p id=""word"" style=""font-size: 40px;"">spolial</p>
          <p style=""font-size: 16px;"">F = YES &nbsp;&nbsp;&nbsp; J = NO</p>
        ","j","html-keyboard-response","181","2.1.0","734876","F=YES, J=NO","paules9gvo","0","79","83","75","","","","","","","","","spolial","mouth1","pseudoword","pseudoword","j","true","",""
"null","<p style=""font-size: 50px;"">+</p>","null","html-keyboard-response","182","2.1.0","735182","F=YES, J=NO","paules9gvo","0","79","83","75","","","","","","","","","","","","","","","",""
"null","audio/beep-329314.mp3","null","audio-keyboard-response","183","2.1.0","737001","F=YES, J=NO","paules9gvo","0","79","83","75","","","","","","","","","","","","","","","",""
"null","audio/haste1.wav","null","audio-keyboard-response","184","2.1.0","737971","F=YES, J=NO","paules9gvo","0","79","83","75","","","","","","","","","","","","","","","",""
"629","
          <p id=""word"" style=""font-size: 40px;"">hide</p>
          <p style=""font-size: 16px;"">F = YES &nbsp;&nbsp;&nbsp; J = NO</p>
        ","f","html-keyboard-response","185","2.1.0","738601","F=YES, J=NO","paules9gvo","0","79","83","75","","","","","","","","","hide","haste1","unrelated","experimental","f","true","",""
"null","<p style=""font-size: 50px;"">+</p>","null","html-keyboard-response","186","2.1.0","738915","F=YES, J=NO","paules9gvo","0","79","83","75","","","","","","","","","","","","","","","",""
"null","audio/beep-329314.mp3","null","audio-keyboard-response","187","2.1.0","740721","F=YES, J=NO","paules9gvo","0","79","83","75","","","","","","","","","","","","","","","",""
"null","audio/golf1.wav","null","audio-keyboard-response","188","2.1.0","741692","F=YES, J=NO","paules9gvo","0","79","83","75","","","","","","","","","","","","","","","",""
"836","
          <p id=""word"" style=""font-size: 40px;"">drabble</p>
          <p style=""font-size: 16px;"">F = YES &nbsp;&nbsp;&nbsp; J = NO</p>
        ","f","html-keyboard-response","189","2.1.0","742530","F=YES, J=NO","paules9gvo","0","79","83","75","","","","","","","","","drabble","golf1","pseudoword","pseudoword","j","false","",""
"null","<p style=""font-size: 50px;"">+</p>","null","html-keyboard-response","190","2.1.0","742844","F=YES, J=NO","paules9gvo","0","79","83","75","","","","","","","","","","","","","","","",""
"null","audio/beep-329314.mp3","null","audio-keyboard-response","191","2.1.0","744662","F=YES, J=NO","paules9gvo","0","79","83","75","","","","","","","","","","","","","","","",""
"null","audio/birth1.wav","null","audio-keyboard-response","192","2.1.0","745532","F=YES, J=NO","paules9gvo","0","79","83","75","","","","","","","","","","","","","","","",""
"806","
          <p id=""word"" style=""font-size: 40px;"">peel</p>
          <p style=""font-size: 16px;"">F = YES &nbsp;&nbsp;&nbsp; J = NO</p>
        ","f","html-keyboard-response","193","2.1.0","746339","F=YES, J=NO","paules9gvo","0","79","83","75","","","","","","","","","peel","birth1","filler","filler","f","true","",""
"null","<p style=""font-size: 50px;"">+</p>","null","html-keyboard-response","194","2.1.0","746656","F=YES, J=NO","paules9gvo","0","79","83","75","","","","","","","","","","","","","","","",""
"null","audio/beep-329314.mp3","null","audio-keyboard-response","195","2.1.0","748462","F=YES, J=NO","paules9gvo","0","79","83","75","","","","","","","","","","","","","","","",""
"null","audio/fence.wav","null","audio-keyboard-response","196","2.1.0","749412","F=YES, J=NO","paules9gvo","0","79","83","75","","","","","","","","","","","","","","","",""
"514","
          <p id=""word"" style=""font-size: 40px;"">climb</p>
          <p style=""font-size: 16px;"">F = YES &nbsp;&nbsp;&nbsp; J = NO</p>
        ","f","html-keyboard-response","197","2.1.0","749928","F=YES, J=NO","paules9gvo","0","79","83","75","","","","","","","","","climb","fence","literal","experimental","f","true","",""
"null","<p style=""font-size: 50px;"">+</p>","null","html-keyboard-response","198","2.1.0","750238","F=YES, J=NO","paules9gvo","0","79","83","75","","","","","","","","","","","","","","","",""
"null","audio/beep-329314.mp3","null","audio-keyboard-response","199","2.1.0","752042","F=YES, J=NO","paules9gvo","0","79","83","75","","","","","","","","","","","","","","","",""
"null","audio/neck.wav","null","audio-keyboard-response","200","2.1.0","753032","F=YES, J=NO","paules9gvo","0","79","83","75","","","","","","","","","","","","","","","",""
"804","
          <p id=""word"" style=""font-size: 40px;"">werling</p>
          <p style=""font-size: 16px;"">F = YES &nbsp;&nbsp;&nbsp; J = NO</p>
        ","j","html-keyboard-response","201","2.1.0","753838","F=YES, J=NO","paules9gvo","0","79","83","75","","","","","","","","","werling","neck","pseudoword","pseudoword","j","true","",""
"null","<p style=""font-size: 50px;"">+</p>","null","html-keyboard-response","202","2.1.0","754154","F=YES, J=NO","paules9gvo","0","79","83","75","","","","","","","","","","","","","","","",""
"null","audio/beep-329314.mp3","null","audio-keyboard-response","203","2.1.0","755963","F=YES, J=NO","paules9gvo","0","79","83","75","","","","","","","","","","","","","","","",""
"null","audio/flaw.wav","null","audio-keyboard-response","204","2.1.0","756672","F=YES, J=NO","paules9gvo","0","79","83","75","","","","","","","","","","","","","","","",""
"719","
          <p id=""word"" style=""font-size: 40px;"">thwool</p>
          <p style=""font-size: 16px;"">F = YES &nbsp;&nbsp;&nbsp; J = NO</p>
        ","j","html-keyboard-response","205","2.1.0","757392","F=YES, J=NO","paules9gvo","0","79","83","75","","","","","","","","","thwool","flaw","pseudoword","pseudoword","j","true","",""
"null","<p style=""font-size: 50px;"">+</p>","null","html-keyboard-response","206","2.1.0","757706","F=YES, J=NO","paules9gvo","0","79","83","75","","","","","","","","","","","","","","","",""
"null","audio/beep-329314.mp3","null","audio-keyboard-response","207","2.1.0","759522","F=YES, J=NO","paules9gvo","0","79","83","75","","","","","","","","","","","","","","","",""
"null","audio/pine.wav","null","audio-keyboard-response","208","2.1.0","760312","F=YES, J=NO","paules9gvo","0","79","83","75","","","","","","","","","","","","","","","",""
"884","
          <p id=""word"" style=""font-size: 40px;"">crebble</p>
          <p style=""font-size: 16px;"">F = YES &nbsp;&nbsp;&nbsp; J = NO</p>
        ","j","html-keyboard-response","209","2.1.0","761197","F=YES, J=NO","paules9gvo","0","79","83","75","","","","","","","","","crebble","pine","pseudoword","pseudoword","j","true","",""
"null","<p style=""font-size: 50px;"">+</p>","null","html-keyboard-response","210","2.1.0","761510","F=YES, J=NO","paules9gvo","0","79","83","75","","","","","","","","","","","","","","","",""
"null","audio/beep-329314.mp3","null","audio-keyboard-response","211","2.1.0","763322","F=YES, J=NO","paules9gvo","0","79","83","75","","","","","","","","","","","","","","","",""
"null","audio/fence.wav","null","audio-keyboard-response","212","2.1.0","763952","F=YES, J=NO","paules9gvo","0","79","83","75","","","","","","","","","","","","","","","",""
"795","
          <p id=""word"" style=""font-size: 40px;"">trim</p>
          <p style=""font-size: 16px;"">F = YES &nbsp;&nbsp;&nbsp; J = NO</p>
        ","f","html-keyboard-response","213","2.1.0","764748","F=YES, J=NO","paules9gvo","0","79","83","75","","","","","","","","","trim","fence","filler","filler","f","true","",""
"null","<p style=""font-size: 50px;"">+</p>","null","html-keyboard-response","214","2.1.0","765064","F=YES, J=NO","paules9gvo","0","79","83","75","","","","","","","","","","","","","","","",""
"null","audio/beep-329314.mp3","null","audio-keyboard-response","215","2.1.0","766881","F=YES, J=NO","paules9gvo","0","79","83","75","","","","","","","","","","","","","","","",""
"null","audio/dollar.wav","null","audio-keyboard-response","216","2.1.0","767291","F=YES, J=NO","paules9gvo","0","79","83","75","","","","","","","","","","","","","","","",""
"789","
          <p id=""word"" style=""font-size: 40px;"">gliptism</p>
          <p style=""font-size: 16px;"">F = YES &nbsp;&nbsp;&nbsp; J = NO</p>
        ","j","html-keyboard-response","217","2.1.0","768082","F=YES, J=NO","paules9gvo","0","79","83","75","","","","","","","","","gliptism","dollar","pseudoword","pseudoword","j","true","",""
"null","<p style=""font-size: 50px;"">+</p>","null","html-keyboard-response","218","2.1.0","768385","F=YES, J=NO","paules9gvo","0","79","83","75","","","","","","","","","","","","","","","",""
"null","audio/beep-329314.mp3","null","audio-keyboard-response","219","2.1.0","770202","F=YES, J=NO","paules9gvo","0","79","83","75","","","","","","","","","","","","","","","",""
"null","audio/relief.wav","null","audio-keyboard-response","220","2.1.0","771213","F=YES, J=NO","paules9gvo","0","79","83","75","","","","","","","","","","","","","","","",""
"695","
          <p id=""word"" style=""font-size: 40px;"">grigg</p>
          <p style=""font-size: 16px;"">F = YES &nbsp;&nbsp;&nbsp; J = NO</p>
        ","j","html-keyboard-response","221","2.1.0","771911","F=YES, J=NO","paules9gvo","0","79","83","75","","","","","","","","","grigg","relief","pseudoword","pseudoword","j","true","",""
"null","<p style=""font-size: 50px;"">+</p>","null","html-keyboard-response","222","2.1.0","772225","F=YES, J=NO","paules9gvo","0","79","83","75","","","","","","","","","","","","","","","",""
"null","audio/beep-329314.mp3","null","audio-keyboard-response","223","2.1.0","774041","F=YES, J=NO","paules9gvo","0","79","83","75","","","","","","","","","","","","","","","",""
"null","audio/arm.wav","null","audio-keyboard-response","224","2.1.0","775151","F=YES, J=NO","paules9gvo","0","79","83","75","","","","","","","","","","","","","","","",""
"928","
          <p id=""word"" style=""font-size: 40px;"">pigne</p>
          <p style=""font-size: 16px;"">F = YES &nbsp;&nbsp;&nbsp; J = NO</p>
        ","j","html-keyboard-response","225","2.1.0","776080","F=YES, J=NO","paules9gvo","0","79","83","75","","","","","","","","","pigne","arm","pseudoword","pseudoword","j","true","",""
"null","<p style=""font-size: 50px;"">+</p>","null","html-keyboard-response","226","2.1.0","776383","F=YES, J=NO","paules9gvo","0","79","83","75","","","","","","","","","","","","","","","",""
"null","audio/beep-329314.mp3","null","audio-keyboard-response","227","2.1.0","778202","F=YES, J=NO","paules9gvo","0","79","83","75","","","","","","","","","","","","","","","",""
"null","audio/plot1.wav","null","audio-keyboard-response","228","2.1.0","779092","F=YES, J=NO","paules9gvo","0","79","83","75","","","","","","","","","","","","","","","",""
"716","
          <p id=""word"" style=""font-size: 40px;"">glenter</p>
          <p style=""font-size: 16px;"">F = YES &nbsp;&nbsp;&nbsp; J = NO</p>
        ","j","html-keyboard-response","229","2.1.0","779809","F=YES, J=NO","paules9gvo","0","79","83","75","","","","","","","","","glenter","plot1","pseudoword","pseudoword","j","true","",""
"15391","<p>Excellent! You have finished block 1 of 8.</p>
                     <p>Feel free to take a 30 second break.</p>
                     <p>Press any key when you're ready to continue.</p>"," ","html-keyboard-response","230","2.1.0","795201","F=YES, J=NO","paules9gvo","0","79","83","75","","","","","","","","","","","","","","","",""
"977","<p>Starting main block 2 of 8. Press any key to continue.</p>","f","html-keyboard-response","231","2.1.0","796179","F=YES, J=NO","paules9gvo","0","79","83","75","","","","","","","","","","","","","","","",""
"null","<p style=""font-size: 50px;"">+</p>","null","html-keyboard-response","232","2.1.0","796488","F=YES, J=NO","paules9gvo","0","79","83","75","","","","","","","","","","","","","","","",""
"null","audio/beep-329314.mp3","null","audio-keyboard-response","233","2.1.0","798341","F=YES, J=NO","paules9gvo","0","79","83","75","","","","","","","","","","","","","","","",""
"null","audio/cancer1.wav","null","audio-keyboard-response","234","2.1.0","799191","F=YES, J=NO","paules9gvo","0","79","83","75","","","","","","","","","","","","","","","",""
"533","
          <p id=""word"" style=""font-size: 40px;"">draw</p>
          <p style=""font-size: 16px;"">F = YES &nbsp;&nbsp;&nbsp; J = NO</p>
        ","f","html-keyboard-response","235","2.1.0","799725","F=YES, J=NO","paules9gvo","0","79","83","75","","","","","","","","","draw","cancer1","filler","filler","f","true","",""
"null","<p style=""font-size: 50px;"">+</p>","null","html-keyboard-response","236","2.1.0","800036","F=YES, J=NO","paules9gvo","0","79","83","75","","","","","","","","","","","","","","","",""
"null","audio/beep-329314.mp3","null","audio-keyboard-response","237","2.1.0","801841","F=YES, J=NO","paules9gvo","0","79","83","75","","","","","","","","","","","","","","","",""
"null","audio/cloud1.wav","null","audio-keyboard-response","238","2.1.0","802550","F=YES, J=NO","paules9gvo","0","79","83","75","","","","","","","","","","","","","","","",""
"607","
          <p id=""word"" style=""font-size: 40px;"">scrap</p>
          <p style=""font-size: 16px;"">F = YES &nbsp;&nbsp;&nbsp; J = NO</p>
        ","f","html-keyboard-response","239","2.1.0","803159","F=YES, J=NO","paules9gvo","0","79","83","75","","","","","","","","","scrap","cloud1","unrelated","experimental","f","true","",""
"null","<p style=""font-size: 50px;"">+</p>","null","html-keyboard-response","240","2.1.0","803477","F=YES, J=NO","paules9gvo","0","79","83","75","","","","","","","","","","","","","","","",""
"null","audio/beep-329314.mp3","null","audio-keyboard-response","241","2.1.0","805280","F=YES, J=NO","paules9gvo","0","79","83","75","","","","","","","","","","","","","","","",""
"null","audio/show.wav","null","audio-keyboard-response","242","2.1.0","805811","F=YES, J=NO","paules9gvo","0","79","83","75","","","","","","","","","","","","","","","",""
"487","
          <p id=""word"" style=""font-size: 40px;"">hold</p>
          <p style=""font-size: 16px;"">F = YES &nbsp;&nbsp;&nbsp; J = NO</p>
        ","f","html-keyboard-response","243","2.1.0","806300","F=YES, J=NO","paules9gvo","0","79","83","75","","","","","","","","","hold","show","metaphor","experimental","f","true","",""
"null","<p style=""font-size: 50px;"">+</p>","null","html-keyboard-response","244","2.1.0","806607","F=YES, J=NO","paules9gvo","0","79","83","75","","","","","","","","","","","","","","","",""
"null","audio/beep-329314.mp3","null","audio-keyboard-response","245","2.1.0","808421","F=YES, J=NO","paules9gvo","0","79","83","75","","","","","","","","","","","","","","","",""
"null","audio/life1.wav","null","audio-keyboard-response","246","2.1.0","809330","F=YES, J=NO","paules9gvo","0","79","83","75","","","","","","","","","","","","","","","",""
"678","
          <p id=""word"" style=""font-size: 40px;"">flimch</p>
          <p style=""font-size: 16px;"">F = YES &nbsp;&nbsp;&nbsp; J = NO</p>
        ","j","html-keyboard-response","247","2.1.0","810009","F=YES, J=NO","paules9gvo","0","79","83","75","","","","","","","","","flimch","life1","pseudoword","pseudoword","j","true","",""
"null","<p style=""font-size: 50px;"">+</p>","null","html-keyboard-response","248","2.1.0","810313","F=YES, J=NO","paules9gvo","0","79","83","75","","","","","","","","","","","","","","","",""
"null","audio/beep-329314.mp3","null","audio-keyboard-response","249","2.1.0","812120","F=YES, J=NO","paules9gvo","0","79","83","75","","","","","","","","","","","","","","","",""
"null","audio/life1.wav","null","audio-keyboard-response","250","2.1.0","812670","F=YES, J=NO","paules9gvo","0","79","83","75","","","","","","","","","","","","","","","",""
"527","
          <p id=""word"" style=""font-size: 40px;"">give</p>
          <p style=""font-size: 16px;"">F = YES &nbsp;&nbsp;&nbsp; J = NO</p>
        ","f","html-keyboard-response","251","2.1.0","813199","F=YES, J=NO","paules9gvo","0","79","83","75","","","","","","","","","give","life1","metaphor","experimental","f","true","",""
"null","<p style=""font-size: 50px;"">+</p>","null","html-keyboard-response","252","2.1.0","813512","F=YES, J=NO","paules9gvo","0","79","83","75","","","","","","","","","","","","","","","",""
"null","audio/beep-329314.mp3","null","audio-keyboard-response","253","2.1.0","815323","F=YES, J=NO","paules9gvo","0","79","83","75","","","","","","","","","","","","","","","",""
"null","audio/grass.wav","null","audio-keyboard-response","254","2.1.0","816270","F=YES, J=NO","paules9gvo","0","79","83","75","","","","","","","","","","","","","","","",""
"647","
          <p id=""word"" style=""font-size: 40px;"">cut</p>
          <p style=""font-size: 16px;"">F = YES &nbsp;&nbsp;&nbsp; J = NO</p>
        ","f","html-keyboard-response","255","2.1.0","816919","F=YES, J=NO","paules9gvo","0","79","83","75","","","","","","","","","cut","grass","literal","experimental","f","true","",""
"null","<p style=""font-size: 50px;"">+</p>","null","html-keyboard-response","256","2.1.0","817237","F=YES, J=NO","paules9gvo","0","79","83","75","","","","","","","","","","","","","","","",""
"null","audio/beep-329314.mp3","null","audio-keyboard-response","257","2.1.0","819040","F=YES, J=NO","paules9gvo","0","79","83","75","","","","","","","","","","","","","","","",""
"null","audio/grass.wav","null","audio-keyboard-response","258","2.1.0","819670","F=YES, J=NO","paules9gvo","0","79","83","75","","","","","","","","","","","","","","","",""
"610","
          <p id=""word"" style=""font-size: 40px;"">milames</p>
          <p style=""font-size: 16px;"">F = YES &nbsp;&nbsp;&nbsp; J = NO</p>
        ","j","html-keyboard-response","259","2.1.0","820282","F=YES, J=NO","paules9gvo","0","79","83","75","","","","","","","","","milames","grass","pseudoword","pseudoword","j","true","",""
"null","<p style=""font-size: 50px;"">+</p>","null","html-keyboard-response","260","2.1.0","820584","F=YES, J=NO","paules9gvo","0","79","83","75","","","","","","","","","","","","","","","",""
"null","audio/beep-329314.mp3","null","audio-keyboard-response","261","2.1.0","822400","F=YES, J=NO","paules9gvo","0","79","83","75","","","","","","","","","","","","","","","",""
"null","audio/ankle1.wav","null","audio-keyboard-response","262","2.1.0","823210","F=YES, J=NO","paules9gvo","0","79","83","75","","","","","","","","","","","","","","","",""
"545","
          <p id=""word"" style=""font-size: 40px;"">kick</p>
          <p style=""font-size: 16px;"">F = YES &nbsp;&nbsp;&nbsp; J = NO</p>
        ","f","html-keyboard-response","263","2.1.0","823757","F=YES, J=NO","paules9gvo","0","79","83","75","","","","","","","","","kick","ankle1","filler","filler","f","true","",""
"null","<p style=""font-size: 50px;"">+</p>","null","html-keyboard-response","264","2.1.0","824068","F=YES, J=NO","paules9gvo","0","79","83","75","","","","","","","","","","","","","","","",""
"null","audio/beep-329314.mp3","null","audio-keyboard-response","265","2.1.0","825881","F=YES, J=NO","paules9gvo","0","79","83","75","","","","","","","","","","","","","","","",""
"null","audio/farm1.wav","null","audio-keyboard-response","266","2.1.0","826730","F=YES, J=NO","paules9gvo","0","79","83","75","","","","","","","","","","","","","","","",""
"565","
          <p id=""word"" style=""font-size: 40px;"">catch</p>
          <p style=""font-size: 16px;"">F = YES &nbsp;&nbsp;&nbsp; J = NO</p>
        ","f","html-keyboard-response","267","2.1.0","827297","F=YES, J=NO","paules9gvo","0","79","83","75","","","","","","","","","catch","farm1","unrelated","experimental","f","true","",""
"null","<p style=""font-size: 50px;"">+</p>","null","html-keyboard-response","268","2.1.0","827601","F=YES, J=NO","paules9gvo","0","79","83","75","","","","","","","","","","","","","","","",""
"null","audio/beep-329314.mp3","null","audio-keyboard-response","269","2.1.0","829421","F=YES, J=NO","paules9gvo","0","79","83","75","","","","","","","","","","","","","","","",""
"null","audio/client1.wav","null","audio-keyboard-response","270","2.1.0","830431","F=YES, J=NO","paules9gvo","0","79","83","75","","","","","","","","","","","","","","","",""
"599","
          <p id=""word"" style=""font-size: 40px;"">droothe</p>
          <p style=""font-size: 16px;"">F = YES &nbsp;&nbsp;&nbsp; J = NO</p>
        ","j","html-keyboard-response","271","2.1.0","831031","F=YES, J=NO","paules9gvo","0","79","83","75","","","","","","","","","droothe","client1","pseudoword","pseudoword","j","true","",""
"null","<p style=""font-size: 50px;"">+</p>","null","html-keyboard-response","272","2.1.0","831341","F=YES, J=NO","paules9gvo","0","79","83","75","","","","","","","","","","","","","","","",""
"null","audio/beep-329314.mp3","null","audio-keyboard-response","273","2.1.0","833161","F=YES, J=NO","paules9gvo","0","79","83","75","","","","","","","","","","","","","","","",""
"null","audio/foe1.wav","null","audio-keyboard-response","274","2.1.0","834151","F=YES, J=NO","paules9gvo","0","79","83","75","","","","","","","","","","","","","","","",""
"609","
          <p id=""word"" style=""font-size: 40px;"">conquer</p>
          <p style=""font-size: 16px;"">F = YES &nbsp;&nbsp;&nbsp; J = NO</p>
        ","f","html-keyboard-response","275","2.1.0","834761","F=YES, J=NO","paules9gvo","0","79","83","75","","","","","","","","","conquer","foe1","literal","experimental","f","true","",""
"null","<p style=""font-size: 50px;"">+</p>","null","html-keyboard-response","276","2.1.0","835073","F=YES, J=NO","paules9gvo","0","79","83","75","","","","","","","","","","","","","","","",""
"null","audio/beep-329314.mp3","null","audio-keyboard-response","277","2.1.0","836881","F=YES, J=NO","paules9gvo","0","79","83","75","","","","","","","","","","","","","","","",""
"null","audio/bush1.wav","null","audio-keyboard-response","278","2.1.0","837351","F=YES, J=NO","paules9gvo","0","79","83","75","","","","","","","","","","","","","","","",""
"443","
          <p id=""word"" style=""font-size: 40px;"">run</p>
          <p style=""font-size: 16px;"">F = YES &nbsp;&nbsp;&nbsp; J = NO</p>
        ","f","html-keyboard-response","279","2.1.0","837795","F=YES, J=NO","paules9gvo","0","79","83","75","","","","","","","","","run","bush1","unrelated","experimental","f","true","",""
"null","<p style=""font-size: 50px;"">+</p>","null","html-keyboard-response","280","2.1.0","838101","F=YES, J=NO","paules9gvo","0","79","83","75","","","","","","","","","","","","","","","",""
"null","audio/beep-329314.mp3","null","audio-keyboard-response","281","2.1.0","839921","F=YES, J=NO","paules9gvo","0","79","83","75","","","","","","","","","","","","","","","",""
"null","audio/van1.wav","null","audio-keyboard-response","282","2.1.0","840671","F=YES, J=NO","paules9gvo","0","79","83","75","","","","","","","","","","","","","","","",""
"394","
          <p id=""word"" style=""font-size: 40px;"">push</p>
          <p style=""font-size: 16px;"">F = YES &nbsp;&nbsp;&nbsp; J = NO</p>
        ","f","html-keyboard-response","283","2.1.0","841066","F=YES, J=NO","paules9gvo","0","79","83","75","","","","","","","","","push","van1","filler","filler","f","true","",""
"null","<p style=""font-size: 50px;"">+</p>","null","html-keyboard-response","284","2.1.0","841376","F=YES, J=NO","paules9gvo","0","79","83","75","","","","","","","","","","","","","","","",""
"null","audio/beep-329314.mp3","null","audio-keyboard-response","285","2.1.0","843180","F=YES, J=NO","paules9gvo","0","79","83","75","","","","","","","","","","","","","","","",""
"null","audio/winter.wav","null","audio-keyboard-response","286","2.1.0","843930","F=YES, J=NO","paules9gvo","0","79","83","75","","","","","","","","","","","","","","","",""
"504","
          <p id=""word"" style=""font-size: 40px;"">expose</p>
          <p style=""font-size: 16px;"">F = YES &nbsp;&nbsp;&nbsp; J = NO</p>
        ","f","html-keyboard-response","287","2.1.0","844436","F=YES, J=NO","paules9gvo","0","79","83","75","","","","","","","","","expose","winter","unrelated","experimental","f","true","",""
"null","<p style=""font-size: 50px;"">+</p>","null","html-keyboard-response","288","2.1.0","844743","F=YES, J=NO","paules9gvo","0","79","83","75","","","","","","","","","","","","","","","",""
"null","audio/beep-329314.mp3","null","audio-keyboard-response","289","2.1.0","846561","F=YES, J=NO","paules9gvo","0","79","83","75","","","","","","","","","","","","","","","",""
"null","audio/chance.wav","null","audio-keyboard-response","290","2.1.0","847451","F=YES, J=NO","paules9gvo","0","79","83","75","","","","","","","","","","","","","","","",""
"362","
          <p id=""word"" style=""font-size: 40px;"">seize</p>
          <p style=""font-size: 16px;"">F = YES &nbsp;&nbsp;&nbsp; J = NO</p>
        ","f","html-keyboard-response","291","2.1.0","847815","F=YES, J=NO","paules9gvo","0","79","83","75","","","","","","","","","seize","chance","metaphor","experimental","f","true","",""
"null","<p style=""font-size: 50px;"">+</p>","null","html-keyboard-response","292","2.1.0","848118","F=YES, J=NO","paules9gvo","0","79","83","75","","","","","","","","","","","","","","","",""
"null","audio/beep-329314.mp3","null","audio-keyboard-response","293","2.1.0","849940","F=YES, J=NO","paules9gvo","0","79","83","75","","","","","","","","","","","","","","","",""
"null","audio/essence1.wav","null","audio-keyboard-response","294","2.1.0","850911","F=YES, J=NO","paules9gvo","0","79","83","75","","","","","","","","","","","","","","","",""
"537","
          <p id=""word"" style=""font-size: 40px;"">grasp</p>
          <p style=""font-size: 16px;"">F = YES &nbsp;&nbsp;&nbsp; J = NO</p>
        ","f","html-keyboard-response","295","2.1.0","851450","F=YES, J=NO","paules9gvo","0","79","83","75","","","","","","","","","grasp","essence1","metaphor","experimental","f","true","",""
"678","<p>Excellent! You have finished block 2 of 8.</p>
                     <p>Feel free to take a 30 second break.</p>
                     <p>Press any key when you're ready to continue.</p>","f","html-keyboard-response","296","2.1.0","852129","F=YES, J=NO","paules9gvo","0","79","83","75","","","","","","","","","","","","","","","",""
"448","<p>Starting main block 3 of 8. Press any key to continue.</p>","f","html-keyboard-response","297","2.1.0","852578","F=YES, J=NO","paules9gvo","0","79","83","75","","","","","","","","","","","","","","","",""
"null","<p style=""font-size: 50px;"">+</p>","null","html-keyboard-response","298","2.1.0","852889","F=YES, J=NO","paules9gvo","0","79","83","75","","","","","","","","","","","","","","","",""
"null","audio/beep-329314.mp3","null","audio-keyboard-response","299","2.1.0","854700","F=YES, J=NO","paules9gvo","0","79","83","75","","","","","","","","","","","","","","","",""
"null","audio/gossip1.wav","null","audio-keyboard-response","300","2.1.0","855671","F=YES, J=NO","paules9gvo","0","79","83","75","","","","","","","","","","","","","","","",""
"539","
          <p id=""word"" style=""font-size: 40px;"">wrestle</p>
          <p style=""font-size: 16px;"">F = YES &nbsp;&nbsp;&nbsp; J = NO</p>
        ","f","html-keyboard-response","301","2.1.0","856212","F=YES, J=NO","paules9gvo","0","79","83","75","","","","","","","","","wrestle","gossip1","unrelated","experimental","f","true","",""
"null","<p style=""font-size: 50px;"">+</p>","null","html-keyboard-response","302","2.1.0","856518","F=YES, J=NO","paules9gvo","0","79","83","75","","","","","","","","","","","","","","","",""
"null","audio/beep-329314.mp3","null","audio-keyboard-response","303","2.1.0","858340","F=YES, J=NO","paules9gvo","0","79","83","75","","","","","","","","","","","","","","","",""
"null","audio/emotion.wav","null","audio-keyboard-response","304","2.1.0","859290","F=YES, J=NO","paules9gvo","0","79","83","75","","","","","","","","","","","","","","","",""
"969","
          <p id=""word"" style=""font-size: 40px;"">devering</p>
          <p style=""font-size: 16px;"">F = YES &nbsp;&nbsp;&nbsp; J = NO</p>
        ","j","html-keyboard-response","305","2.1.0","860261","F=YES, J=NO","paules9gvo","0","79","83","75","","","","","","","","","devering","emotion","pseudoword","pseudoword","j","true","",""
"null","<p style=""font-size: 50px;"">+</p>","null","html-keyboard-response","306","2.1.0","860563","F=YES, J=NO","paules9gvo","0","79","83","75","","","","","","","","","","","","","","","",""
"null","audio/beep-329314.mp3","null","audio-keyboard-response","307","2.1.0","862380","F=YES, J=NO","paules9gvo","0","79","83","75","","","","","","","","","","","","","","","",""
"null","audio/size1.wav","null","audio-keyboard-response","308","2.1.0","863491","F=YES, J=NO","paules9gvo","0","79","83","75","","","","","","","","","","","","","","","",""
"377","
          <p id=""word"" style=""font-size: 40px;"">clear</p>
          <p style=""font-size: 16px;"">F = YES &nbsp;&nbsp;&nbsp; J = NO</p>
        ","f","html-keyboard-response","309","2.1.0","863870","F=YES, J=NO","paules9gvo","0","79","83","75","","","","","","","","","clear","size1","unrelated","experimental","f","true","",""
"null","<p style=""font-size: 50px;"">+</p>","null","html-keyboard-response","310","2.1.0","864180","F=YES, J=NO","paules9gvo","0","79","83","75","","","","","","","","","","","","","","","",""
"null","audio/beep-329314.mp3","null","audio-keyboard-response","311","2.1.0","866000","F=YES, J=NO","paules9gvo","0","79","83","75","","","","","","","","","","","","","","","",""
"null","audio/floor.wav","null","audio-keyboard-response","312","2.1.0","866871","F=YES, J=NO","paules9gvo","0","79","83","75","","","","","","","","","","","","","","","",""
"659","
          <p id=""word"" style=""font-size: 40px;"">mop</p>
          <p style=""font-size: 16px;"">F = YES &nbsp;&nbsp;&nbsp; J = NO</p>
        ","f","html-keyboard-response","313","2.1.0","867531","F=YES, J=NO","paules9gvo","0","79","83","75","","","","","","","","","mop","floor","filler","filler","f","true","",""
"null","<p style=""font-size: 50px;"">+</p>","null","html-keyboard-response","314","2.1.0","867845","F=YES, J=NO","paules9gvo","0","79","83","75","","","","","","","","","","","","","","","",""
"null","audio/beep-329314.mp3","null","audio-keyboard-response","315","2.1.0","869661","F=YES, J=NO","paules9gvo","0","79","83","75","","","","","","","","","","","","","","","",""
"null","audio/prisoner.wav","null","audio-keyboard-response","316","2.1.0","870511","F=YES, J=NO","paules9gvo","0","79","83","75","","","","","","","","","","","","","","","",""
"801","
          <p id=""word"" style=""font-size: 40px;"">egotian</p>
          <p style=""font-size: 16px;"">F = YES &nbsp;&nbsp;&nbsp; J = NO</p>
        ","j","html-keyboard-response","317","2.1.0","871313","F=YES, J=NO","paules9gvo","0","79","83","75","","","","","","","","","egotian","prisoner","pseudoword","pseudoword","j","true","",""
"null","<p style=""font-size: 50px;"">+</p>","null","html-keyboard-response","318","2.1.0","871621","F=YES, J=NO","paules9gvo","0","79","83","75","","","","","","","","","","","","","","","",""
"null","audio/beep-329314.mp3","null","audio-keyboard-response","319","2.1.0","873441","F=YES, J=NO","paules9gvo","0","79","83","75","","","","","","","","","","","","","","","",""
"null","audio/vehicle1.wav","null","audio-keyboard-response","320","2.1.0","874430","F=YES, J=NO","paules9gvo","0","79","83","75","","","","","","","","","","","","","","","",""
"486","
          <p id=""word"" style=""font-size: 40px;"">dropt</p>
          <p style=""font-size: 16px;"">F = YES &nbsp;&nbsp;&nbsp; J = NO</p>
        ","f","html-keyboard-response","321","2.1.0","874918","F=YES, J=NO","paules9gvo","0","79","83","75","","","","","","","","","dropt","vehicle1","pseudoword","pseudoword","j","false","",""
"null","<p style=""font-size: 50px;"">+</p>","null","html-keyboard-response","322","2.1.0","875228","F=YES, J=NO","paules9gvo","0","79","83","75","","","","","","","","","","","","","","","",""
"null","audio/beep-329314.mp3","null","audio-keyboard-response","323","2.1.0","877042","F=YES, J=NO","paules9gvo","0","79","83","75","","","","","","","","","","","","","","","",""
"null","audio/bishop1.wav","null","audio-keyboard-response","324","2.1.0","877611","F=YES, J=NO","paules9gvo","0","79","83","75","","","","","","","","","","","","","","","",""
"589","
          <p id=""word"" style=""font-size: 40px;"">devour</p>
          <p style=""font-size: 16px;"">F = YES &nbsp;&nbsp;&nbsp; J = NO</p>
        ","f","html-keyboard-response","325","2.1.0","878202","F=YES, J=NO","paules9gvo","0","79","83","75","","","","","","","","","devour","bishop1","unrelated","experimental","f","true","",""
"null","<p style=""font-size: 50px;"">+</p>","null","html-keyboard-response","326","2.1.0","878511","F=YES, J=NO","paules9gvo","0","79","83","75","","","","","","","","","","","","","","","",""
"null","audio/beep-329314.mp3","null","audio-keyboard-response","327","2.1.0","880320","F=YES, J=NO","paules9gvo","0","79","83","75","","","","","","","","","","","","","","","",""
"null","audio/strength.wav","null","audio-keyboard-response","328","2.1.0","881371","F=YES, J=NO","paules9gvo","0","79","83","75","","","","","","","","","","","","","","","",""
"758","
          <p id=""word"" style=""font-size: 40px;"">possess</p>
          <p style=""font-size: 16px;"">F = YES &nbsp;&nbsp;&nbsp; J = NO</p>
        ","f","html-keyboard-response","329","2.1.0","882130","F=YES, J=NO","paules9gvo","0","79","83","75","","","","","","","","","possess","strength","metaphor","experimental","f","true","",""
"null","<p style=""font-size: 50px;"">+</p>","null","html-keyboard-response","330","2.1.0","882440","F=YES, J=NO","paules9gvo","0","79","83","75","","","","","","","","","","","","","","","",""
"null","audio/beep-329314.mp3","null","audio-keyboard-response","331","2.1.0","884261","F=YES, J=NO","paules9gvo","0","79","83","75","","","","","","","","","","","","","","","",""
"null","audio/cloud1.wav","null","audio-keyboard-response","332","2.1.0","884791","F=YES, J=NO","paules9gvo","0","79","83","75","","","","","","","","","","","","","","","",""
"692","
          <p id=""word"" style=""font-size: 40px;"">brotant</p>
          <p style=""font-size: 16px;"">F = YES &nbsp;&nbsp;&nbsp; J = NO</p>
        ","j","html-keyboard-response","333","2.1.0","885485","F=YES, J=NO","paules9gvo","0","79","83","75","","","","","","","","","brotant","cloud1","pseudoword","pseudoword","j","true","",""
"null","<p style=""font-size: 50px;"">+</p>","null","html-keyboard-response","334","2.1.0","885801","F=YES, J=NO","paules9gvo","0","79","83","75","","","","","","","","","","","","","","","",""
"null","audio/beep-329314.mp3","null","audio-keyboard-response","335","2.1.0","887621","F=YES, J=NO","paules9gvo","0","79","83","75","","","","","","","","","","","","","","","",""
"null","audio/table1.wav","null","audio-keyboard-response","336","2.1.0","888411","F=YES, J=NO","paules9gvo","0","79","83","75","","","","","","","","","","","","","","","",""
"651","
          <p id=""word"" style=""font-size: 40px;"">stimb</p>
          <p style=""font-size: 16px;"">F = YES &nbsp;&nbsp;&nbsp; J = NO</p>
        ","j","html-keyboard-response","337","2.1.0","889064","F=YES, J=NO","paules9gvo","0","79","83","75","","","","","","","","","stimb","table1","pseudoword","pseudoword","j","true","",""
"null","<p style=""font-size: 50px;"">+</p>","null","html-keyboard-response","338","2.1.0","889370","F=YES, J=NO","paules9gvo","0","79","83","75","","","","","","","","","","","","","","","",""
"null","audio/beep-329314.mp3","null","audio-keyboard-response","339","2.1.0","891181","F=YES, J=NO","paules9gvo","0","79","83","75","","","","","","","","","","","","","","","",""
"null","audio/sugar1.wav","null","audio-keyboard-response","340","2.1.0","891771","F=YES, J=NO","paules9gvo","0","79","83","75","","","","","","","","","","","","","","","",""
"820","
          <p id=""word"" style=""font-size: 40px;"">glung</p>
          <p style=""font-size: 16px;"">F = YES &nbsp;&nbsp;&nbsp; J = NO</p>
        ","j","html-keyboard-response","341","2.1.0","892593","F=YES, J=NO","paules9gvo","0","79","83","75","","","","","","","","","glung","sugar1","pseudoword","pseudoword","j","true","",""
"null","<p style=""font-size: 50px;"">+</p>","null","html-keyboard-response","342","2.1.0","892908","F=YES, J=NO","paules9gvo","0","79","83","75","","","","","","","","","","","","","","","",""
"null","audio/beep-329314.mp3","null","audio-keyboard-response","343","2.1.0","894720","F=YES, J=NO","paules9gvo","0","79","83","75","","","","","","","","","","","","","","","",""
"null","audio/mind.wav","null","audio-keyboard-response","344","2.1.0","895650","F=YES, J=NO","paules9gvo","0","79","83","75","","","","","","","","","","","","","","","",""
"917","
          <p id=""word"" style=""font-size: 40px;"">crainate</p>
          <p style=""font-size: 16px;"">F = YES &nbsp;&nbsp;&nbsp; J = NO</p>
        ","j","html-keyboard-response","345","2.1.0","896568","F=YES, J=NO","paules9gvo","0","79","83","75","","","","","","","","","crainate","mind","pseudoword","pseudoword","j","true","",""
"null","<p style=""font-size: 50px;"">+</p>","null","html-keyboard-response","346","2.1.0","896882","F=YES, J=NO","paules9gvo","0","79","83","75","","","","","","","","","","","","","","","",""
"null","audio/beep-329314.mp3","null","audio-keyboard-response","347","2.1.0","898702","F=YES, J=NO","paules9gvo","0","79","83","75","","","","","","","","","","","","","","","",""
"null","audio/client1.wav","null","audio-keyboard-response","348","2.1.0","899371","F=YES, J=NO","paules9gvo","0","79","83","75","","","","","","","","","","","","","","","",""
"539","
          <p id=""word"" style=""font-size: 40px;"">land</p>
          <p style=""font-size: 16px;"">F = YES &nbsp;&nbsp;&nbsp; J = NO</p>
        ","f","html-keyboard-response","349","2.1.0","899911","F=YES, J=NO","paules9gvo","0","79","83","75","","","","","","","","","land","client1","metaphor","experimental","f","true","",""
"null","<p style=""font-size: 50px;"">+</p>","null","html-keyboard-response","350","2.1.0","900226","F=YES, J=NO","paules9gvo","0","79","83","75","","","","","","","","","","","","","","","",""
"null","audio/beep-329314.mp3","null","audio-keyboard-response","351","2.1.0","902041","F=YES, J=NO","paules9gvo","0","79","83","75","","","","","","","","","","","","","","","",""
"null","audio/ego.wav","null","audio-keyboard-response","352","2.1.0","902931","F=YES, J=NO","paules9gvo","0","79","83","75","","","","","","","","","","","","","","","",""
"635","
          <p id=""word"" style=""font-size: 40px;"">bruite</p>
          <p style=""font-size: 16px;"">F = YES &nbsp;&nbsp;&nbsp; J = NO</p>
        ","j","html-keyboard-response","353","2.1.0","903567","F=YES, J=NO","paules9gvo","0","79","83","75","","","","","","","","","bruite","ego","pseudoword","pseudoword","j","true","",""
"null","<p style=""font-size: 50px;"">+</p>","null","html-keyboard-response","354","2.1.0","903870","F=YES, J=NO","paules9gvo","0","79","83","75","","","","","","","","","","","","","","","",""
"null","audio/beep-329314.mp3","null","audio-keyboard-response","355","2.1.0","905681","F=YES, J=NO","paules9gvo","0","79","83","75","","","","","","","","","","","","","","","",""
"null","audio/pain1.wav","null","audio-keyboard-response","356","2.1.0","906151","F=YES, J=NO","paules9gvo","0","79","83","75","","","","","","","","","","","","","","","",""
"1048","
          <p id=""word"" style=""font-size: 40px;"">tritted</p>
          <p style=""font-size: 16px;"">F = YES &nbsp;&nbsp;&nbsp; J = NO</p>
        ","j","html-keyboard-response","357","2.1.0","907200","F=YES, J=NO","paules9gvo","0","79","83","75","","","","","","","","","tritted","pain1","pseudoword","pseudoword","j","true","",""
"null","<p style=""font-size: 50px;"">+</p>","null","html-keyboard-response","358","2.1.0","907515","F=YES, J=NO","paules9gvo","0","79","83","75","","","","","","","","","","","","","","","",""
"null","audio/beep-329314.mp3","null","audio-keyboard-response","359","2.1.0","909321","F=YES, J=NO","paules9gvo","0","79","83","75","","","","","","","","","","","","","","","",""
"null","audio/cash1.wav","null","audio-keyboard-response","360","2.1.0","910190","F=YES, J=NO","paules9gvo","0","79","83","75","","","","","","","","","","","","","","","",""
"812","
          <p id=""word"" style=""font-size: 40px;"">splear</p>
          <p style=""font-size: 16px;"">F = YES &nbsp;&nbsp;&nbsp; J = NO</p>
        ","j","html-keyboard-response","361","2.1.0","911003","F=YES, J=NO","paules9gvo","0","79","83","75","","","","","","","","","splear","cash1","pseudoword","pseudoword","j","true","",""
"3888","<p>Excellent! You have finished block 3 of 8.</p>
                     <p>Feel free to take a 30 second break.</p>
                     <p>Press any key when you're ready to continue.</p>","j","html-keyboard-response","362","2.1.0","914893","F=YES, J=NO","paules9gvo","0","79","83","75","","","","","","","","","","","","","","","",""
"661","<p>Starting main block 4 of 8. Press any key to continue.</p>","j","html-keyboard-response","363","2.1.0","915556","F=YES, J=NO","paules9gvo","0","79","83","75","","","","","","","","","","","","","","","",""
"null","<p style=""font-size: 50px;"">+</p>","null","html-keyboard-response","364","2.1.0","915871","F=YES, J=NO","paules9gvo","0","79","83","75","","","","","","","","","","","","","","","",""
"null","audio/beep-329314.mp3","null","audio-keyboard-response","365","2.1.0","917681","F=YES, J=NO","paules9gvo","0","79","83","75","","","","","","","","","","","","","","","",""
"null","audio/trust.wav","null","audio-keyboard-response","366","2.1.0","918671","F=YES, J=NO","paules9gvo","0","79","83","75","","","","","","","","","","","","","","","",""
"619","
          <p id=""word"" style=""font-size: 40px;"">swint</p>
          <p style=""font-size: 16px;"">F = YES &nbsp;&nbsp;&nbsp; J = NO</p>
        ","j","html-keyboard-response","367","2.1.0","919291","F=YES, J=NO","paules9gvo","0","79","83","75","","","","","","","","","swint","trust","pseudoword","pseudoword","j","true","",""
"null","<p style=""font-size: 50px;"">+</p>","null","html-keyboard-response","368","2.1.0","919606","F=YES, J=NO","paules9gvo","0","79","83","75","","","","","","","","","","","","","","","",""
"null","audio/beep-329314.mp3","null","audio-keyboard-response","369","2.1.0","921421","F=YES, J=NO","paules9gvo","0","79","83","75","","","","","","","","","","","","","","","",""
"null","audio/pig.wav","null","audio-keyboard-response","370","2.1.0","921831","F=YES, J=NO","paules9gvo","0","79","83","75","","","","","","","","","","","","","","","",""
"513","
          <p id=""word"" style=""font-size: 40px;"">feed</p>
          <p style=""font-size: 16px;"">F = YES &nbsp;&nbsp;&nbsp; J = NO</p>
        ","f","html-keyboard-response","371","2.1.0","922345","F=YES, J=NO","paules9gvo","0","79","83","75","","","","","","","","","feed","pig","literal","experimental","f","true","",""
"null","<p style=""font-size: 50px;"">+</p>","null","html-keyboard-response","372","2.1.0","922652","F=YES, J=NO","paules9gvo","0","79","83","75","","","","","","","","","","","","","","","",""
"null","audio/beep-329314.mp3","null","audio-keyboard-response","373","2.1.0","924461","F=YES, J=NO","paules9gvo","0","79","83","75","","","","","","","","","","","","","","","",""
"null","audio/enemy1.wav","null","audio-keyboard-response","374","2.1.0","925270","F=YES, J=NO","paules9gvo","0","79","83","75","","","","","","","","","","","","","","","",""
"572","
          <p id=""word"" style=""font-size: 40px;"">defeat</p>
          <p style=""font-size: 16px;"">F = YES &nbsp;&nbsp;&nbsp; J = NO</p>
        ","f","html-keyboard-response","375","2.1.0","925844","F=YES, J=NO","paules9gvo","0","79","83","75","","","","","","","","","defeat","enemy1","literal","experimental","f","true","",""
"null","<p style=""font-size: 50px;"">+</p>","null","html-keyboard-response","376","2.1.0","926150","F=YES, J=NO","paules9gvo","0","79","83","75","","","","","","","","","","","","","","","",""
"null","audio/beep-329314.mp3","null","audio-keyboard-response","377","2.1.0","927960","F=YES, J=NO","paules9gvo","0","79","83","75","","","","","","","","","","","","","","","",""
"null","audio/foe1.wav","null","audio-keyboard-response","378","2.1.0","928450","F=YES, J=NO","paules9gvo","0","79","83","75","","","","","","","","","","","","","","","",""
"853","
          <p id=""word"" style=""font-size: 40px;"">creth</p>
          <p style=""font-size: 16px;"">F = YES &nbsp;&nbsp;&nbsp; J = NO</p>
        ","j","html-keyboard-response","379","2.1.0","929305","F=YES, J=NO","paules9gvo","0","79","83","75","","","","","","","","","creth","foe1","pseudoword","pseudoword","j","true","",""
"null","<p style=""font-size: 50px;"">+</p>","null","html-keyboard-response","380","2.1.0","929619","F=YES, J=NO","paules9gvo","0","79","83","75","","","","","","","","","","","","","","","",""
"null","audio/beep-329314.mp3","null","audio-keyboard-response","381","2.1.0","931441","F=YES, J=NO","paules9gvo","0","79","83","75","","","","","","","","","","","","","","","",""
"null","audio/battle1.wav","null","audio-keyboard-response","382","2.1.0","932310","F=YES, J=NO","paules9gvo","0","79","83","75","","","","","","","","","","","","","","","",""
"720","
          <p id=""word"" style=""font-size: 40px;"">boil</p>
          <p style=""font-size: 16px;"">F = YES &nbsp;&nbsp;&nbsp; J = NO</p>
        ","f","html-keyboard-response","383","2.1.0","933032","F=YES, J=NO","paules9gvo","0","79","83","75","","","","","","","","","boil","battle1","filler","filler","f","true","",""
"null","<p style=""font-size: 50px;"">+</p>","null","html-keyboard-response","384","2.1.0","933345","F=YES, J=NO","paules9gvo","0","79","83","75","","","","","","","","","","","","","","","",""
"null","audio/beep-329314.mp3","null","audio-keyboard-response","385","2.1.0","935161","F=YES, J=NO","paules9gvo","0","79","83","75","","","","","","","","","","","","","","","",""
"null","audio/ankle1.wav","null","audio-keyboard-response","386","2.1.0","935670","F=YES, J=NO","paules9gvo","0","79","83","75","","","","","","","","","","","","","","","",""
"635","
          <p id=""word"" style=""font-size: 40px;"">switm</p>
          <p style=""font-size: 16px;"">F = YES &nbsp;&nbsp;&nbsp; J = NO</p>
        ","j","html-keyboard-response","387","2.1.0","936307","F=YES, J=NO","paules9gvo","0","79","83","75","","","","","","","","","switm","ankle1","pseudoword","pseudoword","j","true","",""
"null","<p style=""font-size: 50px;"">+</p>","null","html-keyboard-response","388","2.1.0","936616","F=YES, J=NO","paules9gvo","0","79","83","75","","","","","","","","","","","","","","","",""
"null","audio/beep-329314.mp3","null","audio-keyboard-response","389","2.1.0","938421","F=YES, J=NO","paules9gvo","0","79","83","75","","","","","","","","","","","","","","","",""
"null","audio/roof1.wav","null","audio-keyboard-response","390","2.1.0","939291","F=YES, J=NO","paules9gvo","0","79","83","75","","","","","","","","","","","","","","","",""
"595","
          <p id=""word"" style=""font-size: 40px;"">construct</p>
          <p style=""font-size: 16px;"">F = YES &nbsp;&nbsp;&nbsp; J = NO</p>
        ","f","html-keyboard-response","391","2.1.0","939887","F=YES, J=NO","paules9gvo","0","79","83","75","","","","","","","","","construct","roof1","literal","experimental","f","true","",""
