"rt","stimulus","response","trial_type","trial_index","plugin_version","time_elapsed","response_mapping","subject_id","list_index","lextale_score","lextale_word_score","lextale_nonword_score","success","timeout","failed_images","failed_audio","failed_video","task","isWord","isDummy","target","prime","prime_type","stimulus_type","correct_response","correct","section","question_order"
"55589","
    <div style=""max-width: 800px; margin: auto; text-align: left;"">
      <h2>STANFORD UNIVERSITY</h2>
      <h3>Research Information Sheet</h3>
      <p><strong>Protocol Director:</strong> Robert Hawkins<br>
      <strong>Protocol Title:</strong> Communication and social cognition in natural audiovisual contexts<br>
      <strong>IRB#:</strong> 77226</p>

      <p><strong>DESCRIPTION:</strong> You are invited to participate in a research study about language and communication. The purpose of the research is to understand how you interact and communicate with other people in naturalistic settings as a fluent English speaker. This research will be conducted through the Prolific platform, including participants from the US, UK, and Canada. If you decide to participate in this research, you will play a communication game in a group with one or more partners.</p>

      <p><strong>TIME INVOLVEMENT:</strong> The task will last the amount of time advertised on Prolific. You are free to withdraw from the study at any time.</p>

      <p><strong>RISKS AND BENEFITS:</strong> You may become frustrated if your partner gets distracted, or experience discomfort if other participants in your group send text that is inappropriate for the task. We ask you to please be respectful of other participants you might be interacting with to mitigate these risks. You may also experience discomfort when being asked to discuss or challenge emotionally salient political beliefs. Study data will be stored securely, in compliance with Stanford University standards, minimizing the risk of confidentiality breach. This study advances our scientific understanding of how people communicate and collaborate in naturalistic settings. This study may lead to further insights about what can go wrong in teamwork, suggest potential interventions to overcome these barriers, and help to develop assistive technologies that collaborate with human partners. We cannot and do not guarantee or promise that you will receive any benefits from this study.</p>

      <p><strong>PAYMENTS:</strong> You will receive payment in the amount advertised on Prolific. If you do not complete this study, you will receive prorated payment based on the time that you have spent. Additionally, you may be eligible for bonus payments as described in the instructions.</p>

      <p><strong>PARTICIPANT’S RIGHTS:</strong> If you have read this form and have decided to participate in this project, please understand your participation is voluntary and you have the right to withdraw your consent or discontinue participation at any time without penalty or loss of benefits to which you are otherwise entitled. The alternative is not to participate. You have the right to refuse to answer particular questions. The results of this research study may be presented at scientific or professional meetings or published in scientific journals. Your individual privacy will be maintained in all published and written data resulting from the study. In accordance with scientific norms, the data from this study may be used or shared with other researchers for future research (after removing personally identifying information) without additional consent from you.</p>

      <p><strong>CONTACT INFORMATION:</strong><br>
      Questions: If you have any questions, concerns or complaints about this research, its procedures, risks and benefits, contact the Protocol Director, Robert Hawkins (<a href=""mailto:rdhawkins@stanford.edu"">rdhawkins@stanford.edu</a>, 217-549-6923).<br>
      Independent Contact: If you are not satisfied with how this study is being conducted, or if you have any concerns, complaints, or general questions about the research or your rights as a participant, please contact the Stanford Institutional Review Board (IRB) to speak to someone independent of the research team at 650-723-2480 or toll free at 1-866-680-2906, or email at <a href=""mailto:irbnon-med@stanford.edu"">irbnon-med@stanford.edu</a>. You can also write to the Stanford IRB, Stanford University, 1705 El Camino Real, Palo Alto, CA 94306.</p>

      <p><strong>Please save or print a copy of this page for your records.</strong></p>
      <p>If you agree to participate in this research, click ""Continue"" below.</p>
    </div>
  ","0","html-button-response","0","2.1.0","55595","F=YES, J=NO","pcgn2pqoff","1","66","83","50","","","","","","","","","","","","","","","",""
"10283","
    <div style=""max-width: 800px; margin: auto; text-align: left;"">
      <h2>Welcome!</h2>
      <p>Thank you for participating in this study. The experiment consists of three parts:</p>
      <ol>
        <li>An English vocabulary test</li>
        <li>A main task in which you will hear and see words, and decide whether the written word is a real English word</li>
        <li>A brief survey about your background</li>
      </ol>
      <p>Each part will be introduced before it begins.</p>
      <p>Please make sure you are in a quiet environment and can hear audio clearly for the final task.</p>
      <p style=""margin-top: 2em;"">Press any key to begin.</p>
    </div>
  ","ArrowRight","html-keyboard-response","1","2.1.0","65880","F=YES, J=NO","pcgn2pqoff","1","66","83","50","","","","","","","","","","","","","","","",""
"","","","preload","2","2.1.0","67031","F=YES, J=NO","pcgn2pqoff","1","66","83","50","true","false","[]","[]","[]","","","","","","","","","","",""
"17234","
    <div style=""max-width: 800px; margin: auto; text-align: left;"">
      <h2>Part 1: Vocabulary Test</h2>
      <p>You will now complete the first part of the study: a short English vocabulary test.</p>
      <p>This test is called <strong>LexTALE</strong> and helps us get a general sense of your English proficiency.</p>
      <p style=""margin-top: 2em;"">Press any key to continue.</p>
    </div>
  ","ArrowRight","html-keyboard-response","3","2.1.0","84266","F=YES, J=NO","pcgn2pqoff","1","66","83","50","","","","","","","","","","","","","","","",""
"26775","
    <div style=""max-width: 800px; margin: auto; text-align: left;"">
      <h2>LexTALE Vocabulary Test</h2>
      <p>In this test, you will see a series of letter strings—one at a time.</p>
      <p>Your task is to decide whether each string is a real English word.</p>
      <p><strong>Key responses:</strong></p>
      <ul>
        <li><strong>F</strong> = YES (real English word)</li>
        <li><strong>J</strong> = NO (not a real English word)</li>
      </ul>
      <p>There is no time limit, but please try to be accurate.</p>
      <p style=""margin-top: 2em;"">Press any key to begin.</p>
    </div>
  ","f","html-keyboard-response","4","2.1.0","111042","F=YES, J=NO","pcgn2pqoff","1","66","83","50","","","","","","","","","","","","","","","",""
"8297","
  <p style=""font-size: 40px;"">platery</p>
  <p style=""font-size: 16px;"">F = YES &nbsp;&nbsp;&nbsp; J = NO</p>
","f","html-keyboard-response","5","2.1.0","119340","F=YES, J=NO","pcgn2pqoff","1","66","83","50","","","","","","lextale","false","true","","","","","","","",""
"1357","
  <p style=""font-size: 40px;"">denial</p>
  <p style=""font-size: 16px;"">F = YES &nbsp;&nbsp;&nbsp; J = NO</p>
","f","html-keyboard-response","6","2.1.0","120697","F=YES, J=NO","pcgn2pqoff","1","66","83","50","","","","","","lextale","true","true","","","","","","","",""
"1734","
  <p style=""font-size: 40px;"">marrit</p>
  <p style=""font-size: 16px;"">F = YES &nbsp;&nbsp;&nbsp; J = NO</p>
","j","html-keyboard-response","7","2.1.0","122433","F=YES, J=NO","pcgn2pqoff","1","66","83","50","","","","","","lextale","false","true","","","","","","","",""
"1476","
  <p style=""font-size: 40px;"">bottle</p>
  <p style=""font-size: 16px;"">F = YES &nbsp;&nbsp;&nbsp; J = NO</p>
","f","html-keyboard-response","8","2.1.0","123909","F=YES, J=NO","pcgn2pqoff","1","66","83","50","","","","","","lextale","true","false","","","","","","","",""
"1682","
  <p style=""font-size: 40px;"">birst</p>
  <p style=""font-size: 16px;"">F = YES &nbsp;&nbsp;&nbsp; J = NO</p>
","j","html-keyboard-response","9","2.1.0","125591","F=YES, J=NO","pcgn2pqoff","1","66","83","50","","","","","","lextale","false","false","","","","","","","",""
"638","
  <p style=""font-size: 40px;"">envy</p>
  <p style=""font-size: 16px;"">F = YES &nbsp;&nbsp;&nbsp; J = NO</p>
","f","html-keyboard-response","10","2.1.0","126231","F=YES, J=NO","pcgn2pqoff","1","66","83","50","","","","","","lextale","true","false","","","","","","","",""
"1688","
  <p style=""font-size: 40px;"">brang</p>
  <p style=""font-size: 16px;"">F = YES &nbsp;&nbsp;&nbsp; J = NO</p>
","j","html-keyboard-response","11","2.1.0","127920","F=YES, J=NO","pcgn2pqoff","1","66","83","50","","","","","","lextale","false","false","","","","","","","",""
"534","
  <p style=""font-size: 40px;"">huge</p>
  <p style=""font-size: 16px;"">F = YES &nbsp;&nbsp;&nbsp; J = NO</p>
","f","html-keyboard-response","12","2.1.0","128455","F=YES, J=NO","pcgn2pqoff","1","66","83","50","","","","","","lextale","true","false","","","","","","","",""
"917","
  <p style=""font-size: 40px;"">plove</p>
  <p style=""font-size: 16px;"">F = YES &nbsp;&nbsp;&nbsp; J = NO</p>
","f","html-keyboard-response","13","2.1.0","129373","F=YES, J=NO","pcgn2pqoff","1","66","83","50","","","","","","lextale","false","false","","","","","","","",""
"616","
  <p style=""font-size: 40px;"">border</p>
  <p style=""font-size: 16px;"">F = YES &nbsp;&nbsp;&nbsp; J = NO</p>
","f","html-keyboard-response","14","2.1.0","129989","F=YES, J=NO","pcgn2pqoff","1","66","83","50","","","","","","lextale","true","false","","","","","","","",""
"872","
  <p style=""font-size: 40px;"">flimsy</p>
  <p style=""font-size: 16px;"">F = YES &nbsp;&nbsp;&nbsp; J = NO</p>
","f","html-keyboard-response","15","2.1.0","130861","F=YES, J=NO","pcgn2pqoff","1","66","83","50","","","","","","lextale","true","false","","","","","","","",""
"539","
  <p style=""font-size: 40px;"">drain</p>
  <p style=""font-size: 16px;"">F = YES &nbsp;&nbsp;&nbsp; J = NO</p>
","f","html-keyboard-response","16","2.1.0","131401","F=YES, J=NO","pcgn2pqoff","1","66","83","50","","","","","","lextale","true","false","","","","","","","",""
"712","
  <p style=""font-size: 40px;"">twindle</p>
  <p style=""font-size: 16px;"">F = YES &nbsp;&nbsp;&nbsp; J = NO</p>
","f","html-keyboard-response","17","2.1.0","132113","F=YES, J=NO","pcgn2pqoff","1","66","83","50","","","","","","lextale","false","false","","","","","","","",""
"811","
  <p style=""font-size: 40px;"">propose</p>
  <p style=""font-size: 16px;"">F = YES &nbsp;&nbsp;&nbsp; J = NO</p>
","f","html-keyboard-response","18","2.1.0","132925","F=YES, J=NO","pcgn2pqoff","1","66","83","50","","","","","","lextale","true","false","","","","","","","",""
"2099","
  <p style=""font-size: 40px;"">forlay</p>
  <p style=""font-size: 16px;"">F = YES &nbsp;&nbsp;&nbsp; J = NO</p>
","f","html-keyboard-response","19","2.1.0","135025","F=YES, J=NO","pcgn2pqoff","1","66","83","50","","","","","","lextale","false","false","","","","","","","",""
"630","
  <p style=""font-size: 40px;"">tenant</p>
  <p style=""font-size: 16px;"">F = YES &nbsp;&nbsp;&nbsp; J = NO</p>
","f","html-keyboard-response","20","2.1.0","135656","F=YES, J=NO","pcgn2pqoff","1","66","83","50","","","","","","lextale","true","false","","","","","","","",""
"594","
  <p style=""font-size: 40px;"">strain</p>
  <p style=""font-size: 16px;"">F = YES &nbsp;&nbsp;&nbsp; J = NO</p>
","f","html-keyboard-response","21","2.1.0","136250","F=YES, J=NO","pcgn2pqoff","1","66","83","50","","","","","","lextale","true","false","","","","","","","",""
"657","
  <p style=""font-size: 40px;"">holster</p>
  <p style=""font-size: 16px;"">F = YES &nbsp;&nbsp;&nbsp; J = NO</p>
","f","html-keyboard-response","22","2.1.0","136908","F=YES, J=NO","pcgn2pqoff","1","66","83","50","","","","","","lextale","true","false","","","","","","","",""
"812","
  <p style=""font-size: 40px;"">hinder</p>
  <p style=""font-size: 16px;"">F = YES &nbsp;&nbsp;&nbsp; J = NO</p>
","f","html-keyboard-response","23","2.1.0","137721","F=YES, J=NO","pcgn2pqoff","1","66","83","50","","","","","","lextale","true","false","","","","","","","",""
"520","
  <p style=""font-size: 40px;"">swindle</p>
  <p style=""font-size: 16px;"">F = YES &nbsp;&nbsp;&nbsp; J = NO</p>
","f","html-keyboard-response","24","2.1.0","138241","F=YES, J=NO","pcgn2pqoff","1","66","83","50","","","","","","lextale","true","false","","","","","","","",""
"601","
  <p style=""font-size: 40px;"">nuder</p>
  <p style=""font-size: 16px;"">F = YES &nbsp;&nbsp;&nbsp; J = NO</p>
","f","html-keyboard-response","25","2.1.0","138842","F=YES, J=NO","pcgn2pqoff","1","66","83","50","","","","","","lextale","false","false","","","","","","","",""
"1085","
  <p style=""font-size: 40px;"">pillow</p>
  <p style=""font-size: 16px;"">F = YES &nbsp;&nbsp;&nbsp; J = NO</p>
","f","html-keyboard-response","26","2.1.0","139928","F=YES, J=NO","pcgn2pqoff","1","66","83","50","","","","","","lextale","true","false","","","","","","","",""
"819","
  <p style=""font-size: 40px;"">shumble</p>
  <p style=""font-size: 16px;"">F = YES &nbsp;&nbsp;&nbsp; J = NO</p>
","f","html-keyboard-response","27","2.1.0","140747","F=YES, J=NO","pcgn2pqoff","1","66","83","50","","","","","","lextale","false","false","","","","","","","",""
"750","
  <p style=""font-size: 40px;"">thirst</p>
  <p style=""font-size: 16px;"">F = YES &nbsp;&nbsp;&nbsp; J = NO</p>
","f","html-keyboard-response","28","2.1.0","141498","F=YES, J=NO","pcgn2pqoff","1","66","83","50","","","","","","lextale","true","false","","","","","","","",""
"2350","
  <p style=""font-size: 40px;"">unsail</p>
  <p style=""font-size: 16px;"">F = YES &nbsp;&nbsp;&nbsp; J = NO</p>
","j","html-keyboard-response","29","2.1.0","143848","F=YES, J=NO","pcgn2pqoff","1","66","83","50","","","","","","lextale","false","false","","","","","","","",""
"833","
  <p style=""font-size: 40px;"">rifle</p>
  <p style=""font-size: 16px;"">F = YES &nbsp;&nbsp;&nbsp; J = NO</p>
","f","html-keyboard-response","30","2.1.0","144682","F=YES, J=NO","pcgn2pqoff","1","66","83","50","","","","","","lextale","true","false","","","","","","","",""
"889","
  <p style=""font-size: 40px;"">mush</p>
  <p style=""font-size: 16px;"">F = YES &nbsp;&nbsp;&nbsp; J = NO</p>
","f","html-keyboard-response","31","2.1.0","145571","F=YES, J=NO","pcgn2pqoff","1","66","83","50","","","","","","lextale","false","false","","","","","","","",""
"700","
  <p style=""font-size: 40px;"">drench</p>
  <p style=""font-size: 16px;"">F = YES &nbsp;&nbsp;&nbsp; J = NO</p>
","f","html-keyboard-response","32","2.1.0","146272","F=YES, J=NO","pcgn2pqoff","1","66","83","50","","","","","","lextale","true","false","","","","","","","",""
"1191","
  <p style=""font-size: 40px;"">snirt</p>
  <p style=""font-size: 16px;"">F = YES &nbsp;&nbsp;&nbsp; J = NO</p>
","j","html-keyboard-response","33","2.1.0","147464","F=YES, J=NO","pcgn2pqoff","1","66","83","50","","","","","","lextale","false","false","","","","","","","",""
"561","
  <p style=""font-size: 40px;"">bitter</p>
  <p style=""font-size: 16px;"">F = YES &nbsp;&nbsp;&nbsp; J = NO</p>
","f","html-keyboard-response","34","2.1.0","148025","F=YES, J=NO","pcgn2pqoff","1","66","83","50","","","","","","lextale","true","false","","","","","","","",""
"851","
  <p style=""font-size: 40px;"">pliff</p>
  <p style=""font-size: 16px;"">F = YES &nbsp;&nbsp;&nbsp; J = NO</p>
","f","html-keyboard-response","35","2.1.0","148877","F=YES, J=NO","pcgn2pqoff","1","66","83","50","","","","","","lextale","false","false","","","","","","","",""
"627","
  <p style=""font-size: 40px;"">tablet</p>
  <p style=""font-size: 16px;"">F = YES &nbsp;&nbsp;&nbsp; J = NO</p>
","j","html-keyboard-response","36","2.1.0","149504","F=YES, J=NO","pcgn2pqoff","1","66","83","50","","","","","","lextale","true","false","","","","","","","",""
"2169","
  <p style=""font-size: 40px;"">glimmer</p>
  <p style=""font-size: 16px;"">F = YES &nbsp;&nbsp;&nbsp; J = NO</p>
","f","html-keyboard-response","37","2.1.0","151674","F=YES, J=NO","pcgn2pqoff","1","66","83","50","","","","","","lextale","true","false","","","","","","","",""
"1590","
  <p style=""font-size: 40px;"">slink</p>
  <p style=""font-size: 16px;"">F = YES &nbsp;&nbsp;&nbsp; J = NO</p>
","f","html-keyboard-response","38","2.1.0","153264","F=YES, J=NO","pcgn2pqoff","1","66","83","50","","","","","","lextale","true","false","","","","","","","",""
"547","
  <p style=""font-size: 40px;"">clever</p>
  <p style=""font-size: 16px;"">F = YES &nbsp;&nbsp;&nbsp; J = NO</p>
","f","html-keyboard-response","39","2.1.0","153812","F=YES, J=NO","pcgn2pqoff","1","66","83","50","","","","","","lextale","true","false","","","","","","","",""
"1291","
  <p style=""font-size: 40px;"">grum</p>
  <p style=""font-size: 16px;"">F = YES &nbsp;&nbsp;&nbsp; J = NO</p>
","j","html-keyboard-response","40","2.1.0","155103","F=YES, J=NO","pcgn2pqoff","1","66","83","50","","","","","","lextale","false","false","","","","","","","",""
"682","
  <p style=""font-size: 40px;"">string</p>
  <p style=""font-size: 16px;"">F = YES &nbsp;&nbsp;&nbsp; J = NO</p>
","f","html-keyboard-response","41","2.1.0","155785","F=YES, J=NO","pcgn2pqoff","1","66","83","50","","","","","","lextale","true","false","","","","","","","",""
"1908","
  <p style=""font-size: 40px;"">plim</p>
  <p style=""font-size: 16px;"">F = YES &nbsp;&nbsp;&nbsp; J = NO</p>
","j","html-keyboard-response","42","2.1.0","157694","F=YES, J=NO","pcgn2pqoff","1","66","83","50","","","","","","lextale","false","false","","","","","","","",""
"1935","
  <p style=""font-size: 40px;"">cable</p>
  <p style=""font-size: 16px;"">F = YES &nbsp;&nbsp;&nbsp; J = NO</p>
","f","html-keyboard-response","43","2.1.0","159630","F=YES, J=NO","pcgn2pqoff","1","66","83","50","","","","","","lextale","true","false","","","","","","","",""
"760","
  <p style=""font-size: 40px;"">shrivel</p>
  <p style=""font-size: 16px;"">F = YES &nbsp;&nbsp;&nbsp; J = NO</p>
","f","html-keyboard-response","44","2.1.0","160390","F=YES, J=NO","pcgn2pqoff","1","66","83","50","","","","","","lextale","true","false","","","","","","","",""
"714","
  <p style=""font-size: 40px;"">tarnish</p>
  <p style=""font-size: 16px;"">F = YES &nbsp;&nbsp;&nbsp; J = NO</p>
","f","html-keyboard-response","45","2.1.0","161105","F=YES, J=NO","pcgn2pqoff","1","66","83","50","","","","","","lextale","true","false","","","","","","","",""
"927","
  <p style=""font-size: 40px;"">blim</p>
  <p style=""font-size: 16px;"">F = YES &nbsp;&nbsp;&nbsp; J = NO</p>
","j","html-keyboard-response","46","2.1.0","162033","F=YES, J=NO","pcgn2pqoff","1","66","83","50","","","","","","lextale","false","false","","","","","","","",""
"833","
  <p style=""font-size: 40px;"">stifle</p>
  <p style=""font-size: 16px;"">F = YES &nbsp;&nbsp;&nbsp; J = NO</p>
","f","html-keyboard-response","47","2.1.0","162866","F=YES, J=NO","pcgn2pqoff","1","66","83","50","","","","","","lextale","true","false","","","","","","","",""
"2768","
  <p style=""font-size: 40px;"">bint</p>
  <p style=""font-size: 16px;"">F = YES &nbsp;&nbsp;&nbsp; J = NO</p>
","j","html-keyboard-response","48","2.1.0","165634","F=YES, J=NO","pcgn2pqoff","1","66","83","50","","","","","","lextale","false","false","","","","","","","",""
"624","
  <p style=""font-size: 40px;"">purple</p>
  <p style=""font-size: 16px;"">F = YES &nbsp;&nbsp;&nbsp; J = NO</p>
","f","html-keyboard-response","49","2.1.0","166259","F=YES, J=NO","pcgn2pqoff","1","66","83","50","","","","","","lextale","true","false","","","","","","","",""
"723","
  <p style=""font-size: 40px;"">wriggle</p>
  <p style=""font-size: 16px;"">F = YES &nbsp;&nbsp;&nbsp; J = NO</p>
","f","html-keyboard-response","50","2.1.0","166983","F=YES, J=NO","pcgn2pqoff","1","66","83","50","","","","","","lextale","true","false","","","","","","","",""
"1156","
  <p style=""font-size: 40px;"">mangle</p>
  <p style=""font-size: 16px;"">F = YES &nbsp;&nbsp;&nbsp; J = NO</p>
","f","html-keyboard-response","51","2.1.0","168139","F=YES, J=NO","pcgn2pqoff","1","66","83","50","","","","","","lextale","true","false","","","","","","","",""
"631","
  <p style=""font-size: 40px;"">shramp</p>
  <p style=""font-size: 16px;"">F = YES &nbsp;&nbsp;&nbsp; J = NO</p>
","f","html-keyboard-response","52","2.1.0","168771","F=YES, J=NO","pcgn2pqoff","1","66","83","50","","","","","","lextale","false","false","","","","","","","",""
"1426","
  <p style=""font-size: 40px;"">flirt</p>
  <p style=""font-size: 16px;"">F = YES &nbsp;&nbsp;&nbsp; J = NO</p>
","f","html-keyboard-response","53","2.1.0","170198","F=YES, J=NO","pcgn2pqoff","1","66","83","50","","","","","","lextale","true","false","","","","","","","",""
"1043","
  <p style=""font-size: 40px;"">frip</p>
  <p style=""font-size: 16px;"">F = YES &nbsp;&nbsp;&nbsp; J = NO</p>
","j","html-keyboard-response","54","2.1.0","171241","F=YES, J=NO","pcgn2pqoff","1","66","83","50","","","","","","lextale","false","false","","","","","","","",""
"831","
  <p style=""font-size: 40px;"">tangle</p>
  <p style=""font-size: 16px;"">F = YES &nbsp;&nbsp;&nbsp; J = NO</p>
","f","html-keyboard-response","55","2.1.0","172073","F=YES, J=NO","pcgn2pqoff","1","66","83","50","","","","","","lextale","true","false","","","","","","","",""
"608","
  <p style=""font-size: 40px;"">crumble</p>
  <p style=""font-size: 16px;"">F = YES &nbsp;&nbsp;&nbsp; J = NO</p>
","f","html-keyboard-response","56","2.1.0","172681","F=YES, J=NO","pcgn2pqoff","1","66","83","50","","","","","","lextale","true","false","","","","","","","",""
"602","
  <p style=""font-size: 40px;"">wrinkle</p>
  <p style=""font-size: 16px;"">F = YES &nbsp;&nbsp;&nbsp; J = NO</p>
","f","html-keyboard-response","57","2.1.0","173284","F=YES, J=NO","pcgn2pqoff","1","66","83","50","","","","","","lextale","true","false","","","","","","","",""
"2584","
  <p style=""font-size: 40px;"">slumb</p>
  <p style=""font-size: 16px;"">F = YES &nbsp;&nbsp;&nbsp; J = NO</p>
","j","html-keyboard-response","58","2.1.0","175868","F=YES, J=NO","pcgn2pqoff","1","66","83","50","","","","","","lextale","false","false","","","","","","","",""
"617","
  <p style=""font-size: 40px;"">jungle</p>
  <p style=""font-size: 16px;"">F = YES &nbsp;&nbsp;&nbsp; J = NO</p>
","f","html-keyboard-response","59","2.1.0","176486","F=YES, J=NO","pcgn2pqoff","1","66","83","50","","","","","","lextale","true","false","","","","","","","",""
"790","
  <p style=""font-size: 40px;"">frolick</p>
  <p style=""font-size: 16px;"">F = YES &nbsp;&nbsp;&nbsp; J = NO</p>
","f","html-keyboard-response","60","2.1.0","177276","F=YES, J=NO","pcgn2pqoff","1","66","83","50","","","","","","lextale","false","false","","","","","","","",""
"4799","
      <h2>LexTALE Test Completed</h2>
      <p>Your LexTALE vocabulary score is: <strong>66%</strong></p>
      <p>Press any key to continue.</p>
    ","f","html-keyboard-response","61","2.1.0","182076","F=YES, J=NO","pcgn2pqoff","1","66","83","50","","","","","","","","","","","","","","","",""
"25525","
    <div style=""max-width: 800px; margin: auto; text-align: left;"">
      <h2>Break Time</h2>
      <p>You have completed the first part of the study.</p>
      <p>You may take a short <strong>30-second break</strong> before continuing.</p>
      <p>When you’re ready, press any key to continue to the final task.</p>
    </div>
  ","f","html-keyboard-response","62","2.1.0","207601","F=YES, J=NO","pcgn2pqoff","1","66","83","50","","","","","","","","","","","","","","","",""
"15663","
    <div style=""max-width: 800px; margin: auto; text-align: left;"">
      <h2>Part 2: Lexical Decision Task</h2>
      <p>You will now begin the second part of the study.</p>
      <p>Each trial will follow this sequence:</p>
      <ul>
        <li>A fixation cross (+) appears at the center of the screen.</li>
        <li>You will hear a short beep followed by a spoken word.</li>
        <li>A written word will appear briefly on the screen.</li>
      </ul>
      <p>Your task is to judge whether the <strong>written word</strong> is a real English word.</p>
      <p style=""margin-top: 1em;""><strong>Key responses:</strong></p>
      <ul>
        <li><strong>F</strong> = YES (real English word)</li>
        <li><strong>J</strong> = NO (not a real English word)</li>
      </ul>
      <p>Please respond as quickly and accurately as you can.</p>
      <p style=""margin-top: 2em;"">Press any key to continue.</p>
    </div>
  ","f","html-keyboard-response","63","2.1.0","223265","F=YES, J=NO","pcgn2pqoff","1","66","83","50","","","","","","","","","","","","","","","",""
"3053","
    <div style=""max-width: 800px; margin: auto; text-align: left;"">
      <h2>Before You Begin</h2>
      <p>Make sure your sound is turned on.</p>
      <p>You will hear audio during each trial, but your decision should be based only on the <strong>written word</strong> you see on the screen.</p>
      <p><strong>Reminder:</strong></p>
      <ul>
        <li><strong>F</strong> = YES (real English word)</li>
        <li><strong>J</strong> = NO (not a real English word)</li>
      </ul>
      <p style=""margin-top: 2em;"">Press any key when you are ready to begin.</p>
    </div>
  ","AudioVolumeUp","html-keyboard-response","64","2.1.0","226319","F=YES, J=NO","pcgn2pqoff","1","66","83","50","","","","","","","","","","","","","","","",""
"207","
    <div style=""max-width: 800px; margin: auto; text-align: left;"">
      <h2>Part 2: Practice Trials</h2>
      <p>You will now complete a few <strong>practice trials</strong> to get familiar with the task.</p>
      <p>These trials are <strong>not scored</strong> and are only to help you get used to the format.</p>
      <p style=""margin-top: 2em;"">Press any key to begin.</p>
    </div>
  ","AudioVolumeUp","html-keyboard-response","65","2.1.0","226527","F=YES, J=NO","pcgn2pqoff","1","66","83","50","","","","","","","","","","","","","","","",""
"5149","<p>Starting practice block 1 of 2. Press any key to continue.</p>","f","html-keyboard-response","66","2.1.0","231675","F=YES, J=NO","pcgn2pqoff","1","66","83","50","","","","","","","","","","","","","","","",""
"null","<p style=""font-size: 50px;"">+</p>","null","html-keyboard-response","67","2.1.0","231979","F=YES, J=NO","pcgn2pqoff","1","66","83","50","","","","","","","","","","","","","","","",""
"null","audio/beep-329314.mp3","null","audio-keyboard-response","68","2.1.0","233623","F=YES, J=NO","pcgn2pqoff","1","66","83","50","","","","","","","","","","","","","","","",""
"null","audio/gossip1.wav","null","audio-keyboard-response","69","2.1.0","234305","F=YES, J=NO","pcgn2pqoff","1","66","83","50","","","","","","","","","","","","","","","",""
"null","
          <p id=""word"" style=""font-size: 40px;"">camerish</p>
          <p style=""font-size: 16px;"">F = YES &nbsp;&nbsp;&nbsp; J = NO</p>
        ","null","html-keyboard-response","70","2.1.0","235815","F=YES, J=NO","pcgn2pqoff","1","66","83","50","","","","","","","","","camerish","gossip1","pseudoword","pseudoword","j","false","",""
"null","<p style=""font-size: 50px;"">+</p>","null","html-keyboard-response","71","2.1.0","236128","F=YES, J=NO","pcgn2pqoff","1","66","83","50","","","","","","","","","","","","","","","",""
"null","audio/beep-329314.mp3","null","audio-keyboard-response","72","2.1.0","237655","F=YES, J=NO","pcgn2pqoff","1","66","83","50","","","","","","","","","","","","","","","",""
"null","audio/foot1.wav","null","audio-keyboard-response","73","2.1.0","238252","F=YES, J=NO","pcgn2pqoff","1","66","83","50","","","","","","","","","","","","","","","",""
"639","
          <p id=""word"" style=""font-size: 40px;"">thrutt</p>
          <p style=""font-size: 16px;"">F = YES &nbsp;&nbsp;&nbsp; J = NO</p>
        ","j","html-keyboard-response","74","2.1.0","238892","F=YES, J=NO","pcgn2pqoff","1","66","83","50","","","","","","","","","thrutt","foot1","pseudoword","pseudoword","j","true","",""
"null","<p style=""font-size: 50px;"">+</p>","null","html-keyboard-response","75","2.1.0","239195","F=YES, J=NO","pcgn2pqoff","1","66","83","50","","","","","","","","","","","","","","","",""
"null","audio/beep-329314.mp3","null","audio-keyboard-response","76","2.1.0","240727","F=YES, J=NO","pcgn2pqoff","1","66","83","50","","","","","","","","","","","","","","","",""
"null","audio/burden.wav","null","audio-keyboard-response","77","2.1.0","241325","F=YES, J=NO","pcgn2pqoff","1","66","83","50","","","","","","","","","","","","","","","",""
"599","
          <p id=""word"" style=""font-size: 40px;"">whotth</p>
          <p style=""font-size: 16px;"">F = YES &nbsp;&nbsp;&nbsp; J = NO</p>
        ","j","html-keyboard-response","78","2.1.0","241924","F=YES, J=NO","pcgn2pqoff","1","66","83","50","","","","","","","","","whotth","burden","pseudoword","pseudoword","j","true","",""
"null","<p style=""font-size: 50px;"">+</p>","null","html-keyboard-response","79","2.1.0","242239","F=YES, J=NO","pcgn2pqoff","1","66","83","50","","","","","","","","","","","","","","","",""
"null","audio/beep-329314.mp3","null","audio-keyboard-response","80","2.1.0","243756","F=YES, J=NO","pcgn2pqoff","1","66","83","50","","","","","","","","","","","","","","","",""
"null","audio/truth1.wav","null","audio-keyboard-response","81","2.1.0","244311","F=YES, J=NO","pcgn2pqoff","1","66","83","50","","","","","","","","","","","","","","","",""
"498","
          <p id=""word"" style=""font-size: 40px;"">calitom</p>
          <p style=""font-size: 16px;"">F = YES &nbsp;&nbsp;&nbsp; J = NO</p>
        ","j","html-keyboard-response","82","2.1.0","244809","F=YES, J=NO","pcgn2pqoff","1","66","83","50","","","","","","","","","calitom","truth1","pseudoword","pseudoword","j","true","",""
"null","<p style=""font-size: 50px;"">+</p>","null","html-keyboard-response","83","2.1.0","245121","F=YES, J=NO","pcgn2pqoff","1","66","83","50","","","","","","","","","","","","","","","",""
"null","audio/beep-329314.mp3","null","audio-keyboard-response","84","2.1.0","246658","F=YES, J=NO","pcgn2pqoff","1","66","83","50","","","","","","","","","","","","","","","",""
"null","audio/key1.wav","null","audio-keyboard-response","85","2.1.0","247042","F=YES, J=NO","pcgn2pqoff","1","66","83","50","","","","","","","","","","","","","","","",""
"430","
          <p id=""word"" style=""font-size: 40px;"">sminsh</p>
          <p style=""font-size: 16px;"">F = YES &nbsp;&nbsp;&nbsp; J = NO</p>
        ","j","html-keyboard-response","86","2.1.0","247473","F=YES, J=NO","pcgn2pqoff","1","66","83","50","","","","","","","","","sminsh","key1","pseudoword","pseudoword","j","true","",""
"null","<p style=""font-size: 50px;"">+</p>","null","html-keyboard-response","87","2.1.0","247776","F=YES, J=NO","pcgn2pqoff","1","66","83","50","","","","","","","","","","","","","","","",""
"null","audio/beep-329314.mp3","null","audio-keyboard-response","88","2.1.0","249303","F=YES, J=NO","pcgn2pqoff","1","66","83","50","","","","","","","","","","","","","","","",""
"null","audio/baby.wav","null","audio-keyboard-response","89","2.1.0","249944","F=YES, J=NO","pcgn2pqoff","1","66","83","50","","","","","","","","","","","","","","","",""
"465","
          <p id=""word"" style=""font-size: 40px;"">lift</p>
          <p style=""font-size: 16px;"">F = YES &nbsp;&nbsp;&nbsp; J = NO</p>
        ","j","html-keyboard-response","90","2.1.0","250409","F=YES, J=NO","pcgn2pqoff","1","66","83","50","","","","","","","","","lift","baby","filler","filler","f","false","",""
"null","<p style=""font-size: 50px;"">+</p>","null","html-keyboard-response","91","2.1.0","250712","F=YES, J=NO","pcgn2pqoff","1","66","83","50","","","","","","","","","","","","","","","",""
"null","audio/beep-329314.mp3","null","audio-keyboard-response","92","2.1.0","252247","F=YES, J=NO","pcgn2pqoff","1","66","83","50","","","","","","","","","","","","","","","",""
"null","audio/heart1.wav","null","audio-keyboard-response","93","2.1.0","252908","F=YES, J=NO","pcgn2pqoff","1","66","83","50","","","","","","","","","","","","","","","",""
"897","
          <p id=""word"" style=""font-size: 40px;"">dralm</p>
          <p style=""font-size: 16px;"">F = YES &nbsp;&nbsp;&nbsp; J = NO</p>
        ","j","html-keyboard-response","94","2.1.0","253805","F=YES, J=NO","pcgn2pqoff","1","66","83","50","","","","","","","","","dralm","heart1","pseudoword","pseudoword","j","true","",""
"null","<p style=""font-size: 50px;"">+</p>","null","html-keyboard-response","95","2.1.0","254118","F=YES, J=NO","pcgn2pqoff","1","66","83","50","","","","","","","","","","","","","","","",""
"null","audio/beep-329314.mp3","null","audio-keyboard-response","96","2.1.0","255639","F=YES, J=NO","pcgn2pqoff","1","66","83","50","","","","","","","","","","","","","","","",""
"null","audio/butter1.wav","null","audio-keyboard-response","97","2.1.0","256130","F=YES, J=NO","pcgn2pqoff","1","66","83","50","","","","","","","","","","","","","","","",""
"692","
          <p id=""word"" style=""font-size: 40px;"">chew</p>
          <p style=""font-size: 16px;"">F = YES &nbsp;&nbsp;&nbsp; J = NO</p>
        ","f","html-keyboard-response","98","2.1.0","256823","F=YES, J=NO","pcgn2pqoff","1","66","83","50","","","","","","","","","chew","butter1","filler","filler","f","true","",""
"null","<p style=""font-size: 50px;"">+</p>","null","html-keyboard-response","99","2.1.0","257133","F=YES, J=NO","pcgn2pqoff","1","66","83","50","","","","","","","","","","","","","","","",""
"null","audio/beep-329314.mp3","null","audio-keyboard-response","100","2.1.0","258669","F=YES, J=NO","pcgn2pqoff","1","66","83","50","","","","","","","","","","","","","","","",""
"null","audio/ankle1.wav","null","audio-keyboard-response","101","2.1.0","259330","F=YES, J=NO","pcgn2pqoff","1","66","83","50","","","","","","","","","","","","","","","",""
"606","
          <p id=""word"" style=""font-size: 40px;"">kick</p>
          <p style=""font-size: 16px;"">F = YES &nbsp;&nbsp;&nbsp; J = NO</p>
        ","f","html-keyboard-response","102","2.1.0","259937","F=YES, J=NO","pcgn2pqoff","1","66","83","50","","","","","","","","","kick","ankle1","filler","filler","f","true","",""
"null","<p style=""font-size: 50px;"">+</p>","null","html-keyboard-response","103","2.1.0","260245","F=YES, J=NO","pcgn2pqoff","1","66","83","50","","","","","","","","","","","","","","","",""
"null","audio/beep-329314.mp3","null","audio-keyboard-response","104","2.1.0","261762","F=YES, J=NO","pcgn2pqoff","1","66","83","50","","","","","","","","","","","","","","","",""
"null","audio/beach1.wav","null","audio-keyboard-response","105","2.1.0","262402","F=YES, J=NO","pcgn2pqoff","1","66","83","50","","","","","","","","","","","","","","","",""
"471","
          <p id=""word"" style=""font-size: 40px;"">drive</p>
          <p style=""font-size: 16px;"">F = YES &nbsp;&nbsp;&nbsp; J = NO</p>
        ","f","html-keyboard-response","106","2.1.0","262874","F=YES, J=NO","pcgn2pqoff","1","66","83","50","","","","","","","","","drive","beach1","filler","filler","f","true","",""
"null","<p style=""font-size: 50px;"">+</p>","null","html-keyboard-response","107","2.1.0","263177","F=YES, J=NO","pcgn2pqoff","1","66","83","50","","","","","","","","","","","","","","","",""
"null","audio/beep-329314.mp3","null","audio-keyboard-response","108","2.1.0","264706","F=YES, J=NO","pcgn2pqoff","1","66","83","50","","","","","","","","","","","","","","","",""
"null","audio/empire.wav","null","audio-keyboard-response","109","2.1.0","265389","F=YES, J=NO","pcgn2pqoff","1","66","83","50","","","","","","","","","","","","","","","",""
"706","
          <p id=""word"" style=""font-size: 40px;"">slorby</p>
          <p style=""font-size: 16px;"">F = YES &nbsp;&nbsp;&nbsp; J = NO</p>
        ","j","html-keyboard-response","110","2.1.0","266095","F=YES, J=NO","pcgn2pqoff","1","66","83","50","","","","","","","","","slorby","empire","pseudoword","pseudoword","j","true","",""
"null","<p style=""font-size: 50px;"">+</p>","null","html-keyboard-response","111","2.1.0","266411","F=YES, J=NO","pcgn2pqoff","1","66","83","50","","","","","","","","","","","","","","","",""
"null","audio/beep-329314.mp3","null","audio-keyboard-response","112","2.1.0","267928","F=YES, J=NO","pcgn2pqoff","1","66","83","50","","","","","","","","","","","","","","","",""
"null","audio/bottle.wav","null","audio-keyboard-response","113","2.1.0","268546","F=YES, J=NO","pcgn2pqoff","1","66","83","50","","","","","","","","","","","","","","","",""
"535","
          <p id=""word"" style=""font-size: 40px;"">watch</p>
          <p style=""font-size: 16px;"">F = YES &nbsp;&nbsp;&nbsp; J = NO</p>
        ","f","html-keyboard-response","114","2.1.0","269082","F=YES, J=NO","pcgn2pqoff","1","66","83","50","","","","","","","","","watch","bottle","filler","filler","f","true","",""
"2057","<p>Starting practice block 2 of 2. Press any key to continue.</p>","f","html-keyboard-response","115","2.1.0","271140","F=YES, J=NO","pcgn2pqoff","1","66","83","50","","","","","","","","","","","","","","","",""
"null","<p style=""font-size: 50px;"">+</p>","null","html-keyboard-response","116","2.1.0","271455","F=YES, J=NO","pcgn2pqoff","1","66","83","50","","","","","","","","","","","","","","","",""
"null","audio/beep-329314.mp3","null","audio-keyboard-response","117","2.1.0","272984","F=YES, J=NO","pcgn2pqoff","1","66","83","50","","","","","","","","","","","","","","","",""
"null","audio/birth1.wav","null","audio-keyboard-response","118","2.1.0","273666","F=YES, J=NO","pcgn2pqoff","1","66","83","50","","","","","","","","","","","","","","","",""
"728","
          <p id=""word"" style=""font-size: 40px;"">peel</p>
          <p style=""font-size: 16px;"">F = YES &nbsp;&nbsp;&nbsp; J = NO</p>
        ","f","html-keyboard-response","119","2.1.0","274395","F=YES, J=NO","pcgn2pqoff","1","66","83","50","","","","","","","","","peel","birth1","filler","filler","f","true","",""
"null","<p style=""font-size: 50px;"">+</p>","null","html-keyboard-response","120","2.1.0","274705","F=YES, J=NO","pcgn2pqoff","1","66","83","50","","","","","","","","","","","","","","","",""
"null","audio/beep-329314.mp3","null","audio-keyboard-response","121","2.1.0","276227","F=YES, J=NO","pcgn2pqoff","1","66","83","50","","","","","","","","","","","","","","","",""
"null","audio/floor.wav","null","audio-keyboard-response","122","2.1.0","276781","F=YES, J=NO","pcgn2pqoff","1","66","83","50","","","","","","","","","","","","","","","",""
"519","
          <p id=""word"" style=""font-size: 40px;"">mop</p>
          <p style=""font-size: 16px;"">F = YES &nbsp;&nbsp;&nbsp; J = NO</p>
        ","f","html-keyboard-response","123","2.1.0","277301","F=YES, J=NO","pcgn2pqoff","1","66","83","50","","","","","","","","","mop","floor","filler","filler","f","true","",""
"null","<p style=""font-size: 50px;"">+</p>","null","html-keyboard-response","124","2.1.0","277603","F=YES, J=NO","pcgn2pqoff","1","66","83","50","","","","","","","","","","","","","","","",""
"null","audio/beep-329314.mp3","null","audio-keyboard-response","125","2.1.0","279128","F=YES, J=NO","pcgn2pqoff","1","66","83","50","","","","","","","","","","","","","","","",""
"null","audio/sand.wav","null","audio-keyboard-response","126","2.1.0","279918","F=YES, J=NO","pcgn2pqoff","1","66","83","50","","","","","","","","","","","","","","","",""
"801","
          <p id=""word"" style=""font-size: 40px;"">proted</p>
          <p style=""font-size: 16px;"">F = YES &nbsp;&nbsp;&nbsp; J = NO</p>
        ","j","html-keyboard-response","127","2.1.0","280720","F=YES, J=NO","pcgn2pqoff","1","66","83","50","","","","","","","","","proted","sand","pseudoword","pseudoword","j","true","",""
"null","<p style=""font-size: 50px;"">+</p>","null","html-keyboard-response","128","2.1.0","281022","F=YES, J=NO","pcgn2pqoff","1","66","83","50","","","","","","","","","","","","","","","",""
"null","audio/beep-329314.mp3","null","audio-keyboard-response","129","2.1.0","282542","F=YES, J=NO","pcgn2pqoff","1","66","83","50","","","","","","","","","","","","","","","",""
"null","audio/radio1.wav","null","audio-keyboard-response","130","2.1.0","283139","F=YES, J=NO","pcgn2pqoff","1","66","83","50","","","","","","","","","","","","","","","",""
"508","
          <p id=""word"" style=""font-size: 40px;"">blanter</p>
          <p style=""font-size: 16px;"">F = YES &nbsp;&nbsp;&nbsp; J = NO</p>
        ","f","html-keyboard-response","131","2.1.0","283648","F=YES, J=NO","pcgn2pqoff","1","66","83","50","","","","","","","","","blanter","radio1","pseudoword","pseudoword","j","false","",""
"null","<p style=""font-size: 50px;"">+</p>","null","html-keyboard-response","132","2.1.0","283961","F=YES, J=NO","pcgn2pqoff","1","66","83","50","","","","","","","","","","","","","","","",""
"null","audio/beep-329314.mp3","null","audio-keyboard-response","133","2.1.0","285486","F=YES, J=NO","pcgn2pqoff","1","66","83","50","","","","","","","","","","","","","","","",""
"null","audio/ego.wav","null","audio-keyboard-response","134","2.1.0","286083","F=YES, J=NO","pcgn2pqoff","1","66","83","50","","","","","","","","","","","","","","","",""
"833","
          <p id=""word"" style=""font-size: 40px;"">bruite</p>
          <p style=""font-size: 16px;"">F = YES &nbsp;&nbsp;&nbsp; J = NO</p>
        ","j","html-keyboard-response","135","2.1.0","286916","F=YES, J=NO","pcgn2pqoff","1","66","83","50","","","","","","","","","bruite","ego","pseudoword","pseudoword","j","true","",""
"null","<p style=""font-size: 50px;"">+</p>","null","html-keyboard-response","136","2.1.0","287223","F=YES, J=NO","pcgn2pqoff","1","66","83","50","","","","","","","","","","","","","","","",""
"null","audio/beep-329314.mp3","null","audio-keyboard-response","137","2.1.0","288750","F=YES, J=NO","pcgn2pqoff","1","66","83","50","","","","","","","","","","","","","","","",""
"null","audio/stain.wav","null","audio-keyboard-response","138","2.1.0","289539","F=YES, J=NO","pcgn2pqoff","1","66","83","50","","","","","","","","","","","","","","","",""
"853","
          <p id=""word"" style=""font-size: 40px;"">rumpsied</p>
          <p style=""font-size: 16px;"">F = YES &nbsp;&nbsp;&nbsp; J = NO</p>
        ","j","html-keyboard-response","139","2.1.0","290393","F=YES, J=NO","pcgn2pqoff","1","66","83","50","","","","","","","","","rumpsied","stain","pseudoword","pseudoword","j","true","",""
"null","<p style=""font-size: 50px;"">+</p>","null","html-keyboard-response","140","2.1.0","290696","F=YES, J=NO","pcgn2pqoff","1","66","83","50","","","","","","","","","","","","","","","",""
"null","audio/beep-329314.mp3","null","audio-keyboard-response","141","2.1.0","292227","F=YES, J=NO","pcgn2pqoff","1","66","83","50","","","","","","","","","","","","","","","",""
"null","audio/van1.wav","null","audio-keyboard-response","142","2.1.0","292761","F=YES, J=NO","pcgn2pqoff","1","66","83","50","","","","","","","","","","","","","","","",""
"544","
          <p id=""word"" style=""font-size: 40px;"">push</p>
          <p style=""font-size: 16px;"">F = YES &nbsp;&nbsp;&nbsp; J = NO</p>
        ","f","html-keyboard-response","143","2.1.0","293306","F=YES, J=NO","pcgn2pqoff","1","66","83","50","","","","","","","","","push","van1","filler","filler","f","true","",""
"null","<p style=""font-size: 50px;"">+</p>","null","html-keyboard-response","144","2.1.0","293610","F=YES, J=NO","pcgn2pqoff","1","66","83","50","","","","","","","","","","","","","","","",""
"null","audio/beep-329314.mp3","null","audio-keyboard-response","145","2.1.0","295128","F=YES, J=NO","pcgn2pqoff","1","66","83","50","","","","","","","","","","","","","","","",""
"null","audio/breath.wav","null","audio-keyboard-response","146","2.1.0","295832","F=YES, J=NO","pcgn2pqoff","1","66","83","50","","","","","","","","","","","","","","","",""
"595","
          <p id=""word"" style=""font-size: 40px;"">pack</p>
          <p style=""font-size: 16px;"">F = YES &nbsp;&nbsp;&nbsp; J = NO</p>
        ","f","html-keyboard-response","147","2.1.0","296428","F=YES, J=NO","pcgn2pqoff","1","66","83","50","","","","","","","","","pack","breath","filler","filler","f","true","",""
"null","<p style=""font-size: 50px;"">+</p>","null","html-keyboard-response","148","2.1.0","296738","F=YES, J=NO","pcgn2pqoff","1","66","83","50","","","","","","","","","","","","","","","",""
"null","audio/beep-329314.mp3","null","audio-keyboard-response","149","2.1.0","298265","F=YES, J=NO","pcgn2pqoff","1","66","83","50","","","","","","","","","","","","","","","",""
"null","audio/camera1.wav","null","audio-keyboard-response","150","2.1.0","298798","F=YES, J=NO","pcgn2pqoff","1","66","83","50","","","","","","","","","","","","","","","",""
"619","
          <p id=""word"" style=""font-size: 40px;"">stir</p>
          <p style=""font-size: 16px;"">F = YES &nbsp;&nbsp;&nbsp; J = NO</p>
        ","f","html-keyboard-response","151","2.1.0","299418","F=YES, J=NO","pcgn2pqoff","1","66","83","50","","","","","","","","","stir","camera1","filler","filler","f","true","",""
"null","<p style=""font-size: 50px;"">+</p>","null","html-keyboard-response","152","2.1.0","299729","F=YES, J=NO","pcgn2pqoff","1","66","83","50","","","","","","","","","","","","","","","",""
"null","audio/beep-329314.mp3","null","audio-keyboard-response","153","2.1.0","301252","F=YES, J=NO","pcgn2pqoff","1","66","83","50","","","","","","","","","","","","","","","",""
"null","audio/vehicle1.wav","null","audio-keyboard-response","154","2.1.0","301934","F=YES, J=NO","pcgn2pqoff","1","66","83","50","","","","","","","","","","","","","","","",""
"721","
          <p id=""word"" style=""font-size: 40px;"">dropt</p>
          <p style=""font-size: 16px;"">F = YES &nbsp;&nbsp;&nbsp; J = NO</p>
        ","j","html-keyboard-response","155","2.1.0","302656","F=YES, J=NO","pcgn2pqoff","1","66","83","50","","","","","","","","","dropt","vehicle1","pseudoword","pseudoword","j","true","",""
"null","<p style=""font-size: 50px;"">+</p>","null","html-keyboard-response","156","2.1.0","302965","F=YES, J=NO","pcgn2pqoff","1","66","83","50","","","","","","","","","","","","","","","",""
"null","audio/beep-329314.mp3","null","audio-keyboard-response","157","2.1.0","304494","F=YES, J=NO","pcgn2pqoff","1","66","83","50","","","","","","","","","","","","","","","",""
"null","audio/battle1.wav","null","audio-keyboard-response","158","2.1.0","305092","F=YES, J=NO","pcgn2pqoff","1","66","83","50","","","","","","","","","","","","","","","",""
"528","
          <p id=""word"" style=""font-size: 40px;"">boil</p>
          <p style=""font-size: 16px;"">F = YES &nbsp;&nbsp;&nbsp; J = NO</p>
        ","f","html-keyboard-response","159","2.1.0","305621","F=YES, J=NO","pcgn2pqoff","1","66","83","50","","","","","","","","","boil","battle1","filler","filler","f","true","",""
"null","<p style=""font-size: 50px;"">+</p>","null","html-keyboard-response","160","2.1.0","305930","F=YES, J=NO","pcgn2pqoff","1","66","83","50","","","","","","","","","","","","","","","",""
"null","audio/beep-329314.mp3","null","audio-keyboard-response","161","2.1.0","307460","F=YES, J=NO","pcgn2pqoff","1","66","83","50","","","","","","","","","","","","","","","",""
"null","audio/fence.wav","null","audio-keyboard-response","162","2.1.0","308142","F=YES, J=NO","pcgn2pqoff","1","66","83","50","","","","","","","","","","","","","","","",""
"573","
          <p id=""word"" style=""font-size: 40px;"">trim</p>
          <p style=""font-size: 16px;"">F = YES &nbsp;&nbsp;&nbsp; J = NO</p>
        ","f","html-keyboard-response","163","2.1.0","308716","F=YES, J=NO","pcgn2pqoff","1","66","83","50","","","","","","","","","trim","fence","filler","filler","f","true","",""
"16641","
    <div style=""max-width: 800px; margin: auto; text-align: left;"">
      <h2>Part 2: Main Trials</h2>
      <p>Great job on the practice trials!</p>
      <p>You will now begin the <strong>main set of trials</strong>.</p>
      <p>Remember your key assignments:</p>
      <ul>
        <li><strong>F</strong> = YES (real English word)</li>
        <li><strong>J</strong> = NO (not a real English word)</li>
      </ul>
      <p>Try to respond as <strong>quickly and accurately</strong> as possible.</p>
      <p style=""margin-top: 2em;"">Press any key to begin the main trials.</p>
    </div>
  ","f","html-keyboard-response","164","2.1.0","325358","F=YES, J=NO","pcgn2pqoff","1","66","83","50","","","","","","","","","","","","","","","",""
"2498","<p>Starting main block 1 of 8. Press any key to continue.</p>","f","html-keyboard-response","165","2.1.0","327857","F=YES, J=NO","pcgn2pqoff","1","66","83","50","","","","","","","","","","","","","","","",""
"null","<p style=""font-size: 50px;"">+</p>","null","html-keyboard-response","166","2.1.0","328160","F=YES, J=NO","pcgn2pqoff","1","66","83","50","","","","","","","","","","","","","","","",""
"null","audio/beep-329314.mp3","null","audio-keyboard-response","167","2.1.0","329742","F=YES, J=NO","pcgn2pqoff","1","66","83","50","","","","","","","","","","","","","","","",""
"null","audio/budget1.wav","null","audio-keyboard-response","168","2.1.0","330382","F=YES, J=NO","pcgn2pqoff","1","66","83","50","","","","","","","","","","","","","","","",""
"612","
          <p id=""word"" style=""font-size: 40px;"">cut</p>
          <p style=""font-size: 16px;"">F = YES &nbsp;&nbsp;&nbsp; J = NO</p>
        ","f","html-keyboard-response","169","2.1.0","330995","F=YES, J=NO","pcgn2pqoff","1","66","83","50","","","","","","","","","cut","budget1","metaphor","experimental","f","true","",""
"null","<p style=""font-size: 50px;"">+</p>","null","html-keyboard-response","170","2.1.0","331299","F=YES, J=NO","pcgn2pqoff","1","66","83","50","","","","","","","","","","","","","","","",""
"null","audio/beep-329314.mp3","null","audio-keyboard-response","171","2.1.0","332835","F=YES, J=NO","pcgn2pqoff","1","66","83","50","","","","","","","","","","","","","","","",""
"null","audio/relief.wav","null","audio-keyboard-response","172","2.1.0","333475","F=YES, J=NO","pcgn2pqoff","1","66","83","50","","","","","","","","","","","","","","","",""
"440","
          <p id=""word"" style=""font-size: 40px;"">bring</p>
          <p style=""font-size: 16px;"">F = YES &nbsp;&nbsp;&nbsp; J = NO</p>
        ","f","html-keyboard-response","173","2.1.0","333915","F=YES, J=NO","pcgn2pqoff","1","66","83","50","","","","","","","","","bring","relief","metaphor","experimental","f","true","",""
"null","<p style=""font-size: 50px;"">+</p>","null","html-keyboard-response","174","2.1.0","334229","F=YES, J=NO","pcgn2pqoff","1","66","83","50","","","","","","","","","","","","","","","",""
"null","audio/beep-329314.mp3","null","audio-keyboard-response","175","2.1.0","335758","F=YES, J=NO","pcgn2pqoff","1","66","83","50","","","","","","","","","","","","","","","",""
"null","audio/sugar1.wav","null","audio-keyboard-response","176","2.1.0","336228","F=YES, J=NO","pcgn2pqoff","1","66","83","50","","","","","","","","","","","","","","","",""
"523","
          <p id=""word"" style=""font-size: 40px;"">approach</p>
          <p style=""font-size: 16px;"">F = YES &nbsp;&nbsp;&nbsp; J = NO</p>
        ","f","html-keyboard-response","177","2.1.0","336751","F=YES, J=NO","pcgn2pqoff","1","66","83","50","","","","","","","","","approach","sugar1","unrelated","experimental","f","true","",""
"null","<p style=""font-size: 50px;"">+</p>","null","html-keyboard-response","178","2.1.0","337066","F=YES, J=NO","pcgn2pqoff","1","66","83","50","","","","","","","","","","","","","","","",""
"null","audio/beep-329314.mp3","null","audio-keyboard-response","179","2.1.0","338595","F=YES, J=NO","pcgn2pqoff","1","66","83","50","","","","","","","","","","","","","","","",""
"null","audio/mouth1.wav","null","audio-keyboard-response","180","2.1.0","339214","F=YES, J=NO","pcgn2pqoff","1","66","83","50","","","","","","","","","","","","","","","",""
"635","
          <p id=""word"" style=""font-size: 40px;"">spolial</p>
          <p style=""font-size: 16px;"">F = YES &nbsp;&nbsp;&nbsp; J = NO</p>
        ","j","html-keyboard-response","181","2.1.0","339850","F=YES, J=NO","pcgn2pqoff","1","66","83","50","","","","","","","","","spolial","mouth1","pseudoword","pseudoword","j","true","",""
"null","<p style=""font-size: 50px;"">+</p>","null","html-keyboard-response","182","2.1.0","340153","F=YES, J=NO","pcgn2pqoff","1","66","83","50","","","","","","","","","","","","","","","",""
"null","audio/beep-329314.mp3","null","audio-keyboard-response","183","2.1.0","341689","F=YES, J=NO","pcgn2pqoff","1","66","83","50","","","","","","","","","","","","","","","",""
"null","audio/window1.wav","null","audio-keyboard-response","184","2.1.0","342350","F=YES, J=NO","pcgn2pqoff","1","66","83","50","","","","","","","","","","","","","","","",""
"401","
          <p id=""word"" style=""font-size: 40px;"">toss</p>
          <p style=""font-size: 16px;"">F = YES &nbsp;&nbsp;&nbsp; J = NO</p>
        ","f","html-keyboard-response","185","2.1.0","342752","F=YES, J=NO","pcgn2pqoff","1","66","83","50","","","","","","","","","toss","window1","filler","filler","f","true","",""
"null","<p style=""font-size: 50px;"">+</p>","null","html-keyboard-response","186","2.1.0","343067","F=YES, J=NO","pcgn2pqoff","1","66","83","50","","","","","","","","","","","","","","","",""
"null","audio/beep-329314.mp3","null","audio-keyboard-response","187","2.1.0","344590","F=YES, J=NO","pcgn2pqoff","1","66","83","50","","","","","","","","","","","","","","","",""
"null","audio/gift1.wav","null","audio-keyboard-response","188","2.1.0","345059","F=YES, J=NO","pcgn2pqoff","1","66","83","50","","","","","","","","","","","","","","","",""
"488","
          <p id=""word"" style=""font-size: 40px;"">give</p>
          <p style=""font-size: 16px;"">F = YES &nbsp;&nbsp;&nbsp; J = NO</p>
        ","f","html-keyboard-response","189","2.1.0","345548","F=YES, J=NO","pcgn2pqoff","1","66","83","50","","","","","","","","","give","gift1","literal","experimental","f","true","",""
"null","<p style=""font-size: 50px;"">+</p>","null","html-keyboard-response","190","2.1.0","345852","F=YES, J=NO","pcgn2pqoff","1","66","83","50","","","","","","","","","","","","","","","",""
"null","audio/beep-329314.mp3","null","audio-keyboard-response","191","2.1.0","347385","F=YES, J=NO","pcgn2pqoff","1","66","83","50","","","","","","","","","","","","","","","",""
"null","audio/corpse1.wav","null","audio-keyboard-response","192","2.1.0","348068","F=YES, J=NO","pcgn2pqoff","1","66","83","50","","","","","","","","","","","","","","","",""
"680","
          <p id=""word"" style=""font-size: 40px;"">glonet</p>
          <p style=""font-size: 16px;"">F = YES &nbsp;&nbsp;&nbsp; J = NO</p>
        ","j","html-keyboard-response","193","2.1.0","348748","F=YES, J=NO","pcgn2pqoff","1","66","83","50","","","","","","","","","glonet","corpse1","pseudoword","pseudoword","j","true","",""
"null","<p style=""font-size: 50px;"">+</p>","null","html-keyboard-response","194","2.1.0","349062","F=YES, J=NO","pcgn2pqoff","1","66","83","50","","","","","","","","","","","","","","","",""
"null","audio/beep-329314.mp3","null","audio-keyboard-response","195","2.1.0","350585","F=YES, J=NO","pcgn2pqoff","1","66","83","50","","","","","","","","","","","","","","","",""
"null","audio/cash1.wav","null","audio-keyboard-response","196","2.1.0","351182","F=YES, J=NO","pcgn2pqoff","1","66","83","50","","","","","","","","","","","","","","","",""
"792","
          <p id=""word"" style=""font-size: 40px;"">splear</p>
          <p style=""font-size: 16px;"">F = YES &nbsp;&nbsp;&nbsp; J = NO</p>
        ","j","html-keyboard-response","197","2.1.0","351975","F=YES, J=NO","pcgn2pqoff","1","66","83","50","","","","","","","","","splear","cash1","pseudoword","pseudoword","j","true","",""
"null","<p style=""font-size: 50px;"">+</p>","null","html-keyboard-response","198","2.1.0","352288","F=YES, J=NO","pcgn2pqoff","1","66","83","50","","","","","","","","","","","","","","","",""
"null","audio/beep-329314.mp3","null","audio-keyboard-response","199","2.1.0","353807","F=YES, J=NO","pcgn2pqoff","1","66","83","50","","","","","","","","","","","","","","","",""
"null","audio/kettle1.wav","null","audio-keyboard-response","200","2.1.0","354425","F=YES, J=NO","pcgn2pqoff","1","66","83","50","","","","","","","","","","","","","","","",""
"529","
          <p id=""word"" style=""font-size: 40px;"">wrap</p>
          <p style=""font-size: 16px;"">F = YES &nbsp;&nbsp;&nbsp; J = NO</p>
        ","f","html-keyboard-response","201","2.1.0","354955","F=YES, J=NO","pcgn2pqoff","1","66","83","50","","","","","","","","","wrap","kettle1","filler","filler","f","true","",""
"null","<p style=""font-size: 50px;"">+</p>","null","html-keyboard-response","202","2.1.0","355270","F=YES, J=NO","pcgn2pqoff","1","66","83","50","","","","","","","","","","","","","","","",""
"null","audio/beep-329314.mp3","null","audio-keyboard-response","203","2.1.0","356793","F=YES, J=NO","pcgn2pqoff","1","66","83","50","","","","","","","","","","","","","","","",""
"null","audio/bush1.wav","null","audio-keyboard-response","204","2.1.0","357262","F=YES, J=NO","pcgn2pqoff","1","66","83","50","","","","","","","","","","","","","","","",""
"816","
          <p id=""word"" style=""font-size: 40px;"">platined</p>
          <p style=""font-size: 16px;"">F = YES &nbsp;&nbsp;&nbsp; J = NO</p>
        ","j","html-keyboard-response","205","2.1.0","358079","F=YES, J=NO","pcgn2pqoff","1","66","83","50","","","","","","","","","platined","bush1","pseudoword","pseudoword","j","true","",""
"null","<p style=""font-size: 50px;"">+</p>","null","html-keyboard-response","206","2.1.0","358389","F=YES, J=NO","pcgn2pqoff","1","66","83","50","","","","","","","","","","","","","","","",""
"null","audio/beep-329314.mp3","null","audio-keyboard-response","207","2.1.0","359908","F=YES, J=NO","pcgn2pqoff","1","66","83","50","","","","","","","","","","","","","","","",""
"null","audio/essence1.wav","null","audio-keyboard-response","208","2.1.0","360719","F=YES, J=NO","pcgn2pqoff","1","66","83","50","","","","","","","","","","","","","","","",""
"572","
          <p id=""word"" style=""font-size: 40px;"">grasp</p>
          <p style=""font-size: 16px;"">F = YES &nbsp;&nbsp;&nbsp; J = NO</p>
        ","f","html-keyboard-response","209","2.1.0","361292","F=YES, J=NO","pcgn2pqoff","1","66","83","50","","","","","","","","","grasp","essence1","metaphor","experimental","f","true","",""
"null","<p style=""font-size: 50px;"">+</p>","null","html-keyboard-response","210","2.1.0","361601","F=YES, J=NO","pcgn2pqoff","1","66","83","50","","","","","","","","","","","","","","","",""
"null","audio/beep-329314.mp3","null","audio-keyboard-response","211","2.1.0","363130","F=YES, J=NO","pcgn2pqoff","1","66","83","50","","","","","","","","","","","","","","","",""
"null","audio/sugar1.wav","null","audio-keyboard-response","212","2.1.0","363599","F=YES, J=NO","pcgn2pqoff","1","66","83","50","","","","","","","","","","","","","","","",""
"770","
          <p id=""word"" style=""font-size: 40px;"">glung</p>
          <p style=""font-size: 16px;"">F = YES &nbsp;&nbsp;&nbsp; J = NO</p>
        ","j","html-keyboard-response","213","2.1.0","364370","F=YES, J=NO","pcgn2pqoff","1","66","83","50","","","","","","","","","glung","sugar1","pseudoword","pseudoword","j","true","",""
"null","<p style=""font-size: 50px;"">+</p>","null","html-keyboard-response","214","2.1.0","364673","F=YES, J=NO","pcgn2pqoff","1","66","83","50","","","","","","","","","","","","","","","",""
"null","audio/beep-329314.mp3","null","audio-keyboard-response","215","2.1.0","366202","F=YES, J=NO","pcgn2pqoff","1","66","83","50","","","","","","","","","","","","","","","",""
"null","audio/dollar.wav","null","audio-keyboard-response","216","2.1.0","366586","F=YES, J=NO","pcgn2pqoff","1","66","83","50","","","","","","","","","","","","","","","",""
"746","
          <p id=""word"" style=""font-size: 40px;"">gliptism</p>
          <p style=""font-size: 16px;"">F = YES &nbsp;&nbsp;&nbsp; J = NO</p>
        ","j","html-keyboard-response","217","2.1.0","367332","F=YES, J=NO","pcgn2pqoff","1","66","83","50","","","","","","","","","gliptism","dollar","pseudoword","pseudoword","j","true","",""
"null","<p style=""font-size: 50px;"">+</p>","null","html-keyboard-response","218","2.1.0","367638","F=YES, J=NO","pcgn2pqoff","1","66","83","50","","","","","","","","","","","","","","","",""
"null","audio/beep-329314.mp3","null","audio-keyboard-response","219","2.1.0","369167","F=YES, J=NO","pcgn2pqoff","1","66","83","50","","","","","","","","","","","","","","","",""
"null","audio/trout1.wav","null","audio-keyboard-response","220","2.1.0","369785","F=YES, J=NO","pcgn2pqoff","1","66","83","50","","","","","","","","","","","","","","","",""
"777","
          <p id=""word"" style=""font-size: 40px;"">spimt</p>
          <p style=""font-size: 16px;"">F = YES &nbsp;&nbsp;&nbsp; J = NO</p>
        ","j","html-keyboard-response","221","2.1.0","370563","F=YES, J=NO","pcgn2pqoff","1","66","83","50","","","","","","","","","spimt","trout1","pseudoword","pseudoword","j","true","",""
"null","<p style=""font-size: 50px;"">+</p>","null","html-keyboard-response","222","2.1.0","370868","F=YES, J=NO","pcgn2pqoff","1","66","83","50","","","","","","","","","","","","","","","",""
"null","audio/beep-329314.mp3","null","audio-keyboard-response","223","2.1.0","372389","F=YES, J=NO","pcgn2pqoff","1","66","83","50","","","","","","","","","","","","","","","",""
"null","audio/meal.wav","null","audio-keyboard-response","224","2.1.0","372879","F=YES, J=NO","pcgn2pqoff","1","66","83","50","","","","","","","","","","","","","","","",""
"576","
          <p id=""word"" style=""font-size: 40px;"">share</p>
          <p style=""font-size: 16px;"">F = YES &nbsp;&nbsp;&nbsp; J = NO</p>
        ","f","html-keyboard-response","225","2.1.0","373456","F=YES, J=NO","pcgn2pqoff","1","66","83","50","","","","","","","","","share","meal","literal","experimental","f","true","",""
"null","<p style=""font-size: 50px;"">+</p>","null","html-keyboard-response","226","2.1.0","373761","F=YES, J=NO","pcgn2pqoff","1","66","83","50","","","","","","","","","","","","","","","",""
"null","audio/beep-329314.mp3","null","audio-keyboard-response","227","2.1.0","375290","F=YES, J=NO","pcgn2pqoff","1","66","83","50","","","","","","","","","","","","","","","",""
"null","audio/cloud1.wav","null","audio-keyboard-response","228","2.1.0","375887","F=YES, J=NO","pcgn2pqoff","1","66","83","50","","","","","","","","","","","","","","","",""
"671","
          <p id=""word"" style=""font-size: 40px;"">brotant</p>
          <p style=""font-size: 16px;"">F = YES &nbsp;&nbsp;&nbsp; J = NO</p>
        ","j","html-keyboard-response","229","2.1.0","376560","F=YES, J=NO","pcgn2pqoff","1","66","83","50","","","","","","","","","brotant","cloud1","pseudoword","pseudoword","j","true","",""
"14952","<p>Excellent! You have finished block 1 of 8.</p>
                     <p>Feel free to take a 30 second break.</p>
                     <p>Press any key when you're ready to continue.</p>","f","html-keyboard-response","230","2.1.0","391512","F=YES, J=NO","pcgn2pqoff","1","66","83","50","","","","","","","","","","","","","","","",""
"2954","<p>Starting main block 2 of 8. Press any key to continue.</p>","f","html-keyboard-response","231","2.1.0","394467","F=YES, J=NO","pcgn2pqoff","1","66","83","50","","","","","","","","","","","","","","","",""
"null","<p style=""font-size: 50px;"">+</p>","null","html-keyboard-response","232","2.1.0","394777","F=YES, J=NO","pcgn2pqoff","1","66","83","50","","","","","","","","","","","","","","","",""
"null","audio/beep-329314.mp3","null","audio-keyboard-response","233","2.1.0","396357","F=YES, J=NO","pcgn2pqoff","1","66","83","50","","","","","","","","","","","","","","","",""
"null","audio/prisoner.wav","null","audio-keyboard-response","234","2.1.0","396879","F=YES, J=NO","pcgn2pqoff","1","66","83","50","","","","","","","","","","","","","","","",""
"662","
          <p id=""word"" style=""font-size: 40px;"">egotian</p>
          <p style=""font-size: 16px;"">F = YES &nbsp;&nbsp;&nbsp; J = NO</p>
        ","j","html-keyboard-response","235","2.1.0","397541","F=YES, J=NO","pcgn2pqoff","1","66","83","50","","","","","","","","","egotian","prisoner","pseudoword","pseudoword","j","true","",""
"null","<p style=""font-size: 50px;"">+</p>","null","html-keyboard-response","236","2.1.0","397847","F=YES, J=NO","pcgn2pqoff","1","66","83","50","","","","","","","","","","","","","","","",""
"null","audio/beep-329314.mp3","null","audio-keyboard-response","237","2.1.0","399365","F=YES, J=NO","pcgn2pqoff","1","66","83","50","","","","","","","","","","","","","","","",""
"null","audio/table1.wav","null","audio-keyboard-response","238","2.1.0","399909","F=YES, J=NO","pcgn2pqoff","1","66","83","50","","","","","","","","","","","","","","","",""
"427","
          <p id=""word"" style=""font-size: 40px;"">clear</p>
          <p style=""font-size: 16px;"">F = YES &nbsp;&nbsp;&nbsp; J = NO</p>
        ","f","html-keyboard-response","239","2.1.0","400336","F=YES, J=NO","pcgn2pqoff","1","66","83","50","","","","","","","","","clear","table1","literal","experimental","f","true","",""
"null","<p style=""font-size: 50px;"">+</p>","null","html-keyboard-response","240","2.1.0","400642","F=YES, J=NO","pcgn2pqoff","1","66","83","50","","","","","","","","","","","","","","","",""
"null","audio/beep-329314.mp3","null","audio-keyboard-response","241","2.1.0","402160","F=YES, J=NO","pcgn2pqoff","1","66","83","50","","","","","","","","","","","","","","","",""
"null","audio/dollar.wav","null","audio-keyboard-response","242","2.1.0","402533","F=YES, J=NO","pcgn2pqoff","1","66","83","50","","","","","","","","","","","","","","","",""
"445","
          <p id=""word"" style=""font-size: 40px;"">save</p>
          <p style=""font-size: 16px;"">F = YES &nbsp;&nbsp;&nbsp; J = NO</p>
        ","f","html-keyboard-response","243","2.1.0","402978","F=YES, J=NO","pcgn2pqoff","1","66","83","50","","","","","","","","","save","dollar","literal","experimental","f","true","",""
"null","<p style=""font-size: 50px;"">+</p>","null","html-keyboard-response","244","2.1.0","403279","F=YES, J=NO","pcgn2pqoff","1","66","83","50","","","","","","","","","","","","","","","",""
"null","audio/beep-329314.mp3","null","audio-keyboard-response","245","2.1.0","404805","F=YES, J=NO","pcgn2pqoff","1","66","83","50","","","","","","","","","","","","","","","",""
"null","audio/bridge.wav","null","audio-keyboard-response","246","2.1.0","405392","F=YES, J=NO","pcgn2pqoff","1","66","83","50","","","","","","","","","","","","","","","",""
"624","
          <p id=""word"" style=""font-size: 40px;"">crack</p>
          <p style=""font-size: 16px;"">F = YES &nbsp;&nbsp;&nbsp; J = NO</p>
        ","f","html-keyboard-response","247","2.1.0","406016","F=YES, J=NO","pcgn2pqoff","1","66","83","50","","","","","","","","","crack","bridge","filler","filler","f","true","",""
"null","<p style=""font-size: 50px;"">+</p>","null","html-keyboard-response","248","2.1.0","406331","F=YES, J=NO","pcgn2pqoff","1","66","83","50","","","","","","","","","","","","","","","",""
"null","audio/beep-329314.mp3","null","audio-keyboard-response","249","2.1.0","407856","F=YES, J=NO","pcgn2pqoff","1","66","83","50","","","","","","","","","","","","","","","",""
"null","audio/cave1.wav","null","audio-keyboard-response","250","2.1.0","408464","F=YES, J=NO","pcgn2pqoff","1","66","83","50","","","","","","","","","","","","","","","",""
"492","
          <p id=""word"" style=""font-size: 40px;"">hurt</p>
          <p style=""font-size: 16px;"">F = YES &nbsp;&nbsp;&nbsp; J = NO</p>
        ","f","html-keyboard-response","251","2.1.0","408956","F=YES, J=NO","pcgn2pqoff","1","66","83","50","","","","","","","","","hurt","cave1","unrelated","experimental","f","true","",""
"null","<p style=""font-size: 50px;"">+</p>","null","html-keyboard-response","252","2.1.0","409260","F=YES, J=NO","pcgn2pqoff","1","66","83","50","","","","","","","","","","","","","","","",""
"null","audio/beep-329314.mp3","null","audio-keyboard-response","253","2.1.0","410779","F=YES, J=NO","pcgn2pqoff","1","66","83","50","","","","","","","","","","","","","","","",""
"null","audio/account1.wav","null","audio-keyboard-response","254","2.1.0","411493","F=YES, J=NO","pcgn2pqoff","1","66","83","50","","","","","","","","","","","","","","","",""
"436","
          <p id=""word"" style=""font-size: 40px;"">open</p>
          <p style=""font-size: 16px;"">F = YES &nbsp;&nbsp;&nbsp; J = NO</p>
        ","f","html-keyboard-response","255","2.1.0","411931","F=YES, J=NO","pcgn2pqoff","1","66","83","50","","","","","","","","","open","account1","metaphor","experimental","f","true","",""
"null","<p style=""font-size: 50px;"">+</p>","null","html-keyboard-response","256","2.1.0","412241","F=YES, J=NO","pcgn2pqoff","1","66","83","50","","","","","","","","","","","","","","","",""
"null","audio/beep-329314.mp3","null","audio-keyboard-response","257","2.1.0","413765","F=YES, J=NO","pcgn2pqoff","1","66","83","50","","","","","","","","","","","","","","","",""
"null","audio/haste1.wav","null","audio-keyboard-response","258","2.1.0","414373","F=YES, J=NO","pcgn2pqoff","1","66","83","50","","","","","","","","","","","","","","","",""
"1024","
          <p id=""word"" style=""font-size: 40px;"">coraconate</p>
          <p style=""font-size: 16px;"">F = YES &nbsp;&nbsp;&nbsp; J = NO</p>
        ","f","html-keyboard-response","259","2.1.0","415398","F=YES, J=NO","pcgn2pqoff","1","66","83","50","","","","","","","","","coraconate","haste1","pseudoword","pseudoword","j","false","",""
"null","<p style=""font-size: 50px;"">+</p>","null","html-keyboard-response","260","2.1.0","415703","F=YES, J=NO","pcgn2pqoff","1","66","83","50","","","","","","","","","","","","","","","",""
"null","audio/beep-329314.mp3","null","audio-keyboard-response","261","2.1.0","417222","F=YES, J=NO","pcgn2pqoff","1","66","83","50","","","","","","","","","","","","","","","",""
"null","audio/purpose.wav","null","audio-keyboard-response","262","2.1.0","417893","F=YES, J=NO","pcgn2pqoff","1","66","83","50","","","","","","","","","","","","","","","",""
"604","
          <p id=""word"" style=""font-size: 40px;"">whigm</p>
          <p style=""font-size: 16px;"">F = YES &nbsp;&nbsp;&nbsp; J = NO</p>
        ","j","html-keyboard-response","263","2.1.0","418498","F=YES, J=NO","pcgn2pqoff","1","66","83","50","","","","","","","","","whigm","purpose","pseudoword","pseudoword","j","true","",""
"null","<p style=""font-size: 50px;"">+</p>","null","html-keyboard-response","264","2.1.0","418799","F=YES, J=NO","pcgn2pqoff","1","66","83","50","","","","","","","","","","","","","","","",""
"null","audio/beep-329314.mp3","null","audio-keyboard-response","265","2.1.0","420336","F=YES, J=NO","pcgn2pqoff","1","66","83","50","","","","","","","","","","","","","","","",""
"null","audio/planet1.wav","null","audio-keyboard-response","266","2.1.0","420944","F=YES, J=NO","pcgn2pqoff","1","66","83","50","","","","","","","","","","","","","","","",""
"882","
          <p id=""word"" style=""font-size: 40px;"">cratched</p>
          <p style=""font-size: 16px;"">F = YES &nbsp;&nbsp;&nbsp; J = NO</p>
        ","f","html-keyboard-response","267","2.1.0","421828","F=YES, J=NO","pcgn2pqoff","1","66","83","50","","","","","","","","","cratched","planet1","pseudoword","pseudoword","j","false","",""
"null","<p style=""font-size: 50px;"">+</p>","null","html-keyboard-response","268","2.1.0","422132","F=YES, J=NO","pcgn2pqoff","1","66","83","50","","","","","","","","","","","","","","","",""
"null","audio/beep-329314.mp3","null","audio-keyboard-response","269","2.1.0","423664","F=YES, J=NO","pcgn2pqoff","1","66","83","50","","","","","","","","","","","","","","","",""
"null","audio/corpse1.wav","null","audio-keyboard-response","270","2.1.0","424294","F=YES, J=NO","pcgn2pqoff","1","66","83","50","","","","","","","","","","","","","","","",""
"453","
          <p id=""word"" style=""font-size: 40px;"">bury</p>
          <p style=""font-size: 16px;"">F = YES &nbsp;&nbsp;&nbsp; J = NO</p>
        ","f","html-keyboard-response","271","2.1.0","424747","F=YES, J=NO","pcgn2pqoff","1","66","83","50","","","","","","","","","bury","corpse1","literal","experimental","f","true","",""
"null","<p style=""font-size: 50px;"">+</p>","null","html-keyboard-response","272","2.1.0","425053","F=YES, J=NO","pcgn2pqoff","1","66","83","50","","","","","","","","","","","","","","","",""
"null","audio/beep-329314.mp3","null","audio-keyboard-response","273","2.1.0","426587","F=YES, J=NO","pcgn2pqoff","1","66","83","50","","","","","","","","","","","","","","","",""
"null","audio/relief.wav","null","audio-keyboard-response","274","2.1.0","427216","F=YES, J=NO","pcgn2pqoff","1","66","83","50","","","","","","","","","","","","","","","",""
"598","
          <p id=""word"" style=""font-size: 40px;"">grigg</p>
          <p style=""font-size: 16px;"">F = YES &nbsp;&nbsp;&nbsp; J = NO</p>
        ","j","html-keyboard-response","275","2.1.0","427815","F=YES, J=NO","pcgn2pqoff","1","66","83","50","","","","","","","","","grigg","relief","pseudoword","pseudoword","j","true","",""
"null","<p style=""font-size: 50px;"">+</p>","null","html-keyboard-response","276","2.1.0","428125","F=YES, J=NO","pcgn2pqoff","1","66","83","50","","","","","","","","","","","","","","","",""
"null","audio/beep-329314.mp3","null","audio-keyboard-response","277","2.1.0","429659","F=YES, J=NO","pcgn2pqoff","1","66","83","50","","","","","","","","","","","","","","","",""
"null","audio/dome.wav","null","audio-keyboard-response","278","2.1.0","430118","F=YES, J=NO","pcgn2pqoff","1","66","83","50","","","","","","","","","","","","","","","",""
"857","
          <p id=""word"" style=""font-size: 40px;"">scrupliness</p>
          <p style=""font-size: 16px;"">F = YES &nbsp;&nbsp;&nbsp; J = NO</p>
        ","j","html-keyboard-response","279","2.1.0","430975","F=YES, J=NO","pcgn2pqoff","1","66","83","50","","","","","","","","","scrupliness","dome","pseudoword","pseudoword","j","true","",""
"null","<p style=""font-size: 50px;"">+</p>","null","html-keyboard-response","280","2.1.0","431287","F=YES, J=NO","pcgn2pqoff","1","66","83","50","","","","","","","","","","","","","","","",""
"null","audio/beep-329314.mp3","null","audio-keyboard-response","281","2.1.0","432817","F=YES, J=NO","pcgn2pqoff","1","66","83","50","","","","","","","","","","","","","","","",""
"null","audio/noise1.wav","null","audio-keyboard-response","282","2.1.0","433468","F=YES, J=NO","pcgn2pqoff","1","66","83","50","","","","","","","","","","","","","","","",""
"743","
          <p id=""word"" style=""font-size: 40px;"">slintered</p>
          <p style=""font-size: 16px;"">F = YES &nbsp;&nbsp;&nbsp; J = NO</p>
        ","f","html-keyboard-response","283","2.1.0","434211","F=YES, J=NO","pcgn2pqoff","1","66","83","50","","","","","","","","","slintered","noise1","pseudoword","pseudoword","j","false","",""
"null","<p style=""font-size: 50px;"">+</p>","null","html-keyboard-response","284","2.1.0","434521","F=YES, J=NO","pcgn2pqoff","1","66","83","50","","","","","","","","","","","","","","","",""
"null","audio/beep-329314.mp3","null","audio-keyboard-response","285","2.1.0","436038","F=YES, J=NO","pcgn2pqoff","1","66","83","50","","","","","","","","","","","","","","","",""
"null","audio/farm1.wav","null","audio-keyboard-response","286","2.1.0","436624","F=YES, J=NO","pcgn2pqoff","1","66","83","50","","","","","","","","","","","","","","","",""
"520","
          <p id=""word"" style=""font-size: 40px;"">catch</p>
          <p style=""font-size: 16px;"">F = YES &nbsp;&nbsp;&nbsp; J = NO</p>
        ","f","html-keyboard-response","287","2.1.0","437145","F=YES, J=NO","pcgn2pqoff","1","66","83","50","","","","","","","","","catch","farm1","unrelated","experimental","f","true","",""
"null","<p style=""font-size: 50px;"">+</p>","null","html-keyboard-response","288","2.1.0","437457","F=YES, J=NO","pcgn2pqoff","1","66","83","50","","","","","","","","","","","","","","","",""
"null","audio/beep-329314.mp3","null","audio-keyboard-response","289","2.1.0","438983","F=YES, J=NO","pcgn2pqoff","1","66","83","50","","","","","","","","","","","","","","","",""
"null","audio/winter.wav","null","audio-keyboard-response","290","2.1.0","439612","F=YES, J=NO","pcgn2pqoff","1","66","83","50","","","","","","","","","","","","","","","",""
"679","
          <p id=""word"" style=""font-size: 40px;"">straven</p>
          <p style=""font-size: 16px;"">F = YES &nbsp;&nbsp;&nbsp; J = NO</p>
        ","j","html-keyboard-response","291","2.1.0","440291","F=YES, J=NO","pcgn2pqoff","1","66","83","50","","","","","","","","","straven","winter","pseudoword","pseudoword","j","true","",""
"null","<p style=""font-size: 50px;"">+</p>","null","html-keyboard-response","292","2.1.0","440600","F=YES, J=NO","pcgn2pqoff","1","66","83","50","","","","","","","","","","","","","","","",""
"null","audio/beep-329314.mp3","null","audio-keyboard-response","293","2.1.0","442118","F=YES, J=NO","pcgn2pqoff","1","66","83","50","","","","","","","","","","","","","","","",""
"null","audio/tax1.wav","null","audio-keyboard-response","294","2.1.0","442812","F=YES, J=NO","pcgn2pqoff","1","66","83","50","","","","","","","","","","","","","","","",""
"462","
          <p id=""word"" style=""font-size: 40px;"">snate</p>
          <p style=""font-size: 16px;"">F = YES &nbsp;&nbsp;&nbsp; J = NO</p>
        ","f","html-keyboard-response","295","2.1.0","443274","F=YES, J=NO","pcgn2pqoff","1","66","83","50","","","","","","","","","snate","tax1","pseudoword","pseudoword","j","false","",""
"13135","<p>Excellent! You have finished block 2 of 8.</p>
                     <p>Feel free to take a 30 second break.</p>
                     <p>Press any key when you're ready to continue.</p>","f","html-keyboard-response","296","2.1.0","456410","F=YES, J=NO","pcgn2pqoff","1","66","83","50","","","","","","","","","","","","","","","",""
"9105","<p>Starting main block 3 of 8. Press any key to continue.</p>","f","html-keyboard-response","297","2.1.0","465515","F=YES, J=NO","pcgn2pqoff","1","66","83","50","","","","","","","","","","","","","","","",""
"null","<p style=""font-size: 50px;"">+</p>","null","html-keyboard-response","298","2.1.0","465831","F=YES, J=NO","pcgn2pqoff","1","66","83","50","","","","","","","","","","","","","","","",""
"null","audio/beep-329314.mp3","null","audio-keyboard-response","299","2.1.0","467855","F=YES, J=NO","pcgn2pqoff","1","66","83","50","","","","","","","","","","","","","","","",""
"null","audio/desire.wav","null","audio-keyboard-response","300","2.1.0","468506","F=YES, J=NO","pcgn2pqoff","1","66","83","50","","","","","","","","","","","","","","","",""
"647","
          <p id=""word"" style=""font-size: 40px;"">nophed</p>
          <p style=""font-size: 16px;"">F = YES &nbsp;&nbsp;&nbsp; J = NO</p>
        ","j","html-keyboard-response","301","2.1.0","469153","F=YES, J=NO","pcgn2pqoff","1","66","83","50","","","","","","","","","nophed","desire","pseudoword","pseudoword","j","true","",""
"null","<p style=""font-size: 50px;"">+</p>","null","html-keyboard-response","302","2.1.0","469458","F=YES, J=NO","pcgn2pqoff","1","66","83","50","","","","","","","","","","","","","","","",""
"null","audio/beep-329314.mp3","null","audio-keyboard-response","303","2.1.0","470991","F=YES, J=NO","pcgn2pqoff","1","66","83","50","","","","","","","","","","","","","","","",""
"null","audio/pig.wav","null","audio-keyboard-response","304","2.1.0","471385","F=YES, J=NO","pcgn2pqoff","1","66","83","50","","","","","","","","","","","","","","","",""
"650","
          <p id=""word"" style=""font-size: 40px;"">tirlike</p>
          <p style=""font-size: 16px;"">F = YES &nbsp;&nbsp;&nbsp; J = NO</p>
        ","j","html-keyboard-response","305","2.1.0","472036","F=YES, J=NO","pcgn2pqoff","1","66","83","50","","","","","","","","","tirlike","pig","pseudoword","pseudoword","j","true","",""
"null","<p style=""font-size: 50px;"">+</p>","null","html-keyboard-response","306","2.1.0","472340","F=YES, J=NO","pcgn2pqoff","1","66","83","50","","","","","","","","","","","","","","","",""
"null","audio/beep-329314.mp3","null","audio-keyboard-response","307","2.1.0","473871","F=YES, J=NO","pcgn2pqoff","1","66","83","50","","","","","","","","","","","","","","","",""
"null","audio/holiday1.wav","null","audio-keyboard-response","308","2.1.0","474628","F=YES, J=NO","pcgn2pqoff","1","66","83","50","","","","","","","","","","","","","","","",""
"631","
          <p id=""word"" style=""font-size: 40px;"">drivets</p>
          <p style=""font-size: 16px;"">F = YES &nbsp;&nbsp;&nbsp; J = NO</p>
        ","j","html-keyboard-response","309","2.1.0","475260","F=YES, J=NO","pcgn2pqoff","1","66","83","50","","","","","","","","","drivets","holiday1","pseudoword","pseudoword","j","true","",""
"null","<p style=""font-size: 50px;"">+</p>","null","html-keyboard-response","310","2.1.0","475562","F=YES, J=NO","pcgn2pqoff","1","66","83","50","","","","","","","","","","","","","","","",""
"null","audio/beep-329314.mp3","null","audio-keyboard-response","311","2.1.0","477093","F=YES, J=NO","pcgn2pqoff","1","66","83","50","","","","","","","","","","","","","","","",""
"null","audio/alarm1.wav","null","audio-keyboard-response","312","2.1.0","477679","F=YES, J=NO","pcgn2pqoff","1","66","83","50","","","","","","","","","","","","","","","",""
"411","
          <p id=""word"" style=""font-size: 40px;"">lock</p>
          <p style=""font-size: 16px;"">F = YES &nbsp;&nbsp;&nbsp; J = NO</p>
        ","f","html-keyboard-response","313","2.1.0","478091","F=YES, J=NO","pcgn2pqoff","1","66","83","50","","","","","","","","","lock","alarm1","filler","filler","f","true","",""
"null","<p style=""font-size: 50px;"">+</p>","null","html-keyboard-response","314","2.1.0","478393","F=YES, J=NO","pcgn2pqoff","1","66","83","50","","","","","","","","","","","","","","","",""
"null","audio/beep-329314.mp3","null","audio-keyboard-response","315","2.1.0","479930","F=YES, J=NO","pcgn2pqoff","1","66","83","50","","","","","","","","","","","","","","","",""
"null","audio/smirk1.wav","null","audio-keyboard-response","316","2.1.0","480708","F=YES, J=NO","pcgn2pqoff","1","66","83","50","","","","","","","","","","","","","","","",""
"457","
          <p id=""word"" style=""font-size: 40px;"">wipe</p>
          <p style=""font-size: 16px;"">F = YES &nbsp;&nbsp;&nbsp; J = NO</p>
        ","f","html-keyboard-response","317","2.1.0","481166","F=YES, J=NO","pcgn2pqoff","1","66","83","50","","","","","","","","","wipe","smirk1","metaphor","experimental","f","true","",""
"null","<p style=""font-size: 50px;"">+</p>","null","html-keyboard-response","318","2.1.0","481478","F=YES, J=NO","pcgn2pqoff","1","66","83","50","","","","","","","","","","","","","","","",""
"null","audio/beep-329314.mp3","null","audio-keyboard-response","319","2.1.0","483003","F=YES, J=NO","pcgn2pqoff","1","66","83","50","","","","","","","","","","","","","","","",""
"null","audio/life1.wav","null","audio-keyboard-response","320","2.1.0","483567","F=YES, J=NO","pcgn2pqoff","1","66","83","50","","","","","","","","","","","","","","","",""
"613","
          <p id=""word"" style=""font-size: 40px;"">flimch</p>
          <p style=""font-size: 16px;"">F = YES &nbsp;&nbsp;&nbsp; J = NO</p>
        ","f","html-keyboard-response","321","2.1.0","484181","F=YES, J=NO","pcgn2pqoff","1","66","83","50","","","","","","","","","flimch","life1","pseudoword","pseudoword","j","false","",""
"null","<p style=""font-size: 50px;"">+</p>","null","html-keyboard-response","322","2.1.0","484490","F=YES, J=NO","pcgn2pqoff","1","66","83","50","","","","","","","","","","","","","","","",""
"null","audio/beep-329314.mp3","null","audio-keyboard-response","323","2.1.0","486010","F=YES, J=NO","pcgn2pqoff","1","66","83","50","","","","","","","","","","","","","","","",""
"null","audio/revenue1.wav","null","audio-keyboard-response","324","2.1.0","486831","F=YES, J=NO","pcgn2pqoff","1","66","83","50","","","","","","","","","","","","","","","",""
"663","
          <p id=""word"" style=""font-size: 40px;"">grow</p>
          <p style=""font-size: 16px;"">F = YES &nbsp;&nbsp;&nbsp; J = NO</p>
        ","f","html-keyboard-response","325","2.1.0","487495","F=YES, J=NO","pcgn2pqoff","1","66","83","50","","","","","","","","","grow","revenue1","metaphor","experimental","f","true","",""
"null","<p style=""font-size: 50px;"">+</p>","null","html-keyboard-response","326","2.1.0","487806","F=YES, J=NO","pcgn2pqoff","1","66","83","50","","","","","","","","","","","","","","","",""
"null","audio/beep-329314.mp3","null","audio-keyboard-response","327","2.1.0","489338","F=YES, J=NO","pcgn2pqoff","1","66","83","50","","","","","","","","","","","","","","","",""
"null","audio/menu.wav","null","audio-keyboard-response","328","2.1.0","489925","F=YES, J=NO","pcgn2pqoff","1","66","83","50","","","","","","","","","","","","","","","",""
"604","
          <p id=""word"" style=""font-size: 40px;"">slice</p>
          <p style=""font-size: 16px;"">F = YES &nbsp;&nbsp;&nbsp; J = NO</p>
        ","f","html-keyboard-response","329","2.1.0","490529","F=YES, J=NO","pcgn2pqoff","1","66","83","50","","","","","","","","","slice","menu","filler","filler","f","true","",""
"null","<p style=""font-size: 50px;"">+</p>","null","html-keyboard-response","330","2.1.0","490841","F=YES, J=NO","pcgn2pqoff","1","66","83","50","","","","","","","","","","","","","","","",""
"null","audio/beep-329314.mp3","null","audio-keyboard-response","331","2.1.0","492368","F=YES, J=NO","pcgn2pqoff","1","66","83","50","","","","","","","","","","","","","","","",""
"null","audio/topic.wav","null","audio-keyboard-response","332","2.1.0","492997","F=YES, J=NO","pcgn2pqoff","1","66","83","50","","","","","","","","","","","","","","","",""
"655","
          <p id=""word"" style=""font-size: 40px;"">infortuitist</p>
          <p style=""font-size: 16px;"">F = YES &nbsp;&nbsp;&nbsp; J = NO</p>
        ","j","html-keyboard-response","333","2.1.0","493653","F=YES, J=NO","pcgn2pqoff","1","66","83","50","","","","","","","","","infortuitist","topic","pseudoword","pseudoword","j","true","",""
"null","<p style=""font-size: 50px;"">+</p>","null","html-keyboard-response","334","2.1.0","493953","F=YES, J=NO","pcgn2pqoff","1","66","83","50","","","","","","","","","","","","","","","",""
"null","audio/beep-329314.mp3","null","audio-keyboard-response","335","2.1.0","495483","F=YES, J=NO","pcgn2pqoff","1","66","83","50","","","","","","","","","","","","","","","",""
"null","audio/mirror1.wav","null","audio-keyboard-response","336","2.1.0","495920","F=YES, J=NO","pcgn2pqoff","1","66","83","50","","","","","","","","","","","","","","","",""
"667","
          <p id=""word"" style=""font-size: 40px;"">fight</p>
          <p style=""font-size: 16px;"">F = YES &nbsp;&nbsp;&nbsp; J = NO</p>
        ","f","html-keyboard-response","337","2.1.0","496587","F=YES, J=NO","pcgn2pqoff","1","66","83","50","","","","","","","","","fight","mirror1","unrelated","experimental","f","true","",""
"null","<p style=""font-size: 50px;"">+</p>","null","html-keyboard-response","338","2.1.0","496893","F=YES, J=NO","pcgn2pqoff","1","66","83","50","","","","","","","","","","","","","","","",""
"null","audio/beep-329314.mp3","null","audio-keyboard-response","339","2.1.0","498427","F=YES, J=NO","pcgn2pqoff","1","66","83","50","","","","","","","","","","","","","","","",""
"null","audio/weapon.wav","null","audio-keyboard-response","340","2.1.0","499163","F=YES, J=NO","pcgn2pqoff","1","66","83","50","","","","","","","","","","","","","","","",""
"585","
          <p id=""word"" style=""font-size: 40px;"">carry</p>
          <p style=""font-size: 16px;"">F = YES &nbsp;&nbsp;&nbsp; J = NO</p>
        ","f","html-keyboard-response","341","2.1.0","499749","F=YES, J=NO","pcgn2pqoff","1","66","83","50","","","","","","","","","carry","weapon","literal","experimental","f","true","",""
"null","<p style=""font-size: 50px;"">+</p>","null","html-keyboard-response","342","2.1.0","500052","F=YES, J=NO","pcgn2pqoff","1","66","83","50","","","","","","","","","","","","","","","",""
"null","audio/beep-329314.mp3","null","audio-keyboard-response","343","2.1.0","501584","F=YES, J=NO","pcgn2pqoff","1","66","83","50","","","","","","","","","","","","","","","",""
"null","audio/show.wav","null","audio-keyboard-response","344","2.1.0","502170","F=YES, J=NO","pcgn2pqoff","1","66","83","50","","","","","","","","","","","","","","","",""
"486","
          <p id=""word"" style=""font-size: 40px;"">hold</p>
          <p style=""font-size: 16px;"">F = YES &nbsp;&nbsp;&nbsp; J = NO</p>
        ","f","html-keyboard-response","345","2.1.0","502657","F=YES, J=NO","pcgn2pqoff","1","66","83","50","","","","","","","","","hold","show","metaphor","experimental","f","true","",""
"null","<p style=""font-size: 50px;"">+</p>","null","html-keyboard-response","346","2.1.0","502970","F=YES, J=NO","pcgn2pqoff","1","66","83","50","","","","","","","","","","","","","","","",""
"null","audio/beep-329314.mp3","null","audio-keyboard-response","347","2.1.0","504507","F=YES, J=NO","pcgn2pqoff","1","66","83","50","","","","","","","","","","","","","","","",""
"null","audio/tunnel.wav","null","audio-keyboard-response","348","2.1.0","504944","F=YES, J=NO","pcgn2pqoff","1","66","83","50","","","","","","","","","","","","","","","",""
"672","
          <p id=""word"" style=""font-size: 40px;"">gred</p>
          <p style=""font-size: 16px;"">F = YES &nbsp;&nbsp;&nbsp; J = NO</p>
        ","f","html-keyboard-response","349","2.1.0","505617","F=YES, J=NO","pcgn2pqoff","1","66","83","50","","","","","","","","","gred","tunnel","pseudoword","pseudoword","j","false","",""
"null","<p style=""font-size: 50px;"">+</p>","null","html-keyboard-response","350","2.1.0","505923","F=YES, J=NO","pcgn2pqoff","1","66","83","50","","","","","","","","","","","","","","","",""
"null","audio/beep-329314.mp3","null","audio-keyboard-response","351","2.1.0","507451","F=YES, J=NO","pcgn2pqoff","1","66","83","50","","","","","","","","","","","","","","","",""
"null","audio/roof1.wav","null","audio-keyboard-response","352","2.1.0","508123","F=YES, J=NO","pcgn2pqoff","1","66","83","50","","","","","","","","","","","","","","","",""
"702","
          <p id=""word"" style=""font-size: 40px;"">wronb</p>
          <p style=""font-size: 16px;"">F = YES &nbsp;&nbsp;&nbsp; J = NO</p>
        ","j","html-keyboard-response","353","2.1.0","508826","F=YES, J=NO","pcgn2pqoff","1","66","83","50","","","","","","","","","wronb","roof1","pseudoword","pseudoword","j","true","",""
"null","<p style=""font-size: 50px;"">+</p>","null","html-keyboard-response","354","2.1.0","509141","F=YES, J=NO","pcgn2pqoff","1","66","83","50","","","","","","","","","","","","","","","",""
"null","audio/beep-329314.mp3","null","audio-keyboard-response","355","2.1.0","510673","F=YES, J=NO","pcgn2pqoff","1","66","83","50","","","","","","","","","","","","","","","",""
"null","audio/hotel1.wav","null","audio-keyboard-response","356","2.1.0","511323","F=YES, J=NO","pcgn2pqoff","1","66","83","50","","","","","","","","","","","","","","","",""
"581","
          <p id=""word"" style=""font-size: 40px;"">flanter</p>
          <p style=""font-size: 16px;"">F = YES &nbsp;&nbsp;&nbsp; J = NO</p>
        ","f","html-keyboard-response","357","2.1.0","511905","F=YES, J=NO","pcgn2pqoff","1","66","83","50","","","","","","","","","flanter","hotel1","pseudoword","pseudoword","j","false","",""
"null","<p style=""font-size: 50px;"">+</p>","null","html-keyboard-response","358","2.1.0","512211","F=YES, J=NO","pcgn2pqoff","1","66","83","50","","","","","","","","","","","","","","","",""
"null","audio/beep-329314.mp3","null","audio-keyboard-response","359","2.1.0","513745","F=YES, J=NO","pcgn2pqoff","1","66","83","50","","","","","","","","","","","","","","","",""
"null","audio/mile1.wav","null","audio-keyboard-response","360","2.1.0","514267","F=YES, J=NO","pcgn2pqoff","1","66","83","50","","","","","","","","","","","","","","","",""
"485","
          <p id=""word"" style=""font-size: 40px;"">run</p>
          <p style=""font-size: 16px;"">F = YES &nbsp;&nbsp;&nbsp; J = NO</p>
        ","j","html-keyboard-response","361","2.1.0","514752","F=YES, J=NO","pcgn2pqoff","1","66","83","50","","","","","","","","","run","mile1","literal","experimental","f","false","",""
"17093","<p>Excellent! You have finished block 3 of 8.</p>
                     <p>Feel free to take a 30 second break.</p>
                     <p>Press any key when you're ready to continue.</p>","f","html-keyboard-response","362","2.1.0","531846","F=YES, J=NO","pcgn2pqoff","1","66","83","50","","","","","","","","","","","","","","","",""
"7328","<p>Starting main block 4 of 8. Press any key to continue.</p>","f","html-keyboard-response","363","2.1.0","539174","F=YES, J=NO","pcgn2pqoff","1","66","83","50","","","","","","","","","","","","","","","",""
"null","<p style=""font-size: 50px;"">+</p>","null","html-keyboard-response","364","2.1.0","539481","F=YES, J=NO","pcgn2pqoff","1","66","83","50","","","","","","","","","","","","","","","",""
"null","audio/beep-329314.mp3","null","audio-keyboard-response","365","2.1.0","541489","F=YES, J=NO","pcgn2pqoff","1","66","83","50","","","","","","","","","","","","","","","",""
"null","audio/meal.wav","null","audio-keyboard-response","366","2.1.0","541915","F=YES, J=NO","pcgn2pqoff","1","66","83","50","","","","","","","","","","","","","","","",""
"627","
          <p id=""word"" style=""font-size: 40px;"">gallite</p>
          <p style=""font-size: 16px;"">F = YES &nbsp;&nbsp;&nbsp; J = NO</p>
        ","j","html-keyboard-response","367","2.1.0","542542","F=YES, J=NO","pcgn2pqoff","1","66","83","50","","","","","","","","","gallite","meal","pseudoword","pseudoword","j","true","",""
"null","<p style=""font-size: 50px;"">+</p>","null","html-keyboard-response","368","2.1.0","542853","F=YES, J=NO","pcgn2pqoff","1","66","83","50","","","","","","","","","","","","","","","",""
"null","audio/beep-329314.mp3","null","audio-keyboard-response","369","2.1.0","544389","F=YES, J=NO","pcgn2pqoff","1","66","83","50","","","","","","","","","","","","","","","",""
"null","audio/client1.wav","null","audio-keyboard-response","370","2.1.0","545093","F=YES, J=NO","pcgn2pqoff","1","66","83","50","","","","","","","","","","","","","","","",""
"728","
          <p id=""word"" style=""font-size: 40px;"">droothe</p>
          <p style=""font-size: 16px;"">F = YES &nbsp;&nbsp;&nbsp; J = NO</p>
        ","j","html-keyboard-response","371","2.1.0","545822","F=YES, J=NO","pcgn2pqoff","1","66","83","50","","","","","","","","","droothe","client1","pseudoword","pseudoword","j","true","",""
"null","<p style=""font-size: 50px;"">+</p>","null","html-keyboard-response","372","2.1.0","546124","F=YES, J=NO","pcgn2pqoff","1","66","83","50","","","","","","","","","","","","","","","",""
"null","audio/beep-329314.mp3","null","audio-keyboard-response","373","2.1.0","547654","F=YES, J=NO","pcgn2pqoff","1","66","83","50","","","","","","","","","","","","","","","",""
"null","audio/brain.wav","null","audio-keyboard-response","374","2.1.0","548187","F=YES, J=NO","pcgn2pqoff","1","66","83","50","","","","","","","","","","","","","","","",""
"516","
          <p id=""word"" style=""font-size: 40px;"">throw</p>
          <p style=""font-size: 16px;"">F = YES &nbsp;&nbsp;&nbsp; J = NO</p>
        ","f","html-keyboard-response","375","2.1.0","548704","F=YES, J=NO","pcgn2pqoff","1","66","83","50","","","","","","","","","throw","brain","filler","filler","f","true","",""
"null","<p style=""font-size: 50px;"">+</p>","null","html-keyboard-response","376","2.1.0","549016","F=YES, J=NO","pcgn2pqoff","1","66","83","50","","","","","","","","","","","","","","","",""
"null","audio/beep-329314.mp3","null","audio-keyboard-response","377","2.1.0","550534","F=YES, J=NO","pcgn2pqoff","1","66","83","50","","","","","","","","","","","","","","","",""
"null","audio/death1.wav","null","audio-keyboard-response","378","2.1.0","551046","F=YES, J=NO","pcgn2pqoff","1","66","83","50","","","","","","","","","","","","","","","",""
"678","
          <p id=""word"" style=""font-size: 40px;"">conquer</p>
          <p style=""font-size: 16px;"">F = YES &nbsp;&nbsp;&nbsp; J = NO</p>
        ","f","html-keyboard-response","379","2.1.0","551725","F=YES, J=NO","pcgn2pqoff","1","66","83","50","","","","","","","","","conquer","death1","metaphor","experimental","f","true","",""
"null","<p style=""font-size: 50px;"">+</p>","null","html-keyboard-response","380","2.1.0","552038","F=YES, J=NO","pcgn2pqoff","1","66","83","50","","","","","","","","","","","","","","","",""
"null","audio/beep-329314.mp3","null","audio-keyboard-response","381","2.1.0","553564","F=YES, J=NO","pcgn2pqoff","1","66","83","50","","","","","","","","","","","","","","","",""
"null","audio/news.wav","null","audio-keyboard-response","382","2.1.0","554203","F=YES, J=NO","pcgn2pqoff","1","66","83","50","","","","","","","","","","","","","","","",""
"599","
          <p id=""word"" style=""font-size: 40px;"">digest</p>
          <p style=""font-size: 16px;"">F = YES &nbsp;&nbsp;&nbsp; J = NO</p>
        ","f","html-keyboard-response","383","2.1.0","554803","F=YES, J=NO","pcgn2pqoff","1","66","83","50","","","","","","","","","digest","news","metaphor","experimental","f","true","",""
"null","<p style=""font-size: 50px;"">+</p>","null","html-keyboard-response","384","2.1.0","555106","F=YES, J=NO","pcgn2pqoff","1","66","83","50","","","","","","","","","","","","","","","",""
"null","audio/beep-329314.mp3","null","audio-keyboard-response","385","2.1.0","556636","F=YES, J=NO","pcgn2pqoff","1","66","83","50","","","","","","","","","","","","","","","",""
"null","audio/budget1.wav","null","audio-keyboard-response","386","2.1.0","557233","F=YES, J=NO","pcgn2pqoff","1","66","83","50","","","","","","","","","","","","","","","",""
"765","
          <p id=""word"" style=""font-size: 40px;"">sulist</p>
          <p style=""font-size: 16px;"">F = YES &nbsp;&nbsp;&nbsp; J = NO</p>
        ","j","html-keyboard-response","387","2.1.0","557999","F=YES, J=NO","pcgn2pqoff","1","66","83","50","","","","","","","","","sulist","budget1","pseudoword","pseudoword","j","true","",""
"null","<p style=""font-size: 50px;"">+</p>","null","html-keyboard-response","388","2.1.0","558304","F=YES, J=NO","pcgn2pqoff","1","66","83","50","","","","","","","","","","","","","","","",""
"null","audio/beep-329314.mp3","null","audio-keyboard-response","389","2.1.0","559835","F=YES, J=NO","pcgn2pqoff","1","66","83","50","","","","","","","","","","","","","","","",""
"null","audio/account1.wav","null","audio-keyboard-response","390","2.1.0","560497","F=YES, J=NO","pcgn2pqoff","1","66","83","50","","","","","","","","","","","","","","","",""
"492","
          <p id=""word"" style=""font-size: 40px;"">paint</p>
          <p style=""font-size: 16px;"">F = YES &nbsp;&nbsp;&nbsp; J = NO</p>
