"rt","stimulus","response","trial_type","trial_index","plugin_version","time_elapsed","response_mapping","subject_id","list_index","lextale_score","lextale_word_score","lextale_nonword_score","success","timeout","failed_images","failed_audio","failed_video","task","isWord","isDummy","target","prime","prime_type","stimulus_type","correct_response","correct","section","question_order"
"84712","
    <div style=""max-width: 800px; margin: auto; text-align: left;"">
      <h2>STANFORD UNIVERSITY</h2>
      <h3>Research Information Sheet</h3>
      <p><strong>Protocol Director:</strong> Robert Hawkins<br>
      <strong>Protocol Title:</strong> Communication and social cognition in natural audiovisual contexts<br>
      <strong>IRB#:</strong> 77226</p>

      <p><strong>DESCRIPTION:</strong> You are invited to participate in a research study about language and communication. The purpose of the research is to understand how you interact and communicate with other people in naturalistic settings as a fluent English speaker. This research will be conducted through the Prolific platform, including participants from the US, UK, and Canada. If you decide to participate in this research, you will play a communication game in a group with one or more partners.</p>

      <p><strong>TIME INVOLVEMENT:</strong> The task will last the amount of time advertised on Prolific. You are free to withdraw from the study at any time.</p>

      <p><strong>RISKS AND BENEFITS:</strong> You may become frustrated if your partner gets distracted, or experience discomfort if other participants in your group send text that is inappropriate for the task. We ask you to please be respectful of other participants you might be interacting with to mitigate these risks. You may also experience discomfort when being asked to discuss or challenge emotionally salient political beliefs. Study data will be stored securely, in compliance with Stanford University standards, minimizing the risk of confidentiality breach. This study advances our scientific understanding of how people communicate and collaborate in naturalistic settings. This study may lead to further insights about what can go wrong in teamwork, suggest potential interventions to overcome these barriers, and help to develop assistive technologies that collaborate with human partners. We cannot and do not guarantee or promise that you will receive any benefits from this study.</p>

      <p><strong>PAYMENTS:</strong> You will receive payment in the amount advertised on Prolific. If you do not complete this study, you will receive prorated payment based on the time that you have spent. Additionally, you may be eligible for bonus payments as described in the instructions.</p>

      <p><strong>PARTICIPANT’S RIGHTS:</strong> If you have read this form and have decided to participate in this project, please understand your participation is voluntary and you have the right to withdraw your consent or discontinue participation at any time without penalty or loss of benefits to which you are otherwise entitled. The alternative is not to participate. You have the right to refuse to answer particular questions. The results of this research study may be presented at scientific or professional meetings or published in scientific journals. Your individual privacy will be maintained in all published and written data resulting from the study. In accordance with scientific norms, the data from this study may be used or shared with other researchers for future research (after removing personally identifying information) without additional consent from you.</p>

      <p><strong>CONTACT INFORMATION:</strong><br>
      Questions: If you have any questions, concerns or complaints about this research, its procedures, risks and benefits, contact the Protocol Director, Robert Hawkins (<a href=""mailto:rdhawkins@stanford.edu"">rdhawkins@stanford.edu</a>, 217-549-6923).<br>
      Independent Contact: If you are not satisfied with how this study is being conducted, or if you have any concerns, complaints, or general questions about the research or your rights as a participant, please contact the Stanford Institutional Review Board (IRB) to speak to someone independent of the research team at 650-723-2480 or toll free at 1-866-680-2906, or email at <a href=""mailto:irbnon-med@stanford.edu"">irbnon-med@stanford.edu</a>. You can also write to the Stanford IRB, Stanford University, 1705 El Camino Real, Palo Alto, CA 94306.</p>

      <p><strong>Please save or print a copy of this page for your records.</strong></p>
      <p>If you agree to participate in this research, click ""Continue"" below.</p>
    </div>
  ","0","html-button-response","0","2.1.0","84734","F=YES, J=NO","pgm71lfn1c","0","73","75","70","","","","","","","","","","","","","","","",""
"11896","
    <div style=""max-width: 800px; margin: auto; text-align: left;"">
      <h2>Welcome!</h2>
      <p>Thank you for participating in this study. The experiment consists of three parts:</p>
      <ol>
        <li>An English vocabulary test</li>
        <li>A main task in which you will hear and see words, and decide whether the written word is a real English word</li>
        <li>A brief survey about your background</li>
      </ol>
      <p>Each part will be introduced before it begins.</p>
      <p>Please make sure you are in a quiet environment and can hear audio clearly for the final task.</p>
      <p style=""margin-top: 2em;"">Press any key to begin.</p>
    </div>
  ","ArrowRight","html-keyboard-response","1","2.1.0","96637","F=YES, J=NO","pgm71lfn1c","0","73","75","70","","","","","","","","","","","","","","","",""
"","","","preload","2","2.1.0","98858","F=YES, J=NO","pgm71lfn1c","0","73","75","70","true","false","[]","[]","[]","","","","","","","","","","",""
"4126","
    <div style=""max-width: 800px; margin: auto; text-align: left;"">
      <h2>Part 1: Vocabulary Test</h2>
      <p>You will now complete the first part of the study: a short English vocabulary test.</p>
      <p>This test is called <strong>LexTALE</strong> and helps us get a general sense of your English proficiency.</p>
      <p style=""margin-top: 2em;"">Press any key to continue.</p>
    </div>
  ","ArrowRight","html-keyboard-response","3","2.1.0","102988","F=YES, J=NO","pgm71lfn1c","0","73","75","70","","","","","","","","","","","","","","","",""
"1886","
    <div style=""max-width: 800px; margin: auto; text-align: left;"">
      <h2>LexTALE Vocabulary Test</h2>
      <p>In this test, you will see a series of letter strings—one at a time.</p>
      <p>Your task is to decide whether each string is a real English word.</p>
      <p><strong>Key responses:</strong></p>
      <ul>
        <li><strong>F</strong> = YES (real English word)</li>
        <li><strong>J</strong> = NO (not a real English word)</li>
      </ul>
      <p>There is no time limit, but please try to be accurate.</p>
      <p style=""margin-top: 2em;"">Press any key to begin.</p>
    </div>
  ","ArrowLeft","html-keyboard-response","4","2.1.0","104877","F=YES, J=NO","pgm71lfn1c","0","73","75","70","","","","","","","","","","","","","","","",""
"4495","
  <p style=""font-size: 40px;"">platery</p>
  <p style=""font-size: 16px;"">F = YES &nbsp;&nbsp;&nbsp; J = NO</p>
","f","html-keyboard-response","5","2.1.0","109374","F=YES, J=NO","pgm71lfn1c","0","73","75","70","","","","","","lextale","false","true","","","","","","","",""
"2365","
  <p style=""font-size: 40px;"">denial</p>
  <p style=""font-size: 16px;"">F = YES &nbsp;&nbsp;&nbsp; J = NO</p>
","f","html-keyboard-response","6","2.1.0","111741","F=YES, J=NO","pgm71lfn1c","0","73","75","70","","","","","","lextale","true","true","","","","","","","",""
"4079","
  <p style=""font-size: 40px;"">marrit</p>
  <p style=""font-size: 16px;"">F = YES &nbsp;&nbsp;&nbsp; J = NO</p>
","j","html-keyboard-response","7","2.1.0","115823","F=YES, J=NO","pgm71lfn1c","0","73","75","70","","","","","","lextale","false","true","","","","","","","",""
"1085","
  <p style=""font-size: 40px;"">bottle</p>
  <p style=""font-size: 16px;"">F = YES &nbsp;&nbsp;&nbsp; J = NO</p>
","f","html-keyboard-response","8","2.1.0","116910","F=YES, J=NO","pgm71lfn1c","0","73","75","70","","","","","","lextale","true","false","","","","","","","",""
"1422","
  <p style=""font-size: 40px;"">birst</p>
  <p style=""font-size: 16px;"">F = YES &nbsp;&nbsp;&nbsp; J = NO</p>
","j","html-keyboard-response","9","2.1.0","118335","F=YES, J=NO","pgm71lfn1c","0","73","75","70","","","","","","lextale","false","false","","","","","","","",""
"1021","
  <p style=""font-size: 40px;"">envy</p>
  <p style=""font-size: 16px;"">F = YES &nbsp;&nbsp;&nbsp; J = NO</p>
","f","html-keyboard-response","10","2.1.0","119359","F=YES, J=NO","pgm71lfn1c","0","73","75","70","","","","","","lextale","true","false","","","","","","","",""
"2269","
  <p style=""font-size: 40px;"">brang</p>
  <p style=""font-size: 16px;"">F = YES &nbsp;&nbsp;&nbsp; J = NO</p>
","f","html-keyboard-response","11","2.1.0","121630","F=YES, J=NO","pgm71lfn1c","0","73","75","70","","","","","","lextale","false","false","","","","","","","",""
"671","
  <p style=""font-size: 40px;"">huge</p>
  <p style=""font-size: 16px;"">F = YES &nbsp;&nbsp;&nbsp; J = NO</p>
","f","html-keyboard-response","12","2.1.0","122303","F=YES, J=NO","pgm71lfn1c","0","73","75","70","","","","","","lextale","true","false","","","","","","","",""
"3663","
  <p style=""font-size: 40px;"">plove</p>
  <p style=""font-size: 16px;"">F = YES &nbsp;&nbsp;&nbsp; J = NO</p>
","f","html-keyboard-response","13","2.1.0","125967","F=YES, J=NO","pgm71lfn1c","0","73","75","70","","","","","","lextale","false","false","","","","","","","",""
"622","
  <p style=""font-size: 40px;"">border</p>
  <p style=""font-size: 16px;"">F = YES &nbsp;&nbsp;&nbsp; J = NO</p>
","f","html-keyboard-response","14","2.1.0","126591","F=YES, J=NO","pgm71lfn1c","0","73","75","70","","","","","","lextale","true","false","","","","","","","",""
"2894","
  <p style=""font-size: 40px;"">flimsy</p>
  <p style=""font-size: 16px;"">F = YES &nbsp;&nbsp;&nbsp; J = NO</p>
","f","html-keyboard-response","15","2.1.0","129488","F=YES, J=NO","pgm71lfn1c","0","73","75","70","","","","","","lextale","true","false","","","","","","","",""
"670","
  <p style=""font-size: 40px;"">drain</p>
  <p style=""font-size: 16px;"">F = YES &nbsp;&nbsp;&nbsp; J = NO</p>
","f","html-keyboard-response","16","2.1.0","130160","F=YES, J=NO","pgm71lfn1c","0","73","75","70","","","","","","lextale","true","false","","","","","","","",""
"815","
  <p style=""font-size: 40px;"">twindle</p>
  <p style=""font-size: 16px;"">F = YES &nbsp;&nbsp;&nbsp; J = NO</p>
","j","html-keyboard-response","17","2.1.0","130977","F=YES, J=NO","pgm71lfn1c","0","73","75","70","","","","","","lextale","false","false","","","","","","","",""
"814","
  <p style=""font-size: 40px;"">propose</p>
  <p style=""font-size: 16px;"">F = YES &nbsp;&nbsp;&nbsp; J = NO</p>
","f","html-keyboard-response","18","2.1.0","131792","F=YES, J=NO","pgm71lfn1c","0","73","75","70","","","","","","lextale","true","false","","","","","","","",""
"717","
  <p style=""font-size: 40px;"">forlay</p>
  <p style=""font-size: 16px;"">F = YES &nbsp;&nbsp;&nbsp; J = NO</p>
","j","html-keyboard-response","19","2.1.0","132511","F=YES, J=NO","pgm71lfn1c","0","73","75","70","","","","","","lextale","false","false","","","","","","","",""
"911","
  <p style=""font-size: 40px;"">tenant</p>
  <p style=""font-size: 16px;"">F = YES &nbsp;&nbsp;&nbsp; J = NO</p>
","f","html-keyboard-response","20","2.1.0","133425","F=YES, J=NO","pgm71lfn1c","0","73","75","70","","","","","","lextale","true","false","","","","","","","",""
"846","
  <p style=""font-size: 40px;"">strain</p>
  <p style=""font-size: 16px;"">F = YES &nbsp;&nbsp;&nbsp; J = NO</p>
","f","html-keyboard-response","21","2.1.0","134273","F=YES, J=NO","pgm71lfn1c","0","73","75","70","","","","","","lextale","true","false","","","","","","","",""
"974","
  <p style=""font-size: 40px;"">holster</p>
  <p style=""font-size: 16px;"">F = YES &nbsp;&nbsp;&nbsp; J = NO</p>
","j","html-keyboard-response","22","2.1.0","135249","F=YES, J=NO","pgm71lfn1c","0","73","75","70","","","","","","lextale","true","false","","","","","","","",""
"1645","
  <p style=""font-size: 40px;"">hinder</p>
  <p style=""font-size: 16px;"">F = YES &nbsp;&nbsp;&nbsp; J = NO</p>
","f","html-keyboard-response","23","2.1.0","136896","F=YES, J=NO","pgm71lfn1c","0","73","75","70","","","","","","lextale","true","false","","","","","","","",""
"1264","
  <p style=""font-size: 40px;"">swindle</p>
  <p style=""font-size: 16px;"">F = YES &nbsp;&nbsp;&nbsp; J = NO</p>
","f","html-keyboard-response","24","2.1.0","138161","F=YES, J=NO","pgm71lfn1c","0","73","75","70","","","","","","lextale","true","false","","","","","","","",""
"957","
  <p style=""font-size: 40px;"">nuder</p>
  <p style=""font-size: 16px;"">F = YES &nbsp;&nbsp;&nbsp; J = NO</p>
","j","html-keyboard-response","25","2.1.0","139121","F=YES, J=NO","pgm71lfn1c","0","73","75","70","","","","","","lextale","false","false","","","","","","","",""
"719","
  <p style=""font-size: 40px;"">pillow</p>
  <p style=""font-size: 16px;"">F = YES &nbsp;&nbsp;&nbsp; J = NO</p>
","f","html-keyboard-response","26","2.1.0","139840","F=YES, J=NO","pgm71lfn1c","0","73","75","70","","","","","","lextale","true","false","","","","","","","",""
"1343","
  <p style=""font-size: 40px;"">shumble</p>
  <p style=""font-size: 16px;"">F = YES &nbsp;&nbsp;&nbsp; J = NO</p>
","j","html-keyboard-response","27","2.1.0","141185","F=YES, J=NO","pgm71lfn1c","0","73","75","70","","","","","","lextale","false","false","","","","","","","",""
"686","
  <p style=""font-size: 40px;"">thirst</p>
  <p style=""font-size: 16px;"">F = YES &nbsp;&nbsp;&nbsp; J = NO</p>
","f","html-keyboard-response","28","2.1.0","141874","F=YES, J=NO","pgm71lfn1c","0","73","75","70","","","","","","lextale","true","false","","","","","","","",""
"2863","
  <p style=""font-size: 40px;"">unsail</p>
  <p style=""font-size: 16px;"">F = YES &nbsp;&nbsp;&nbsp; J = NO</p>
","f","html-keyboard-response","29","2.1.0","144738","F=YES, J=NO","pgm71lfn1c","0","73","75","70","","","","","","lextale","false","false","","","","","","","",""
"800","
  <p style=""font-size: 40px;"">rifle</p>
  <p style=""font-size: 16px;"">F = YES &nbsp;&nbsp;&nbsp; J = NO</p>
","f","html-keyboard-response","30","2.1.0","145539","F=YES, J=NO","pgm71lfn1c","0","73","75","70","","","","","","lextale","true","false","","","","","","","",""
"1406","
  <p style=""font-size: 40px;"">mush</p>
  <p style=""font-size: 16px;"">F = YES &nbsp;&nbsp;&nbsp; J = NO</p>
","f","html-keyboard-response","31","2.1.0","146946","F=YES, J=NO","pgm71lfn1c","0","73","75","70","","","","","","lextale","false","false","","","","","","","",""
"877","
  <p style=""font-size: 40px;"">drench</p>
  <p style=""font-size: 16px;"">F = YES &nbsp;&nbsp;&nbsp; J = NO</p>
","f","html-keyboard-response","32","2.1.0","147826","F=YES, J=NO","pgm71lfn1c","0","73","75","70","","","","","","lextale","true","false","","","","","","","",""
"1215","
  <p style=""font-size: 40px;"">snirt</p>
  <p style=""font-size: 16px;"">F = YES &nbsp;&nbsp;&nbsp; J = NO</p>
","j","html-keyboard-response","33","2.1.0","149043","F=YES, J=NO","pgm71lfn1c","0","73","75","70","","","","","","lextale","false","false","","","","","","","",""
"702","
  <p style=""font-size: 40px;"">bitter</p>
  <p style=""font-size: 16px;"">F = YES &nbsp;&nbsp;&nbsp; J = NO</p>
","f","html-keyboard-response","34","2.1.0","149746","F=YES, J=NO","pgm71lfn1c","0","73","75","70","","","","","","lextale","true","false","","","","","","","",""
"861","
  <p style=""font-size: 40px;"">pliff</p>
  <p style=""font-size: 16px;"">F = YES &nbsp;&nbsp;&nbsp; J = NO</p>
","j","html-keyboard-response","35","2.1.0","150611","F=YES, J=NO","pgm71lfn1c","0","73","75","70","","","","","","lextale","false","false","","","","","","","",""
"703","
  <p style=""font-size: 40px;"">tablet</p>
  <p style=""font-size: 16px;"">F = YES &nbsp;&nbsp;&nbsp; J = NO</p>
","f","html-keyboard-response","36","2.1.0","151315","F=YES, J=NO","pgm71lfn1c","0","73","75","70","","","","","","lextale","true","false","","","","","","","",""
"1102","
  <p style=""font-size: 40px;"">glimmer</p>
  <p style=""font-size: 16px;"">F = YES &nbsp;&nbsp;&nbsp; J = NO</p>
","f","html-keyboard-response","37","2.1.0","152418","F=YES, J=NO","pgm71lfn1c","0","73","75","70","","","","","","lextale","true","false","","","","","","","",""
"2799","
  <p style=""font-size: 40px;"">slink</p>
  <p style=""font-size: 16px;"">F = YES &nbsp;&nbsp;&nbsp; J = NO</p>
","j","html-keyboard-response","38","2.1.0","155219","F=YES, J=NO","pgm71lfn1c","0","73","75","70","","","","","","lextale","true","false","","","","","","","",""
"655","
  <p style=""font-size: 40px;"">clever</p>
  <p style=""font-size: 16px;"">F = YES &nbsp;&nbsp;&nbsp; J = NO</p>
","f","html-keyboard-response","39","2.1.0","155874","F=YES, J=NO","pgm71lfn1c","0","73","75","70","","","","","","lextale","true","false","","","","","","","",""
"911","
  <p style=""font-size: 40px;"">grum</p>
  <p style=""font-size: 16px;"">F = YES &nbsp;&nbsp;&nbsp; J = NO</p>
","j","html-keyboard-response","40","2.1.0","156787","F=YES, J=NO","pgm71lfn1c","0","73","75","70","","","","","","lextale","false","false","","","","","","","",""
"558","
  <p style=""font-size: 40px;"">string</p>
  <p style=""font-size: 16px;"">F = YES &nbsp;&nbsp;&nbsp; J = NO</p>
","f","html-keyboard-response","41","2.1.0","157348","F=YES, J=NO","pgm71lfn1c","0","73","75","70","","","","","","lextale","true","false","","","","","","","",""
"1390","
  <p style=""font-size: 40px;"">plim</p>
  <p style=""font-size: 16px;"">F = YES &nbsp;&nbsp;&nbsp; J = NO</p>
","j","html-keyboard-response","42","2.1.0","158739","F=YES, J=NO","pgm71lfn1c","0","73","75","70","","","","","","lextale","false","false","","","","","","","",""
"477","
  <p style=""font-size: 40px;"">cable</p>
  <p style=""font-size: 16px;"">F = YES &nbsp;&nbsp;&nbsp; J = NO</p>
","f","html-keyboard-response","43","2.1.0","159219","F=YES, J=NO","pgm71lfn1c","0","73","75","70","","","","","","lextale","true","false","","","","","","","",""
"1454","
  <p style=""font-size: 40px;"">shrivel</p>
  <p style=""font-size: 16px;"">F = YES &nbsp;&nbsp;&nbsp; J = NO</p>
","f","html-keyboard-response","44","2.1.0","160676","F=YES, J=NO","pgm71lfn1c","0","73","75","70","","","","","","lextale","true","false","","","","","","","",""
"671","
  <p style=""font-size: 40px;"">tarnish</p>
  <p style=""font-size: 16px;"">F = YES &nbsp;&nbsp;&nbsp; J = NO</p>
","f","html-keyboard-response","45","2.1.0","161347","F=YES, J=NO","pgm71lfn1c","0","73","75","70","","","","","","lextale","true","false","","","","","","","",""
"927","
  <p style=""font-size: 40px;"">blim</p>
  <p style=""font-size: 16px;"">F = YES &nbsp;&nbsp;&nbsp; J = NO</p>
","j","html-keyboard-response","46","2.1.0","162276","F=YES, J=NO","pgm71lfn1c","0","73","75","70","","","","","","lextale","false","false","","","","","","","",""
"766","
  <p style=""font-size: 40px;"">stifle</p>
  <p style=""font-size: 16px;"">F = YES &nbsp;&nbsp;&nbsp; J = NO</p>
","j","html-keyboard-response","47","2.1.0","163044","F=YES, J=NO","pgm71lfn1c","0","73","75","70","","","","","","lextale","true","false","","","","","","","",""
"942","
  <p style=""font-size: 40px;"">bint</p>
  <p style=""font-size: 16px;"">F = YES &nbsp;&nbsp;&nbsp; J = NO</p>
","j","html-keyboard-response","48","2.1.0","163989","F=YES, J=NO","pgm71lfn1c","0","73","75","70","","","","","","lextale","false","false","","","","","","","",""
"622","
  <p style=""font-size: 40px;"">purple</p>
  <p style=""font-size: 16px;"">F = YES &nbsp;&nbsp;&nbsp; J = NO</p>
","f","html-keyboard-response","49","2.1.0","164613","F=YES, J=NO","pgm71lfn1c","0","73","75","70","","","","","","lextale","true","false","","","","","","","",""
"3085","
  <p style=""font-size: 40px;"">wriggle</p>
  <p style=""font-size: 16px;"">F = YES &nbsp;&nbsp;&nbsp; J = NO</p>
","f","html-keyboard-response","50","2.1.0","167701","F=YES, J=NO","pgm71lfn1c","0","73","75","70","","","","","","lextale","true","false","","","","","","","",""
"1263","
  <p style=""font-size: 40px;"">mangle</p>
  <p style=""font-size: 16px;"">F = YES &nbsp;&nbsp;&nbsp; J = NO</p>
","j","html-keyboard-response","51","2.1.0","168965","F=YES, J=NO","pgm71lfn1c","0","73","75","70","","","","","","lextale","true","false","","","","","","","",""
"1006","
  <p style=""font-size: 40px;"">shramp</p>
  <p style=""font-size: 16px;"">F = YES &nbsp;&nbsp;&nbsp; J = NO</p>
","f","html-keyboard-response","52","2.1.0","169973","F=YES, J=NO","pgm71lfn1c","0","73","75","70","","","","","","lextale","false","false","","","","","","","",""
"558","
  <p style=""font-size: 40px;"">flirt</p>
  <p style=""font-size: 16px;"">F = YES &nbsp;&nbsp;&nbsp; J = NO</p>
","f","html-keyboard-response","53","2.1.0","170533","F=YES, J=NO","pgm71lfn1c","0","73","75","70","","","","","","lextale","true","false","","","","","","","",""
"974","
  <p style=""font-size: 40px;"">frip</p>
  <p style=""font-size: 16px;"">F = YES &nbsp;&nbsp;&nbsp; J = NO</p>
","j","html-keyboard-response","54","2.1.0","171509","F=YES, J=NO","pgm71lfn1c","0","73","75","70","","","","","","lextale","false","false","","","","","","","",""
"1118","
  <p style=""font-size: 40px;"">tangle</p>
  <p style=""font-size: 16px;"">F = YES &nbsp;&nbsp;&nbsp; J = NO</p>
","f","html-keyboard-response","55","2.1.0","172629","F=YES, J=NO","pgm71lfn1c","0","73","75","70","","","","","","lextale","true","false","","","","","","","",""
"863","
  <p style=""font-size: 40px;"">crumble</p>
  <p style=""font-size: 16px;"">F = YES &nbsp;&nbsp;&nbsp; J = NO</p>
","f","html-keyboard-response","56","2.1.0","173494","F=YES, J=NO","pgm71lfn1c","0","73","75","70","","","","","","lextale","true","false","","","","","","","",""
"670","
  <p style=""font-size: 40px;"">wrinkle</p>
  <p style=""font-size: 16px;"">F = YES &nbsp;&nbsp;&nbsp; J = NO</p>
","f","html-keyboard-response","57","2.1.0","174165","F=YES, J=NO","pgm71lfn1c","0","73","75","70","","","","","","lextale","true","false","","","","","","","",""
"959","
  <p style=""font-size: 40px;"">slumb</p>
  <p style=""font-size: 16px;"">F = YES &nbsp;&nbsp;&nbsp; J = NO</p>
","j","html-keyboard-response","58","2.1.0","175125","F=YES, J=NO","pgm71lfn1c","0","73","75","70","","","","","","lextale","false","false","","","","","","","",""
"526","
  <p style=""font-size: 40px;"">jungle</p>
  <p style=""font-size: 16px;"">F = YES &nbsp;&nbsp;&nbsp; J = NO</p>
","f","html-keyboard-response","59","2.1.0","175653","F=YES, J=NO","pgm71lfn1c","0","73","75","70","","","","","","lextale","true","false","","","","","","","",""
"877","
  <p style=""font-size: 40px;"">frolick</p>
  <p style=""font-size: 16px;"">F = YES &nbsp;&nbsp;&nbsp; J = NO</p>
","j","html-keyboard-response","60","2.1.0","176533","F=YES, J=NO","pgm71lfn1c","0","73","75","70","","","","","","lextale","false","false","","","","","","","",""
"3198","
      <h2>LexTALE Test Completed</h2>
      <p>Your LexTALE vocabulary score is: <strong>73%</strong></p>
      <p>Press any key to continue.</p>
    ","ArrowRight","html-keyboard-response","61","2.1.0","179733","F=YES, J=NO","pgm71lfn1c","0","73","75","70","","","","","","","","","","","","","","","",""
"39252","
    <div style=""max-width: 800px; margin: auto; text-align: left;"">
      <h2>Break Time</h2>
      <p>You have completed the first part of the study.</p>
      <p>You may take a short <strong>30-second break</strong> before continuing.</p>
      <p>When you’re ready, press any key to continue to the final task.</p>
    </div>
  ","ArrowRight","html-keyboard-response","62","2.1.0","218987","F=YES, J=NO","pgm71lfn1c","0","73","75","70","","","","","","","","","","","","","","","",""
"45908","
    <div style=""max-width: 800px; margin: auto; text-align: left;"">
      <h2>Part 2: Lexical Decision Task</h2>
      <p>You will now begin the second part of the study.</p>
      <p>Each trial will follow this sequence:</p>
      <ul>
        <li>A fixation cross (+) appears at the center of the screen.</li>
        <li>You will hear a short beep followed by a spoken word.</li>
        <li>A written word will appear briefly on the screen.</li>
      </ul>
      <p>Your task is to judge whether the <strong>written word</strong> is a real English word.</p>
      <p style=""margin-top: 1em;""><strong>Key responses:</strong></p>
      <ul>
        <li><strong>F</strong> = YES (real English word)</li>
        <li><strong>J</strong> = NO (not a real English word)</li>
      </ul>
      <p>Please respond as quickly and accurately as you can.</p>
      <p style=""margin-top: 2em;"">Press any key to continue.</p>
    </div>
  ","ArrowRight","html-keyboard-response","63","2.1.0","264896","F=YES, J=NO","pgm71lfn1c","0","73","75","70","","","","","","","","","","","","","","","",""
"9823","
    <div style=""max-width: 800px; margin: auto; text-align: left;"">
      <h2>Before You Begin</h2>
      <p>Make sure your sound is turned on.</p>
      <p>You will hear audio during each trial, but your decision should be based only on the <strong>written word</strong> you see on the screen.</p>
      <p><strong>Reminder:</strong></p>
      <ul>
        <li><strong>F</strong> = YES (real English word)</li>
        <li><strong>J</strong> = NO (not a real English word)</li>
      </ul>
      <p style=""margin-top: 2em;"">Press any key when you are ready to begin.</p>
    </div>
  ","ArrowRight","html-keyboard-response","64","2.1.0","274722","F=YES, J=NO","pgm71lfn1c","0","73","75","70","","","","","","","","","","","","","","","",""
"3966","
    <div style=""max-width: 800px; margin: auto; text-align: left;"">
      <h2>Part 2: Practice Trials</h2>
      <p>You will now complete a few <strong>practice trials</strong> to get familiar with the task.</p>
      <p>These trials are <strong>not scored</strong> and are only to help you get used to the format.</p>
      <p style=""margin-top: 2em;"">Press any key to begin.</p>
    </div>
  ","ArrowRight","html-keyboard-response","65","2.1.0","278691","F=YES, J=NO","pgm71lfn1c","0","73","75","70","","","","","","","","","","","","","","","",""
"1326","<p>Starting practice block 1 of 2. Press any key to continue.</p>","ArrowRight","html-keyboard-response","66","2.1.0","280018","F=YES, J=NO","pgm71lfn1c","0","73","75","70","","","","","","","","","","","","","","","",""
"null","<p style=""font-size: 50px;"">+</p>","null","html-keyboard-response","67","2.1.0","280320","F=YES, J=NO","pgm71lfn1c","0","73","75","70","","","","","","","","","","","","","","","",""
"null","audio/beep-329314.mp3","null","audio-keyboard-response","68","2.1.0","282032","F=YES, J=NO","pgm71lfn1c","0","73","75","70","","","","","","","","","","","","","","","",""
"null","audio/hawk1.wav","null","audio-keyboard-response","69","2.1.0","282795","F=YES, J=NO","pgm71lfn1c","0","73","75","70","","","","","","","","","","","","","","","",""
"null","
          <p id=""word"" style=""font-size: 40px;"">ostach</p>
          <p style=""font-size: 16px;"">F = YES &nbsp;&nbsp;&nbsp; J = NO</p>
        ","null","html-keyboard-response","70","2.1.0","284297","F=YES, J=NO","pgm71lfn1c","0","73","75","70","","","","","","","","","ostach","hawk1","pseudoword","pseudoword","j","false","",""
"null","<p style=""font-size: 50px;"">+</p>","null","html-keyboard-response","71","2.1.0","284599","F=YES, J=NO","pgm71lfn1c","0","73","75","70","","","","","","","","","","","","","","","",""
"null","audio/beep-329314.mp3","null","audio-keyboard-response","72","2.1.0","286298","F=YES, J=NO","pgm71lfn1c","0","73","75","70","","","","","","","","","","","","","","","",""
"null","audio/foot1.wav","null","audio-keyboard-response","73","2.1.0","287549","F=YES, J=NO","pgm71lfn1c","0","73","75","70","","","","","","","","","","","","","","","",""
"597","
          <p id=""word"" style=""font-size: 40px;"">thrutt</p>
          <p style=""font-size: 16px;"">F = YES &nbsp;&nbsp;&nbsp; J = NO</p>
        ","f","html-keyboard-response","74","2.1.0","288148","F=YES, J=NO","pgm71lfn1c","0","73","75","70","","","","","","","","","thrutt","foot1","pseudoword","pseudoword","j","false","",""
"null","<p style=""font-size: 50px;"">+</p>","null","html-keyboard-response","75","2.1.0","288450","F=YES, J=NO","pgm71lfn1c","0","73","75","70","","","","","","","","","","","","","","","",""
"null","audio/beep-329314.mp3","null","audio-keyboard-response","76","2.1.0","290139","F=YES, J=NO","pgm71lfn1c","0","73","75","70","","","","","","","","","","","","","","","",""
"null","audio/dome.wav","null","audio-keyboard-response","77","2.1.0","291024","F=YES, J=NO","pgm71lfn1c","0","73","75","70","","","","","","","","","","","","","","","",""
"881","
          <p id=""word"" style=""font-size: 40px;"">scrupliness</p>
          <p style=""font-size: 16px;"">F = YES &nbsp;&nbsp;&nbsp; J = NO</p>
        ","f","html-keyboard-response","78","2.1.0","291908","F=YES, J=NO","pgm71lfn1c","0","73","75","70","","","","","","","","","scrupliness","dome","pseudoword","pseudoword","j","false","",""
"null","<p style=""font-size: 50px;"">+</p>","null","html-keyboard-response","79","2.1.0","292210","F=YES, J=NO","pgm71lfn1c","0","73","75","70","","","","","","","","","","","","","","","",""
"null","audio/beep-329314.mp3","null","audio-keyboard-response","80","2.1.0","293936","F=YES, J=NO","pgm71lfn1c","0","73","75","70","","","","","","","","","","","","","","","",""
"null","audio/window1.wav","null","audio-keyboard-response","81","2.1.0","295044","F=YES, J=NO","pgm71lfn1c","0","73","75","70","","","","","","","","","","","","","","","",""
"797","
          <p id=""word"" style=""font-size: 40px;"">toss</p>
          <p style=""font-size: 16px;"">F = YES &nbsp;&nbsp;&nbsp; J = NO</p>
        ","f","html-keyboard-response","82","2.1.0","295845","F=YES, J=NO","pgm71lfn1c","0","73","75","70","","","","","","","","","toss","window1","filler","filler","f","true","",""
"null","<p style=""font-size: 50px;"">+</p>","null","html-keyboard-response","83","2.1.0","296147","F=YES, J=NO","pgm71lfn1c","0","73","75","70","","","","","","","","","","","","","","","",""
"null","audio/beep-329314.mp3","null","audio-keyboard-response","84","2.1.0","297860","F=YES, J=NO","pgm71lfn1c","0","73","75","70","","","","","","","","","","","","","","","",""
"null","audio/foe1.wav","null","audio-keyboard-response","85","2.1.0","298761","F=YES, J=NO","pgm71lfn1c","0","73","75","70","","","","","","","","","","","","","","","",""
"811","
          <p id=""word"" style=""font-size: 40px;"">creth</p>
          <p style=""font-size: 16px;"">F = YES &nbsp;&nbsp;&nbsp; J = NO</p>
        ","j","html-keyboard-response","86","2.1.0","299573","F=YES, J=NO","pgm71lfn1c","0","73","75","70","","","","","","","","","creth","foe1","pseudoword","pseudoword","j","true","",""
"null","<p style=""font-size: 50px;"">+</p>","null","html-keyboard-response","87","2.1.0","299875","F=YES, J=NO","pgm71lfn1c","0","73","75","70","","","","","","","","","","","","","","","",""
"null","audio/beep-329314.mp3","null","audio-keyboard-response","88","2.1.0","301574","F=YES, J=NO","pgm71lfn1c","0","73","75","70","","","","","","","","","","","","","","","",""
"null","audio/ego.wav","null","audio-keyboard-response","89","2.1.0","302593","F=YES, J=NO","pgm71lfn1c","0","73","75","70","","","","","","","","","","","","","","","",""
"787","
          <p id=""word"" style=""font-size: 40px;"">bruite</p>
          <p style=""font-size: 16px;"">F = YES &nbsp;&nbsp;&nbsp; J = NO</p>
        ","j","html-keyboard-response","90","2.1.0","303382","F=YES, J=NO","pgm71lfn1c","0","73","75","70","","","","","","","","","bruite","ego","pseudoword","pseudoword","j","true","",""
"null","<p style=""font-size: 50px;"">+</p>","null","html-keyboard-response","91","2.1.0","303685","F=YES, J=NO","pgm71lfn1c","0","73","75","70","","","","","","","","","","","","","","","",""
"null","audio/beep-329314.mp3","null","audio-keyboard-response","92","2.1.0","305415","F=YES, J=NO","pgm71lfn1c","0","73","75","70","","","","","","","","","","","","","","","",""
"null","audio/handle.wav","null","audio-keyboard-response","93","2.1.0","306493","F=YES, J=NO","pgm71lfn1c","0","73","75","70","","","","","","","","","","","","","","","",""
"891","
          <p id=""word"" style=""font-size: 40px;"">moutes</p>
          <p style=""font-size: 16px;"">F = YES &nbsp;&nbsp;&nbsp; J = NO</p>
        ","f","html-keyboard-response","94","2.1.0","307386","F=YES, J=NO","pgm71lfn1c","0","73","75","70","","","","","","","","","moutes","handle","pseudoword","pseudoword","j","false","",""
"null","<p style=""font-size: 50px;"">+</p>","null","html-keyboard-response","95","2.1.0","307689","F=YES, J=NO","pgm71lfn1c","0","73","75","70","","","","","","","","","","","","","","","",""
"null","audio/beep-329314.mp3","null","audio-keyboard-response","96","2.1.0","309380","F=YES, J=NO","pgm71lfn1c","0","73","75","70","","","","","","","","","","","","","","","",""
"null","audio/account1.wav","null","audio-keyboard-response","97","2.1.0","310447","F=YES, J=NO","pgm71lfn1c","0","73","75","70","","","","","","","","","","","","","","","",""
"549","
          <p id=""word"" style=""font-size: 40px;"">paint</p>
          <p style=""font-size: 16px;"">F = YES &nbsp;&nbsp;&nbsp; J = NO</p>
        ","f","html-keyboard-response","98","2.1.0","310998","F=YES, J=NO","pgm71lfn1c","0","73","75","70","","","","","","","","","paint","account1","filler","filler","f","true","",""
"null","<p style=""font-size: 50px;"">+</p>","null","html-keyboard-response","99","2.1.0","311301","F=YES, J=NO","pgm71lfn1c","0","73","75","70","","","","","","","","","","","","","","","",""
"null","audio/beep-329314.mp3","null","audio-keyboard-response","100","2.1.0","313007","F=YES, J=NO","pgm71lfn1c","0","73","75","70","","","","","","","","","","","","","","","",""
"null","audio/kettle1.wav","null","audio-keyboard-response","101","2.1.0","313646","F=YES, J=NO","pgm71lfn1c","0","73","75","70","","","","","","","","","","","","","","","",""
"631","
          <p id=""word"" style=""font-size: 40px;"">wrap</p>
          <p style=""font-size: 16px;"">F = YES &nbsp;&nbsp;&nbsp; J = NO</p>
        ","f","html-keyboard-response","102","2.1.0","314278","F=YES, J=NO","pgm71lfn1c","0","73","75","70","","","","","","","","","wrap","kettle1","filler","filler","f","true","",""
"null","<p style=""font-size: 50px;"">+</p>","null","html-keyboard-response","103","2.1.0","314581","F=YES, J=NO","pgm71lfn1c","0","73","75","70","","","","","","","","","","","","","","","",""
"null","audio/beep-329314.mp3","null","audio-keyboard-response","104","2.1.0","316295","F=YES, J=NO","pgm71lfn1c","0","73","75","70","","","","","","","","","","","","","","","",""
"null","audio/roof1.wav","null","audio-keyboard-response","105","2.1.0","317283","F=YES, J=NO","pgm71lfn1c","0","73","75","70","","","","","","","","","","","","","","","",""
"1011","
          <p id=""word"" style=""font-size: 40px;"">wronb</p>
          <p style=""font-size: 16px;"">F = YES &nbsp;&nbsp;&nbsp; J = NO</p>
        ","j","html-keyboard-response","106","2.1.0","318296","F=YES, J=NO","pgm71lfn1c","0","73","75","70","","","","","","","","","wronb","roof1","pseudoword","pseudoword","j","true","",""
"null","<p style=""font-size: 50px;"">+</p>","null","html-keyboard-response","107","2.1.0","318597","F=YES, J=NO","pgm71lfn1c","0","73","75","70","","","","","","","","","","","","","","","",""
"null","audio/beep-329314.mp3","null","audio-keyboard-response","108","2.1.0","320307","F=YES, J=NO","pgm71lfn1c","0","73","75","70","","","","","","","","","","","","","","","",""
"null","audio/belief.wav","null","audio-keyboard-response","109","2.1.0","321478","F=YES, J=NO","pgm71lfn1c","0","73","75","70","","","","","","","","","","","","","","","",""
"480","
          <p id=""word"" style=""font-size: 40px;"">read</p>
          <p style=""font-size: 16px;"">F = YES &nbsp;&nbsp;&nbsp; J = NO</p>
        ","f","html-keyboard-response","110","2.1.0","321959","F=YES, J=NO","pgm71lfn1c","0","73","75","70","","","","","","","","","read","belief","filler","filler","f","true","",""
"null","<p style=""font-size: 50px;"">+</p>","null","html-keyboard-response","111","2.1.0","322262","F=YES, J=NO","pgm71lfn1c","0","73","75","70","","","","","","","","","","","","","","","",""
"null","audio/beep-329314.mp3","null","audio-keyboard-response","112","2.1.0","323973","F=YES, J=NO","pgm71lfn1c","0","73","75","70","","","","","","","","","","","","","","","",""
"null","audio/van1.wav","null","audio-keyboard-response","113","2.1.0","325093","F=YES, J=NO","pgm71lfn1c","0","73","75","70","","","","","","","","","","","","","","","",""
"482","
          <p id=""word"" style=""font-size: 40px;"">push</p>
          <p style=""font-size: 16px;"">F = YES &nbsp;&nbsp;&nbsp; J = NO</p>
        ","f","html-keyboard-response","114","2.1.0","325577","F=YES, J=NO","pgm71lfn1c","0","73","75","70","","","","","","","","","push","van1","filler","filler","f","true","",""
"1677","<p>Starting practice block 2 of 2. Press any key to continue.</p>","n","html-keyboard-response","115","2.1.0","327257","F=YES, J=NO","pgm71lfn1c","0","73","75","70","","","","","","","","","","","","","","","",""
"null","<p style=""font-size: 50px;"">+</p>","null","html-keyboard-response","116","2.1.0","327558","F=YES, J=NO","pgm71lfn1c","0","73","75","70","","","","","","","","","","","","","","","",""
"null","audio/beep-329314.mp3","null","audio-keyboard-response","117","2.1.0","329265","F=YES, J=NO","pgm71lfn1c","0","73","75","70","","","","","","","","","","","","","","","",""
"null","audio/bishop1.wav","null","audio-keyboard-response","118","2.1.0","330277","F=YES, J=NO","pgm71lfn1c","0","73","75","70","","","","","","","","","","","","","","","",""
"435","
          <p id=""word"" style=""font-size: 40px;"">play</p>
          <p style=""font-size: 16px;"">F = YES &nbsp;&nbsp;&nbsp; J = NO</p>
        ","f","html-keyboard-response","119","2.1.0","330713","F=YES, J=NO","pgm71lfn1c","0","73","75","70","","","","","","","","","play","bishop1","filler","filler","f","true","",""
"null","<p style=""font-size: 50px;"">+</p>","null","html-keyboard-response","120","2.1.0","331015","F=YES, J=NO","pgm71lfn1c","0","73","75","70","","","","","","","","","","","","","","","",""
"null","audio/beep-329314.mp3","null","audio-keyboard-response","121","2.1.0","332724","F=YES, J=NO","pgm71lfn1c","0","73","75","70","","","","","","","","","","","","","","","",""
"null","audio/gossip1.wav","null","audio-keyboard-response","122","2.1.0","333549","F=YES, J=NO","pgm71lfn1c","0","73","75","70","","","","","","","","","","","","","","","",""
"1226","
          <p id=""word"" style=""font-size: 40px;"">camerish</p>
          <p style=""font-size: 16px;"">F = YES &nbsp;&nbsp;&nbsp; J = NO</p>
        ","j","html-keyboard-response","123","2.1.0","334777","F=YES, J=NO","pgm71lfn1c","0","73","75","70","","","","","","","","","camerish","gossip1","pseudoword","pseudoword","j","true","",""
"null","<p style=""font-size: 50px;"">+</p>","null","html-keyboard-response","124","2.1.0","335094","F=YES, J=NO","pgm71lfn1c","0","73","75","70","","","","","","","","","","","","","","","",""
"null","audio/beep-329314.mp3","null","audio-keyboard-response","125","2.1.0","336775","F=YES, J=NO","pgm71lfn1c","0","73","75","70","","","","","","","","","","","","","","","",""
"null","audio/menu.wav","null","audio-keyboard-response","126","2.1.0","337749","F=YES, J=NO","pgm71lfn1c","0","73","75","70","","","","","","","","","","","","","","","",""
"500","
          <p id=""word"" style=""font-size: 40px;"">slice</p>
          <p style=""font-size: 16px;"">F = YES &nbsp;&nbsp;&nbsp; J = NO</p>
        ","f","html-keyboard-response","127","2.1.0","338250","F=YES, J=NO","pgm71lfn1c","0","73","75","70","","","","","","","","","slice","menu","filler","filler","f","true","",""
"null","<p style=""font-size: 50px;"">+</p>","null","html-keyboard-response","128","2.1.0","338553","F=YES, J=NO","pgm71lfn1c","0","73","75","70","","","","","","","","","","","","","","","",""
"null","audio/beep-329314.mp3","null","audio-keyboard-response","129","2.1.0","340271","F=YES, J=NO","pgm71lfn1c","0","73","75","70","","","","","","","","","","","","","","","",""
"null","audio/sugar1.wav","null","audio-keyboard-response","130","2.1.0","341247","F=YES, J=NO","pgm71lfn1c","0","73","75","70","","","","","","","","","","","","","","","",""
"730","
          <p id=""word"" style=""font-size: 40px;"">glung</p>
          <p style=""font-size: 16px;"">F = YES &nbsp;&nbsp;&nbsp; J = NO</p>
        ","j","html-keyboard-response","131","2.1.0","341979","F=YES, J=NO","pgm71lfn1c","0","73","75","70","","","","","","","","","glung","sugar1","pseudoword","pseudoword","j","true","",""
"null","<p style=""font-size: 50px;"">+</p>","null","html-keyboard-response","132","2.1.0","342280","F=YES, J=NO","pgm71lfn1c","0","73","75","70","","","","","","","","","","","","","","","",""
"null","audio/beep-329314.mp3","null","audio-keyboard-response","133","2.1.0","343985","F=YES, J=NO","pgm71lfn1c","0","73","75","70","","","","","","","","","","","","","","","",""
"null","audio/neck.wav","null","audio-keyboard-response","134","2.1.0","344692","F=YES, J=NO","pgm71lfn1c","0","73","75","70","","","","","","","","","","","","","","","",""
"790","
          <p id=""word"" style=""font-size: 40px;"">werling</p>
          <p style=""font-size: 16px;"">F = YES &nbsp;&nbsp;&nbsp; J = NO</p>
        ","j","html-keyboard-response","135","2.1.0","345483","F=YES, J=NO","pgm71lfn1c","0","73","75","70","","","","","","","","","werling","neck","pseudoword","pseudoword","j","true","",""
"null","<p style=""font-size: 50px;"">+</p>","null","html-keyboard-response","136","2.1.0","345785","F=YES, J=NO","pgm71lfn1c","0","73","75","70","","","","","","","","","","","","","","","",""
"null","audio/beep-329314.mp3","null","audio-keyboard-response","137","2.1.0","347483","F=YES, J=NO","pgm71lfn1c","0","73","75","70","","","","","","","","","","","","","","","",""
"null","audio/vehicle1.wav","null","audio-keyboard-response","138","2.1.0","348326","F=YES, J=NO","pgm71lfn1c","0","73","75","70","","","","","","","","","","","","","","","",""
"739","
          <p id=""word"" style=""font-size: 40px;"">dropt</p>
          <p style=""font-size: 16px;"">F = YES &nbsp;&nbsp;&nbsp; J = NO</p>
        ","f","html-keyboard-response","139","2.1.0","349067","F=YES, J=NO","pgm71lfn1c","0","73","75","70","","","","","","","","","dropt","vehicle1","pseudoword","pseudoword","j","false","",""
"null","<p style=""font-size: 50px;"">+</p>","null","html-keyboard-response","140","2.1.0","349370","F=YES, J=NO","pgm71lfn1c","0","73","75","70","","","","","","","","","","","","","","","",""
"null","audio/beep-329314.mp3","null","audio-keyboard-response","141","2.1.0","351067","F=YES, J=NO","pgm71lfn1c","0","73","75","70","","","","","","","","","","","","","","","",""
"null","audio/floor.wav","null","audio-keyboard-response","142","2.1.0","351800","F=YES, J=NO","pgm71lfn1c","0","73","75","70","","","","","","","","","","","","","","","",""
"658","
          <p id=""word"" style=""font-size: 40px;"">mop</p>
          <p style=""font-size: 16px;"">F = YES &nbsp;&nbsp;&nbsp; J = NO</p>
        ","f","html-keyboard-response","143","2.1.0","352460","F=YES, J=NO","pgm71lfn1c","0","73","75","70","","","","","","","","","mop","floor","filler","filler","f","true","",""
"null","<p style=""font-size: 50px;"">+</p>","null","html-keyboard-response","144","2.1.0","352761","F=YES, J=NO","pgm71lfn1c","0","73","75","70","","","","","","","","","","","","","","","",""
"null","audio/beep-329314.mp3","null","audio-keyboard-response","145","2.1.0","354483","F=YES, J=NO","pgm71lfn1c","0","73","75","70","","","","","","","","","","","","","","","",""
"null","audio/baby.wav","null","audio-keyboard-response","146","2.1.0","355329","F=YES, J=NO","pgm71lfn1c","0","73","75","70","","","","","","","","","","","","","","","",""
"570","
          <p id=""word"" style=""font-size: 40px;"">lift</p>
          <p style=""font-size: 16px;"">F = YES &nbsp;&nbsp;&nbsp; J = NO</p>
        ","f","html-keyboard-response","147","2.1.0","355900","F=YES, J=NO","pgm71lfn1c","0","73","75","70","","","","","","","","","lift","baby","filler","filler","f","true","",""
"null","<p style=""font-size: 50px;"">+</p>","null","html-keyboard-response","148","2.1.0","356202","F=YES, J=NO","pgm71lfn1c","0","73","75","70","","","","","","","","","","","","","","","",""
"null","audio/beep-329314.mp3","null","audio-keyboard-response","149","2.1.0","357895","F=YES, J=NO","pgm71lfn1c","0","73","75","70","","","","","","","","","","","","","","","",""
"null","audio/battle1.wav","null","audio-keyboard-response","150","2.1.0","358517","F=YES, J=NO","pgm71lfn1c","0","73","75","70","","","","","","","","","","","","","","","",""
"549","
          <p id=""word"" style=""font-size: 40px;"">boil</p>
          <p style=""font-size: 16px;"">F = YES &nbsp;&nbsp;&nbsp; J = NO</p>
        ","f","html-keyboard-response","151","2.1.0","359068","F=YES, J=NO","pgm71lfn1c","0","73","75","70","","","","","","","","","boil","battle1","filler","filler","f","true","",""
"null","<p style=""font-size: 50px;"">+</p>","null","html-keyboard-response","152","2.1.0","359370","F=YES, J=NO","pgm71lfn1c","0","73","75","70","","","","","","","","","","","","","","","",""
"null","audio/beep-329314.mp3","null","audio-keyboard-response","153","2.1.0","361051","F=YES, J=NO","pgm71lfn1c","0","73","75","70","","","","","","","","","","","","","","","",""
"null","audio/brain.wav","null","audio-keyboard-response","154","2.1.0","361985","F=YES, J=NO","pgm71lfn1c","0","73","75","70","","","","","","","","","","","","","","","",""
"411","
          <p id=""word"" style=""font-size: 40px;"">throw</p>
          <p style=""font-size: 16px;"">F = YES &nbsp;&nbsp;&nbsp; J = NO</p>
        ","f","html-keyboard-response","155","2.1.0","362397","F=YES, J=NO","pgm71lfn1c","0","73","75","70","","","","","","","","","throw","brain","filler","filler","f","true","",""
"null","<p style=""font-size: 50px;"">+</p>","null","html-keyboard-response","156","2.1.0","362699","F=YES, J=NO","pgm71lfn1c","0","73","75","70","","","","","","","","","","","","","","","",""
"null","audio/beep-329314.mp3","null","audio-keyboard-response","157","2.1.0","364383","F=YES, J=NO","pgm71lfn1c","0","73","75","70","","","","","","","","","","","","","","","",""
"null","audio/mind.wav","null","audio-keyboard-response","158","2.1.0","365135","F=YES, J=NO","pgm71lfn1c","0","73","75","70","","","","","","","","","","","","","","","",""
"1309","
          <p id=""word"" style=""font-size: 40px;"">crainate</p>
          <p style=""font-size: 16px;"">F = YES &nbsp;&nbsp;&nbsp; J = NO</p>
        ","j","html-keyboard-response","159","2.1.0","366446","F=YES, J=NO","pgm71lfn1c","0","73","75","70","","","","","","","","","crainate","mind","pseudoword","pseudoword","j","true","",""
"null","<p style=""font-size: 50px;"">+</p>","null","html-keyboard-response","160","2.1.0","366748","F=YES, J=NO","pgm71lfn1c","0","73","75","70","","","","","","","","","","","","","","","",""
"null","audio/beep-329314.mp3","null","audio-keyboard-response","161","2.1.0","368432","F=YES, J=NO","pgm71lfn1c","0","73","75","70","","","","","","","","","","","","","","","",""
"null","audio/fence.wav","null","audio-keyboard-response","162","2.1.0","369495","F=YES, J=NO","pgm71lfn1c","0","73","75","70","","","","","","","","","","","","","","","",""
"486","
          <p id=""word"" style=""font-size: 40px;"">trim</p>
          <p style=""font-size: 16px;"">F = YES &nbsp;&nbsp;&nbsp; J = NO</p>
        ","f","html-keyboard-response","163","2.1.0","369982","F=YES, J=NO","pgm71lfn1c","0","73","75","70","","","","","","","","","trim","fence","filler","filler","f","true","",""
"3215","
    <div style=""max-width: 800px; margin: auto; text-align: left;"">
      <h2>Part 2: Main Trials</h2>
      <p>Great job on the practice trials!</p>
      <p>You will now begin the <strong>main set of trials</strong>.</p>
      <p>Remember your key assignments:</p>
      <ul>
        <li><strong>F</strong> = YES (real English word)</li>
        <li><strong>J</strong> = NO (not a real English word)</li>
      </ul>
      <p>Try to respond as <strong>quickly and accurately</strong> as possible.</p>
      <p style=""margin-top: 2em;"">Press any key to begin the main trials.</p>
    </div>
  "," ","html-keyboard-response","164","2.1.0","373198","F=YES, J=NO","pgm71lfn1c","0","73","75","70","","","","","","","","","","","","","","","",""
"1631","<p>Starting main block 1 of 8. Press any key to continue.</p>"," ","html-keyboard-response","165","2.1.0","374831","F=YES, J=NO","pgm71lfn1c","0","73","75","70","","","","","","","","","","","","","","","",""
"null","<p style=""font-size: 50px;"">+</p>","null","html-keyboard-response","166","2.1.0","375134","F=YES, J=NO","pgm71lfn1c","0","73","75","70","","","","","","","","","","","","","","","",""
"null","audio/beep-329314.mp3","null","audio-keyboard-response","167","2.1.0","376830","F=YES, J=NO","pgm71lfn1c","0","73","75","70","","","","","","","","","","","","","","","",""
"null","audio/trust.wav","null","audio-keyboard-response","168","2.1.0","377627","F=YES, J=NO","pgm71lfn1c","0","73","75","70","","","","","","","","","","","","","","","",""
"516","
          <p id=""word"" style=""font-size: 40px;"">swint</p>
          <p style=""font-size: 16px;"">F = YES &nbsp;&nbsp;&nbsp; J = NO</p>
        ","f","html-keyboard-response","169","2.1.0","378143","F=YES, J=NO","pgm71lfn1c","0","73","75","70","","","","","","","","","swint","trust","pseudoword","pseudoword","j","false","",""
"null","<p style=""font-size: 50px;"">+</p>","null","html-keyboard-response","170","2.1.0","378446","F=YES, J=NO","pgm71lfn1c","0","73","75","70","","","","","","","","","","","","","","","",""
"null","audio/beep-329314.mp3","null","audio-keyboard-response","171","2.1.0","380155","F=YES, J=NO","pgm71lfn1c","0","73","75","70","","","","","","","","","","","","","","","",""
"null","audio/pig.wav","null","audio-keyboard-response","172","2.1.0","380717","F=YES, J=NO","pgm71lfn1c","0","73","75","70","","","","","","","","","","","","","","","",""
"673","
          <p id=""word"" style=""font-size: 40px;"">tirlike</p>
          <p style=""font-size: 16px;"">F = YES &nbsp;&nbsp;&nbsp; J = NO</p>
        ","j","html-keyboard-response","173","2.1.0","381392","F=YES, J=NO","pgm71lfn1c","0","73","75","70","","","","","","","","","tirlike","pig","pseudoword","pseudoword","j","true","",""
"null","<p style=""font-size: 50px;"">+</p>","null","html-keyboard-response","174","2.1.0","381695","F=YES, J=NO","pgm71lfn1c","0","73","75","70","","","","","","","","","","","","","","","",""
"null","audio/beep-329314.mp3","null","audio-keyboard-response","175","2.1.0","383398","F=YES, J=NO","pgm71lfn1c","0","73","75","70","","","","","","","","","","","","","","","",""
"null","audio/pine.wav","null","audio-keyboard-response","176","2.1.0","384104","F=YES, J=NO","pgm71lfn1c","0","73","75","70","","","","","","","","","","","","","","","",""
"679","
          <p id=""word"" style=""font-size: 40px;"">crebble</p>
          <p style=""font-size: 16px;"">F = YES &nbsp;&nbsp;&nbsp; J = NO</p>
        ","j","html-keyboard-response","177","2.1.0","384783","F=YES, J=NO","pgm71lfn1c","0","73","75","70","","","","","","","","","crebble","pine","pseudoword","pseudoword","j","true","",""
"null","<p style=""font-size: 50px;"">+</p>","null","html-keyboard-response","178","2.1.0","385084","F=YES, J=NO","pgm71lfn1c","0","73","75","70","","","","","","","","","","","","","","","",""
"null","audio/beep-329314.mp3","null","audio-keyboard-response","179","2.1.0","386770","F=YES, J=NO","pgm71lfn1c","0","73","75","70","","","","","","","","","","","","","","","",""
"null","audio/gossip1.wav","null","audio-keyboard-response","180","2.1.0","387595","F=YES, J=NO","pgm71lfn1c","0","73","75","70","","","","","","","","","","","","","","","",""
"660","
          <p id=""word"" style=""font-size: 40px;"">wrestle</p>
          <p style=""font-size: 16px;"">F = YES &nbsp;&nbsp;&nbsp; J = NO</p>
        ","f","html-keyboard-response","181","2.1.0","388256","F=YES, J=NO","pgm71lfn1c","0","73","75","70","","","","","","","","","wrestle","gossip1","unrelated","experimental","f","true","",""
"null","<p style=""font-size: 50px;"">+</p>","null","html-keyboard-response","182","2.1.0","388559","F=YES, J=NO","pgm71lfn1c","0","73","75","70","","","","","","","","","","","","","","","",""
"null","audio/beep-329314.mp3","null","audio-keyboard-response","183","2.1.0","390265","F=YES, J=NO","pgm71lfn1c","0","73","75","70","","","","","","","","","","","","","","","",""
"null","audio/burden.wav","null","audio-keyboard-response","184","2.1.0","390962","F=YES, J=NO","pgm71lfn1c","0","73","75","70","","","","","","","","","","","","","","","",""
"702","
          <p id=""word"" style=""font-size: 40px;"">whotth</p>
          <p style=""font-size: 16px;"">F = YES &nbsp;&nbsp;&nbsp; J = NO</p>
        ","j","html-keyboard-response","185","2.1.0","391665","F=YES, J=NO","pgm71lfn1c","0","73","75","70","","","","","","","","","whotth","burden","pseudoword","pseudoword","j","true","",""
"null","<p style=""font-size: 50px;"">+</p>","null","html-keyboard-response","186","2.1.0","391966","F=YES, J=NO","pgm71lfn1c","0","73","75","70","","","","","","","","","","","","","","","",""
"null","audio/beep-329314.mp3","null","audio-keyboard-response","187","2.1.0","393679","F=YES, J=NO","pgm71lfn1c","0","73","75","70","","","","","","","","","","","","","","","",""
"null","audio/breath.wav","null","audio-keyboard-response","188","2.1.0","394425","F=YES, J=NO","pgm71lfn1c","0","73","75","70","","","","","","","","","","","","","","","",""
"486","
          <p id=""word"" style=""font-size: 40px;"">construct</p>
          <p style=""font-size: 16px;"">F = YES &nbsp;&nbsp;&nbsp; J = NO</p>
        ","f","html-keyboard-response","189","2.1.0","394913","F=YES, J=NO","pgm71lfn1c","0","73","75","70","","","","","","","","","construct","breath","unrelated","experimental","f","true","",""
"null","<p style=""font-size: 50px;"">+</p>","null","html-keyboard-response","190","2.1.0","395215","F=YES, J=NO","pgm71lfn1c","0","73","75","70","","","","","","","","","","","","","","","",""
"null","audio/beep-329314.mp3","null","audio-keyboard-response","191","2.1.0","396922","F=YES, J=NO","pgm71lfn1c","0","73","75","70","","","","","","","","","","","","","","","",""
"null","audio/bomb1.wav","null","audio-keyboard-response","192","2.1.0","397487","F=YES, J=NO","pgm71lfn1c","0","73","75","70","","","","","","","","","","","","","","","",""
"417","
          <p id=""word"" style=""font-size: 40px;"">clean</p>
          <p style=""font-size: 16px;"">F = YES &nbsp;&nbsp;&nbsp; J = NO</p>
        ","f","html-keyboard-response","193","2.1.0","397906","F=YES, J=NO","pgm71lfn1c","0","73","75","70","","","","","","","","","clean","bomb1","filler","filler","f","true","",""
"null","<p style=""font-size: 50px;"">+</p>","null","html-keyboard-response","194","2.1.0","398207","F=YES, J=NO","pgm71lfn1c","0","73","75","70","","","","","","","","","","","","","","","",""
"null","audio/beep-329314.mp3","null","audio-keyboard-response","195","2.1.0","399912","F=YES, J=NO","pgm71lfn1c","0","73","75","70","","","","","","","","","","","","","","","",""
"null","audio/breath.wav","null","audio-keyboard-response","196","2.1.0","400652","F=YES, J=NO","pgm71lfn1c","0","73","75","70","","","","","","","","","","","","","","","",""
"660","
          <p id=""word"" style=""font-size: 40px;"">twets</p>
          <p style=""font-size: 16px;"">F = YES &nbsp;&nbsp;&nbsp; J = NO</p>
        ","j","html-keyboard-response","197","2.1.0","401314","F=YES, J=NO","pgm71lfn1c","0","73","75","70","","","","","","","","","twets","breath","pseudoword","pseudoword","j","true","",""
"null","<p style=""font-size: 50px;"">+</p>","null","html-keyboard-response","198","2.1.0","401617","F=YES, J=NO","pgm71lfn1c","0","73","75","70","","","","","","","","","","","","","","","",""
"null","audio/beep-329314.mp3","null","audio-keyboard-response","199","2.1.0","403322","F=YES, J=NO","pgm71lfn1c","0","73","75","70","","","","","","","","","","","","","","","",""
"null","audio/client1.wav","null","audio-keyboard-response","200","2.1.0","404174","F=YES, J=NO","pgm71lfn1c","0","73","75","70","","","","","","","","","","","","","","","",""
"578","
          <p id=""word"" style=""font-size: 40px;"">droothe</p>
          <p style=""font-size: 16px;"">F = YES &nbsp;&nbsp;&nbsp; J = NO</p>
        ","j","html-keyboard-response","201","2.1.0","404755","F=YES, J=NO","pgm71lfn1c","0","73","75","70","","","","","","","","","droothe","client1","pseudoword","pseudoword","j","true","",""
"null","<p style=""font-size: 50px;"">+</p>","null","html-keyboard-response","202","2.1.0","405055","F=YES, J=NO","pgm71lfn1c","0","73","75","70","","","","","","","","","","","","","","","",""
"null","audio/beep-329314.mp3","null","audio-keyboard-response","203","2.1.0","406779","F=YES, J=NO","pgm71lfn1c","0","73","75","70","","","","","","","","","","","","","","","",""
"null","audio/gift1.wav","null","audio-keyboard-response","204","2.1.0","407411","F=YES, J=NO","pgm71lfn1c","0","73","75","70","","","","","","","","","","","","","","","",""
"447","
          <p id=""word"" style=""font-size: 40px;"">give</p>
          <p style=""font-size: 16px;"">F = YES &nbsp;&nbsp;&nbsp; J = NO</p>
        ","f","html-keyboard-response","205","2.1.0","407861","F=YES, J=NO","pgm71lfn1c","0","73","75","70","","","","","","","","","give","gift1","literal","experimental","f","true","",""
"null","<p style=""font-size: 50px;"">+</p>","null","html-keyboard-response","206","2.1.0","408164","F=YES, J=NO","pgm71lfn1c","0","73","75","70","","","","","","","","","","","","","","","",""
"null","audio/beep-329314.mp3","null","audio-keyboard-response","207","2.1.0","409849","F=YES, J=NO","pgm71lfn1c","0","73","75","70","","","","","","","","","","","","","","","",""
"null","audio/storm1.wav","null","audio-keyboard-response","208","2.1.0","410657","F=YES, J=NO","pgm71lfn1c","0","73","75","70","","","","","","","","","","","","","","","",""
"527","
          <p id=""word"" style=""font-size: 40px;"">climb</p>
          <p style=""font-size: 16px;"">F = YES &nbsp;&nbsp;&nbsp; J = NO</p>
        ","f","html-keyboard-response","209","2.1.0","411188","F=YES, J=NO","pgm71lfn1c","0","73","75","70","","","","","","","","","climb","storm1","unrelated","experimental","f","true","",""
"null","<p style=""font-size: 50px;"">+</p>","null","html-keyboard-response","210","2.1.0","411489","F=YES, J=NO","pgm71lfn1c","0","73","75","70","","","","","","","","","","","","","","","",""
"null","audio/beep-329314.mp3","null","audio-keyboard-response","211","2.1.0","413177","F=YES, J=NO","pgm71lfn1c","0","73","75","70","","","","","","","","","","","","","","","",""
"null","audio/heart1.wav","null","audio-keyboard-response","212","2.1.0","414005","F=YES, J=NO","pgm71lfn1c","0","73","75","70","","","","","","","","","","","","","","","",""
"427","
          <p id=""word"" style=""font-size: 40px;"">touch</p>
          <p style=""font-size: 16px;"">F = YES &nbsp;&nbsp;&nbsp; J = NO</p>
        ","f","html-keyboard-response","213","2.1.0","414435","F=YES, J=NO","pgm71lfn1c","0","73","75","70","","","","","","","","","touch","heart1","metaphor","experimental","f","true","",""
"null","<p style=""font-size: 50px;"">+</p>","null","html-keyboard-response","214","2.1.0","414737","F=YES, J=NO","pgm71lfn1c","0","73","75","70","","","","","","","","","","","","","","","",""
"null","audio/beep-329314.mp3","null","audio-keyboard-response","215","2.1.0","416423","F=YES, J=NO","pgm71lfn1c","0","73","75","70","","","","","","","","","","","","","","","",""
"null","audio/birth1.wav","null","audio-keyboard-response","216","2.1.0","417158","F=YES, J=NO","pgm71lfn1c","0","73","75","70","","","","","","","","","","","","","","","",""
"909","
          <p id=""word"" style=""font-size: 40px;"">peel</p>
          <p style=""font-size: 16px;"">F = YES &nbsp;&nbsp;&nbsp; J = NO</p>
        ","f","html-keyboard-response","217","2.1.0","418069","F=YES, J=NO","pgm71lfn1c","0","73","75","70","","","","","","","","","peel","birth1","filler","filler","f","true","",""
"null","<p style=""font-size: 50px;"">+</p>","null","html-keyboard-response","218","2.1.0","418370","F=YES, J=NO","pgm71lfn1c","0","73","75","70","","","","","","","","","","","","","","","",""
"null","audio/beep-329314.mp3","null","audio-keyboard-response","219","2.1.0","420091","F=YES, J=NO","pgm71lfn1c","0","73","75","70","","","","","","","","","","","","","","","",""
"null","audio/cave1.wav","null","audio-keyboard-response","220","2.1.0","420801","F=YES, J=NO","pgm71lfn1c","0","73","75","70","","","","","","","","","","","","","","","",""
"594","
          <p id=""word"" style=""font-size: 40px;"">blacket</p>
          <p style=""font-size: 16px;"">F = YES &nbsp;&nbsp;&nbsp; J = NO</p>
        ","f","html-keyboard-response","221","2.1.0","421397","F=YES, J=NO","pgm71lfn1c","0","73","75","70","","","","","","","","","blacket","cave1","pseudoword","pseudoword","j","false","",""
"null","<p style=""font-size: 50px;"">+</p>","null","html-keyboard-response","222","2.1.0","421698","F=YES, J=NO","pgm71lfn1c","0","73","75","70","","","","","","","","","","","","","","","",""
"null","audio/beep-329314.mp3","null","audio-keyboard-response","223","2.1.0","423416","F=YES, J=NO","pgm71lfn1c","0","73","75","70","","","","","","","","","","","","","","","",""
"null","audio/cinema1.wav","null","audio-keyboard-response","224","2.1.0","424221","F=YES, J=NO","pgm71lfn1c","0","73","75","70","","","","","","","","","","","","","","","",""
"678","
          <p id=""word"" style=""font-size: 40px;"">murple</p>
          <p style=""font-size: 16px;"">F = YES &nbsp;&nbsp;&nbsp; J = NO</p>
        ","j","html-keyboard-response","225","2.1.0","424901","F=YES, J=NO","pgm71lfn1c","0","73","75","70","","","","","","","","","murple","cinema1","pseudoword","pseudoword","j","true","",""
"null","<p style=""font-size: 50px;"">+</p>","null","html-keyboard-response","226","2.1.0","425203","F=YES, J=NO","pgm71lfn1c","0","73","75","70","","","","","","","","","","","","","","","",""
"null","audio/beep-329314.mp3","null","audio-keyboard-response","227","2.1.0","426918","F=YES, J=NO","pgm71lfn1c","0","73","75","70","","","","","","","","","","","","","","","",""
"null","audio/camera1.wav","null","audio-keyboard-response","228","2.1.0","427611","F=YES, J=NO","pgm71lfn1c","0","73","75","70","","","","","","","","","","","","","","","",""
"616","
          <p id=""word"" style=""font-size: 40px;"">stir</p>
          <p style=""font-size: 16px;"">F = YES &nbsp;&nbsp;&nbsp; J = NO</p>
        ","f","html-keyboard-response","229","2.1.0","428230","F=YES, J=NO","pgm71lfn1c","0","73","75","70","","","","","","","","","stir","camera1","filler","filler","f","true","",""
"1998","<p>Excellent! You have finished block 1 of 8.</p>
                     <p>Feel free to take a 30 second break.</p>
                     <p>Press any key when you're ready to continue.</p>"," ","html-keyboard-response","230","2.1.0","430230","F=YES, J=NO","pgm71lfn1c","0","73","75","70","","","","","","","","","","","","","","","",""
"863","<p>Starting main block 2 of 8. Press any key to continue.</p>"," ","html-keyboard-response","231","2.1.0","431094","F=YES, J=NO","pgm71lfn1c","0","73","75","70","","","","","","","","","","","","","","","",""
"null","<p style=""font-size: 50px;"">+</p>","null","html-keyboard-response","232","2.1.0","431396","F=YES, J=NO","pgm71lfn1c","0","73","75","70","","","","","","","","","","","","","","","",""
"null","audio/beep-329314.mp3","null","audio-keyboard-response","233","2.1.0","433105","F=YES, J=NO","pgm71lfn1c","0","73","75","70","","","","","","","","","","","","","","","",""
"null","audio/soul.wav","null","audio-keyboard-response","234","2.1.0","433865","F=YES, J=NO","pgm71lfn1c","0","73","75","70","","","","","","","","","","","","","","","",""
"620","
          <p id=""word"" style=""font-size: 40px;"">sell</p>
          <p style=""font-size: 16px;"">F = YES &nbsp;&nbsp;&nbsp; J = NO</p>
        ","f","html-keyboard-response","235","2.1.0","434486","F=YES, J=NO","pgm71lfn1c","0","73","75","70","","","","","","","","","sell","soul","metaphor","experimental","f","true","",""
"null","<p style=""font-size: 50px;"">+</p>","null","html-keyboard-response","236","2.1.0","434787","F=YES, J=NO","pgm71lfn1c","0","73","75","70","","","","","","","","","","","","","","","",""
"null","audio/beep-329314.mp3","null","audio-keyboard-response","237","2.1.0","436473","F=YES, J=NO","pgm71lfn1c","0","73","75","70","","","","","","","","","","","","","","","",""
"null","audio/road.wav","null","audio-keyboard-response","238","2.1.0","437089","F=YES, J=NO","pgm71lfn1c","0","73","75","70","","","","","","","","","","","","","","","",""
"547","
          <p id=""word"" style=""font-size: 40px;"">wappings</p>
          <p style=""font-size: 16px;"">F = YES &nbsp;&nbsp;&nbsp; J = NO</p>
        ","f","html-keyboard-response","239","2.1.0","437638","F=YES, J=NO","pgm71lfn1c","0","73","75","70","","","","","","","","","wappings","road","pseudoword","pseudoword","j","false","",""
"null","<p style=""font-size: 50px;"">+</p>","null","html-keyboard-response","240","2.1.0","437941","F=YES, J=NO","pgm71lfn1c","0","73","75","70","","","","","","","","","","","","","","","",""
"null","audio/beep-329314.mp3","null","audio-keyboard-response","241","2.1.0","439630","F=YES, J=NO","pgm71lfn1c","0","73","75","70","","","","","","","","","","","","","","","",""
"null","audio/chance.wav","null","audio-keyboard-response","242","2.1.0","440450","F=YES, J=NO","pgm71lfn1c","0","73","75","70","","","","","","","","","","","","","","","",""
"577","
          <p id=""word"" style=""font-size: 40px;"">seize</p>
          <p style=""font-size: 16px;"">F = YES &nbsp;&nbsp;&nbsp; J = NO</p>
        ","f","html-keyboard-response","243","2.1.0","441032","F=YES, J=NO","pgm71lfn1c","0","73","75","70","","","","","","","","","seize","chance","metaphor","experimental","f","true","",""
"null","<p style=""font-size: 50px;"">+</p>","null","html-keyboard-response","244","2.1.0","441334","F=YES, J=NO","pgm71lfn1c","0","73","75","70","","","","","","","","","","","","","","","",""
"null","audio/beep-329314.mp3","null","audio-keyboard-response","245","2.1.0","443045","F=YES, J=NO","pgm71lfn1c","0","73","75","70","","","","","","","","","","","","","","","",""
"null","audio/flaw.wav","null","audio-keyboard-response","246","2.1.0","443855","F=YES, J=NO","pgm71lfn1c","0","73","75","70","","","","","","","","","","","","","","","",""
"614","
          <p id=""word"" style=""font-size: 40px;"">thwool</p>
          <p style=""font-size: 16px;"">F = YES &nbsp;&nbsp;&nbsp; J = NO</p>
        ","j","html-keyboard-response","247","2.1.0","444473","F=YES, J=NO","pgm71lfn1c","0","73","75","70","","","","","","","","","thwool","flaw","pseudoword","pseudoword","j","true","",""
"null","<p style=""font-size: 50px;"">+</p>","null","html-keyboard-response","248","2.1.0","444774","F=YES, J=NO","pgm71lfn1c","0","73","75","70","","","","","","","","","","","","","","","",""
"null","audio/beep-329314.mp3","null","audio-keyboard-response","249","2.1.0","446500","F=YES, J=NO","pgm71lfn1c","0","73","75","70","","","","","","","","","","","","","","","",""
"null","audio/uncle1.wav","null","audio-keyboard-response","250","2.1.0","447164","F=YES, J=NO","pgm71lfn1c","0","73","75","70","","","","","","","","","","","","","","","",""
"747","
          <p id=""word"" style=""font-size: 40px;"">dramble</p>
          <p style=""font-size: 16px;"">F = YES &nbsp;&nbsp;&nbsp; J = NO</p>
        ","j","html-keyboard-response","251","2.1.0","447913","F=YES, J=NO","pgm71lfn1c","0","73","75","70","","","","","","","","","dramble","uncle1","pseudoword","pseudoword","j","true","",""
"null","<p style=""font-size: 50px;"">+</p>","null","html-keyboard-response","252","2.1.0","448214","F=YES, J=NO","pgm71lfn1c","0","73","75","70","","","","","","","","","","","","","","","",""
"null","audio/beep-329314.mp3","null","audio-keyboard-response","253","2.1.0","449913","F=YES, J=NO","pgm71lfn1c","0","73","75","70","","","","","","","","","","","","","","","",""
"null","audio/kettle1.wav","null","audio-keyboard-response","254","2.1.0","450552","F=YES, J=NO","pgm71lfn1c","0","73","75","70","","","","","","","","","","","","","","","",""
"527","
          <p id=""word"" style=""font-size: 40px;"">navigate</p>
          <p style=""font-size: 16px;"">F = YES &nbsp;&nbsp;&nbsp; J = NO</p>
        ","f","html-keyboard-response","255","2.1.0","451080","F=YES, J=NO","pgm71lfn1c","0","73","75","70","","","","","","","","","navigate","kettle1","unrelated","experimental","f","true","",""
"null","<p style=""font-size: 50px;"">+</p>","null","html-keyboard-response","256","2.1.0","451382","F=YES, J=NO","pgm71lfn1c","0","73","75","70","","","","","","","","","","","","","","","",""
"null","audio/beep-329314.mp3","null","audio-keyboard-response","257","2.1.0","453074","F=YES, J=NO","pgm71lfn1c","0","73","75","70","","","","","","","","","","","","","","","",""
"null","audio/purpose.wav","null","audio-keyboard-response","258","2.1.0","453905","F=YES, J=NO","pgm71lfn1c","0","73","75","70","","","","","","","","","","","","","","","",""
"598","
          <p id=""word"" style=""font-size: 40px;"">whigm</p>
          <p style=""font-size: 16px;"">F = YES &nbsp;&nbsp;&nbsp; J = NO</p>
        ","j","html-keyboard-response","259","2.1.0","454504","F=YES, J=NO","pgm71lfn1c","0","73","75","70","","","","","","","","","whigm","purpose","pseudoword","pseudoword","j","true","",""
"null","<p style=""font-size: 50px;"">+</p>","null","html-keyboard-response","260","2.1.0","454807","F=YES, J=NO","pgm71lfn1c","0","73","75","70","","","","","","","","","","","","","","","",""
"null","audio/beep-329314.mp3","null","audio-keyboard-response","261","2.1.0","456532","F=YES, J=NO","pgm71lfn1c","0","73","75","70","","","","","","","","","","","","","","","",""
"null","audio/cloud1.wav","null","audio-keyboard-response","262","2.1.0","457252","F=YES, J=NO","pgm71lfn1c","0","73","75","70","","","","","","","","","","","","","","","",""
"579","
          <p id=""word"" style=""font-size: 40px;"">brotant</p>
          <p style=""font-size: 16px;"">F = YES &nbsp;&nbsp;&nbsp; J = NO</p>
        ","j","html-keyboard-response","263","2.1.0","457833","F=YES, J=NO","pgm71lfn1c","0","73","75","70","","","","","","","","","brotant","cloud1","pseudoword","pseudoword","j","true","",""
"null","<p style=""font-size: 50px;"">+</p>","null","html-keyboard-response","264","2.1.0","458136","F=YES, J=NO","pgm71lfn1c","0","73","75","70","","","","","","","","","","","","","","","",""
"null","audio/beep-329314.mp3","null","audio-keyboard-response","265","2.1.0","459855","F=YES, J=NO","pgm71lfn1c","0","73","75","70","","","","","","","","","","","","","","","",""
"null","audio/cash1.wav","null","audio-keyboard-response","266","2.1.0","460601","F=YES, J=NO","pgm71lfn1c","0","73","75","70","","","","","","","","","","","","","","","",""
"654","
          <p id=""word"" style=""font-size: 40px;"">splear</p>
          <p style=""font-size: 16px;"">F = YES &nbsp;&nbsp;&nbsp; J = NO</p>
        ","f","html-keyboard-response","267","2.1.0","461257","F=YES, J=NO","pgm71lfn1c","0","73","75","70","","","","","","","","","splear","cash1","pseudoword","pseudoword","j","false","",""
"null","<p style=""font-size: 50px;"">+</p>","null","html-keyboard-response","268","2.1.0","461558","F=YES, J=NO","pgm71lfn1c","0","73","75","70","","","","","","","","","","","","","","","",""
"null","audio/beep-329314.mp3","null","audio-keyboard-response","269","2.1.0","463268","F=YES, J=NO","pgm71lfn1c","0","73","75","70","","","","","","","","","","","","","","","",""
"null","audio/golf1.wav","null","audio-keyboard-response","270","2.1.0","464009","F=YES, J=NO","pgm71lfn1c","0","73","75","70","","","","","","","","","","","","","","","",""
"495","
          <p id=""word"" style=""font-size: 40px;"">drabble</p>
          <p style=""font-size: 16px;"">F = YES &nbsp;&nbsp;&nbsp; J = NO</p>
        ","f","html-keyboard-response","271","2.1.0","464506","F=YES, J=NO","pgm71lfn1c","0","73","75","70","","","","","","","","","drabble","golf1","pseudoword","pseudoword","j","false","",""
"null","<p style=""font-size: 50px;"">+</p>","null","html-keyboard-response","272","2.1.0","464808","F=YES, J=NO","pgm71lfn1c","0","73","75","70","","","","","","","","","","","","","","","",""
"null","audio/beep-329314.mp3","null","audio-keyboard-response","273","2.1.0","466512","F=YES, J=NO","pgm71lfn1c","0","73","75","70","","","","","","","","","","","","","","","",""
"null","audio/flaw.wav","null","audio-keyboard-response","274","2.1.0","467320","F=YES, J=NO","pgm71lfn1c","0","73","75","70","","","","","","","","","","","","","","","",""
"607","
          <p id=""word"" style=""font-size: 40px;"">hide</p>
          <p style=""font-size: 16px;"">F = YES &nbsp;&nbsp;&nbsp; J = NO</p>
        ","f","html-keyboard-response","275","2.1.0","467930","F=YES, J=NO","pgm71lfn1c","0","73","75","70","","","","","","","","","hide","flaw","metaphor","experimental","f","true","",""
"null","<p style=""font-size: 50px;"">+</p>","null","html-keyboard-response","276","2.1.0","468233","F=YES, J=NO","pgm71lfn1c","0","73","75","70","","","","","","","","","","","","","","","",""
"null","audio/beep-329314.mp3","null","audio-keyboard-response","277","2.1.0","469926","F=YES, J=NO","pgm71lfn1c","0","73","75","70","","","","","","","","","","","","","","","",""
"null","audio/cloud1.wav","null","audio-keyboard-response","278","2.1.0","470646","F=YES, J=NO","pgm71lfn1c","0","73","75","70","","","","","","","","","","","","","","","",""
"500","
          <p id=""word"" style=""font-size: 40px;"">scrap</p>
          <p style=""font-size: 16px;"">F = YES &nbsp;&nbsp;&nbsp; J = NO</p>
        ","f","html-keyboard-response","279","2.1.0","471147","F=YES, J=NO","pgm71lfn1c","0","73","75","70","","","","","","","","","scrap","cloud1","unrelated","experimental","f","true","",""
"null","<p style=""font-size: 50px;"">+</p>","null","html-keyboard-response","280","2.1.0","471449","F=YES, J=NO","pgm71lfn1c","0","73","75","70","","","","","","","","","","","","","","","",""
"null","audio/beep-329314.mp3","null","audio-keyboard-response","281","2.1.0","473172","F=YES, J=NO","pgm71lfn1c","0","73","75","70","","","","","","","","","","","","","","","",""
"null","audio/scar.wav","null","audio-keyboard-response","282","2.1.0","473948","F=YES, J=NO","pgm71lfn1c","0","73","75","70","","","","","","","","","","","","","","","",""
"684","
          <p id=""word"" style=""font-size: 40px;"">adelineate</p>
          <p style=""font-size: 16px;"">F = YES &nbsp;&nbsp;&nbsp; J = NO</p>
        ","j","html-keyboard-response","283","2.1.0","474635","F=YES, J=NO","pgm71lfn1c","0","73","75","70","","","","","","","","","adelineate","scar","pseudoword","pseudoword","j","true","",""
"null","<p style=""font-size: 50px;"">+</p>","null","html-keyboard-response","284","2.1.0","474937","F=YES, J=NO","pgm71lfn1c","0","73","75","70","","","","","","","","","","","","","","","",""
"null","audio/beep-329314.mp3","null","audio-keyboard-response","285","2.1.0","476623","F=YES, J=NO","pgm71lfn1c","0","73","75","70","","","","","","","","","","","","","","","",""
"null","audio/weight1.wav","null","audio-keyboard-response","286","2.1.0","477359","F=YES, J=NO","pgm71lfn1c","0","73","75","70","","","","","","","","","","","","","","","",""
"457","
          <p id=""word"" style=""font-size: 40px;"">support</p>
          <p style=""font-size: 16px;"">F = YES &nbsp;&nbsp;&nbsp; J = NO</p>
        ","f","html-keyboard-response","287","2.1.0","477820","F=YES, J=NO","pgm71lfn1c","0","73","75","70","","","","","","","","","support","weight1","literal","experimental","f","true","",""
"null","<p style=""font-size: 50px;"">+</p>","null","html-keyboard-response","288","2.1.0","478122","F=YES, J=NO","pgm71lfn1c","0","73","75","70","","","","","","","","","","","","","","","",""
"null","audio/beep-329314.mp3","null","audio-keyboard-response","289","2.1.0","479823","F=YES, J=NO","pgm71lfn1c","0","73","75","70","","","","","","","","","","","","","","","",""
"null","audio/show.wav","null","audio-keyboard-response","290","2.1.0","480569","F=YES, J=NO","pgm71lfn1c","0","73","75","70","","","","","","","","","","","","","","","",""
"673","
          <p id=""word"" style=""font-size: 40px;"">smark</p>
          <p style=""font-size: 16px;"">F = YES &nbsp;&nbsp;&nbsp; J = NO</p>
        ","j","html-keyboard-response","291","2.1.0","481244","F=YES, J=NO","pgm71lfn1c","0","73","75","70","","","","","","","","","smark","show","pseudoword","pseudoword","j","true","",""
"null","<p style=""font-size: 50px;"">+</p>","null","html-keyboard-response","292","2.1.0","481545","F=YES, J=NO","pgm71lfn1c","0","73","75","70","","","","","","","","","","","","","","","",""
"null","audio/beep-329314.mp3","null","audio-keyboard-response","293","2.1.0","483235","F=YES, J=NO","pgm71lfn1c","0","73","75","70","","","","","","","","","","","","","","","",""
"null","audio/trust.wav","null","audio-keyboard-response","294","2.1.0","484034","F=YES, J=NO","pgm71lfn1c","0","73","75","70","","","","","","","","","","","","","","","",""
"505","
          <p id=""word"" style=""font-size: 40px;"">build</p>
          <p style=""font-size: 16px;"">F = YES &nbsp;&nbsp;&nbsp; J = NO</p>
        ","f","html-keyboard-response","295","2.1.0","484541","F=YES, J=NO","pgm71lfn1c","0","73","75","70","","","","","","","","","build","trust","metaphor","experimental","f","true","",""
"17345","<p>Excellent! You have finished block 2 of 8.</p>
                     <p>Feel free to take a 30 second break.</p>
                     <p>Press any key when you're ready to continue.</p>"," ","html-keyboard-response","296","2.1.0","501887","F=YES, J=NO","pgm71lfn1c","0","73","75","70","","","","","","","","","","","","","","","",""
"1582","<p>Starting main block 3 of 8. Press any key to continue.</p>"," ","html-keyboard-response","297","2.1.0","503471","F=YES, J=NO","pgm71lfn1c","0","73","75","70","","","","","","","","","","","","","","","",""
"null","<p style=""font-size: 50px;"">+</p>","null","html-keyboard-response","298","2.1.0","503773","F=YES, J=NO","pgm71lfn1c","0","73","75","70","","","","","","","","","","","","","","","",""
"null","audio/beep-329314.mp3","null","audio-keyboard-response","299","2.1.0","505482","F=YES, J=NO","pgm71lfn1c","0","73","75","70","","","","","","","","","","","","","","","",""
"null","audio/gift1.wav","null","audio-keyboard-response","300","2.1.0","506113","F=YES, J=NO","pgm71lfn1c","0","73","75","70","","","","","","","","","","","","","","","",""
"684","
          <p id=""word"" style=""font-size: 40px;"">protsh</p>
          <p style=""font-size: 16px;"">F = YES &nbsp;&nbsp;&nbsp; J = NO</p>
        ","j","html-keyboard-response","301","2.1.0","506800","F=YES, J=NO","pgm71lfn1c","0","73","75","70","","","","","","","","","protsh","gift1","pseudoword","pseudoword","j","true","",""
"null","<p style=""font-size: 50px;"">+</p>","null","html-keyboard-response","302","2.1.0","507101","F=YES, J=NO","pgm71lfn1c","0","73","75","70","","","","","","","","","","","","","","","",""
"null","audio/beep-329314.mp3","null","audio-keyboard-response","303","2.1.0","508813","F=YES, J=NO","pgm71lfn1c","0","73","75","70","","","","","","","","","","","","","","","",""
"null","audio/dollar.wav","null","audio-keyboard-response","304","2.1.0","509375","F=YES, J=NO","pgm71lfn1c","0","73","75","70","","","","","","","","","","","","","","","",""
"448","
          <p id=""word"" style=""font-size: 40px;"">save</p>
          <p style=""font-size: 16px;"">F = YES &nbsp;&nbsp;&nbsp; J = NO</p>
        ","f","html-keyboard-response","305","2.1.0","509824","F=YES, J=NO","pgm71lfn1c","0","73","75","70","","","","","","","","","save","dollar","literal","experimental","f","true","",""
"null","<p style=""font-size: 50px;"">+</p>","null","html-keyboard-response","306","2.1.0","510126","F=YES, J=NO","pgm71lfn1c","0","73","75","70","","","","","","","","","","","","","","","",""
"null","audio/beep-329314.mp3","null","audio-keyboard-response","307","2.1.0","511839","F=YES, J=NO","pgm71lfn1c","0","73","75","70","","","","","","","","","","","","","","","",""
"null","audio/weight1.wav","null","audio-keyboard-response","308","2.1.0","512576","F=YES, J=NO","pgm71lfn1c","0","73","75","70","","","","","","","","","","","","","","","",""
"670","
          <p id=""word"" style=""font-size: 40px;"">crimsh</p>
          <p style=""font-size: 16px;"">F = YES &nbsp;&nbsp;&nbsp; J = NO</p>
        ","j","html-keyboard-response","309","2.1.0","513247","F=YES, J=NO","pgm71lfn1c","0","73","75","70","","","","","","","","","crimsh","weight1","pseudoword","pseudoword","j","true","",""
"null","<p style=""font-size: 50px;"">+</p>","null","html-keyboard-response","310","2.1.0","513549","F=YES, J=NO","pgm71lfn1c","0","73","75","70","","","","","","","","","","","","","","","",""
"null","audio/beep-329314.mp3","null","audio-keyboard-response","311","2.1.0","515250","F=YES, J=NO","pgm71lfn1c","0","73","75","70","","","","","","","","","","","","","","","",""
"null","audio/floor.wav","null","audio-keyboard-response","312","2.1.0","515986","F=YES, J=NO","pgm71lfn1c","0","73","75","70","","","","","","","","","","","","","","","",""
"445","
          <p id=""word"" style=""font-size: 40px;"">cover</p>
          <p style=""font-size: 16px;"">F = YES &nbsp;&nbsp;&nbsp; J = NO</p>
        ","f","html-keyboard-response","313","2.1.0","516433","F=YES, J=NO","pgm71lfn1c","0","73","75","70","","","","","","","","","cover","floor","literal","experimental","f","true","",""
"null","<p style=""font-size: 50px;"">+</p>","null","html-keyboard-response","314","2.1.0","516734","F=YES, J=NO","pgm71lfn1c","0","73","75","70","","","","","","","","","","","","","","","",""
"null","audio/beep-329314.mp3","null","audio-keyboard-response","315","2.1.0","518450","F=YES, J=NO","pgm71lfn1c","0","73","75","70","","","","","","","","","","","","","","","",""
"null","audio/holiday1.wav","null","audio-keyboard-response","316","2.1.0","519280","F=YES, J=NO","pgm71lfn1c","0","73","75","70","","","","","","","","","","","","","","","",""
"560","
          <p id=""word"" style=""font-size: 40px;"">drivets</p>
          <p style=""font-size: 16px;"">F = YES &nbsp;&nbsp;&nbsp; J = NO</p>
        ","j","html-keyboard-response","317","2.1.0","519841","F=YES, J=NO","pgm71lfn1c","0","73","75","70","","","","","","","","","drivets","holiday1","pseudoword","pseudoword","j","true","",""
"null","<p style=""font-size: 50px;"">+</p>","null","html-keyboard-response","318","2.1.0","520143","F=YES, J=NO","pgm71lfn1c","0","73","75","70","","","","","","","","","","","","","","","",""
"null","audio/beep-329314.mp3","null","audio-keyboard-response","319","2.1.0","521822","F=YES, J=NO","pgm71lfn1c","0","73","75","70","","","","","","","","","","","","","","","",""
"null","audio/tomato.wav","null","audio-keyboard-response","320","2.1.0","522655","F=YES, J=NO","pgm71lfn1c","0","73","75","70","","","","","","","","","","","","","","","",""
"545","
          <p id=""word"" style=""font-size: 40px;"">grow</p>
          <p style=""font-size: 16px;"">F = YES &nbsp;&nbsp;&nbsp; J = NO</p>
        ","f","html-keyboard-response","321","2.1.0","523201","F=YES, J=NO","pgm71lfn1c","0","73","75","70","","","","","","","","","grow","tomato","literal","experimental","f","true","",""
"null","<p style=""font-size: 50px;"">+</p>","null","html-keyboard-response","322","2.1.0","523504","F=YES, J=NO","pgm71lfn1c","0","73","75","70","","","","","","","","","","","","","","","",""
"null","audio/beep-329314.mp3","null","audio-keyboard-response","323","2.1.0","525193","F=YES, J=NO","pgm71lfn1c","0","73","75","70","","","","","","","","","","","","","","","",""
"null","audio/pig.wav","null","audio-keyboard-response","324","2.1.0","525753","F=YES, J=NO","pgm71lfn1c","0","73","75","70","","","","","","","","","","","","","","","",""
"488","
          <p id=""word"" style=""font-size: 40px;"">feed</p>
          <p style=""font-size: 16px;"">F = YES &nbsp;&nbsp;&nbsp; J = NO</p>
        ","f","html-keyboard-response","325","2.1.0","526242","F=YES, J=NO","pgm71lfn1c","0","73","75","70","","","","","","","","","feed","pig","literal","experimental","f","true","",""
"null","<p style=""font-size: 50px;"">+</p>","null","html-keyboard-response","326","2.1.0","526543","F=YES, J=NO","pgm71lfn1c","0","73","75","70","","","","","","","","","","","","","","","",""
"null","audio/beep-329314.mp3","null","audio-keyboard-response","327","2.1.0","528267","F=YES, J=NO","pgm71lfn1c","0","73","75","70","","","","","","","","","","","","","","","",""
"null","audio/fear.wav","null","audio-keyboard-response","328","2.1.0","528993","F=YES, J=NO","pgm71lfn1c","0","73","75","70","","","","","","","","","","","","","","","",""
"596","
          <p id=""word"" style=""font-size: 40px;"">spread</p>
          <p style=""font-size: 16px;"">F = YES &nbsp;&nbsp;&nbsp; J = NO</p>
        ","f","html-keyboard-response","329","2.1.0","529590","F=YES, J=NO","pgm71lfn1c","0","73","75","70","","","","","","","","","spread","fear","metaphor","experimental","f","true","",""
"null","<p style=""font-size: 50px;"">+</p>","null","html-keyboard-response","330","2.1.0","529891","F=YES, J=NO","pgm71lfn1c","0","73","75","70","","","","","","","","","","","","","","","",""
"null","audio/beep-329314.mp3","null","audio-keyboard-response","331","2.1.0","531592","F=YES, J=NO","pgm71lfn1c","0","73","75","70","","","","","","","","","","","","","","","",""
"null","audio/show.wav","null","audio-keyboard-response","332","2.1.0","532341","F=YES, J=NO","pgm71lfn1c","0","73","75","70","","","","","","","","","","","","","","","",""
"492","
          <p id=""word"" style=""font-size: 40px;"">hold</p>
          <p style=""font-size: 16px;"">F = YES &nbsp;&nbsp;&nbsp; J = NO</p>
        ","f","html-keyboard-response","333","2.1.0","532835","F=YES, J=NO","pgm71lfn1c","0","73","75","70","","","","","","","","","hold","show","metaphor","experimental","f","true","",""
"null","<p style=""font-size: 50px;"">+</p>","null","html-keyboard-response","334","2.1.0","533137","F=YES, J=NO","pgm71lfn1c","0","73","75","70","","","","","","","","","","","","","","","",""
"null","audio/beep-329314.mp3","null","audio-keyboard-response","335","2.1.0","534836","F=YES, J=NO","pgm71lfn1c","0","73","75","70","","","","","","","","","","","","","","","",""
"null","audio/tax1.wav","null","audio-keyboard-response","336","2.1.0","535642","F=YES, J=NO","pgm71lfn1c","0","73","75","70","","","","","","","","","","","","","","","",""
"680","
          <p id=""word"" style=""font-size: 40px;"">snate</p>
          <p style=""font-size: 16px;"">F = YES &nbsp;&nbsp;&nbsp; J = NO</p>
        ","j","html-keyboard-response","337","2.1.0","536324","F=YES, J=NO","pgm71lfn1c","0","73","75","70","","","","","","","","","snate","tax1","pseudoword","pseudoword","j","true","",""
"null","<p style=""font-size: 50px;"">+</p>","null","html-keyboard-response","338","2.1.0","536626","F=YES, J=NO","pgm71lfn1c","0","73","75","70","","","","","","","","","","","","","","","",""
"null","audio/beep-329314.mp3","null","audio-keyboard-response","339","2.1.0","538334","F=YES, J=NO","pgm71lfn1c","0","73","75","70","","","","","","","","","","","","","","","",""
"null","audio/tunnel.wav","null","audio-keyboard-response","340","2.1.0","538942","F=YES, J=NO","pgm71lfn1c","0","73","75","70","","","","","","","","","","","","","","","",""
"612","
          <p id=""word"" style=""font-size: 40px;"">gred</p>
          <p style=""font-size: 16px;"">F = YES &nbsp;&nbsp;&nbsp; J = NO</p>
        ","f","html-keyboard-response","341","2.1.0","539556","F=YES, J=NO","pgm71lfn1c","0","73","75","70","","","","","","","","","gred","tunnel","pseudoword","pseudoword","j","false","",""
"null","<p style=""font-size: 50px;"">+</p>","null","html-keyboard-response","342","2.1.0","539857","F=YES, J=NO","pgm71lfn1c","0","73","75","70","","","","","","","","","","","","","","","",""
"null","audio/beep-329314.mp3","null","audio-keyboard-response","343","2.1.0","541579","F=YES, J=NO","pgm71lfn1c","0","73","75","70","","","","","","","","","","","","","","","",""
"null","audio/trout1.wav","null","audio-keyboard-response","344","2.1.0","542332","F=YES, J=NO","pgm71lfn1c","0","73","75","70","","","","","","","","","","","","","","","",""
"596","
          <p id=""word"" style=""font-size: 40px;"">spimt</p>
          <p style=""font-size: 16px;"">F = YES &nbsp;&nbsp;&nbsp; J = NO</p>
        ","j","html-keyboard-response","345","2.1.0","542931","F=YES, J=NO","pgm71lfn1c","0","73","75","70","","","","","","","","","spimt","trout1","pseudoword","pseudoword","j","true","",""
"null","<p style=""font-size: 50px;"">+</p>","null","html-keyboard-response","346","2.1.0","543232","F=YES, J=NO","pgm71lfn1c","0","73","75","70","","","","","","","","","","","","","","","",""
"null","audio/beep-329314.mp3","null","audio-keyboard-response","347","2.1.0","544948","F=YES, J=NO","pgm71lfn1c","0","73","75","70","","","","","","","","","","","","","","","",""
"null","audio/meal.wav","null","audio-keyboard-response","348","2.1.0","545591","F=YES, J=NO","pgm71lfn1c","0","73","75","70","","","","","","","","","","","","","","","",""
"618","
          <p id=""word"" style=""font-size: 40px;"">gallite</p>
          <p style=""font-size: 16px;"">F = YES &nbsp;&nbsp;&nbsp; J = NO</p>
        ","j","html-keyboard-response","349","2.1.0","546213","F=YES, J=NO","pgm71lfn1c","0","73","75","70","","","","","","","","","gallite","meal","pseudoword","pseudoword","j","true","",""
"null","<p style=""font-size: 50px;"">+</p>","null","html-keyboard-response","350","2.1.0","546514","F=YES, J=NO","pgm71lfn1c","0","73","75","70","","","","","","","","","","","","","","","",""
"null","audio/beep-329314.mp3","null","audio-keyboard-response","351","2.1.0","548232","F=YES, J=NO","pgm71lfn1c","0","73","75","70","","","","","","","","","","","","","","","",""
"null","audio/dollar.wav","null","audio-keyboard-response","352","2.1.0","548796","F=YES, J=NO","pgm71lfn1c","0","73","75","70","","","","","","","","","","","","","","","",""
"679","
          <p id=""word"" style=""font-size: 40px;"">gliptism</p>
          <p style=""font-size: 16px;"">F = YES &nbsp;&nbsp;&nbsp; J = NO</p>
        ","j","html-keyboard-response","353","2.1.0","549477","F=YES, J=NO","pgm71lfn1c","0","73","75","70","","","","","","","","","gliptism","dollar","pseudoword","pseudoword","j","true","",""
"null","<p style=""font-size: 50px;"">+</p>","null","html-keyboard-response","354","2.1.0","549779","F=YES, J=NO","pgm71lfn1c","0","73","75","70","","","","","","","","","","","","","","","",""
"null","audio/beep-329314.mp3","null","audio-keyboard-response","355","2.1.0","551475","F=YES, J=NO","pgm71lfn1c","0","73","75","70","","","","","","","","","","","","","","","",""
"null","audio/hotel1.wav","null","audio-keyboard-response","356","2.1.0","552286","F=YES, J=NO","pgm71lfn1c","0","73","75","70","","","","","","","","","","","","","","","",""
"692","
          <p id=""word"" style=""font-size: 40px;"">flanter</p>
          <p style=""font-size: 16px;"">F = YES &nbsp;&nbsp;&nbsp; J = NO</p>
        ","f","html-keyboard-response","357","2.1.0","552981","F=YES, J=NO","pgm71lfn1c","0","73","75","70","","","","","","","","","flanter","hotel1","pseudoword","pseudoword","j","false","",""
"null","<p style=""font-size: 50px;"">+</p>","null","html-keyboard-response","358","2.1.0","553284","F=YES, J=NO","pgm71lfn1c","0","73","75","70","","","","","","","","","","","","","","","",""
"null","audio/beep-329314.mp3","null","audio-keyboard-response","359","2.1.0","554975","F=YES, J=NO","pgm71lfn1c","0","73","75","70","","","","","","","","","","","","","","","",""
"null","audio/haste1.wav","null","audio-keyboard-response","360","2.1.0","555713","F=YES, J=NO","pgm71lfn1c","0","73","75","70","","","","","","","","","","","","","","","",""
"721","
          <p id=""word"" style=""font-size: 40px;"">coraconate</p>
          <p style=""font-size: 16px;"">F = YES &nbsp;&nbsp;&nbsp; J = NO</p>
        ","j","html-keyboard-response","361","2.1.0","556438","F=YES, J=NO","pgm71lfn1c","0","73","75","70","","","","","","","","","coraconate","haste1","pseudoword","pseudoword","j","true","",""
"958","<p>Excellent! You have finished block 3 of 8.</p>
                     <p>Feel free to take a 30 second break.</p>
                     <p>Press any key when you're ready to continue.</p>"," ","html-keyboard-response","362","2.1.0","557397","F=YES, J=NO","pgm71lfn1c","0","73","75","70","","","","","","","","","","","","","","","",""
"544","<p>Starting main block 4 of 8. Press any key to continue.</p>"," ","html-keyboard-response","363","2.1.0","557943","F=YES, J=NO","pgm71lfn1c","0","73","75","70","","","","","","","","","","","","","","","",""
"null","<p style=""font-size: 50px;"">+</p>","null","html-keyboard-response","364","2.1.0","558244","F=YES, J=NO","pgm71lfn1c","0","73","75","70","","","","","","","","","","","","","","","",""
"null","audio/beep-329314.mp3","null","audio-keyboard-response","365","2.1.0","559934","F=YES, J=NO","pgm71lfn1c","0","73","75","70","","","","","","","","","","","","","","","",""
"null","audio/wealth1.wav","null","audio-keyboard-response","366","2.1.0","560662","F=YES, J=NO","pgm71lfn1c","0","73","75","70","","","","","","","","","","","","","","","",""
"585","
          <p id=""word"" style=""font-size: 40px;"">possess</p>
          <p style=""font-size: 16px;"">F = YES &nbsp;&nbsp;&nbsp; J = NO</p>
        ","f","html-keyboard-response","367","2.1.0","561254","F=YES, J=NO","pgm71lfn1c","0","73","75","70","","","","","","","","","possess","wealth1","literal","experimental","f","true","",""
"null","<p style=""font-size: 50px;"">+</p>","null","html-keyboard-response","368","2.1.0","561556","F=YES, J=NO","pgm71lfn1c","0","73","75","70","","","","","","","","","","","","","","","",""
"null","audio/beep-329314.mp3","null","audio-keyboard-response","369","2.1.0","563252","F=YES, J=NO","pgm71lfn1c","0","73","75","70","","","","","","","","","","","","","","","",""
"null","audio/strength.wav","null","audio-keyboard-response","370","2.1.0","564180","F=YES, J=NO","pgm71lfn1c","0","73","75","70","","","","","","","","","","","","","","","",""
"658","
          <p id=""word"" style=""font-size: 40px;"">plabet</p>
          <p style=""font-size: 16px;"">F = YES &nbsp;&nbsp;&nbsp; J = NO</p>
        ","j","html-keyboard-response","371","2.1.0","564839","F=YES, J=NO","pgm71lfn1c","0","73","75","70","","","","","","","","","plabet","strength","pseudoword","pseudoword","j","true","",""
"null","<p style=""font-size: 50px;"">+</p>","null","html-keyboard-response","372","2.1.0","565142","F=YES, J=NO","pgm71lfn1c","0","73","75","70","","","","","","","","","","","","","","","",""
"null","audio/beep-329314.mp3","null","audio-keyboard-response","373","2.1.0","566838","F=YES, J=NO","pgm71lfn1c","0","73","75","70","","","","","","","","","","","","","","","",""
"null","audio/tunnel.wav","null","audio-keyboard-response","374","2.1.0","567443","F=YES, J=NO","pgm71lfn1c","0","73","75","70","","","","","","","","","","","","","","","",""
"547","
          <p id=""word"" style=""font-size: 40px;"">grasp</p>
          <p style=""font-size: 16px;"">F = YES &nbsp;&nbsp;&nbsp; J = NO</p>
        ","f","html-keyboard-response","375","2.1.0","567991","F=YES, J=NO","pgm71lfn1c","0","73","75","70","","","","","","","","","grasp","tunnel","unrelated","experimental","f","true","",""
"null","<p style=""font-size: 50px;"">+</p>","null","html-keyboard-response","376","2.1.0","568293","F=YES, J=NO","pgm71lfn1c","0","73","75","70","","","","","","","","","","","","","","","",""
"null","audio/beep-329314.mp3","null","audio-keyboard-response","377","2.1.0","569993","F=YES, J=NO","pgm71lfn1c","0","73","75","70","","","","","","","","","","","","","","","",""
"null","audio/seat.wav","null","audio-keyboard-response","378","2.1.0","570803","F=YES, J=NO","pgm71lfn1c","0","73","75","70","","","","","","","","","","","","","","","",""
"644","
          <p id=""word"" style=""font-size: 40px;"">digest</p>
          <p style=""font-size: 16px;"">F = YES &nbsp;&nbsp;&nbsp; J = NO</p>
        ","f","html-keyboard-response","379","2.1.0","571447","F=YES, J=NO","pgm71lfn1c","0","73","75","70","","","","","","","","","digest","seat","unrelated","experimental","f","true","",""
"null","<p style=""font-size: 50px;"">+</p>","null","html-keyboard-response","380","2.1.0","571773","F=YES, J=NO","pgm71lfn1c","0","73","75","70","","","","","","","","","","","","","","","",""
"null","audio/beep-329314.mp3","null","audio-keyboard-response","381","2.1.0","573494","F=YES, J=NO","pgm71lfn1c","0","73","75","70","","","","","","","","","","","","","","","",""
"null","audio/mouth1.wav","null","audio-keyboard-response","382","2.1.0","574255","F=YES, J=NO","pgm71lfn1c","0","73","75","70","","","","","","","","","","","","","","","",""
"661","
          <p id=""word"" style=""font-size: 40px;"">spolial</p>
          <p style=""font-size: 16px;"">F = YES &nbsp;&nbsp;&nbsp; J = NO</p>
        ","j","html-keyboard-response","383","2.1.0","574920","F=YES, J=NO","pgm71lfn1c","0","73","75","70","","","","","","","","","spolial","mouth1","pseudoword","pseudoword","j","true","",""
"null","<p style=""font-size: 50px;"">+</p>","null","html-keyboard-response","384","2.1.0","575222","F=YES, J=NO","pgm71lfn1c","0","73","75","70","","","","","","","","","","","","","","","",""
"null","audio/beep-329314.mp3","null","audio-keyboard-response","385","2.1.0","576910","F=YES, J=NO","pgm71lfn1c","0","73","75","70","","","","","","","","","","","","","","","",""
"null","audio/bottle.wav","null","audio-keyboard-response","386","2.1.0","577536","F=YES, J=NO","pgm71lfn1c","0","73","75","70","","","","","","","","","","","","","","","",""
"438","
          <p id=""word"" style=""font-size: 40px;"">open</p>
          <p style=""font-size: 16px;"">F = YES &nbsp;&nbsp;&nbsp; J = NO</p>
        ","f","html-keyboard-response","387","2.1.0","577976","F=YES, J=NO","pgm71lfn1c","0","73","75","70","","","","","","","","","open","bottle","literal","experimental","f","true","",""
"null","<p style=""font-size: 50px;"">+</p>","null","html-keyboard-response","388","2.1.0","578278","F=YES, J=NO","pgm71lfn1c","0","73","75","70","","","","","","","","","","","","","","","",""
"null","audio/beep-329314.mp3","null","audio-keyboard-response","389","2.1.0","579976","F=YES, J=NO","pgm71lfn1c","0","73","75","70","","","","","","","","","","","","","","","",""
"null","audio/terrain.wav","null","audio-keyboard-response","390","2.1.0","580766","F=YES, J=NO","pgm71lfn1c","0","73","75","70","","","","","","","","","","","","","","","",""
"600","
          <p id=""word"" style=""font-size: 40px;"">twist</p>
          <p style=""font-size: 16px;"">F = YES &nbsp;&nbsp;&nbsp; J = NO</p>
