"rt","stimulus","response","trial_type","trial_index","plugin_version","time_elapsed","response_mapping","subject_id","list_index","lextale_score","lextale_word_score","lextale_nonword_score","success","timeout","failed_images","failed_audio","failed_video","task","isWord","isDummy","target","prime","prime_type","stimulus_type","correct_response","correct","section","question_order"
"45641","
    <div style=""max-width: 800px; margin: auto; text-align: left;"">
      <h2>STANFORD UNIVERSITY</h2>
      <h3>Research Information Sheet</h3>
      <p><strong>Protocol Director:</strong> Robert Hawkins<br>
      <strong>Protocol Title:</strong> Communication and social cognition in natural audiovisual contexts<br>
      <strong>IRB#:</strong> 77226</p>

      <p><strong>DESCRIPTION:</strong> You are invited to participate in a research study about language and communication. The purpose of the research is to understand how you interact and communicate with other people in naturalistic settings as a fluent English speaker. This research will be conducted through the Prolific platform, including participants from the US, UK, and Canada. If you decide to participate in this research, you will play a communication game in a group with one or more partners.</p>

      <p><strong>TIME INVOLVEMENT:</strong> The task will last the amount of time advertised on Prolific. You are free to withdraw from the study at any time.</p>

      <p><strong>RISKS AND BENEFITS:</strong> You may become frustrated if your partner gets distracted, or experience discomfort if other participants in your group send text that is inappropriate for the task. We ask you to please be respectful of other participants you might be interacting with to mitigate these risks. You may also experience discomfort when being asked to discuss or challenge emotionally salient political beliefs. Study data will be stored securely, in compliance with Stanford University standards, minimizing the risk of confidentiality breach. This study advances our scientific understanding of how people communicate and collaborate in naturalistic settings. This study may lead to further insights about what can go wrong in teamwork, suggest potential interventions to overcome these barriers, and help to develop assistive technologies that collaborate with human partners. We cannot and do not guarantee or promise that you will receive any benefits from this study.</p>

      <p><strong>PAYMENTS:</strong> You will receive payment in the amount advertised on Prolific. If you do not complete this study, you will receive prorated payment based on the time that you have spent. Additionally, you may be eligible for bonus payments as described in the instructions.</p>

      <p><strong>PARTICIPANT’S RIGHTS:</strong> If you have read this form and have decided to participate in this project, please understand your participation is voluntary and you have the right to withdraw your consent or discontinue participation at any time without penalty or loss of benefits to which you are otherwise entitled. The alternative is not to participate. You have the right to refuse to answer particular questions. The results of this research study may be presented at scientific or professional meetings or published in scientific journals. Your individual privacy will be maintained in all published and written data resulting from the study. In accordance with scientific norms, the data from this study may be used or shared with other researchers for future research (after removing personally identifying information) without additional consent from you.</p>

      <p><strong>CONTACT INFORMATION:</strong><br>
      Questions: If you have any questions, concerns or complaints about this research, its procedures, risks and benefits, contact the Protocol Director, Robert Hawkins (<a href=""mailto:rdhawkins@stanford.edu"">rdhawkins@stanford.edu</a>, 217-549-6923).<br>
      Independent Contact: If you are not satisfied with how this study is being conducted, or if you have any concerns, complaints, or general questions about the research or your rights as a participant, please contact the Stanford Institutional Review Board (IRB) to speak to someone independent of the research team at 650-723-2480 or toll free at 1-866-680-2906, or email at <a href=""mailto:irbnon-med@stanford.edu"">irbnon-med@stanford.edu</a>. You can also write to the Stanford IRB, Stanford University, 1705 El Camino Real, Palo Alto, CA 94306.</p>

      <p><strong>Please save or print a copy of this page for your records.</strong></p>
      <p>If you agree to participate in this research, click ""Continue"" below.</p>
    </div>
  ","0","html-button-response","0","2.1.0","45650","F=YES, J=NO","qab21rre9p","1","64","53","75","","","","","","","","","","","","","","","",""
"20879","
    <div style=""max-width: 800px; margin: auto; text-align: left;"">
      <h2>Welcome!</h2>
      <p>Thank you for participating in this study. The experiment consists of three parts:</p>
      <ol>
        <li>An English vocabulary test</li>
        <li>A main task in which you will hear and see words, and decide whether the written word is a real English word</li>
        <li>A brief survey about your background</li>
      </ol>
      <p>Each part will be introduced before it begins.</p>
      <p>Please make sure you are in a quiet environment and can hear audio clearly for the final task.</p>
      <p style=""margin-top: 2em;"">Press any key to begin.</p>
    </div>
  "," ","html-keyboard-response","1","2.1.0","66533","F=YES, J=NO","qab21rre9p","1","64","53","75","","","","","","","","","","","","","","","",""
"","","","preload","2","2.1.0","69016","F=YES, J=NO","qab21rre9p","1","64","53","75","true","false","[]","[]","[]","","","","","","","","","","",""
"7769","
    <div style=""max-width: 800px; margin: auto; text-align: left;"">
      <h2>Part 1: Vocabulary Test</h2>
      <p>You will now complete the first part of the study: a short English vocabulary test.</p>
      <p>This test is called <strong>LexTALE</strong> and helps us get a general sense of your English proficiency.</p>
      <p style=""margin-top: 2em;"">Press any key to continue.</p>
    </div>
  "," ","html-keyboard-response","3","2.1.0","76787","F=YES, J=NO","qab21rre9p","1","64","53","75","","","","","","","","","","","","","","","",""
"25251","
    <div style=""max-width: 800px; margin: auto; text-align: left;"">
      <h2>LexTALE Vocabulary Test</h2>
      <p>In this test, you will see a series of letter strings—one at a time.</p>
      <p>Your task is to decide whether each string is a real English word.</p>
      <p><strong>Key responses:</strong></p>
      <ul>
        <li><strong>F</strong> = YES (real English word)</li>
        <li><strong>J</strong> = NO (not a real English word)</li>
      </ul>
      <p>There is no time limit, but please try to be accurate.</p>
      <p style=""margin-top: 2em;"">Press any key to begin.</p>
    </div>
  "," ","html-keyboard-response","4","2.1.0","102040","F=YES, J=NO","qab21rre9p","1","64","53","75","","","","","","","","","","","","","","","",""
"2422","
  <p style=""font-size: 40px;"">platery</p>
  <p style=""font-size: 16px;"">F = YES &nbsp;&nbsp;&nbsp; J = NO</p>
","f","html-keyboard-response","5","2.1.0","104464","F=YES, J=NO","qab21rre9p","1","64","53","75","","","","","","lextale","false","true","","","","","","","",""
"2498","
  <p style=""font-size: 40px;"">denial</p>
  <p style=""font-size: 16px;"">F = YES &nbsp;&nbsp;&nbsp; J = NO</p>
","f","html-keyboard-response","6","2.1.0","106964","F=YES, J=NO","qab21rre9p","1","64","53","75","","","","","","lextale","true","true","","","","","","","",""
"1353","
  <p style=""font-size: 40px;"">marrit</p>
  <p style=""font-size: 16px;"">F = YES &nbsp;&nbsp;&nbsp; J = NO</p>
","j","html-keyboard-response","7","2.1.0","108319","F=YES, J=NO","qab21rre9p","1","64","53","75","","","","","","lextale","false","true","","","","","","","",""
"1383","
  <p style=""font-size: 40px;"">bottle</p>
  <p style=""font-size: 16px;"">F = YES &nbsp;&nbsp;&nbsp; J = NO</p>
","f","html-keyboard-response","8","2.1.0","109704","F=YES, J=NO","qab21rre9p","1","64","53","75","","","","","","lextale","true","false","","","","","","","",""
"1810","
  <p style=""font-size: 40px;"">birst</p>
  <p style=""font-size: 16px;"">F = YES &nbsp;&nbsp;&nbsp; J = NO</p>
","j","html-keyboard-response","9","2.1.0","111515","F=YES, J=NO","qab21rre9p","1","64","53","75","","","","","","lextale","false","false","","","","","","","",""
"1909","
  <p style=""font-size: 40px;"">envy</p>
  <p style=""font-size: 16px;"">F = YES &nbsp;&nbsp;&nbsp; J = NO</p>
","f","html-keyboard-response","10","2.1.0","113425","F=YES, J=NO","qab21rre9p","1","64","53","75","","","","","","lextale","true","false","","","","","","","",""
"1030","
  <p style=""font-size: 40px;"">brang</p>
  <p style=""font-size: 16px;"">F = YES &nbsp;&nbsp;&nbsp; J = NO</p>
","j","html-keyboard-response","11","2.1.0","114457","F=YES, J=NO","qab21rre9p","1","64","53","75","","","","","","lextale","false","false","","","","","","","",""
"891","
  <p style=""font-size: 40px;"">huge</p>
  <p style=""font-size: 16px;"">F = YES &nbsp;&nbsp;&nbsp; J = NO</p>
","f","html-keyboard-response","12","2.1.0","115349","F=YES, J=NO","qab21rre9p","1","64","53","75","","","","","","lextale","true","false","","","","","","","",""
"1087","
  <p style=""font-size: 40px;"">plove</p>
  <p style=""font-size: 16px;"">F = YES &nbsp;&nbsp;&nbsp; J = NO</p>
","j","html-keyboard-response","13","2.1.0","116438","F=YES, J=NO","qab21rre9p","1","64","53","75","","","","","","lextale","false","false","","","","","","","",""
"884","
  <p style=""font-size: 40px;"">border</p>
  <p style=""font-size: 16px;"">F = YES &nbsp;&nbsp;&nbsp; J = NO</p>
","f","html-keyboard-response","14","2.1.0","117323","F=YES, J=NO","qab21rre9p","1","64","53","75","","","","","","lextale","true","false","","","","","","","",""
"1564","
  <p style=""font-size: 40px;"">flimsy</p>
  <p style=""font-size: 16px;"">F = YES &nbsp;&nbsp;&nbsp; J = NO</p>
","j","html-keyboard-response","15","2.1.0","118888","F=YES, J=NO","qab21rre9p","1","64","53","75","","","","","","lextale","true","false","","","","","","","",""
"973","
  <p style=""font-size: 40px;"">drain</p>
  <p style=""font-size: 16px;"">F = YES &nbsp;&nbsp;&nbsp; J = NO</p>
","f","html-keyboard-response","16","2.1.0","119863","F=YES, J=NO","qab21rre9p","1","64","53","75","","","","","","lextale","true","false","","","","","","","",""
"1667","
  <p style=""font-size: 40px;"">twindle</p>
  <p style=""font-size: 16px;"">F = YES &nbsp;&nbsp;&nbsp; J = NO</p>
","f","html-keyboard-response","17","2.1.0","121531","F=YES, J=NO","qab21rre9p","1","64","53","75","","","","","","lextale","false","false","","","","","","","",""
"944","
  <p style=""font-size: 40px;"">propose</p>
  <p style=""font-size: 16px;"">F = YES &nbsp;&nbsp;&nbsp; J = NO</p>
","f","html-keyboard-response","18","2.1.0","122476","F=YES, J=NO","qab21rre9p","1","64","53","75","","","","","","lextale","true","false","","","","","","","",""
"747","
  <p style=""font-size: 40px;"">forlay</p>
  <p style=""font-size: 16px;"">F = YES &nbsp;&nbsp;&nbsp; J = NO</p>
","j","html-keyboard-response","19","2.1.0","123225","F=YES, J=NO","qab21rre9p","1","64","53","75","","","","","","lextale","false","false","","","","","","","",""
"1058","
  <p style=""font-size: 40px;"">tenant</p>
  <p style=""font-size: 16px;"">F = YES &nbsp;&nbsp;&nbsp; J = NO</p>
","j","html-keyboard-response","20","2.1.0","124284","F=YES, J=NO","qab21rre9p","1","64","53","75","","","","","","lextale","true","false","","","","","","","",""
"1662","
  <p style=""font-size: 40px;"">strain</p>
  <p style=""font-size: 16px;"">F = YES &nbsp;&nbsp;&nbsp; J = NO</p>
","j","html-keyboard-response","21","2.1.0","125948","F=YES, J=NO","qab21rre9p","1","64","53","75","","","","","","lextale","true","false","","","","","","","",""
"798","
  <p style=""font-size: 40px;"">holster</p>
  <p style=""font-size: 16px;"">F = YES &nbsp;&nbsp;&nbsp; J = NO</p>
","j","html-keyboard-response","22","2.1.0","126747","F=YES, J=NO","qab21rre9p","1","64","53","75","","","","","","lextale","true","false","","","","","","","",""
"1790","
  <p style=""font-size: 40px;"">hinder</p>
  <p style=""font-size: 16px;"">F = YES &nbsp;&nbsp;&nbsp; J = NO</p>
","f","html-keyboard-response","23","2.1.0","128539","F=YES, J=NO","qab21rre9p","1","64","53","75","","","","","","lextale","true","false","","","","","","","",""
"1071","
  <p style=""font-size: 40px;"">swindle</p>
  <p style=""font-size: 16px;"">F = YES &nbsp;&nbsp;&nbsp; J = NO</p>
","j","html-keyboard-response","24","2.1.0","129612","F=YES, J=NO","qab21rre9p","1","64","53","75","","","","","","lextale","true","false","","","","","","","",""
"1037","
  <p style=""font-size: 40px;"">nuder</p>
  <p style=""font-size: 16px;"">F = YES &nbsp;&nbsp;&nbsp; J = NO</p>
","j","html-keyboard-response","25","2.1.0","130651","F=YES, J=NO","qab21rre9p","1","64","53","75","","","","","","lextale","false","false","","","","","","","",""
"781","
  <p style=""font-size: 40px;"">pillow</p>
  <p style=""font-size: 16px;"">F = YES &nbsp;&nbsp;&nbsp; J = NO</p>
","f","html-keyboard-response","26","2.1.0","131433","F=YES, J=NO","qab21rre9p","1","64","53","75","","","","","","lextale","true","false","","","","","","","",""
"1566","
  <p style=""font-size: 40px;"">shumble</p>
  <p style=""font-size: 16px;"">F = YES &nbsp;&nbsp;&nbsp; J = NO</p>
","j","html-keyboard-response","27","2.1.0","133000","F=YES, J=NO","qab21rre9p","1","64","53","75","","","","","","lextale","false","false","","","","","","","",""
"725","
  <p style=""font-size: 40px;"">thirst</p>
  <p style=""font-size: 16px;"">F = YES &nbsp;&nbsp;&nbsp; J = NO</p>
","f","html-keyboard-response","28","2.1.0","133727","F=YES, J=NO","qab21rre9p","1","64","53","75","","","","","","lextale","true","false","","","","","","","",""
"1139","
  <p style=""font-size: 40px;"">unsail</p>
  <p style=""font-size: 16px;"">F = YES &nbsp;&nbsp;&nbsp; J = NO</p>
","f","html-keyboard-response","29","2.1.0","134868","F=YES, J=NO","qab21rre9p","1","64","53","75","","","","","","lextale","false","false","","","","","","","",""
"893","
  <p style=""font-size: 40px;"">rifle</p>
  <p style=""font-size: 16px;"">F = YES &nbsp;&nbsp;&nbsp; J = NO</p>
","j","html-keyboard-response","30","2.1.0","135762","F=YES, J=NO","qab21rre9p","1","64","53","75","","","","","","lextale","true","false","","","","","","","",""
"4171","
  <p style=""font-size: 40px;"">mush</p>
  <p style=""font-size: 16px;"">F = YES &nbsp;&nbsp;&nbsp; J = NO</p>
","f","html-keyboard-response","31","2.1.0","139935","F=YES, J=NO","qab21rre9p","1","64","53","75","","","","","","lextale","false","false","","","","","","","",""
"812","
  <p style=""font-size: 40px;"">drench</p>
  <p style=""font-size: 16px;"">F = YES &nbsp;&nbsp;&nbsp; J = NO</p>
","j","html-keyboard-response","32","2.1.0","140749","F=YES, J=NO","qab21rre9p","1","64","53","75","","","","","","lextale","true","false","","","","","","","",""
"1014","
  <p style=""font-size: 40px;"">snirt</p>
  <p style=""font-size: 16px;"">F = YES &nbsp;&nbsp;&nbsp; J = NO</p>
","j","html-keyboard-response","33","2.1.0","141765","F=YES, J=NO","qab21rre9p","1","64","53","75","","","","","","lextale","false","false","","","","","","","",""
"1235","
  <p style=""font-size: 40px;"">bitter</p>
  <p style=""font-size: 16px;"">F = YES &nbsp;&nbsp;&nbsp; J = NO</p>
","f","html-keyboard-response","34","2.1.0","143001","F=YES, J=NO","qab21rre9p","1","64","53","75","","","","","","lextale","true","false","","","","","","","",""
"868","
  <p style=""font-size: 40px;"">pliff</p>
  <p style=""font-size: 16px;"">F = YES &nbsp;&nbsp;&nbsp; J = NO</p>
","j","html-keyboard-response","35","2.1.0","143870","F=YES, J=NO","qab21rre9p","1","64","53","75","","","","","","lextale","false","false","","","","","","","",""
"702","
  <p style=""font-size: 40px;"">tablet</p>
  <p style=""font-size: 16px;"">F = YES &nbsp;&nbsp;&nbsp; J = NO</p>
","f","html-keyboard-response","36","2.1.0","144574","F=YES, J=NO","qab21rre9p","1","64","53","75","","","","","","lextale","true","false","","","","","","","",""
"828","
  <p style=""font-size: 40px;"">glimmer</p>
  <p style=""font-size: 16px;"">F = YES &nbsp;&nbsp;&nbsp; J = NO</p>
","f","html-keyboard-response","37","2.1.0","145403","F=YES, J=NO","qab21rre9p","1","64","53","75","","","","","","lextale","true","false","","","","","","","",""
"1161","
  <p style=""font-size: 40px;"">slink</p>
  <p style=""font-size: 16px;"">F = YES &nbsp;&nbsp;&nbsp; J = NO</p>
","j","html-keyboard-response","38","2.1.0","146565","F=YES, J=NO","qab21rre9p","1","64","53","75","","","","","","lextale","true","false","","","","","","","",""
"996","
  <p style=""font-size: 40px;"">clever</p>
  <p style=""font-size: 16px;"">F = YES &nbsp;&nbsp;&nbsp; J = NO</p>
","f","html-keyboard-response","39","2.1.0","147563","F=YES, J=NO","qab21rre9p","1","64","53","75","","","","","","lextale","true","false","","","","","","","",""
"994","
  <p style=""font-size: 40px;"">grum</p>
  <p style=""font-size: 16px;"">F = YES &nbsp;&nbsp;&nbsp; J = NO</p>
","j","html-keyboard-response","40","2.1.0","148558","F=YES, J=NO","qab21rre9p","1","64","53","75","","","","","","lextale","false","false","","","","","","","",""
"683","
  <p style=""font-size: 40px;"">string</p>
  <p style=""font-size: 16px;"">F = YES &nbsp;&nbsp;&nbsp; J = NO</p>
","f","html-keyboard-response","41","2.1.0","149243","F=YES, J=NO","qab21rre9p","1","64","53","75","","","","","","lextale","true","false","","","","","","","",""
"835","
  <p style=""font-size: 40px;"">plim</p>
  <p style=""font-size: 16px;"">F = YES &nbsp;&nbsp;&nbsp; J = NO</p>
","j","html-keyboard-response","42","2.1.0","150079","F=YES, J=NO","qab21rre9p","1","64","53","75","","","","","","lextale","false","false","","","","","","","",""
"782","
  <p style=""font-size: 40px;"">cable</p>
  <p style=""font-size: 16px;"">F = YES &nbsp;&nbsp;&nbsp; J = NO</p>
","f","html-keyboard-response","43","2.1.0","150862","F=YES, J=NO","qab21rre9p","1","64","53","75","","","","","","lextale","true","false","","","","","","","",""
"907","
  <p style=""font-size: 40px;"">shrivel</p>
  <p style=""font-size: 16px;"">F = YES &nbsp;&nbsp;&nbsp; J = NO</p>
","j","html-keyboard-response","44","2.1.0","151771","F=YES, J=NO","qab21rre9p","1","64","53","75","","","","","","lextale","true","false","","","","","","","",""
"943","
  <p style=""font-size: 40px;"">tarnish</p>
  <p style=""font-size: 16px;"">F = YES &nbsp;&nbsp;&nbsp; J = NO</p>
","j","html-keyboard-response","45","2.1.0","152715","F=YES, J=NO","qab21rre9p","1","64","53","75","","","","","","lextale","true","false","","","","","","","",""
"985","
  <p style=""font-size: 40px;"">blim</p>
  <p style=""font-size: 16px;"">F = YES &nbsp;&nbsp;&nbsp; J = NO</p>
","j","html-keyboard-response","46","2.1.0","153701","F=YES, J=NO","qab21rre9p","1","64","53","75","","","","","","lextale","false","false","","","","","","","",""
"1169","
  <p style=""font-size: 40px;"">stifle</p>
  <p style=""font-size: 16px;"">F = YES &nbsp;&nbsp;&nbsp; J = NO</p>
","j","html-keyboard-response","47","2.1.0","154871","F=YES, J=NO","qab21rre9p","1","64","53","75","","","","","","lextale","true","false","","","","","","","",""
"912","
  <p style=""font-size: 40px;"">bint</p>
  <p style=""font-size: 16px;"">F = YES &nbsp;&nbsp;&nbsp; J = NO</p>
","j","html-keyboard-response","48","2.1.0","155784","F=YES, J=NO","qab21rre9p","1","64","53","75","","","","","","lextale","false","false","","","","","","","",""
"749","
  <p style=""font-size: 40px;"">purple</p>
  <p style=""font-size: 16px;"">F = YES &nbsp;&nbsp;&nbsp; J = NO</p>
","f","html-keyboard-response","49","2.1.0","156535","F=YES, J=NO","qab21rre9p","1","64","53","75","","","","","","lextale","true","false","","","","","","","",""
"1662","
  <p style=""font-size: 40px;"">wriggle</p>
  <p style=""font-size: 16px;"">F = YES &nbsp;&nbsp;&nbsp; J = NO</p>
","j","html-keyboard-response","50","2.1.0","158198","F=YES, J=NO","qab21rre9p","1","64","53","75","","","","","","lextale","true","false","","","","","","","",""
"915","
  <p style=""font-size: 40px;"">mangle</p>
  <p style=""font-size: 16px;"">F = YES &nbsp;&nbsp;&nbsp; J = NO</p>
","j","html-keyboard-response","51","2.1.0","159115","F=YES, J=NO","qab21rre9p","1","64","53","75","","","","","","lextale","true","false","","","","","","","",""
"2098","
  <p style=""font-size: 40px;"">shramp</p>
  <p style=""font-size: 16px;"">F = YES &nbsp;&nbsp;&nbsp; J = NO</p>
","j","html-keyboard-response","52","2.1.0","161215","F=YES, J=NO","qab21rre9p","1","64","53","75","","","","","","lextale","false","false","","","","","","","",""
"826","
  <p style=""font-size: 40px;"">flirt</p>
  <p style=""font-size: 16px;"">F = YES &nbsp;&nbsp;&nbsp; J = NO</p>
","f","html-keyboard-response","53","2.1.0","162042","F=YES, J=NO","qab21rre9p","1","64","53","75","","","","","","lextale","true","false","","","","","","","",""
"846","
  <p style=""font-size: 40px;"">frip</p>
  <p style=""font-size: 16px;"">F = YES &nbsp;&nbsp;&nbsp; J = NO</p>
","j","html-keyboard-response","54","2.1.0","162889","F=YES, J=NO","qab21rre9p","1","64","53","75","","","","","","lextale","false","false","","","","","","","",""
"1030","
  <p style=""font-size: 40px;"">tangle</p>
  <p style=""font-size: 16px;"">F = YES &nbsp;&nbsp;&nbsp; J = NO</p>
","f","html-keyboard-response","55","2.1.0","163920","F=YES, J=NO","qab21rre9p","1","64","53","75","","","","","","lextale","true","false","","","","","","","",""
"913","
  <p style=""font-size: 40px;"">crumble</p>
  <p style=""font-size: 16px;"">F = YES &nbsp;&nbsp;&nbsp; J = NO</p>
","f","html-keyboard-response","56","2.1.0","164834","F=YES, J=NO","qab21rre9p","1","64","53","75","","","","","","lextale","true","false","","","","","","","",""
"876","
  <p style=""font-size: 40px;"">wrinkle</p>
  <p style=""font-size: 16px;"">F = YES &nbsp;&nbsp;&nbsp; J = NO</p>
","f","html-keyboard-response","57","2.1.0","165712","F=YES, J=NO","qab21rre9p","1","64","53","75","","","","","","lextale","true","false","","","","","","","",""
"1652","
  <p style=""font-size: 40px;"">slumb</p>
  <p style=""font-size: 16px;"">F = YES &nbsp;&nbsp;&nbsp; J = NO</p>
","f","html-keyboard-response","58","2.1.0","167365","F=YES, J=NO","qab21rre9p","1","64","53","75","","","","","","lextale","false","false","","","","","","","",""
"838","
  <p style=""font-size: 40px;"">jungle</p>
  <p style=""font-size: 16px;"">F = YES &nbsp;&nbsp;&nbsp; J = NO</p>
","f","html-keyboard-response","59","2.1.0","168204","F=YES, J=NO","qab21rre9p","1","64","53","75","","","","","","lextale","true","false","","","","","","","",""
"763","
  <p style=""font-size: 40px;"">frolick</p>
  <p style=""font-size: 16px;"">F = YES &nbsp;&nbsp;&nbsp; J = NO</p>
","j","html-keyboard-response","60","2.1.0","168969","F=YES, J=NO","qab21rre9p","1","64","53","75","","","","","","lextale","false","false","","","","","","","",""
"3374","
      <h2>LexTALE Test Completed</h2>
      <p>Your LexTALE vocabulary score is: <strong>64%</strong></p>
      <p>Press any key to continue.</p>
    "," ","html-keyboard-response","61","2.1.0","172346","F=YES, J=NO","qab21rre9p","1","64","53","75","","","","","","","","","","","","","","","",""
"57964","
    <div style=""max-width: 800px; margin: auto; text-align: left;"">
      <h2>Break Time</h2>
      <p>You have completed the first part of the study.</p>
      <p>You may take a short <strong>30-second break</strong> before continuing.</p>
      <p>When you’re ready, press any key to continue to the final task.</p>
    </div>
  "," ","html-keyboard-response","62","2.1.0","230311","F=YES, J=NO","qab21rre9p","1","64","53","75","","","","","","","","","","","","","","","",""
"41858","
    <div style=""max-width: 800px; margin: auto; text-align: left;"">
      <h2>Part 2: Lexical Decision Task</h2>
      <p>You will now begin the second part of the study.</p>
      <p>Each trial will follow this sequence:</p>
      <ul>
        <li>A fixation cross (+) appears at the center of the screen.</li>
        <li>You will hear a short beep followed by a spoken word.</li>
        <li>A written word will appear briefly on the screen.</li>
      </ul>
      <p>Your task is to judge whether the <strong>written word</strong> is a real English word.</p>
      <p style=""margin-top: 1em;""><strong>Key responses:</strong></p>
      <ul>
        <li><strong>F</strong> = YES (real English word)</li>
        <li><strong>J</strong> = NO (not a real English word)</li>
      </ul>
      <p>Please respond as quickly and accurately as you can.</p>
      <p style=""margin-top: 2em;"">Press any key to continue.</p>
    </div>
  "," ","html-keyboard-response","63","2.1.0","272170","F=YES, J=NO","qab21rre9p","1","64","53","75","","","","","","","","","","","","","","","",""
"10084","
    <div style=""max-width: 800px; margin: auto; text-align: left;"">
      <h2>Before You Begin</h2>
      <p>Make sure your sound is turned on.</p>
      <p>You will hear audio during each trial, but your decision should be based only on the <strong>written word</strong> you see on the screen.</p>
      <p><strong>Reminder:</strong></p>
      <ul>
        <li><strong>F</strong> = YES (real English word)</li>
        <li><strong>J</strong> = NO (not a real English word)</li>
      </ul>
      <p style=""margin-top: 2em;"">Press any key when you are ready to begin.</p>
    </div>
  "," ","html-keyboard-response","64","2.1.0","282256","F=YES, J=NO","qab21rre9p","1","64","53","75","","","","","","","","","","","","","","","",""
"7486","
    <div style=""max-width: 800px; margin: auto; text-align: left;"">
      <h2>Part 2: Practice Trials</h2>
      <p>You will now complete a few <strong>practice trials</strong> to get familiar with the task.</p>
      <p>These trials are <strong>not scored</strong> and are only to help you get used to the format.</p>
      <p style=""margin-top: 2em;"">Press any key to begin.</p>
    </div>
  "," ","html-keyboard-response","65","2.1.0","289743","F=YES, J=NO","qab21rre9p","1","64","53","75","","","","","","","","","","","","","","","",""
"2493","<p>Starting practice block 1 of 2. Press any key to continue.</p>"," ","html-keyboard-response","66","2.1.0","292238","F=YES, J=NO","qab21rre9p","1","64","53","75","","","","","","","","","","","","","","","",""
"null","<p style=""font-size: 50px;"">+</p>","null","html-keyboard-response","67","2.1.0","292543","F=YES, J=NO","qab21rre9p","1","64","53","75","","","","","","","","","","","","","","","",""
"null","audio/beep-329314.mp3","null","audio-keyboard-response","68","2.1.0","294643","F=YES, J=NO","qab21rre9p","1","64","53","75","","","","","","","","","","","","","","","",""
"null","audio/emotion.wav","null","audio-keyboard-response","69","2.1.0","295322","F=YES, J=NO","qab21rre9p","1","64","53","75","","","","","","","","","","","","","","","",""
"1358","
          <p id=""word"" style=""font-size: 40px;"">devering</p>
          <p style=""font-size: 16px;"">F = YES &nbsp;&nbsp;&nbsp; J = NO</p>
        ","j","html-keyboard-response","70","2.1.0","296682","F=YES, J=NO","qab21rre9p","1","64","53","75","","","","","","","","","devering","emotion","pseudoword","pseudoword","j","true","",""
"null","<p style=""font-size: 50px;"">+</p>","null","html-keyboard-response","71","2.1.0","296998","F=YES, J=NO","qab21rre9p","1","64","53","75","","","","","","","","","","","","","","","",""
"null","audio/beep-329314.mp3","null","audio-keyboard-response","72","2.1.0","298522","F=YES, J=NO","qab21rre9p","1","64","53","75","","","","","","","","","","","","","","","",""
"null","audio/cancer1.wav","null","audio-keyboard-response","73","2.1.0","299081","F=YES, J=NO","qab21rre9p","1","64","53","75","","","","","","","","","","","","","","","",""
"926","
          <p id=""word"" style=""font-size: 40px;"">draw</p>
          <p style=""font-size: 16px;"">F = YES &nbsp;&nbsp;&nbsp; J = NO</p>
        ","f","html-keyboard-response","74","2.1.0","300008","F=YES, J=NO","qab21rre9p","1","64","53","75","","","","","","","","","draw","cancer1","filler","filler","f","true","",""
"null","<p style=""font-size: 50px;"">+</p>","null","html-keyboard-response","75","2.1.0","300321","F=YES, J=NO","qab21rre9p","1","64","53","75","","","","","","","","","","","","","","","",""
"null","audio/beep-329314.mp3","null","audio-keyboard-response","76","2.1.0","301862","F=YES, J=NO","qab21rre9p","1","64","53","75","","","","","","","","","","","","","","","",""
"null","audio/sugar1.wav","null","audio-keyboard-response","77","2.1.0","302362","F=YES, J=NO","qab21rre9p","1","64","53","75","","","","","","","","","","","","","","","",""
"702","
          <p id=""word"" style=""font-size: 40px;"">glung</p>
          <p style=""font-size: 16px;"">F = YES &nbsp;&nbsp;&nbsp; J = NO</p>
        ","j","html-keyboard-response","78","2.1.0","303066","F=YES, J=NO","qab21rre9p","1","64","53","75","","","","","","","","","glung","sugar1","pseudoword","pseudoword","j","true","",""
"null","<p style=""font-size: 50px;"">+</p>","null","html-keyboard-response","79","2.1.0","303375","F=YES, J=NO","qab21rre9p","1","64","53","75","","","","","","","","","","","","","","","",""
"null","audio/beep-329314.mp3","null","audio-keyboard-response","80","2.1.0","304902","F=YES, J=NO","qab21rre9p","1","64","53","75","","","","","","","","","","","","","","","",""
"null","audio/show.wav","null","audio-keyboard-response","81","2.1.0","305462","F=YES, J=NO","qab21rre9p","1","64","53","75","","","","","","","","","","","","","","","",""
"1073","
          <p id=""word"" style=""font-size: 40px;"">smark</p>
          <p style=""font-size: 16px;"">F = YES &nbsp;&nbsp;&nbsp; J = NO</p>
        ","f","html-keyboard-response","82","2.1.0","306536","F=YES, J=NO","qab21rre9p","1","64","53","75","","","","","","","","","smark","show","pseudoword","pseudoword","j","false","",""
"null","<p style=""font-size: 50px;"">+</p>","null","html-keyboard-response","83","2.1.0","306852","F=YES, J=NO","qab21rre9p","1","64","53","75","","","","","","","","","","","","","","","",""
"null","audio/beep-329314.mp3","null","audio-keyboard-response","84","2.1.0","308382","F=YES, J=NO","qab21rre9p","1","64","53","75","","","","","","","","","","","","","","","",""
"null","audio/floor.wav","null","audio-keyboard-response","85","2.1.0","309161","F=YES, J=NO","qab21rre9p","1","64","53","75","","","","","","","","","","","","","","","",""
"1214","
          <p id=""word"" style=""font-size: 40px;"">mop</p>
          <p style=""font-size: 16px;"">F = YES &nbsp;&nbsp;&nbsp; J = NO</p>
        ","f","html-keyboard-response","86","2.1.0","310376","F=YES, J=NO","qab21rre9p","1","64","53","75","","","","","","","","","mop","floor","filler","filler","f","true","",""
"null","<p style=""font-size: 50px;"">+</p>","null","html-keyboard-response","87","2.1.0","310683","F=YES, J=NO","qab21rre9p","1","64","53","75","","","","","","","","","","","","","","","",""
"null","audio/beep-329314.mp3","null","audio-keyboard-response","88","2.1.0","312221","F=YES, J=NO","qab21rre9p","1","64","53","75","","","","","","","","","","","","","","","",""
"null","audio/arm.wav","null","audio-keyboard-response","89","2.1.0","312961","F=YES, J=NO","qab21rre9p","1","64","53","75","","","","","","","","","","","","","","","",""
"710","
          <p id=""word"" style=""font-size: 40px;"">pigne</p>
          <p style=""font-size: 16px;"">F = YES &nbsp;&nbsp;&nbsp; J = NO</p>
        ","j","html-keyboard-response","90","2.1.0","313672","F=YES, J=NO","qab21rre9p","1","64","53","75","","","","","","","","","pigne","arm","pseudoword","pseudoword","j","true","",""
"null","<p style=""font-size: 50px;"">+</p>","null","html-keyboard-response","91","2.1.0","313986","F=YES, J=NO","qab21rre9p","1","64","53","75","","","","","","","","","","","","","","","",""
"null","audio/beep-329314.mp3","null","audio-keyboard-response","92","2.1.0","315522","F=YES, J=NO","qab21rre9p","1","64","53","75","","","","","","","","","","","","","","","",""
"null","audio/breath.wav","null","audio-keyboard-response","93","2.1.0","316102","F=YES, J=NO","qab21rre9p","1","64","53","75","","","","","","","","","","","","","","","",""
"833","
          <p id=""word"" style=""font-size: 40px;"">pack</p>
          <p style=""font-size: 16px;"">F = YES &nbsp;&nbsp;&nbsp; J = NO</p>
        ","f","html-keyboard-response","94","2.1.0","316936","F=YES, J=NO","qab21rre9p","1","64","53","75","","","","","","","","","pack","breath","filler","filler","f","true","",""
"null","<p style=""font-size: 50px;"">+</p>","null","html-keyboard-response","95","2.1.0","317239","F=YES, J=NO","qab21rre9p","1","64","53","75","","","","","","","","","","","","","","","",""
"null","audio/beep-329314.mp3","null","audio-keyboard-response","96","2.1.0","318761","F=YES, J=NO","qab21rre9p","1","64","53","75","","","","","","","","","","","","","","","",""
"null","audio/mind.wav","null","audio-keyboard-response","97","2.1.0","319402","F=YES, J=NO","qab21rre9p","1","64","53","75","","","","","","","","","","","","","","","",""
"839","
          <p id=""word"" style=""font-size: 40px;"">crainate</p>
          <p style=""font-size: 16px;"">F = YES &nbsp;&nbsp;&nbsp; J = NO</p>
        ","j","html-keyboard-response","98","2.1.0","320243","F=YES, J=NO","qab21rre9p","1","64","53","75","","","","","","","","","crainate","mind","pseudoword","pseudoword","j","true","",""
"null","<p style=""font-size: 50px;"">+</p>","null","html-keyboard-response","99","2.1.0","320552","F=YES, J=NO","qab21rre9p","1","64","53","75","","","","","","","","","","","","","","","",""
"null","audio/beep-329314.mp3","null","audio-keyboard-response","100","2.1.0","322082","F=YES, J=NO","qab21rre9p","1","64","53","75","","","","","","","","","","","","","","","",""
"null","audio/corpse1.wav","null","audio-keyboard-response","101","2.1.0","322922","F=YES, J=NO","qab21rre9p","1","64","53","75","","","","","","","","","","","","","","","",""
"660","
          <p id=""word"" style=""font-size: 40px;"">glonet</p>
          <p style=""font-size: 16px;"">F = YES &nbsp;&nbsp;&nbsp; J = NO</p>
        ","j","html-keyboard-response","102","2.1.0","323584","F=YES, J=NO","qab21rre9p","1","64","53","75","","","","","","","","","glonet","corpse1","pseudoword","pseudoword","j","true","",""
"null","<p style=""font-size: 50px;"">+</p>","null","html-keyboard-response","103","2.1.0","323889","F=YES, J=NO","qab21rre9p","1","64","53","75","","","","","","","","","","","","","","","",""
"null","audio/beep-329314.mp3","null","audio-keyboard-response","104","2.1.0","325422","F=YES, J=NO","qab21rre9p","1","64","53","75","","","","","","","","","","","","","","","",""
"null","audio/ego.wav","null","audio-keyboard-response","105","2.1.0","326162","F=YES, J=NO","qab21rre9p","1","64","53","75","","","","","","","","","","","","","","","",""
"610","
          <p id=""word"" style=""font-size: 40px;"">bruite</p>
          <p style=""font-size: 16px;"">F = YES &nbsp;&nbsp;&nbsp; J = NO</p>
        ","j","html-keyboard-response","106","2.1.0","326773","F=YES, J=NO","qab21rre9p","1","64","53","75","","","","","","","","","bruite","ego","pseudoword","pseudoword","j","true","",""
"null","<p style=""font-size: 50px;"">+</p>","null","html-keyboard-response","107","2.1.0","327083","F=YES, J=NO","qab21rre9p","1","64","53","75","","","","","","","","","","","","","","","",""
"null","audio/beep-329314.mp3","null","audio-keyboard-response","108","2.1.0","328622","F=YES, J=NO","qab21rre9p","1","64","53","75","","","","","","","","","","","","","","","",""
"null","audio/bridge.wav","null","audio-keyboard-response","109","2.1.0","329362","F=YES, J=NO","qab21rre9p","1","64","53","75","","","","","","","","","","","","","","","",""
"734","
          <p id=""word"" style=""font-size: 40px;"">crack</p>
          <p style=""font-size: 16px;"">F = YES &nbsp;&nbsp;&nbsp; J = NO</p>
        ","f","html-keyboard-response","110","2.1.0","330098","F=YES, J=NO","qab21rre9p","1","64","53","75","","","","","","","","","crack","bridge","filler","filler","f","true","",""
"null","<p style=""font-size: 50px;"">+</p>","null","html-keyboard-response","111","2.1.0","330404","F=YES, J=NO","qab21rre9p","1","64","53","75","","","","","","","","","","","","","","","",""
"null","audio/beep-329314.mp3","null","audio-keyboard-response","112","2.1.0","331942","F=YES, J=NO","qab21rre9p","1","64","53","75","","","","","","","","","","","","","","","",""
"null","audio/camera1.wav","null","audio-keyboard-response","113","2.1.0","332622","F=YES, J=NO","qab21rre9p","1","64","53","75","","","","","","","","","","","","","","","",""
"646","
          <p id=""word"" style=""font-size: 40px;"">stir</p>
          <p style=""font-size: 16px;"">F = YES &nbsp;&nbsp;&nbsp; J = NO</p>
        ","j","html-keyboard-response","114","2.1.0","333270","F=YES, J=NO","qab21rre9p","1","64","53","75","","","","","","","","","stir","camera1","filler","filler","f","false","",""
"2061","<p>Starting practice block 2 of 2. Press any key to continue.</p>"," ","html-keyboard-response","115","2.1.0","335332","F=YES, J=NO","qab21rre9p","1","64","53","75","","","","","","","","","","","","","","","",""
"null","<p style=""font-size: 50px;"">+</p>","null","html-keyboard-response","116","2.1.0","335647","F=YES, J=NO","qab21rre9p","1","64","53","75","","","","","","","","","","","","","","","",""
"null","audio/beep-329314.mp3","null","audio-keyboard-response","117","2.1.0","337181","F=YES, J=NO","qab21rre9p","1","64","53","75","","","","","","","","","","","","","","","",""
"null","audio/birth1.wav","null","audio-keyboard-response","118","2.1.0","337742","F=YES, J=NO","qab21rre9p","1","64","53","75","","","","","","","","","","","","","","","",""
"917","
          <p id=""word"" style=""font-size: 40px;"">peel</p>
          <p style=""font-size: 16px;"">F = YES &nbsp;&nbsp;&nbsp; J = NO</p>
        ","f","html-keyboard-response","119","2.1.0","338660","F=YES, J=NO","qab21rre9p","1","64","53","75","","","","","","","","","peel","birth1","filler","filler","f","true","",""
"null","<p style=""font-size: 50px;"">+</p>","null","html-keyboard-response","120","2.1.0","338972","F=YES, J=NO","qab21rre9p","1","64","53","75","","","","","","","","","","","","","","","",""
"null","audio/beep-329314.mp3","null","audio-keyboard-response","121","2.1.0","340502","F=YES, J=NO","qab21rre9p","1","64","53","75","","","","","","","","","","","","","","","",""
"null","audio/bottle.wav","null","audio-keyboard-response","122","2.1.0","340982","F=YES, J=NO","qab21rre9p","1","64","53","75","","","","","","","","","","","","","","","",""
"747","
          <p id=""word"" style=""font-size: 40px;"">watch</p>
          <p style=""font-size: 16px;"">F = YES &nbsp;&nbsp;&nbsp; J = NO</p>
        ","f","html-keyboard-response","123","2.1.0","341730","F=YES, J=NO","qab21rre9p","1","64","53","75","","","","","","","","","watch","bottle","filler","filler","f","true","",""
"null","<p style=""font-size: 50px;"">+</p>","null","html-keyboard-response","124","2.1.0","342045","F=YES, J=NO","qab21rre9p","1","64","53","75","","","","","","","","","","","","","","","",""
"null","audio/beep-329314.mp3","null","audio-keyboard-response","125","2.1.0","343582","F=YES, J=NO","qab21rre9p","1","64","53","75","","","","","","","","","","","","","","","",""
"null","audio/uncle1.wav","null","audio-keyboard-response","126","2.1.0","344082","F=YES, J=NO","qab21rre9p","1","64","53","75","","","","","","","","","","","","","","","",""
"921","
          <p id=""word"" style=""font-size: 40px;"">dramble</p>
          <p style=""font-size: 16px;"">F = YES &nbsp;&nbsp;&nbsp; J = NO</p>
        ","j","html-keyboard-response","127","2.1.0","345004","F=YES, J=NO","qab21rre9p","1","64","53","75","","","","","","","","","dramble","uncle1","pseudoword","pseudoword","j","true","",""
"null","<p style=""font-size: 50px;"">+</p>","null","html-keyboard-response","128","2.1.0","345319","F=YES, J=NO","qab21rre9p","1","64","53","75","","","","","","","","","","","","","","","",""
"null","audio/beep-329314.mp3","null","audio-keyboard-response","129","2.1.0","346862","F=YES, J=NO","qab21rre9p","1","64","53","75","","","","","","","","","","","","","","","",""
"null","audio/ankle1.wav","null","audio-keyboard-response","130","2.1.0","347402","F=YES, J=NO","qab21rre9p","1","64","53","75","","","","","","","","","","","","","","","",""
"776","
          <p id=""word"" style=""font-size: 40px;"">kick</p>
          <p style=""font-size: 16px;"">F = YES &nbsp;&nbsp;&nbsp; J = NO</p>
        ","f","html-keyboard-response","131","2.1.0","348179","F=YES, J=NO","qab21rre9p","1","64","53","75","","","","","","","","","kick","ankle1","filler","filler","f","true","",""
"null","<p style=""font-size: 50px;"">+</p>","null","html-keyboard-response","132","2.1.0","348481","F=YES, J=NO","qab21rre9p","1","64","53","75","","","","","","","","","","","","","","","",""
"null","audio/beep-329314.mp3","null","audio-keyboard-response","133","2.1.0","350021","F=YES, J=NO","qab21rre9p","1","64","53","75","","","","","","","","","","","","","","","",""
"null","audio/menu.wav","null","audio-keyboard-response","134","2.1.0","350782","F=YES, J=NO","qab21rre9p","1","64","53","75","","","","","","","","","","","","","","","",""
"776","
          <p id=""word"" style=""font-size: 40px;"">slice</p>
          <p style=""font-size: 16px;"">F = YES &nbsp;&nbsp;&nbsp; J = NO</p>
        ","f","html-keyboard-response","135","2.1.0","351559","F=YES, J=NO","qab21rre9p","1","64","53","75","","","","","","","","","slice","menu","filler","filler","f","true","",""
"null","<p style=""font-size: 50px;"">+</p>","null","html-keyboard-response","136","2.1.0","351860","F=YES, J=NO","qab21rre9p","1","64","53","75","","","","","","","","","","","","","","","",""
"null","audio/beep-329314.mp3","null","audio-keyboard-response","137","2.1.0","353401","F=YES, J=NO","qab21rre9p","1","64","53","75","","","","","","","","","","","","","","","",""
"null","audio/kettle1.wav","null","audio-keyboard-response","138","2.1.0","354062","F=YES, J=NO","qab21rre9p","1","64","53","75","","","","","","","","","","","","","","","",""
"831","
          <p id=""word"" style=""font-size: 40px;"">wrap</p>
          <p style=""font-size: 16px;"">F = YES &nbsp;&nbsp;&nbsp; J = NO</p>
        ","f","html-keyboard-response","139","2.1.0","354895","F=YES, J=NO","qab21rre9p","1","64","53","75","","","","","","","","","wrap","kettle1","filler","filler","f","true","",""
"null","<p style=""font-size: 50px;"">+</p>","null","html-keyboard-response","140","2.1.0","355200","F=YES, J=NO","qab21rre9p","1","64","53","75","","","","","","","","","","","","","","","",""
"null","audio/beep-329314.mp3","null","audio-keyboard-response","141","2.1.0","356741","F=YES, J=NO","qab21rre9p","1","64","53","75","","","","","","","","","","","","","","","",""
"null","audio/scar.wav","null","audio-keyboard-response","142","2.1.0","357521","F=YES, J=NO","qab21rre9p","1","64","53","75","","","","","","","","","","","","","","","",""
"740","
          <p id=""word"" style=""font-size: 40px;"">adelineate</p>
          <p style=""font-size: 16px;"">F = YES &nbsp;&nbsp;&nbsp; J = NO</p>
        ","j","html-keyboard-response","143","2.1.0","358262","F=YES, J=NO","qab21rre9p","1","64","53","75","","","","","","","","","adelineate","scar","pseudoword","pseudoword","j","true","",""
"null","<p style=""font-size: 50px;"">+</p>","null","html-keyboard-response","144","2.1.0","358575","F=YES, J=NO","qab21rre9p","1","64","53","75","","","","","","","","","","","","","","","",""
"null","audio/beep-329314.mp3","null","audio-keyboard-response","145","2.1.0","360102","F=YES, J=NO","qab21rre9p","1","64","53","75","","","","","","","","","","","","","","","",""
"null","audio/arm.wav","null","audio-keyboard-response","146","2.1.0","360641","F=YES, J=NO","qab21rre9p","1","64","53","75","","","","","","","","","","","","","","","",""
"842","
          <p id=""word"" style=""font-size: 40px;"">fold</p>
          <p style=""font-size: 16px;"">F = YES &nbsp;&nbsp;&nbsp; J = NO</p>
        ","f","html-keyboard-response","147","2.1.0","361485","F=YES, J=NO","qab21rre9p","1","64","53","75","","","","","","","","","fold","arm","filler","filler","f","true","",""
"null","<p style=""font-size: 50px;"">+</p>","null","html-keyboard-response","148","2.1.0","361799","F=YES, J=NO","qab21rre9p","1","64","53","75","","","","","","","","","","","","","","","",""
"null","audio/beep-329314.mp3","null","audio-keyboard-response","149","2.1.0","363321","F=YES, J=NO","qab21rre9p","1","64","53","75","","","","","","","","","","","","","","","",""
"null","audio/roof1.wav","null","audio-keyboard-response","150","2.1.0","363880","F=YES, J=NO","qab21rre9p","1","64","53","75","","","","","","","","","","","","","","","",""
"612","
          <p id=""word"" style=""font-size: 40px;"">wronb</p>
          <p style=""font-size: 16px;"">F = YES &nbsp;&nbsp;&nbsp; J = NO</p>
        ","j","html-keyboard-response","151","2.1.0","364493","F=YES, J=NO","qab21rre9p","1","64","53","75","","","","","","","","","wronb","roof1","pseudoword","pseudoword","j","true","",""
"null","<p style=""font-size: 50px;"">+</p>","null","html-keyboard-response","152","2.1.0","364807","F=YES, J=NO","qab21rre9p","1","64","53","75","","","","","","","","","","","","","","","",""
"null","audio/beep-329314.mp3","null","audio-keyboard-response","153","2.1.0","366342","F=YES, J=NO","qab21rre9p","1","64","53","75","","","","","","","","","","","","","","","",""
"null","audio/butter1.wav","null","audio-keyboard-response","154","2.1.0","366982","F=YES, J=NO","qab21rre9p","1","64","53","75","","","","","","","","","","","","","","","",""
"818","
          <p id=""word"" style=""font-size: 40px;"">chew</p>
          <p style=""font-size: 16px;"">F = YES &nbsp;&nbsp;&nbsp; J = NO</p>
        ","f","html-keyboard-response","155","2.1.0","367801","F=YES, J=NO","qab21rre9p","1","64","53","75","","","","","","","","","chew","butter1","filler","filler","f","true","",""
"null","<p style=""font-size: 50px;"">+</p>","null","html-keyboard-response","156","2.1.0","368117","F=YES, J=NO","qab21rre9p","1","64","53","75","","","","","","","","","","","","","","","",""
"null","audio/beep-329314.mp3","null","audio-keyboard-response","157","2.1.0","369642","F=YES, J=NO","qab21rre9p","1","64","53","75","","","","","","","","","","","","","","","",""
"null","audio/relief.wav","null","audio-keyboard-response","158","2.1.0","370361","F=YES, J=NO","qab21rre9p","1","64","53","75","","","","","","","","","","","","","","","",""
"558","
          <p id=""word"" style=""font-size: 40px;"">grigg</p>
          <p style=""font-size: 16px;"">F = YES &nbsp;&nbsp;&nbsp; J = NO</p>
        ","j","html-keyboard-response","159","2.1.0","370921","F=YES, J=NO","qab21rre9p","1","64","53","75","","","","","","","","","grigg","relief","pseudoword","pseudoword","j","true","",""
"null","<p style=""font-size: 50px;"">+</p>","null","html-keyboard-response","160","2.1.0","371231","F=YES, J=NO","qab21rre9p","1","64","53","75","","","","","","","","","","","","","","","",""
"null","audio/beep-329314.mp3","null","audio-keyboard-response","161","2.1.0","372762","F=YES, J=NO","qab21rre9p","1","64","53","75","","","","","","","","","","","","","","","",""
"null","audio/heart1.wav","null","audio-keyboard-response","162","2.1.0","373462","F=YES, J=NO","qab21rre9p","1","64","53","75","","","","","","","","","","","","","","","",""
"706","
          <p id=""word"" style=""font-size: 40px;"">dralm</p>
          <p style=""font-size: 16px;"">F = YES &nbsp;&nbsp;&nbsp; J = NO</p>
        ","j","html-keyboard-response","163","2.1.0","374170","F=YES, J=NO","qab21rre9p","1","64","53","75","","","","","","","","","dralm","heart1","pseudoword","pseudoword","j","true","",""
"9216","
    <div style=""max-width: 800px; margin: auto; text-align: left;"">
      <h2>Part 2: Main Trials</h2>
      <p>Great job on the practice trials!</p>
      <p>You will now begin the <strong>main set of trials</strong>.</p>
      <p>Remember your key assignments:</p>
      <ul>
        <li><strong>F</strong> = YES (real English word)</li>
        <li><strong>J</strong> = NO (not a real English word)</li>
      </ul>
      <p>Try to respond as <strong>quickly and accurately</strong> as possible.</p>
      <p style=""margin-top: 2em;"">Press any key to begin the main trials.</p>
    </div>
  "," ","html-keyboard-response","164","2.1.0","383387","F=YES, J=NO","qab21rre9p","1","64","53","75","","","","","","","","","","","","","","","",""
"3845","<p>Starting main block 1 of 8. Press any key to continue.</p>"," ","html-keyboard-response","165","2.1.0","387233","F=YES, J=NO","qab21rre9p","1","64","53","75","","","","","","","","","","","","","","","",""
"null","<p style=""font-size: 50px;"">+</p>","null","html-keyboard-response","166","2.1.0","387547","F=YES, J=NO","qab21rre9p","1","64","53","75","","","","","","","","","","","","","","","",""
"null","audio/beep-329314.mp3","null","audio-keyboard-response","167","2.1.0","389053","F=YES, J=NO","qab21rre9p","1","64","53","75","","","","","","","","","","","","","","","",""
"null","audio/tomato.wav","null","audio-keyboard-response","168","2.1.0","389743","F=YES, J=NO","qab21rre9p","1","64","53","75","","","","","","","","","","","","","","","",""
"715","
          <p id=""word"" style=""font-size: 40px;"">grow</p>
          <p style=""font-size: 16px;"">F = YES &nbsp;&nbsp;&nbsp; J = NO</p>
        ","f","html-keyboard-response","169","2.1.0","390459","F=YES, J=NO","qab21rre9p","1","64","53","75","","","","","","","","","grow","tomato","literal","experimental","f","true","",""
"null","<p style=""font-size: 50px;"">+</p>","null","html-keyboard-response","170","2.1.0","390776","F=YES, J=NO","qab21rre9p","1","64","53","75","","","","","","","","","","","","","","","",""
"null","audio/beep-329314.mp3","null","audio-keyboard-response","171","2.1.0","392313","F=YES, J=NO","qab21rre9p","1","64","53","75","","","","","","","","","","","","","","","",""
"null","audio/show.wav","null","audio-keyboard-response","172","2.1.0","392843","F=YES, J=NO","qab21rre9p","1","64","53","75","","","","","","","","","","","","","","","",""
"679","
          <p id=""word"" style=""font-size: 40px;"">hold</p>
          <p style=""font-size: 16px;"">F = YES &nbsp;&nbsp;&nbsp; J = NO</p>
        ","f","html-keyboard-response","173","2.1.0","393523","F=YES, J=NO","qab21rre9p","1","64","53","75","","","","","","","","","hold","show","metaphor","experimental","f","true","",""
"null","<p style=""font-size: 50px;"">+</p>","null","html-keyboard-response","174","2.1.0","393827","F=YES, J=NO","qab21rre9p","1","64","53","75","","","","","","","","","","","","","","","",""
"null","audio/beep-329314.mp3","null","audio-keyboard-response","175","2.1.0","395353","F=YES, J=NO","qab21rre9p","1","64","53","75","","","","","","","","","","","","","","","",""
"null","audio/cave1.wav","null","audio-keyboard-response","176","2.1.0","395903","F=YES, J=NO","qab21rre9p","1","64","53","75","","","","","","","","","","","","","","","",""
"911","
          <p id=""word"" style=""font-size: 40px;"">blacket</p>
          <p style=""font-size: 16px;"">F = YES &nbsp;&nbsp;&nbsp; J = NO</p>
        ","j","html-keyboard-response","177","2.1.0","396815","F=YES, J=NO","qab21rre9p","1","64","53","75","","","","","","","","","blacket","cave1","pseudoword","pseudoword","j","true","",""
"null","<p style=""font-size: 50px;"">+</p>","null","html-keyboard-response","178","2.1.0","397130","F=YES, J=NO","qab21rre9p","1","64","53","75","","","","","","","","","","","","","","","",""
"null","audio/beep-329314.mp3","null","audio-keyboard-response","179","2.1.0","398673","F=YES, J=NO","qab21rre9p","1","64","53","75","","","","","","","","","","","","","","","",""
"null","audio/weight1.wav","null","audio-keyboard-response","180","2.1.0","399203","F=YES, J=NO","qab21rre9p","1","64","53","75","","","","","","","","","","","","","","","",""
"733","
          <p id=""word"" style=""font-size: 40px;"">support</p>
          <p style=""font-size: 16px;"">F = YES &nbsp;&nbsp;&nbsp; J = NO</p>
        ","f","html-keyboard-response","181","2.1.0","399937","F=YES, J=NO","qab21rre9p","1","64","53","75","","","","","","","","","support","weight1","literal","experimental","f","true","",""
"null","<p style=""font-size: 50px;"">+</p>","null","html-keyboard-response","182","2.1.0","400246","F=YES, J=NO","qab21rre9p","1","64","53","75","","","","","","","","","","","","","","","",""
"null","audio/beep-329314.mp3","null","audio-keyboard-response","183","2.1.0","401772","F=YES, J=NO","qab21rre9p","1","64","53","75","","","","","","","","","","","","","","","",""
"null","audio/survey1.wav","null","audio-keyboard-response","184","2.1.0","402503","F=YES, J=NO","qab21rre9p","1","64","53","75","","","","","","","","","","","","","","","",""
"666","
          <p id=""word"" style=""font-size: 40px;"">imploth</p>
          <p style=""font-size: 16px;"">F = YES &nbsp;&nbsp;&nbsp; J = NO</p>
        ","j","html-keyboard-response","185","2.1.0","403171","F=YES, J=NO","qab21rre9p","1","64","53","75","","","","","","","","","imploth","survey1","pseudoword","pseudoword","j","true","",""
"null","<p style=""font-size: 50px;"">+</p>","null","html-keyboard-response","186","2.1.0","403478","F=YES, J=NO","qab21rre9p","1","64","53","75","","","","","","","","","","","","","","","",""
"null","audio/beep-329314.mp3","null","audio-keyboard-response","187","2.1.0","405013","F=YES, J=NO","qab21rre9p","1","64","53","75","","","","","","","","","","","","","","","",""
"null","audio/tunnel.wav","null","audio-keyboard-response","188","2.1.0","405443","F=YES, J=NO","qab21rre9p","1","64","53","75","","","","","","","","","","","","","","","",""
"873","
          <p id=""word"" style=""font-size: 40px;"">gred</p>
          <p style=""font-size: 16px;"">F = YES &nbsp;&nbsp;&nbsp; J = NO</p>
        ","f","html-keyboard-response","189","2.1.0","406317","F=YES, J=NO","qab21rre9p","1","64","53","75","","","","","","","","","gred","tunnel","pseudoword","pseudoword","j","false","",""
"null","<p style=""font-size: 50px;"">+</p>","null","html-keyboard-response","190","2.1.0","406628","F=YES, J=NO","qab21rre9p","1","64","53","75","","","","","","","","","","","","","","","",""
"null","audio/beep-329314.mp3","null","audio-keyboard-response","191","2.1.0","408153","F=YES, J=NO","qab21rre9p","1","64","53","75","","","","","","","","","","","","","","","",""
"null","audio/emotion.wav","null","audio-keyboard-response","192","2.1.0","408783","F=YES, J=NO","qab21rre9p","1","64","53","75","","","","","","","","","","","","","","","",""
"875","
          <p id=""word"" style=""font-size: 40px;"">bury</p>
          <p style=""font-size: 16px;"">F = YES &nbsp;&nbsp;&nbsp; J = NO</p>
        ","j","html-keyboard-response","193","2.1.0","409660","F=YES, J=NO","qab21rre9p","1","64","53","75","","","","","","","","","bury","emotion","metaphor","experimental","f","false","",""
"null","<p style=""font-size: 50px;"">+</p>","null","html-keyboard-response","194","2.1.0","409972","F=YES, J=NO","qab21rre9p","1","64","53","75","","","","","","","","","","","","","","","",""
"null","audio/beep-329314.mp3","null","audio-keyboard-response","195","2.1.0","411512","F=YES, J=NO","qab21rre9p","1","64","53","75","","","","","","","","","","","","","","","",""
"null","audio/bush1.wav","null","audio-keyboard-response","196","2.1.0","411982","F=YES, J=NO","qab21rre9p","1","64","53","75","","","","","","","","","","","","","","","",""
"777","
          <p id=""word"" style=""font-size: 40px;"">platined</p>
          <p style=""font-size: 16px;"">F = YES &nbsp;&nbsp;&nbsp; J = NO</p>
        ","j","html-keyboard-response","197","2.1.0","412760","F=YES, J=NO","qab21rre9p","1","64","53","75","","","","","","","","","platined","bush1","pseudoword","pseudoword","j","true","",""
"null","<p style=""font-size: 50px;"">+</p>","null","html-keyboard-response","198","2.1.0","413070","F=YES, J=NO","qab21rre9p","1","64","53","75","","","","","","","","","","","","","","","",""
"null","audio/beep-329314.mp3","null","audio-keyboard-response","199","2.1.0","414612","F=YES, J=NO","qab21rre9p","1","64","53","75","","","","","","","","","","","","","","","",""
"null","audio/devil1.wav","null","audio-keyboard-response","200","2.1.0","415022","F=YES, J=NO","qab21rre9p","1","64","53","75","","","","","","","","","","","","","","","",""
"779","
          <p id=""word"" style=""font-size: 40px;"">carry</p>
          <p style=""font-size: 16px;"">F = YES &nbsp;&nbsp;&nbsp; J = NO</p>
        ","f","html-keyboard-response","201","2.1.0","415803","F=YES, J=NO","qab21rre9p","1","64","53","75","","","","","","","","","carry","devil1","unrelated","experimental","f","true","",""
"null","<p style=""font-size: 50px;"">+</p>","null","html-keyboard-response","202","2.1.0","416119","F=YES, J=NO","qab21rre9p","1","64","53","75","","","","","","","","","","","","","","","",""
"null","audio/beep-329314.mp3","null","audio-keyboard-response","203","2.1.0","417653","F=YES, J=NO","qab21rre9p","1","64","53","75","","","","","","","","","","","","","","","",""
"null","audio/demon1.wav","null","audio-keyboard-response","204","2.1.0","418143","F=YES, J=NO","qab21rre9p","1","64","53","75","","","","","","","","","","","","","","","",""
"834","
          <p id=""word"" style=""font-size: 40px;"">wrestle</p>
          <p style=""font-size: 16px;"">F = YES &nbsp;&nbsp;&nbsp; J = NO</p>
        ","f","html-keyboard-response","205","2.1.0","418979","F=YES, J=NO","qab21rre9p","1","64","53","75","","","","","","","","","wrestle","demon1","metaphor","experimental","f","true","",""
"null","<p style=""font-size: 50px;"">+</p>","null","html-keyboard-response","206","2.1.0","419289","F=YES, J=NO","qab21rre9p","1","64","53","75","","","","","","","","","","","","","","","",""
"null","audio/beep-329314.mp3","null","audio-keyboard-response","207","2.1.0","420813","F=YES, J=NO","qab21rre9p","1","64","53","75","","","","","","","","","","","","","","","",""
"null","audio/ground.wav","null","audio-keyboard-response","208","2.1.0","421402","F=YES, J=NO","qab21rre9p","1","64","53","75","","","","","","","","","","","","","","","",""
"670","
          <p id=""word"" style=""font-size: 40px;"">touch</p>
          <p style=""font-size: 16px;"">F = YES &nbsp;&nbsp;&nbsp; J = NO</p>
        ","f","html-keyboard-response","209","2.1.0","422073","F=YES, J=NO","qab21rre9p","1","64","53","75","","","","","","","","","touch","ground","literal","experimental","f","true","",""
"null","<p style=""font-size: 50px;"">+</p>","null","html-keyboard-response","210","2.1.0","422385","F=YES, J=NO","qab21rre9p","1","64","53","75","","","","","","","","","","","","","","","",""
"null","audio/beep-329314.mp3","null","audio-keyboard-response","211","2.1.0","423912","F=YES, J=NO","qab21rre9p","1","64","53","75","","","","","","","","","","","","","","","",""
"null","audio/truth1.wav","null","audio-keyboard-response","212","2.1.0","424643","F=YES, J=NO","qab21rre9p","1","64","53","75","","","","","","","","","","","","","","","",""
"620","
          <p id=""word"" style=""font-size: 40px;"">calitom</p>
          <p style=""font-size: 16px;"">F = YES &nbsp;&nbsp;&nbsp; J = NO</p>
        ","j","html-keyboard-response","213","2.1.0","425264","F=YES, J=NO","qab21rre9p","1","64","53","75","","","","","","","","","calitom","truth1","pseudoword","pseudoword","j","true","",""
"null","<p style=""font-size: 50px;"">+</p>","null","html-keyboard-response","214","2.1.0","425577","F=YES, J=NO","qab21rre9p","1","64","53","75","","","","","","","","","","","","","","","",""
"null","audio/beep-329314.mp3","null","audio-keyboard-response","215","2.1.0","427112","F=YES, J=NO","qab21rre9p","1","64","53","75","","","","","","","","","","","","","","","",""
"null","audio/bishop1.wav","null","audio-keyboard-response","216","2.1.0","427703","F=YES, J=NO","qab21rre9p","1","64","53","75","","","","","","","","","","","","","","","",""
"610","
          <p id=""word"" style=""font-size: 40px;"">play</p>
          <p style=""font-size: 16px;"">F = YES &nbsp;&nbsp;&nbsp; J = NO</p>
        ","f","html-keyboard-response","217","2.1.0","428314","F=YES, J=NO","qab21rre9p","1","64","53","75","","","","","","","","","play","bishop1","filler","filler","f","true","",""
"null","<p style=""font-size: 50px;"">+</p>","null","html-keyboard-response","218","2.1.0","428629","F=YES, J=NO","qab21rre9p","1","64","53","75","","","","","","","","","","","","","","","",""
"null","audio/beep-329314.mp3","null","audio-keyboard-response","219","2.1.0","430153","F=YES, J=NO","qab21rre9p","1","64","53","75","","","","","","","","","","","","","","","",""
"null","audio/gift1.wav","null","audio-keyboard-response","220","2.1.0","430803","F=YES, J=NO","qab21rre9p","1","64","53","75","","","","","","","","","","","","","","","",""
"612","
          <p id=""word"" style=""font-size: 40px;"">protsh</p>
          <p style=""font-size: 16px;"">F = YES &nbsp;&nbsp;&nbsp; J = NO</p>
        ","j","html-keyboard-response","221","2.1.0","431416","F=YES, J=NO","qab21rre9p","1","64","53","75","","","","","","","","","protsh","gift1","pseudoword","pseudoword","j","true","",""
"null","<p style=""font-size: 50px;"">+</p>","null","html-keyboard-response","222","2.1.0","431724","F=YES, J=NO","qab21rre9p","1","64","53","75","","","","","","","","","","","","","","","",""
"null","audio/beep-329314.mp3","null","audio-keyboard-response","223","2.1.0","433253","F=YES, J=NO","qab21rre9p","1","64","53","75","","","","","","","","","","","","","","","",""
"null","audio/neck.wav","null","audio-keyboard-response","224","2.1.0","433803","F=YES, J=NO","qab21rre9p","1","64","53","75","","","","","","","","","","","","","","","",""
"653","
          <p id=""word"" style=""font-size: 40px;"">share</p>
          <p style=""font-size: 16px;"">F = YES &nbsp;&nbsp;&nbsp; J = NO</p>
        ","f","html-keyboard-response","225","2.1.0","434457","F=YES, J=NO","qab21rre9p","1","64","53","75","","","","","","","","","share","neck","unrelated","experimental","f","true","",""
"null","<p style=""font-size: 50px;"">+</p>","null","html-keyboard-response","226","2.1.0","434763","F=YES, J=NO","qab21rre9p","1","64","53","75","","","","","","","","","","","","","","","",""
"null","audio/beep-329314.mp3","null","audio-keyboard-response","227","2.1.0","436292","F=YES, J=NO","qab21rre9p","1","64","53","75","","","","","","","","","","","","","","","",""
"null","audio/budget1.wav","null","audio-keyboard-response","228","2.1.0","437082","F=YES, J=NO","qab21rre9p","1","64","53","75","","","","","","","","","","","","","","","",""
"646","
          <p id=""word"" style=""font-size: 40px;"">sulist</p>
          <p style=""font-size: 16px;"">F = YES &nbsp;&nbsp;&nbsp; J = NO</p>
        ","j","html-keyboard-response","229","2.1.0","437730","F=YES, J=NO","qab21rre9p","1","64","53","75","","","","","","","","","sulist","budget1","pseudoword","pseudoword","j","true","",""
"3555","<p>Excellent! You have finished block 1 of 8.</p>
                     <p>Feel free to take a 30 second break.</p>
                     <p>Press any key when you're ready to continue.</p>"," ","html-keyboard-response","230","2.1.0","441287","F=YES, J=NO","qab21rre9p","1","64","53","75","","","","","","","","","","","","","","","",""
"3842","<p>Starting main block 2 of 8. Press any key to continue.</p>"," ","html-keyboard-response","231","2.1.0","445130","F=YES, J=NO","qab21rre9p","1","64","53","75","","","","","","","","","","","","","","","",""
"null","<p style=""font-size: 50px;"">+</p>","null","html-keyboard-response","232","2.1.0","445442","F=YES, J=NO","qab21rre9p","1","64","53","75","","","","","","","","","","","","","","","",""
"null","audio/beep-329314.mp3","null","audio-keyboard-response","233","2.1.0","446973","F=YES, J=NO","qab21rre9p","1","64","53","75","","","","","","","","","","","","","","","",""
"null","audio/radio1.wav","null","audio-keyboard-response","234","2.1.0","447562","F=YES, J=NO","qab21rre9p","1","64","53","75","","","","","","","","","","","","","","","",""
"694","
          <p id=""word"" style=""font-size: 40px;"">blanter</p>
          <p style=""font-size: 16px;"">F = YES &nbsp;&nbsp;&nbsp; J = NO</p>
        ","j","html-keyboard-response","235","2.1.0","448258","F=YES, J=NO","qab21rre9p","1","64","53","75","","","","","","","","","blanter","radio1","pseudoword","pseudoword","j","true","",""
"null","<p style=""font-size: 50px;"">+</p>","null","html-keyboard-response","236","2.1.0","448571","F=YES, J=NO","qab21rre9p","1","64","53","75","","","","","","","","","","","","","","","",""
"null","audio/beep-329314.mp3","null","audio-keyboard-response","237","2.1.0","450113","F=YES, J=NO","qab21rre9p","1","64","53","75","","","","","","","","","","","","","","","",""
"null","audio/case1.wav","null","audio-keyboard-response","238","2.1.0","450823","F=YES, J=NO","qab21rre9p","1","64","53","75","","","","","","","","","","","","","","","",""
"615","
          <p id=""word"" style=""font-size: 40px;"">close</p>
          <p style=""font-size: 16px;"">F = YES &nbsp;&nbsp;&nbsp; J = NO</p>
        ","f","html-keyboard-response","239","2.1.0","451439","F=YES, J=NO","qab21rre9p","1","64","53","75","","","","","","","","","close","case1","metaphor","experimental","f","true","",""
"null","<p style=""font-size: 50px;"">+</p>","null","html-keyboard-response","240","2.1.0","451743","F=YES, J=NO","qab21rre9p","1","64","53","75","","","","","","","","","","","","","","","",""
"null","audio/beep-329314.mp3","null","audio-keyboard-response","241","2.1.0","453273","F=YES, J=NO","qab21rre9p","1","64","53","75","","","","","","","","","","","","","","","",""
"null","audio/foot1.wav","null","audio-keyboard-response","242","2.1.0","454023","F=YES, J=NO","qab21rre9p","1","64","53","75","","","","","","","","","","","","","","","",""
"678","
          <p id=""word"" style=""font-size: 40px;"">thrutt</p>
          <p style=""font-size: 16px;"">F = YES &nbsp;&nbsp;&nbsp; J = NO</p>
        ","j","html-keyboard-response","243","2.1.0","454702","F=YES, J=NO","qab21rre9p","1","64","53","75","","","","","","","","","thrutt","foot1","pseudoword","pseudoword","j","true","",""
"null","<p style=""font-size: 50px;"">+</p>","null","html-keyboard-response","244","2.1.0","455018","F=YES, J=NO","qab21rre9p","1","64","53","75","","","","","","","","","","","","","","","",""
"null","audio/beep-329314.mp3","null","audio-keyboard-response","245","2.1.0","456553","F=YES, J=NO","qab21rre9p","1","64","53","75","","","","","","","","","","","","","","","",""
"null","audio/age1.wav","null","audio-keyboard-response","246","2.1.0","457102","F=YES, J=NO","qab21rre9p","1","64","53","75","","","","","","","","","","","","","","","",""
"606","
          <p id=""word"" style=""font-size: 40px;"">seize</p>
          <p style=""font-size: 16px;"">F = YES &nbsp;&nbsp;&nbsp; J = NO</p>
        ","j","html-keyboard-response","247","2.1.0","457709","F=YES, J=NO","qab21rre9p","1","64","53","75","","","","","","","","","seize","age1","unrelated","experimental","f","false","",""
"null","<p style=""font-size: 50px;"">+</p>","null","html-keyboard-response","248","2.1.0","458019","F=YES, J=NO","qab21rre9p","1","64","53","75","","","","","","","","","","","","","","","",""
"null","audio/beep-329314.mp3","null","audio-keyboard-response","249","2.1.0","459553","F=YES, J=NO","qab21rre9p","1","64","53","75","","","","","","","","","","","","","","","",""
"null","audio/cloud1.wav","null","audio-keyboard-response","250","2.1.0","460101","F=YES, J=NO","qab21rre9p","1","64","53","75","","","","","","","","","","","","","","","",""
"645","
          <p id=""word"" style=""font-size: 40px;"">brotant</p>
          <p style=""font-size: 16px;"">F = YES &nbsp;&nbsp;&nbsp; J = NO</p>
        ","j","html-keyboard-response","251","2.1.0","460748","F=YES, J=NO","qab21rre9p","1","64","53","75","","","","","","","","","brotant","cloud1","pseudoword","pseudoword","j","true","",""
"null","<p style=""font-size: 50px;"">+</p>","null","html-keyboard-response","252","2.1.0","461056","F=YES, J=NO","qab21rre9p","1","64","53","75","","","","","","","","","","","","","","","",""
"null","audio/beep-329314.mp3","null","audio-keyboard-response","253","2.1.0","462593","F=YES, J=NO","qab21rre9p","1","64","53","75","","","","","","","","","","","","","","","",""
"null","audio/test1.wav","null","audio-keyboard-response","254","2.1.0","463842","F=YES, J=NO","qab21rre9p","1","64","53","75","","","","","","","","","","","","","","","",""
"654","
          <p id=""word"" style=""font-size: 40px;"">twopch</p>
          <p style=""font-size: 16px;"">F = YES &nbsp;&nbsp;&nbsp; J = NO</p>
        ","j","html-keyboard-response","255","2.1.0","464498","F=YES, J=NO","qab21rre9p","1","64","53","75","","","","","","","","","twopch","test1","pseudoword","pseudoword","j","true","",""
"null","<p style=""font-size: 50px;"">+</p>","null","html-keyboard-response","256","2.1.0","464814","F=YES, J=NO","qab21rre9p","1","64","53","75","","","","","","","","","","","","","","","",""
"null","audio/beep-329314.mp3","null","audio-keyboard-response","257","2.1.0","466353","F=YES, J=NO","qab21rre9p","1","64","53","75","","","","","","","","","","","","","","","",""
"null","audio/dollar.wav","null","audio-keyboard-response","258","2.1.0","466743","F=YES, J=NO","qab21rre9p","1","64","53","75","","","","","","","","","","","","","","","",""
"501","
          <p id=""word"" style=""font-size: 40px;"">gliptism</p>
          <p style=""font-size: 16px;"">F = YES &nbsp;&nbsp;&nbsp; J = NO</p>
        ","j","html-keyboard-response","259","2.1.0","467246","F=YES, J=NO","qab21rre9p","1","64","53","75","","","","","","","","","gliptism","dollar","pseudoword","pseudoword","j","true","",""
"null","<p style=""font-size: 50px;"">+</p>","null","html-keyboard-response","260","2.1.0","467562","F=YES, J=NO","qab21rre9p","1","64","53","75","","","","","","","","","","","","","","","",""
"null","audio/beep-329314.mp3","null","audio-keyboard-response","261","2.1.0","469093","F=YES, J=NO","qab21rre9p","1","64","53","75","","","","","","","","","","","","","","","",""
"null","audio/brain.wav","null","audio-keyboard-response","262","2.1.0","469582","F=YES, J=NO","qab21rre9p","1","64","53","75","","","","","","","","","","","","","","","",""
"560","
          <p id=""word"" style=""font-size: 40px;"">flood</p>
          <p style=""font-size: 16px;"">F = YES &nbsp;&nbsp;&nbsp; J = NO</p>
        ","f","html-keyboard-response","263","2.1.0","470144","F=YES, J=NO","qab21rre9p","1","64","53","75","","","","","","","","","flood","brain","metaphor","experimental","f","true","",""
"null","<p style=""font-size: 50px;"">+</p>","null","html-keyboard-response","264","2.1.0","470455","F=YES, J=NO","qab21rre9p","1","64","53","75","","","","","","","","","","","","","","","",""
"null","audio/beep-329314.mp3","null","audio-keyboard-response","265","2.1.0","471992","F=YES, J=NO","qab21rre9p","1","64","53","75","","","","","","","","","","","","","","","",""
"null","audio/key1.wav","null","audio-keyboard-response","266","2.1.0","472362","F=YES, J=NO","qab21rre9p","1","64","53","75","","","","","","","","","","","","","","","",""
"633","
          <p id=""word"" style=""font-size: 40px;"">sminsh</p>
          <p style=""font-size: 16px;"">F = YES &nbsp;&nbsp;&nbsp; J = NO</p>
        ","j","html-keyboard-response","267","2.1.0","472996","F=YES, J=NO","qab21rre9p","1","64","53","75","","","","","","","","","sminsh","key1","pseudoword","pseudoword","j","true","",""
"null","<p style=""font-size: 50px;"">+</p>","null","html-keyboard-response","268","2.1.0","473309","F=YES, J=NO","qab21rre9p","1","64","53","75","","","","","","","","","","","","","","","",""
"null","audio/beep-329314.mp3","null","audio-keyboard-response","269","2.1.0","474833","F=YES, J=NO","qab21rre9p","1","64","53","75","","","","","","","","","","","","","","","",""
"null","audio/handle.wav","null","audio-keyboard-response","270","2.1.0","475463","F=YES, J=NO","qab21rre9p","1","64","53","75","","","","","","","","","","","","","","","",""
"864","
          <p id=""word"" style=""font-size: 40px;"">moutes</p>
          <p style=""font-size: 16px;"">F = YES &nbsp;&nbsp;&nbsp; J = NO</p>
        ","j","html-keyboard-response","271","2.1.0","476329","F=YES, J=NO","qab21rre9p","1","64","53","75","","","","","","","","","moutes","handle","pseudoword","pseudoword","j","true","",""
"null","<p style=""font-size: 50px;"">+</p>","null","html-keyboard-response","272","2.1.0","476643","F=YES, J=NO","qab21rre9p","1","64","53","75","","","","","","","","","","","","","","","",""
"null","audio/beep-329314.mp3","null","audio-keyboard-response","273","2.1.0","478173","F=YES, J=NO","qab21rre9p","1","64","53","75","","","","","","","","","","","","","","","",""
"null","audio/fear.wav","null","audio-keyboard-response","274","2.1.0","478702","F=YES, J=NO","qab21rre9p","1","64","53","75","","","","","","","","","","","","","","","",""
"760","
          <p id=""word"" style=""font-size: 40px;"">spread</p>
          <p style=""font-size: 16px;"">F = YES &nbsp;&nbsp;&nbsp; J = NO</p>
        ","f","html-keyboard-response","275","2.1.0","479464","F=YES, J=NO","qab21rre9p","1","64","53","75","","","","","","","","","spread","fear","metaphor","experimental","f","true","",""
"null","<p style=""font-size: 50px;"">+</p>","null","html-keyboard-response","276","2.1.0","479766","F=YES, J=NO","qab21rre9p","1","64","53","75","","","","","","","","","","","","","","","",""
"null","audio/beep-329314.mp3","null","audio-keyboard-response","277","2.1.0","481293","F=YES, J=NO","qab21rre9p","1","64","53","75","","","","","","","","","","","","","","","",""
"null","audio/account1.wav","null","audio-keyboard-response","278","2.1.0","482163","F=YES, J=NO","qab21rre9p","1","64","53","75","","","","","","","","","","","","","","","",""
"501","
          <p id=""word"" style=""font-size: 40px;"">paint</p>
          <p style=""font-size: 16px;"">F = YES &nbsp;&nbsp;&nbsp; J = NO</p>
        ","f","html-keyboard-response","279","2.1.0","482665","F=YES, J=NO","qab21rre9p","1","64","53","75","","","","","","","","","paint","account1","filler","filler","f","true","",""
"null","<p style=""font-size: 50px;"">+</p>","null","html-keyboard-response","280","2.1.0","482971","F=YES, J=NO","qab21rre9p","1","64","53","75","","","","","","","","","","","","","","","",""
"null","audio/beep-329314.mp3","null","audio-keyboard-response","281","2.1.0","484513","F=YES, J=NO","qab21rre9p","1","64","53","75","","","","","","","","","","","","","","","",""
"null","audio/strength.wav","null","audio-keyboard-response","282","2.1.0","485423","F=YES, J=NO","qab21rre9p","1","64","53","75","","","","","","","","","","","","","","","",""
"649","
          <p id=""word"" style=""font-size: 40px;"">plabet</p>
          <p style=""font-size: 16px;"">F = YES &nbsp;&nbsp;&nbsp; J = NO</p>
        ","j","html-keyboard-response","283","2.1.0","486072","F=YES, J=NO","qab21rre9p","1","64","53","75","","","","","","","","","plabet","strength","pseudoword","pseudoword","j","true","",""
"null","<p style=""font-size: 50px;"">+</p>","null","html-keyboard-response","284","2.1.0","486379","F=YES, J=NO","qab21rre9p","1","64","53","75","","","","","","","","","","","","","","","",""
"null","audio/beep-329314.mp3","null","audio-keyboard-response","285","2.1.0","487912","F=YES, J=NO","qab21rre9p","1","64","53","75","","","","","","","","","","","","","","","",""
"null","audio/gift1.wav","null","audio-keyboard-response","286","2.1.0","488362","F=YES, J=NO","qab21rre9p","1","64","53","75","","","","","","","","","","","","","","","",""
"587","
          <p id=""word"" style=""font-size: 40px;"">give</p>
          <p style=""font-size: 16px;"">F = YES &nbsp;&nbsp;&nbsp; J = NO</p>
        ","f","html-keyboard-response","287","2.1.0","488950","F=YES, J=NO","qab21rre9p","1","64","53","75","","","","","","","","","give","gift1","literal","experimental","f","true","",""
"null","<p style=""font-size: 50px;"">+</p>","null","html-keyboard-response","288","2.1.0","489254","F=YES, J=NO","qab21rre9p","1","64","53","75","","","","","","","","","","","","","","","",""
"null","audio/beep-329314.mp3","null","audio-keyboard-response","289","2.1.0","490793","F=YES, J=NO","qab21rre9p","1","64","53","75","","","","","","","","","","","","","","","",""
"null","audio/key1.wav","null","audio-keyboard-response","290","2.1.0","491143","F=YES, J=NO","qab21rre9p","1","64","53","75","","","","","","","","","","","","","","","",""
"566","
          <p id=""word"" style=""font-size: 40px;"">lose</p>
          <p style=""font-size: 16px;"">F = YES &nbsp;&nbsp;&nbsp; J = NO</p>
        ","f","html-keyboard-response","291","2.1.0","491711","F=YES, J=NO","qab21rre9p","1","64","53","75","","","","","","","","","lose","key1","literal","experimental","f","true","",""
"null","<p style=""font-size: 50px;"">+</p>","null","html-keyboard-response","292","2.1.0","492017","F=YES, J=NO","qab21rre9p","1","64","53","75","","","","","","","","","","","","","","","",""
"null","audio/beep-329314.mp3","null","audio-keyboard-response","293","2.1.0","493552","F=YES, J=NO","qab21rre9p","1","64","53","75","","","","","","","","","","","","","","","",""
"null","audio/tax1.wav","null","audio-keyboard-response","294","2.1.0","494342","F=YES, J=NO","qab21rre9p","1","64","53","75","","","","","","","","","","","","","","","",""
"704","
          <p id=""word"" style=""font-size: 40px;"">snate</p>
          <p style=""font-size: 16px;"">F = YES &nbsp;&nbsp;&nbsp; J = NO</p>
        ","j","html-keyboard-response","295","2.1.0","495047","F=YES, J=NO","qab21rre9p","1","64","53","75","","","","","","","","","snate","tax1","pseudoword","pseudoword","j","true","",""
"1701","<p>Excellent! You have finished block 2 of 8.</p>
                     <p>Feel free to take a 30 second break.</p>
                     <p>Press any key when you're ready to continue.</p>"," ","html-keyboard-response","296","2.1.0","496748","F=YES, J=NO","qab21rre9p","1","64","53","75","","","","","","","","","","","","","","","",""
"631","<p>Starting main block 3 of 8. Press any key to continue.</p>"," ","html-keyboard-response","297","2.1.0","497380","F=YES, J=NO","qab21rre9p","1","64","53","75","","","","","","","","","","","","","","","",""
"null","<p style=""font-size: 50px;"">+</p>","null","html-keyboard-response","298","2.1.0","497685","F=YES, J=NO","qab21rre9p","1","64","53","75","","","","","","","","","","","","","","","",""
"null","audio/beep-329314.mp3","null","audio-keyboard-response","299","2.1.0","499213","F=YES, J=NO","qab21rre9p","1","64","53","75","","","","","","","","","","","","","","","",""
"null","audio/flaw.wav","null","audio-keyboard-response","300","2.1.0","499842","F=YES, J=NO","qab21rre9p","1","64","53","75","","","","","","","","","","","","","","","",""
"534","
          <p id=""word"" style=""font-size: 40px;"">thwool</p>
          <p style=""font-size: 16px;"">F = YES &nbsp;&nbsp;&nbsp; J = NO</p>
        ","j","html-keyboard-response","301","2.1.0","500377","F=YES, J=NO","qab21rre9p","1","64","53","75","","","","","","","","","thwool","flaw","pseudoword","pseudoword","j","true","",""
"null","<p style=""font-size: 50px;"">+</p>","null","html-keyboard-response","302","2.1.0","500693","F=YES, J=NO","qab21rre9p","1","64","53","75","","","","","","","","","","","","","","","",""
"null","audio/beep-329314.mp3","null","audio-keyboard-response","303","2.1.0","502233","F=YES, J=NO","qab21rre9p","1","64","53","75","","","","","","","","","","","","","","","",""
"null","audio/life1.wav","null","audio-keyboard-response","304","2.1.0","502802","F=YES, J=NO","qab21rre9p","1","64","53","75","","","","","","","","","","","","","","","",""
"690","
          <p id=""word"" style=""font-size: 40px;"">flimch</p>
          <p style=""font-size: 16px;"">F = YES &nbsp;&nbsp;&nbsp; J = NO</p>
        ","j","html-keyboard-response","305","2.1.0","503494","F=YES, J=NO","qab21rre9p","1","64","53","75","","","","","","","","","flimch","life1","pseudoword","pseudoword","j","true","",""
"null","<p style=""font-size: 50px;"">+</p>","null","html-keyboard-response","306","2.1.0","503806","F=YES, J=NO","qab21rre9p","1","64","53","75","","","","","","","","","","","","","","","",""
"null","audio/beep-329314.mp3","null","audio-keyboard-response","307","2.1.0","505332","F=YES, J=NO","qab21rre9p","1","64","53","75","","","","","","","","","","","","","","","",""
"null","audio/bomb1.wav","null","audio-keyboard-response","308","2.1.0","505723","F=YES, J=NO","qab21rre9p","1","64","53","75","","","","","","","","","","","","","","","",""
"577","
          <p id=""word"" style=""font-size: 40px;"">clean</p>
          <p style=""font-size: 16px;"">F = YES &nbsp;&nbsp;&nbsp; J = NO</p>
        ","f","html-keyboard-response","309","2.1.0","506301","F=YES, J=NO","qab21rre9p","1","64","53","75","","","","","","","","","clean","bomb1","filler","filler","f","true","",""
"null","<p style=""font-size: 50px;"">+</p>","null","html-keyboard-response","310","2.1.0","506606","F=YES, J=NO","qab21rre9p","1","64","53","75","","","","","","","","","","","","","","","",""
"null","audio/beep-329314.mp3","null","audio-keyboard-response","311","2.1.0","508133","F=YES, J=NO","qab21rre9p","1","64","53","75","","","","","","","","","","","","","","","",""
"null","audio/cash1.wav","null","audio-keyboard-response","312","2.1.0","508703","F=YES, J=NO","qab21rre9p","1","64","53","75","","","","","","","","","","","","","","","",""
"654","
          <p id=""word"" style=""font-size: 40px;"">splear</p>
          <p style=""font-size: 16px;"">F = YES &nbsp;&nbsp;&nbsp; J = NO</p>
        ","j","html-keyboard-response","313","2.1.0","509358","F=YES, J=NO","qab21rre9p","1","64","53","75","","","","","","","","","splear","cash1","pseudoword","pseudoword","j","true","",""
"null","<p style=""font-size: 50px;"">+</p>","null","html-keyboard-response","314","2.1.0","509667","F=YES, J=NO","qab21rre9p","1","64","53","75","","","","","","","","","","","","","","","",""
"null","audio/beep-329314.mp3","null","audio-keyboard-response","315","2.1.0","511193","F=YES, J=NO","qab21rre9p","1","64","53","75","","","","","","","","","","","","","","","",""
"null","audio/brain.wav","null","audio-keyboard-response","316","2.1.0","511663","F=YES, J=NO","qab21rre9p","1","64","53","75","","","","","","","","","","","","","","","",""
"625","
          <p id=""word"" style=""font-size: 40px;"">throw</p>
          <p style=""font-size: 16px;"">F = YES &nbsp;&nbsp;&nbsp; J = NO</p>
        ","f","html-keyboard-response","317","2.1.0","512289","F=YES, J=NO","qab21rre9p","1","64","53","75","","","","","","","","","throw","brain","filler","filler","f","true","",""
"null","<p style=""font-size: 50px;"">+</p>","null","html-keyboard-response","318","2.1.0","512591","F=YES, J=NO","qab21rre9p","1","64","53","75","","","","","","","","","","","","","","","",""
"null","audio/beep-329314.mp3","null","audio-keyboard-response","319","2.1.0","514132","F=YES, J=NO","qab21rre9p","1","64","53","75","","","","","","","","","","","","","","","",""
"null","audio/empire.wav","null","audio-keyboard-response","320","2.1.0","514823","F=YES, J=NO","qab21rre9p","1","64","53","75","","","","","","","","","","","","","","","",""
"536","
          <p id=""word"" style=""font-size: 40px;"">bring</p>
          <p style=""font-size: 16px;"">F = YES &nbsp;&nbsp;&nbsp; J = NO</p>
        ","f","html-keyboard-response","321","2.1.0","515361","F=YES, J=NO","qab21rre9p","1","64","53","75","","","","","","","","","bring","empire","unrelated","experimental","f","true","",""
"null","<p style=""font-size: 50px;"">+</p>","null","html-keyboard-response","322","2.1.0","515665","F=YES, J=NO","qab21rre9p","1","64","53","75","","","","","","","","","","","","","","","",""
"null","audio/beep-329314.mp3","null","audio-keyboard-response","323","2.1.0","517192","F=YES, J=NO","qab21rre9p","1","64","53","75","","","","","","","","","","","","","","","",""
"null","audio/roof1.wav","null","audio-keyboard-response","324","2.1.0","517702","F=YES, J=NO","qab21rre9p","1","64","53","75","","","","","","","","","","","","","","","",""
"642","
          <p id=""word"" style=""font-size: 40px;"">construct</p>
          <p style=""font-size: 16px;"">F = YES &nbsp;&nbsp;&nbsp; J = NO</p>
        ","f","html-keyboard-response","325","2.1.0","518346","F=YES, J=NO","qab21rre9p","1","64","53","75","","","","","","","","","construct","roof1","literal","experimental","f","true","",""
"null","<p style=""font-size: 50px;"">+</p>","null","html-keyboard-response","326","2.1.0","518653","F=YES, J=NO","qab21rre9p","1","64","53","75","","","","","","","","","","","","","","","",""
"null","audio/beep-329314.mp3","null","audio-keyboard-response","327","2.1.0","520193","F=YES, J=NO","qab21rre9p","1","64","53","75","","","","","","","","","","","","","","","",""
"null","audio/size1.wav","null","audio-keyboard-response","328","2.1.0","520943","F=YES, J=NO","qab21rre9p","1","64","53","75","","","","","","","","","","","","","","","",""
"557","
          <p id=""word"" style=""font-size: 40px;"">clear</p>
          <p style=""font-size: 16px;"">F = YES &nbsp;&nbsp;&nbsp; J = NO</p>
        ","f","html-keyboard-response","329","2.1.0","521501","F=YES, J=NO","qab21rre9p","1","64","53","75","","","","","","","","","clear","size1","unrelated","experimental","f","true","",""
"null","<p style=""font-size: 50px;"">+</p>","null","html-keyboard-response","330","2.1.0","521812","F=YES, J=NO","qab21rre9p","1","64","53","75","","","","","","","","","","","","","","","",""
"null","audio/beep-329314.mp3","null","audio-keyboard-response","331","2.1.0","523353","F=YES, J=NO","qab21rre9p","1","64","53","75","","","","","","","","","","","","","","","",""
"null","audio/survey1.wav","null","audio-keyboard-response","332","2.1.0","524062","F=YES, J=NO","qab21rre9p","1","64","53","75","","","","","","","","","","","","","","","",""
"418","
          <p id=""word"" style=""font-size: 40px;"">release</p>
          <p style=""font-size: 16px;"">F = YES &nbsp;&nbsp;&nbsp; J = NO</p>
        ","f","html-keyboard-response","333","2.1.0","524481","F=YES, J=NO","qab21rre9p","1","64","53","75","","","","","","","","","release","survey1","metaphor","experimental","f","true","",""
"null","<p style=""font-size: 50px;"">+</p>","null","html-keyboard-response","334","2.1.0","524790","F=YES, J=NO","qab21rre9p","1","64","53","75","","","","","","","","","","","","","","","",""
"null","audio/beep-329314.mp3","null","audio-keyboard-response","335","2.1.0","526313","F=YES, J=NO","qab21rre9p","1","64","53","75","","","","","","","","","","","","","","","",""
"null","audio/budget1.wav","null","audio-keyboard-response","336","2.1.0","526902","F=YES, J=NO","qab21rre9p","1","64","53","75","","","","","","","","","","","","","","","",""
"590","
          <p id=""word"" style=""font-size: 40px;"">cut</p>
          <p style=""font-size: 16px;"">F = YES &nbsp;&nbsp;&nbsp; J = NO</p>
        ","f","html-keyboard-response","337","2.1.0","527493","F=YES, J=NO","qab21rre9p","1","64","53","75","","","","","","","","","cut","budget1","metaphor","experimental","f","true","",""
"null","<p style=""font-size: 50px;"">+</p>","null","html-keyboard-response","338","2.1.0","527808","F=YES, J=NO","qab21rre9p","1","64","53","75","","","","","","","","","","","","","","","",""
"null","audio/beep-329314.mp3","null","audio-keyboard-response","339","2.1.0","529333","F=YES, J=NO","qab21rre9p","1","64","53","75","","","","","","","","","","","","","","","",""
"null","audio/desire.wav","null","audio-keyboard-response","340","2.1.0","529962","F=YES, J=NO","qab21rre9p","1","64","53","75","","","","","","","","","","","","","","","",""
"659","
          <p id=""word"" style=""font-size: 40px;"">nophed</p>
          <p style=""font-size: 16px;"">F = YES &nbsp;&nbsp;&nbsp; J = NO</p>
        ","j","html-keyboard-response","341","2.1.0","530622","F=YES, J=NO","qab21rre9p","1","64","53","75","","","","","","","","","nophed","desire","pseudoword","pseudoword","j","true","",""
"null","<p style=""font-size: 50px;"">+</p>","null","html-keyboard-response","342","2.1.0","530933","F=YES, J=NO","qab21rre9p","1","64","53","75","","","","","","","","","","","","","","","",""
"null","audio/beep-329314.mp3","null","audio-keyboard-response","343","2.1.0","532472","F=YES, J=NO","qab21rre9p","1","64","53","75","","","","","","","","","","","","","","","",""
"null","audio/pain1.wav","null","audio-keyboard-response","344","2.1.0","532922","F=YES, J=NO","qab21rre9p","1","64","53","75","","","","","","","","","","","","","","","",""
"670","
          <p id=""word"" style=""font-size: 40px;"">tritted</p>
          <p style=""font-size: 16px;"">F = YES &nbsp;&nbsp;&nbsp; J = NO</p>
        ","f","html-keyboard-response","345","2.1.0","533594","F=YES, J=NO","qab21rre9p","1","64","53","75","","","","","","","","","tritted","pain1","pseudoword","pseudoword","j","false","",""
"null","<p style=""font-size: 50px;"">+</p>","null","html-keyboard-response","346","2.1.0","533896","F=YES, J=NO","qab21rre9p","1","64","53","75","","","","","","","","","","","","","","","",""
"null","audio/beep-329314.mp3","null","audio-keyboard-response","347","2.1.0","535432","F=YES, J=NO","qab21rre9p","1","64","53","75","","","","","","","","","","","","","","","",""
"null","audio/planet1.wav","null","audio-keyboard-response","348","2.1.0","536022","F=YES, J=NO","qab21rre9p","1","64","53","75","","","","","","","","","","","","","","","",""
"687","
          <p id=""word"" style=""font-size: 40px;"">cratched</p>
          <p style=""font-size: 16px;"">F = YES &nbsp;&nbsp;&nbsp; J = NO</p>
        ","f","html-keyboard-response","349","2.1.0","536711","F=YES, J=NO","qab21rre9p","1","64","53","75","","","","","","","","","cratched","planet1","pseudoword","pseudoword","j","false","",""
"null","<p style=""font-size: 50px;"">+</p>","null","html-keyboard-response","350","2.1.0","537023","F=YES, J=NO","qab21rre9p","1","64","53","75","","","","","","","","","","","","","","","",""
"null","audio/beep-329314.mp3","null","audio-keyboard-response","351","2.1.0","538551","F=YES, J=NO","qab21rre9p","1","64","53","75","","","","","","","","","","","","","","","",""
"null","audio/uncle1.wav","null","audio-keyboard-response","352","2.1.0","539021","F=YES, J=NO","qab21rre9p","1","64","53","75","","","","","","","","","","","","","","","",""
"565","
          <p id=""word"" style=""font-size: 40px;"">break</p>
          <p style=""font-size: 16px;"">F = YES &nbsp;&nbsp;&nbsp; J = NO</p>
        ","f","html-keyboard-response","353","2.1.0","539588","F=YES, J=NO","qab21rre9p","1","64","53","75","","","","","","","","","break","uncle1","unrelated","experimental","f","true","",""
"null","<p style=""font-size: 50px;"">+</p>","null","html-keyboard-response","354","2.1.0","539891","F=YES, J=NO","qab21rre9p","1","64","53","75","","","","","","","","","","","","","","","",""
"null","audio/beep-329314.mp3","null","audio-keyboard-response","355","2.1.0","541432","F=YES, J=NO","qab21rre9p","1","64","53","75","","","","","","","","","","","","","","","",""
"null","audio/milk.wav","null","audio-keyboard-response","356","2.1.0","542002","F=YES, J=NO","qab21rre9p","1","64","53","75","","","","","","","","","","","","","","","",""
"991","
          <p id=""word"" style=""font-size: 40px;"">digest</p>
          <p style=""font-size: 16px;"">F = YES &nbsp;&nbsp;&nbsp; J = NO</p>
        ","j","html-keyboard-response","357","2.1.0","542994","F=YES, J=NO","qab21rre9p","1","64","53","75","","","","","","","","","digest","milk","literal","experimental","f","false","",""
"null","<p style=""font-size: 50px;"">+</p>","null","html-keyboard-response","358","2.1.0","543305","F=YES, J=NO","qab21rre9p","1","64","53","75","","","","","","","","","","","","","","","",""
"null","audio/beep-329314.mp3","null","audio-keyboard-response","359","2.1.0","544832","F=YES, J=NO","qab21rre9p","1","64","53","75","","","","","","","","","","","","","","","",""
"null","audio/haste1.wav","null","audio-keyboard-response","360","2.1.0","545603","F=YES, J=NO","qab21rre9p","1","64","53","75","","","","","","","","","","","","","","","",""
"690","
          <p id=""word"" style=""font-size: 40px;"">hide</p>
          <p style=""font-size: 16px;"">F = YES &nbsp;&nbsp;&nbsp; J = NO</p>
        ","f","html-keyboard-response","361","2.1.0","546294","F=YES, J=NO","qab21rre9p","1","64","53","75","","","","","","","","","hide","haste1","unrelated","experimental","f","true","",""
"1575","<p>Excellent! You have finished block 3 of 8.</p>
                     <p>Feel free to take a 30 second break.</p>
                     <p>Press any key when you're ready to continue.</p>"," ","html-keyboard-response","362","2.1.0","547871","F=YES, J=NO","qab21rre9p","1","64","53","75","","","","","","","","","","","","","","","",""
"1240","<p>Starting main block 4 of 8. Press any key to continue.</p>"," ","html-keyboard-response","363","2.1.0","549111","F=YES, J=NO","qab21rre9p","1","64","53","75","","","","","","","","","","","","","","","",""
"null","<p style=""font-size: 50px;"">+</p>","null","html-keyboard-response","364","2.1.0","549413","F=YES, J=NO","qab21rre9p","1","64","53","75","","","","","","","","","","","","","","","",""
"null","audio/beep-329314.mp3","null","audio-keyboard-response","365","2.1.0","550953","F=YES, J=NO","qab21rre9p","1","64","53","75","","","","","","","","","","","","","","","",""
"null","audio/grass.wav","null","audio-keyboard-response","366","2.1.0","551803","F=YES, J=NO","qab21rre9p","1","64","53","75","","","","","","","","","","","","","","","",""
"710","
          <p id=""word"" style=""font-size: 40px;"">milames</p>
          <p style=""font-size: 16px;"">F = YES &nbsp;&nbsp;&nbsp; J = NO</p>
        ","j","html-keyboard-response","367","2.1.0","552515","F=YES, J=NO","qab21rre9p","1","64","53","75","","","","","","","","","milames","grass","pseudoword","pseudoword","j","true","",""
"null","<p style=""font-size: 50px;"">+</p>","null","html-keyboard-response","368","2.1.0","552825","F=YES, J=NO","qab21rre9p","1","64","53","75","","","","","","","","","","","","","","","",""
"null","audio/beep-329314.mp3","null","audio-keyboard-response","369","2.1.0","554353","F=YES, J=NO","qab21rre9p","1","64","53","75","","","","","","","","","","","","","","","",""
"null","audio/noise1.wav","null","audio-keyboard-response","370","2.1.0","554962","F=YES, J=NO","qab21rre9p","1","64","53","75","","","","","","","","","","","","","","","",""
"963","
          <p id=""word"" style=""font-size: 40px;"">slintered</p>
          <p style=""font-size: 16px;"">F = YES &nbsp;&nbsp;&nbsp; J = NO</p>
        ","j","html-keyboard-response","371","2.1.0","555926","F=YES, J=NO","qab21rre9p","1","64","53","75","","","","","","","","","slintered","noise1","pseudoword","pseudoword","j","true","",""
"null","<p style=""font-size: 50px;"">+</p>","null","html-keyboard-response","372","2.1.0","556242","F=YES, J=NO","qab21rre9p","1","64","53","75","","","","","","","","","","","","","","","",""
"null","audio/beep-329314.mp3","null","audio-keyboard-response","373","2.1.0","557771","F=YES, J=NO","qab21rre9p","1","64","53","75","","","","","","","","","","","","","","","",""
"null","audio/belief.wav","null","audio-keyboard-response","374","2.1.0","558582","F=YES, J=NO","qab21rre9p","1","64","53","75","","","","","","","","","","","","","","","",""
"562","
          <p id=""word"" style=""font-size: 40px;"">read</p>
          <p style=""font-size: 16px;"">F = YES &nbsp;&nbsp;&nbsp; J = NO</p>
        ","f","html-keyboard-response","375","2.1.0","559145","F=YES, J=NO","qab21rre9p","1","64","53","75","","","","","","","","","read","belief","filler","filler","f","true","",""
"null","<p style=""font-size: 50px;"">+</p>","null","html-keyboard-response","376","2.1.0","559456","F=YES, J=NO","qab21rre9p","1","64","53","75","","","","","","","","","","","","","","","",""
"null","audio/beep-329314.mp3","null","audio-keyboard-response","377","2.1.0","560993","F=YES, J=NO","qab21rre9p","1","64","53","75","","","","","","","","","","","","","","","",""
"null","audio/weight1.wav","null","audio-keyboard-response","378","2.1.0","561502","F=YES, J=NO","qab21rre9p","1","64","53","75","","","","","","","","","","","","","","","",""
"844","
          <p id=""word"" style=""font-size: 40px;"">crimsh</p>
          <p style=""font-size: 16px;"">F = YES &nbsp;&nbsp;&nbsp; J = NO</p>
        ","j","html-keyboard-response","379","2.1.0","562347","F=YES, J=NO","qab21rre9p","1","64","53","75","","","","","","","","","crimsh","weight1","pseudoword","pseudoword","j","true","",""
"null","<p style=""font-size: 50px;"">+</p>","null","html-keyboard-response","380","2.1.0","562660","F=YES, J=NO","qab21rre9p","1","64","53","75","","","","","","","","","","","","","","","",""
"null","audio/beep-329314.mp3","null","audio-keyboard-response","381","2.1.0","564193","F=YES, J=NO","qab21rre9p","1","64","53","75","","","","","","","","","","","","","","","",""
"null","audio/fence.wav","null","audio-keyboard-response","382","2.1.0","565023","F=YES, J=NO","qab21rre9p","1","64","53","75","","","","","","","","","","","","","","","",""
"672","
          <p id=""word"" style=""font-size: 40px;"">trim</p>
          <p style=""font-size: 16px;"">F = YES &nbsp;&nbsp;&nbsp; J = NO</p>
        ","j","html-keyboard-response","383","2.1.0","565696","F=YES, J=NO","qab21rre9p","1","64","53","75","","","","","","","","","trim","fence","filler","filler","f","false","",""
"null","<p style=""font-size: 50px;"">+</p>","null","html-keyboard-response","384","2.1.0","566005","F=YES, J=NO","qab21rre9p","1","64","53","75","","","","","","","","","","","","","","","",""
"null","audio/beep-329314.mp3","null","audio-keyboard-response","385","2.1.0","567533","F=YES, J=NO","qab21rre9p","1","64","53","75","","","","","","","","","","","","","","","",""
"null","audio/mile1.wav","null","audio-keyboard-response","386","2.1.0","568022","F=YES, J=NO","qab21rre9p","1","64","53","75","","","","","","","","","","","","","","","",""
"587","
          <p id=""word"" style=""font-size: 40px;"">run</p>
          <p style=""font-size: 16px;"">F = YES &nbsp;&nbsp;&nbsp; J = NO</p>
        ","f","html-keyboard-response","387","2.1.0","568611","F=YES, J=NO","qab21rre9p","1","64","53","75","","","","","","","","","run","mile1","literal","experimental","f","true","",""
"null","<p style=""font-size: 50px;"">+</p>","null","html-keyboard-response","388","2.1.0","568926","F=YES, J=NO","qab21rre9p","1","64","53","75","","","","","","","","","","","","","","","",""
"null","audio/beep-329314.mp3","null","audio-keyboard-response","389","2.1.0","570453","F=YES, J=NO","qab21rre9p","1","64","53","75","","","","","","","","","","","","","","","",""
"null","audio/table1.wav","null","audio-keyboard-response","390","2.1.0","571123","F=YES, J=NO","qab21rre9p","1","64","53","75","","","","","","","","","","","","","","","",""
"759","
          <p id=""word"" style=""font-size: 40px;"">stimb</p>
          <p style=""font-size: 16px;"">F = YES &nbsp;&nbsp;&nbsp; J = NO</p>
        ","j","html-keyboard-response","391","2.1.0","571883","F=YES, J=NO","qab21rre9p","1","64","53","75","","","","","","","","","stimb","table1","pseudoword","pseudoword","j","true","",""
