"rt","stimulus","response","trial_type","trial_index","plugin_version","time_elapsed","response_mapping","subject_id","list_index","lextale_score","lextale_word_score","lextale_nonword_score","success","timeout","failed_images","failed_audio","failed_video","task","isWord","isDummy","target","prime","prime_type","stimulus_type","correct_response","correct","section","question_order"
"3808","
    <div style=""max-width: 800px; margin: auto; text-align: left;"">
      <h2>STANFORD UNIVERSITY</h2>
      <h3>Research Information Sheet</h3>
      <p><strong>Protocol Director:</strong> Robert Hawkins<br>
      <strong>Protocol Title:</strong> Communication and social cognition in natural audiovisual contexts<br>
      <strong>IRB#:</strong> 77226</p>

      <p><strong>DESCRIPTION:</strong> You are invited to participate in a research study about language and communication. The purpose of the research is to understand how you interact and communicate with other people in naturalistic settings as a fluent English speaker. This research will be conducted through the Prolific platform, including participants from the US, UK, and Canada. If you decide to participate in this research, you will play a communication game in a group with one or more partners.</p>

      <p><strong>TIME INVOLVEMENT:</strong> The task will last the amount of time advertised on Prolific. You are free to withdraw from the study at any time.</p>

      <p><strong>RISKS AND BENEFITS:</strong> You may become frustrated if your partner gets distracted, or experience discomfort if other participants in your group send text that is inappropriate for the task. We ask you to please be respectful of other participants you might be interacting with to mitigate these risks. You may also experience discomfort when being asked to discuss or challenge emotionally salient political beliefs. Study data will be stored securely, in compliance with Stanford University standards, minimizing the risk of confidentiality breach. This study advances our scientific understanding of how people communicate and collaborate in naturalistic settings. This study may lead to further insights about what can go wrong in teamwork, suggest potential interventions to overcome these barriers, and help to develop assistive technologies that collaborate with human partners. We cannot and do not guarantee or promise that you will receive any benefits from this study.</p>

      <p><strong>PAYMENTS:</strong> You will receive payment in the amount advertised on Prolific. If you do not complete this study, you will receive prorated payment based on the time that you have spent. Additionally, you may be eligible for bonus payments as described in the instructions.</p>

      <p><strong>PARTICIPANT’S RIGHTS:</strong> If you have read this form and have decided to participate in this project, please understand your participation is voluntary and you have the right to withdraw your consent or discontinue participation at any time without penalty or loss of benefits to which you are otherwise entitled. The alternative is not to participate. You have the right to refuse to answer particular questions. The results of this research study may be presented at scientific or professional meetings or published in scientific journals. Your individual privacy will be maintained in all published and written data resulting from the study. In accordance with scientific norms, the data from this study may be used or shared with other researchers for future research (after removing personally identifying information) without additional consent from you.</p>

      <p><strong>CONTACT INFORMATION:</strong><br>
      Questions: If you have any questions, concerns or complaints about this research, its procedures, risks and benefits, contact the Protocol Director, Robert Hawkins (<a href=""mailto:rdhawkins@stanford.edu"">rdhawkins@stanford.edu</a>, 217-549-6923).<br>
      Independent Contact: If you are not satisfied with how this study is being conducted, or if you have any concerns, complaints, or general questions about the research or your rights as a participant, please contact the Stanford Institutional Review Board (IRB) to speak to someone independent of the research team at 650-723-2480 or toll free at 1-866-680-2906, or email at <a href=""mailto:irbnon-med@stanford.edu"">irbnon-med@stanford.edu</a>. You can also write to the Stanford IRB, Stanford University, 1705 El Camino Real, Palo Alto, CA 94306.</p>

      <p><strong>Please save or print a copy of this page for your records.</strong></p>
      <p>If you agree to participate in this research, click ""Continue"" below.</p>
    </div>
  ","0","html-button-response","0","2.1.0","3813","F=YES, J=NO","qu8yam4hxw","1","75","85","65","","","","","","","","","","","","","","","",""
"8497","
    <div style=""max-width: 800px; margin: auto; text-align: left;"">
      <h2>Welcome!</h2>
      <p>Thank you for participating in this study. The experiment consists of three parts:</p>
      <ol>
        <li>An English vocabulary test</li>
        <li>A main task in which you will hear and see words, and decide whether the written word is a real English word</li>
        <li>A brief survey about your background</li>
      </ol>
      <p>Each part will be introduced before it begins.</p>
      <p>Please make sure you are in a quiet environment and can hear audio clearly for the final task.</p>
      <p style=""margin-top: 2em;"">Press any key to begin.</p>
    </div>
  "," ","html-keyboard-response","1","2.1.0","12310","F=YES, J=NO","qu8yam4hxw","1","75","85","65","","","","","","","","","","","","","","","",""
"","","","preload","2","2.1.0","13001","F=YES, J=NO","qu8yam4hxw","1","75","85","65","true","false","[]","[]","[]","","","","","","","","","","",""
"3956","
    <div style=""max-width: 800px; margin: auto; text-align: left;"">
      <h2>Part 1: Vocabulary Test</h2>
      <p>You will now complete the first part of the study: a short English vocabulary test.</p>
      <p>This test is called <strong>LexTALE</strong> and helps us get a general sense of your English proficiency.</p>
      <p style=""margin-top: 2em;"">Press any key to continue.</p>
    </div>
  "," ","html-keyboard-response","3","2.1.0","16958","F=YES, J=NO","qu8yam4hxw","1","75","85","65","","","","","","","","","","","","","","","",""
"4704","
    <div style=""max-width: 800px; margin: auto; text-align: left;"">
      <h2>LexTALE Vocabulary Test</h2>
      <p>In this test, you will see a series of letter strings—one at a time.</p>
      <p>Your task is to decide whether each string is a real English word.</p>
      <p><strong>Key responses:</strong></p>
      <ul>
        <li><strong>F</strong> = YES (real English word)</li>
        <li><strong>J</strong> = NO (not a real English word)</li>
      </ul>
      <p>There is no time limit, but please try to be accurate.</p>
      <p style=""margin-top: 2em;"">Press any key to begin.</p>
    </div>
  ","f","html-keyboard-response","4","2.1.0","21662","F=YES, J=NO","qu8yam4hxw","1","75","85","65","","","","","","","","","","","","","","","",""
"3608","
  <p style=""font-size: 40px;"">platery</p>
  <p style=""font-size: 16px;"">F = YES &nbsp;&nbsp;&nbsp; J = NO</p>
","f","html-keyboard-response","5","2.1.0","25271","F=YES, J=NO","qu8yam4hxw","1","75","85","65","","","","","","lextale","false","true","","","","","","","",""
"1103","
  <p style=""font-size: 40px;"">denial</p>
  <p style=""font-size: 16px;"">F = YES &nbsp;&nbsp;&nbsp; J = NO</p>
","f","html-keyboard-response","6","2.1.0","26374","F=YES, J=NO","qu8yam4hxw","1","75","85","65","","","","","","lextale","true","true","","","","","","","",""
"2408","
  <p style=""font-size: 40px;"">marrit</p>
  <p style=""font-size: 16px;"">F = YES &nbsp;&nbsp;&nbsp; J = NO</p>
","j","html-keyboard-response","7","2.1.0","28782","F=YES, J=NO","qu8yam4hxw","1","75","85","65","","","","","","lextale","false","true","","","","","","","",""
"1744","
  <p style=""font-size: 40px;"">bottle</p>
  <p style=""font-size: 16px;"">F = YES &nbsp;&nbsp;&nbsp; J = NO</p>
","f","html-keyboard-response","8","2.1.0","30526","F=YES, J=NO","qu8yam4hxw","1","75","85","65","","","","","","lextale","true","false","","","","","","","",""
"2432","
  <p style=""font-size: 40px;"">birst</p>
  <p style=""font-size: 16px;"">F = YES &nbsp;&nbsp;&nbsp; J = NO</p>
","j","html-keyboard-response","9","2.1.0","32958","F=YES, J=NO","qu8yam4hxw","1","75","85","65","","","","","","lextale","false","false","","","","","","","",""
"903","
  <p style=""font-size: 40px;"">envy</p>
  <p style=""font-size: 16px;"">F = YES &nbsp;&nbsp;&nbsp; J = NO</p>
","f","html-keyboard-response","10","2.1.0","33862","F=YES, J=NO","qu8yam4hxw","1","75","85","65","","","","","","lextale","true","false","","","","","","","",""
"1608","
  <p style=""font-size: 40px;"">brang</p>
  <p style=""font-size: 16px;"">F = YES &nbsp;&nbsp;&nbsp; J = NO</p>
","j","html-keyboard-response","11","2.1.0","35470","F=YES, J=NO","qu8yam4hxw","1","75","85","65","","","","","","lextale","false","false","","","","","","","",""
"872","
  <p style=""font-size: 40px;"">huge</p>
  <p style=""font-size: 16px;"">F = YES &nbsp;&nbsp;&nbsp; J = NO</p>
","f","html-keyboard-response","12","2.1.0","36342","F=YES, J=NO","qu8yam4hxw","1","75","85","65","","","","","","lextale","true","false","","","","","","","",""
"4503","
  <p style=""font-size: 40px;"">plove</p>
  <p style=""font-size: 16px;"">F = YES &nbsp;&nbsp;&nbsp; J = NO</p>
","f","html-keyboard-response","13","2.1.0","40846","F=YES, J=NO","qu8yam4hxw","1","75","85","65","","","","","","lextale","false","false","","","","","","","",""
"1008","
  <p style=""font-size: 40px;"">border</p>
  <p style=""font-size: 16px;"">F = YES &nbsp;&nbsp;&nbsp; J = NO</p>
","f","html-keyboard-response","14","2.1.0","41854","F=YES, J=NO","qu8yam4hxw","1","75","85","65","","","","","","lextale","true","false","","","","","","","",""
"1000","
  <p style=""font-size: 40px;"">flimsy</p>
  <p style=""font-size: 16px;"">F = YES &nbsp;&nbsp;&nbsp; J = NO</p>
","f","html-keyboard-response","15","2.1.0","42854","F=YES, J=NO","qu8yam4hxw","1","75","85","65","","","","","","lextale","true","false","","","","","","","",""
"752","
  <p style=""font-size: 40px;"">drain</p>
  <p style=""font-size: 16px;"">F = YES &nbsp;&nbsp;&nbsp; J = NO</p>
","f","html-keyboard-response","16","2.1.0","43606","F=YES, J=NO","qu8yam4hxw","1","75","85","65","","","","","","lextale","true","false","","","","","","","",""
"2656","
  <p style=""font-size: 40px;"">twindle</p>
  <p style=""font-size: 16px;"">F = YES &nbsp;&nbsp;&nbsp; J = NO</p>
","j","html-keyboard-response","17","2.1.0","46262","F=YES, J=NO","qu8yam4hxw","1","75","85","65","","","","","","lextale","false","false","","","","","","","",""
"792","
  <p style=""font-size: 40px;"">propose</p>
  <p style=""font-size: 16px;"">F = YES &nbsp;&nbsp;&nbsp; J = NO</p>
","f","html-keyboard-response","18","2.1.0","47054","F=YES, J=NO","qu8yam4hxw","1","75","85","65","","","","","","lextale","true","false","","","","","","","",""
"4120","
  <p style=""font-size: 40px;"">forlay</p>
  <p style=""font-size: 16px;"">F = YES &nbsp;&nbsp;&nbsp; J = NO</p>
","j","html-keyboard-response","19","2.1.0","51174","F=YES, J=NO","qu8yam4hxw","1","75","85","65","","","","","","lextale","false","false","","","","","","","",""
"728","
  <p style=""font-size: 40px;"">tenant</p>
  <p style=""font-size: 16px;"">F = YES &nbsp;&nbsp;&nbsp; J = NO</p>
","f","html-keyboard-response","20","2.1.0","51902","F=YES, J=NO","qu8yam4hxw","1","75","85","65","","","","","","lextale","true","false","","","","","","","",""
"728","
  <p style=""font-size: 40px;"">strain</p>
  <p style=""font-size: 16px;"">F = YES &nbsp;&nbsp;&nbsp; J = NO</p>
","f","html-keyboard-response","21","2.1.0","52630","F=YES, J=NO","qu8yam4hxw","1","75","85","65","","","","","","lextale","true","false","","","","","","","",""
"784","
  <p style=""font-size: 40px;"">holster</p>
  <p style=""font-size: 16px;"">F = YES &nbsp;&nbsp;&nbsp; J = NO</p>
","f","html-keyboard-response","22","2.1.0","53414","F=YES, J=NO","qu8yam4hxw","1","75","85","65","","","","","","lextale","true","false","","","","","","","",""
"807","
  <p style=""font-size: 40px;"">hinder</p>
  <p style=""font-size: 16px;"">F = YES &nbsp;&nbsp;&nbsp; J = NO</p>
","f","html-keyboard-response","23","2.1.0","54222","F=YES, J=NO","qu8yam4hxw","1","75","85","65","","","","","","lextale","true","false","","","","","","","",""
"976","
  <p style=""font-size: 40px;"">swindle</p>
  <p style=""font-size: 16px;"">F = YES &nbsp;&nbsp;&nbsp; J = NO</p>
","f","html-keyboard-response","24","2.1.0","55198","F=YES, J=NO","qu8yam4hxw","1","75","85","65","","","","","","lextale","true","false","","","","","","","",""
"1736","
  <p style=""font-size: 40px;"">nuder</p>
  <p style=""font-size: 16px;"">F = YES &nbsp;&nbsp;&nbsp; J = NO</p>
","j","html-keyboard-response","25","2.1.0","56934","F=YES, J=NO","qu8yam4hxw","1","75","85","65","","","","","","lextale","false","false","","","","","","","",""
"808","
  <p style=""font-size: 40px;"">pillow</p>
  <p style=""font-size: 16px;"">F = YES &nbsp;&nbsp;&nbsp; J = NO</p>
","f","html-keyboard-response","26","2.1.0","57742","F=YES, J=NO","qu8yam4hxw","1","75","85","65","","","","","","lextale","true","false","","","","","","","",""
"3071","
  <p style=""font-size: 40px;"">shumble</p>
  <p style=""font-size: 16px;"">F = YES &nbsp;&nbsp;&nbsp; J = NO</p>
","f","html-keyboard-response","27","2.1.0","60814","F=YES, J=NO","qu8yam4hxw","1","75","85","65","","","","","","lextale","false","false","","","","","","","",""
"688","
  <p style=""font-size: 40px;"">thirst</p>
  <p style=""font-size: 16px;"">F = YES &nbsp;&nbsp;&nbsp; J = NO</p>
","f","html-keyboard-response","28","2.1.0","61502","F=YES, J=NO","qu8yam4hxw","1","75","85","65","","","","","","lextale","true","false","","","","","","","",""
"1304","
  <p style=""font-size: 40px;"">unsail</p>
  <p style=""font-size: 16px;"">F = YES &nbsp;&nbsp;&nbsp; J = NO</p>
","f","html-keyboard-response","29","2.1.0","62806","F=YES, J=NO","qu8yam4hxw","1","75","85","65","","","","","","lextale","false","false","","","","","","","",""
"952","
  <p style=""font-size: 40px;"">rifle</p>
  <p style=""font-size: 16px;"">F = YES &nbsp;&nbsp;&nbsp; J = NO</p>
","f","html-keyboard-response","30","2.1.0","63758","F=YES, J=NO","qu8yam4hxw","1","75","85","65","","","","","","lextale","true","false","","","","","","","",""
"1048","
  <p style=""font-size: 40px;"">mush</p>
  <p style=""font-size: 16px;"">F = YES &nbsp;&nbsp;&nbsp; J = NO</p>
","f","html-keyboard-response","31","2.1.0","64806","F=YES, J=NO","qu8yam4hxw","1","75","85","65","","","","","","lextale","false","false","","","","","","","",""
"1024","
  <p style=""font-size: 40px;"">drench</p>
  <p style=""font-size: 16px;"">F = YES &nbsp;&nbsp;&nbsp; J = NO</p>
","f","html-keyboard-response","32","2.1.0","65830","F=YES, J=NO","qu8yam4hxw","1","75","85","65","","","","","","lextale","true","false","","","","","","","",""
"1273","
  <p style=""font-size: 40px;"">snirt</p>
  <p style=""font-size: 16px;"">F = YES &nbsp;&nbsp;&nbsp; J = NO</p>
","j","html-keyboard-response","33","2.1.0","67103","F=YES, J=NO","qu8yam4hxw","1","75","85","65","","","","","","lextale","false","false","","","","","","","",""
"703","
  <p style=""font-size: 40px;"">bitter</p>
  <p style=""font-size: 16px;"">F = YES &nbsp;&nbsp;&nbsp; J = NO</p>
","f","html-keyboard-response","34","2.1.0","67806","F=YES, J=NO","qu8yam4hxw","1","75","85","65","","","","","","lextale","true","false","","","","","","","",""
"1993","
  <p style=""font-size: 40px;"">pliff</p>
  <p style=""font-size: 16px;"">F = YES &nbsp;&nbsp;&nbsp; J = NO</p>
","j","html-keyboard-response","35","2.1.0","69799","F=YES, J=NO","qu8yam4hxw","1","75","85","65","","","","","","lextale","false","false","","","","","","","",""
"1359","
  <p style=""font-size: 40px;"">tablet</p>
  <p style=""font-size: 16px;"">F = YES &nbsp;&nbsp;&nbsp; J = NO</p>
","f","html-keyboard-response","36","2.1.0","71158","F=YES, J=NO","qu8yam4hxw","1","75","85","65","","","","","","lextale","true","false","","","","","","","",""
"944","
  <p style=""font-size: 40px;"">glimmer</p>
  <p style=""font-size: 16px;"">F = YES &nbsp;&nbsp;&nbsp; J = NO</p>
","f","html-keyboard-response","37","2.1.0","72102","F=YES, J=NO","qu8yam4hxw","1","75","85","65","","","","","","lextale","true","false","","","","","","","",""
"1145","
  <p style=""font-size: 40px;"">slink</p>
  <p style=""font-size: 16px;"">F = YES &nbsp;&nbsp;&nbsp; J = NO</p>
","f","html-keyboard-response","38","2.1.0","73247","F=YES, J=NO","qu8yam4hxw","1","75","85","65","","","","","","lextale","true","false","","","","","","","",""
"647","
  <p style=""font-size: 40px;"">clever</p>
  <p style=""font-size: 16px;"">F = YES &nbsp;&nbsp;&nbsp; J = NO</p>
","f","html-keyboard-response","39","2.1.0","73894","F=YES, J=NO","qu8yam4hxw","1","75","85","65","","","","","","lextale","true","false","","","","","","","",""
"1569","
  <p style=""font-size: 40px;"">grum</p>
  <p style=""font-size: 16px;"">F = YES &nbsp;&nbsp;&nbsp; J = NO</p>
","j","html-keyboard-response","40","2.1.0","75463","F=YES, J=NO","qu8yam4hxw","1","75","85","65","","","","","","lextale","false","false","","","","","","","",""
"809","
  <p style=""font-size: 40px;"">string</p>
  <p style=""font-size: 16px;"">F = YES &nbsp;&nbsp;&nbsp; J = NO</p>
","f","html-keyboard-response","41","2.1.0","76272","F=YES, J=NO","qu8yam4hxw","1","75","85","65","","","","","","lextale","true","false","","","","","","","",""
"5511","
  <p style=""font-size: 40px;"">plim</p>
  <p style=""font-size: 16px;"">F = YES &nbsp;&nbsp;&nbsp; J = NO</p>
","j","html-keyboard-response","42","2.1.0","81783","F=YES, J=NO","qu8yam4hxw","1","75","85","65","","","","","","lextale","false","false","","","","","","","",""
"631","
  <p style=""font-size: 40px;"">cable</p>
  <p style=""font-size: 16px;"">F = YES &nbsp;&nbsp;&nbsp; J = NO</p>
","f","html-keyboard-response","43","2.1.0","82414","F=YES, J=NO","qu8yam4hxw","1","75","85","65","","","","","","lextale","true","false","","","","","","","",""
"1241","
  <p style=""font-size: 40px;"">shrivel</p>
  <p style=""font-size: 16px;"">F = YES &nbsp;&nbsp;&nbsp; J = NO</p>
","f","html-keyboard-response","44","2.1.0","83655","F=YES, J=NO","qu8yam4hxw","1","75","85","65","","","","","","lextale","true","false","","","","","","","",""
"782","
  <p style=""font-size: 40px;"">tarnish</p>
  <p style=""font-size: 16px;"">F = YES &nbsp;&nbsp;&nbsp; J = NO</p>
","f","html-keyboard-response","45","2.1.0","84438","F=YES, J=NO","qu8yam4hxw","1","75","85","65","","","","","","lextale","true","false","","","","","","","",""
"2248","
  <p style=""font-size: 40px;"">blim</p>
  <p style=""font-size: 16px;"">F = YES &nbsp;&nbsp;&nbsp; J = NO</p>
","j","html-keyboard-response","46","2.1.0","86686","F=YES, J=NO","qu8yam4hxw","1","75","85","65","","","","","","lextale","false","false","","","","","","","",""
"1784","
  <p style=""font-size: 40px;"">stifle</p>
  <p style=""font-size: 16px;"">F = YES &nbsp;&nbsp;&nbsp; J = NO</p>
","f","html-keyboard-response","47","2.1.0","88470","F=YES, J=NO","qu8yam4hxw","1","75","85","65","","","","","","lextale","true","false","","","","","","","",""
"1016","
  <p style=""font-size: 40px;"">bint</p>
  <p style=""font-size: 16px;"">F = YES &nbsp;&nbsp;&nbsp; J = NO</p>
","j","html-keyboard-response","48","2.1.0","89486","F=YES, J=NO","qu8yam4hxw","1","75","85","65","","","","","","lextale","false","false","","","","","","","",""
"743","
  <p style=""font-size: 40px;"">purple</p>
  <p style=""font-size: 16px;"">F = YES &nbsp;&nbsp;&nbsp; J = NO</p>
","f","html-keyboard-response","49","2.1.0","90230","F=YES, J=NO","qu8yam4hxw","1","75","85","65","","","","","","lextale","true","false","","","","","","","",""
"736","
  <p style=""font-size: 40px;"">wriggle</p>
  <p style=""font-size: 16px;"">F = YES &nbsp;&nbsp;&nbsp; J = NO</p>
","f","html-keyboard-response","50","2.1.0","90966","F=YES, J=NO","qu8yam4hxw","1","75","85","65","","","","","","lextale","true","false","","","","","","","",""
"817","
  <p style=""font-size: 40px;"">mangle</p>
  <p style=""font-size: 16px;"">F = YES &nbsp;&nbsp;&nbsp; J = NO</p>
","f","html-keyboard-response","51","2.1.0","91783","F=YES, J=NO","qu8yam4hxw","1","75","85","65","","","","","","lextale","true","false","","","","","","","",""
"2351","
  <p style=""font-size: 40px;"">shramp</p>
  <p style=""font-size: 16px;"">F = YES &nbsp;&nbsp;&nbsp; J = NO</p>
","j","html-keyboard-response","52","2.1.0","94134","F=YES, J=NO","qu8yam4hxw","1","75","85","65","","","","","","lextale","false","false","","","","","","","",""
"720","
  <p style=""font-size: 40px;"">flirt</p>
  <p style=""font-size: 16px;"">F = YES &nbsp;&nbsp;&nbsp; J = NO</p>
","f","html-keyboard-response","53","2.1.0","94854","F=YES, J=NO","qu8yam4hxw","1","75","85","65","","","","","","lextale","true","false","","","","","","","",""
"960","
  <p style=""font-size: 40px;"">frip</p>
  <p style=""font-size: 16px;"">F = YES &nbsp;&nbsp;&nbsp; J = NO</p>
","j","html-keyboard-response","54","2.1.0","95814","F=YES, J=NO","qu8yam4hxw","1","75","85","65","","","","","","lextale","false","false","","","","","","","",""
"647","
  <p style=""font-size: 40px;"">tangle</p>
  <p style=""font-size: 16px;"">F = YES &nbsp;&nbsp;&nbsp; J = NO</p>
","f","html-keyboard-response","55","2.1.0","96462","F=YES, J=NO","qu8yam4hxw","1","75","85","65","","","","","","lextale","true","false","","","","","","","",""
"704","
  <p style=""font-size: 40px;"">crumble</p>
  <p style=""font-size: 16px;"">F = YES &nbsp;&nbsp;&nbsp; J = NO</p>
","f","html-keyboard-response","56","2.1.0","97166","F=YES, J=NO","qu8yam4hxw","1","75","85","65","","","","","","lextale","true","false","","","","","","","",""
"688","
  <p style=""font-size: 40px;"">wrinkle</p>
  <p style=""font-size: 16px;"">F = YES &nbsp;&nbsp;&nbsp; J = NO</p>
","f","html-keyboard-response","57","2.1.0","97854","F=YES, J=NO","qu8yam4hxw","1","75","85","65","","","","","","lextale","true","false","","","","","","","",""
"1176","
  <p style=""font-size: 40px;"">slumb</p>
  <p style=""font-size: 16px;"">F = YES &nbsp;&nbsp;&nbsp; J = NO</p>
","f","html-keyboard-response","58","2.1.0","99030","F=YES, J=NO","qu8yam4hxw","1","75","85","65","","","","","","lextale","false","false","","","","","","","",""
"951","
  <p style=""font-size: 40px;"">jungle</p>
  <p style=""font-size: 16px;"">F = YES &nbsp;&nbsp;&nbsp; J = NO</p>
","f","html-keyboard-response","59","2.1.0","99982","F=YES, J=NO","qu8yam4hxw","1","75","85","65","","","","","","lextale","true","false","","","","","","","",""
"1528","
  <p style=""font-size: 40px;"">frolick</p>
  <p style=""font-size: 16px;"">F = YES &nbsp;&nbsp;&nbsp; J = NO</p>
","f","html-keyboard-response","60","2.1.0","101510","F=YES, J=NO","qu8yam4hxw","1","75","85","65","","","","","","lextale","false","false","","","","","","","",""
"2161","
      <h2>LexTALE Test Completed</h2>
      <p>Your LexTALE vocabulary score is: <strong>75%</strong></p>
      <p>Press any key to continue.</p>
    "," ","html-keyboard-response","61","2.1.0","103671","F=YES, J=NO","qu8yam4hxw","1","75","85","65","","","","","","","","","","","","","","","",""
"1831","
    <div style=""max-width: 800px; margin: auto; text-align: left;"">
      <h2>Break Time</h2>
      <p>You have completed the first part of the study.</p>
      <p>You may take a short <strong>30-second break</strong> before continuing.</p>
      <p>When you’re ready, press any key to continue to the final task.</p>
    </div>
  "," ","html-keyboard-response","62","2.1.0","105502","F=YES, J=NO","qu8yam4hxw","1","75","85","65","","","","","","","","","","","","","","","",""
"17808","
    <div style=""max-width: 800px; margin: auto; text-align: left;"">
      <h2>Part 2: Lexical Decision Task</h2>
      <p>You will now begin the second part of the study.</p>
      <p>Each trial will follow this sequence:</p>
      <ul>
        <li>A fixation cross (+) appears at the center of the screen.</li>
        <li>You will hear a short beep followed by a spoken word.</li>
        <li>A written word will appear briefly on the screen.</li>
      </ul>
      <p>Your task is to judge whether the <strong>written word</strong> is a real English word.</p>
      <p style=""margin-top: 1em;""><strong>Key responses:</strong></p>
      <ul>
        <li><strong>F</strong> = YES (real English word)</li>
        <li><strong>J</strong> = NO (not a real English word)</li>
      </ul>
      <p>Please respond as quickly and accurately as you can.</p>
      <p style=""margin-top: 2em;"">Press any key to continue.</p>
    </div>
  "," ","html-keyboard-response","63","2.1.0","123310","F=YES, J=NO","qu8yam4hxw","1","75","85","65","","","","","","","","","","","","","","","",""
"5832","
    <div style=""max-width: 800px; margin: auto; text-align: left;"">
      <h2>Before You Begin</h2>
      <p>Make sure your sound is turned on.</p>
      <p>You will hear audio during each trial, but your decision should be based only on the <strong>written word</strong> you see on the screen.</p>
      <p><strong>Reminder:</strong></p>
      <ul>
        <li><strong>F</strong> = YES (real English word)</li>
        <li><strong>J</strong> = NO (not a real English word)</li>
      </ul>
      <p style=""margin-top: 2em;"">Press any key when you are ready to begin.</p>
    </div>
  "," ","html-keyboard-response","64","2.1.0","129143","F=YES, J=NO","qu8yam4hxw","1","75","85","65","","","","","","","","","","","","","","","",""
"1839","
    <div style=""max-width: 800px; margin: auto; text-align: left;"">
      <h2>Part 2: Practice Trials</h2>
      <p>You will now complete a few <strong>practice trials</strong> to get familiar with the task.</p>
      <p>These trials are <strong>not scored</strong> and are only to help you get used to the format.</p>
      <p style=""margin-top: 2em;"">Press any key to begin.</p>
    </div>
  "," ","html-keyboard-response","65","2.1.0","130982","F=YES, J=NO","qu8yam4hxw","1","75","85","65","","","","","","","","","","","","","","","",""
"2632","<p>Starting practice block 1 of 2. Press any key to continue.</p>"," ","html-keyboard-response","66","2.1.0","133614","F=YES, J=NO","qu8yam4hxw","1","75","85","65","","","","","","","","","","","","","","","",""
"null","<p style=""font-size: 50px;"">+</p>","null","html-keyboard-response","67","2.1.0","133919","F=YES, J=NO","qu8yam4hxw","1","75","85","65","","","","","","","","","","","","","","","",""
"null","audio/beep-329314.mp3","null","audio-keyboard-response","68","2.1.0","135462","F=YES, J=NO","qu8yam4hxw","1","75","85","65","","","","","","","","","","","","","","","",""
"null","audio/holiday1.wav","null","audio-keyboard-response","69","2.1.0","136102","F=YES, J=NO","qu8yam4hxw","1","75","85","65","","","","","","","","","","","","","","","",""
"1416","
          <p id=""word"" style=""font-size: 40px;"">drivets</p>
          <p style=""font-size: 16px;"">F = YES &nbsp;&nbsp;&nbsp; J = NO</p>
        ","f","html-keyboard-response","70","2.1.0","137518","F=YES, J=NO","qu8yam4hxw","1","75","85","65","","","","","","","","","drivets","holiday1","pseudoword","pseudoword","j","false","",""
"null","<p style=""font-size: 50px;"">+</p>","null","html-keyboard-response","71","2.1.0","137821","F=YES, J=NO","qu8yam4hxw","1","75","85","65","","","","","","","","","","","","","","","",""
"null","audio/beep-329314.mp3","null","audio-keyboard-response","72","2.1.0","139342","F=YES, J=NO","qu8yam4hxw","1","75","85","65","","","","","","","","","","","","","","","",""
"null","audio/terrain.wav","null","audio-keyboard-response","73","2.1.0","140062","F=YES, J=NO","qu8yam4hxw","1","75","85","65","","","","","","","","","","","","","","","",""
"633","
          <p id=""word"" style=""font-size: 40px;"">twist</p>
          <p style=""font-size: 16px;"">F = YES &nbsp;&nbsp;&nbsp; J = NO</p>
        ","f","html-keyboard-response","74","2.1.0","140695","F=YES, J=NO","qu8yam4hxw","1","75","85","65","","","","","","","","","twist","terrain","filler","filler","f","true","",""
"null","<p style=""font-size: 50px;"">+</p>","null","html-keyboard-response","75","2.1.0","140999","F=YES, J=NO","qu8yam4hxw","1","75","85","65","","","","","","","","","","","","","","","",""
"null","audio/beep-329314.mp3","null","audio-keyboard-response","76","2.1.0","142522","F=YES, J=NO","qu8yam4hxw","1","75","85","65","","","","","","","","","","","","","","","",""
"null","audio/bridge.wav","null","audio-keyboard-response","77","2.1.0","143082","F=YES, J=NO","qu8yam4hxw","1","75","85","65","","","","","","","","","","","","","","","",""
"668","
          <p id=""word"" style=""font-size: 40px;"">crack</p>
          <p style=""font-size: 16px;"">F = YES &nbsp;&nbsp;&nbsp; J = NO</p>
        ","f","html-keyboard-response","78","2.1.0","143750","F=YES, J=NO","qu8yam4hxw","1","75","85","65","","","","","","","","","crack","bridge","filler","filler","f","true","",""
"null","<p style=""font-size: 50px;"">+</p>","null","html-keyboard-response","79","2.1.0","144052","F=YES, J=NO","qu8yam4hxw","1","75","85","65","","","","","","","","","","","","","","","",""
"null","audio/beep-329314.mp3","null","audio-keyboard-response","80","2.1.0","145582","F=YES, J=NO","qu8yam4hxw","1","75","85","65","","","","","","","","","","","","","","","",""
"null","audio/fence.wav","null","audio-keyboard-response","81","2.1.0","146222","F=YES, J=NO","qu8yam4hxw","1","75","85","65","","","","","","","","","","","","","","","",""
"800","
          <p id=""word"" style=""font-size: 40px;"">trim</p>
          <p style=""font-size: 16px;"">F = YES &nbsp;&nbsp;&nbsp; J = NO</p>
        ","f","html-keyboard-response","82","2.1.0","147022","F=YES, J=NO","qu8yam4hxw","1","75","85","65","","","","","","","","","trim","fence","filler","filler","f","true","",""
"null","<p style=""font-size: 50px;"">+</p>","null","html-keyboard-response","83","2.1.0","147335","F=YES, J=NO","qu8yam4hxw","1","75","85","65","","","","","","","","","","","","","","","",""
"null","audio/beep-329314.mp3","null","audio-keyboard-response","84","2.1.0","148862","F=YES, J=NO","qu8yam4hxw","1","75","85","65","","","","","","","","","","","","","","","",""
"null","audio/test1.wav","null","audio-keyboard-response","85","2.1.0","149442","F=YES, J=NO","qu8yam4hxw","1","75","85","65","","","","","","","","","","","","","","","",""
"781","
          <p id=""word"" style=""font-size: 40px;"">twopch</p>
          <p style=""font-size: 16px;"">F = YES &nbsp;&nbsp;&nbsp; J = NO</p>
        ","j","html-keyboard-response","86","2.1.0","150223","F=YES, J=NO","qu8yam4hxw","1","75","85","65","","","","","","","","","twopch","test1","pseudoword","pseudoword","j","true","",""
"null","<p style=""font-size: 50px;"">+</p>","null","html-keyboard-response","87","2.1.0","150538","F=YES, J=NO","qu8yam4hxw","1","75","85","65","","","","","","","","","","","","","","","",""
"null","audio/beep-329314.mp3","null","audio-keyboard-response","88","2.1.0","152062","F=YES, J=NO","qu8yam4hxw","1","75","85","65","","","","","","","","","","","","","","","",""
"null","audio/heart1.wav","null","audio-keyboard-response","89","2.1.0","152682","F=YES, J=NO","qu8yam4hxw","1","75","85","65","","","","","","","","","","","","","","","",""
"828","
          <p id=""word"" style=""font-size: 40px;"">dralm</p>
          <p style=""font-size: 16px;"">F = YES &nbsp;&nbsp;&nbsp; J = NO</p>
        ","j","html-keyboard-response","90","2.1.0","153510","F=YES, J=NO","qu8yam4hxw","1","75","85","65","","","","","","","","","dralm","heart1","pseudoword","pseudoword","j","true","",""
"null","<p style=""font-size: 50px;"">+</p>","null","html-keyboard-response","91","2.1.0","153823","F=YES, J=NO","qu8yam4hxw","1","75","85","65","","","","","","","","","","","","","","","",""
"null","audio/beep-329314.mp3","null","audio-keyboard-response","92","2.1.0","155362","F=YES, J=NO","qu8yam4hxw","1","75","85","65","","","","","","","","","","","","","","","",""
"null","audio/vehicle1.wav","null","audio-keyboard-response","93","2.1.0","156022","F=YES, J=NO","qu8yam4hxw","1","75","85","65","","","","","","","","","","","","","","","",""
"832","
          <p id=""word"" style=""font-size: 40px;"">dropt</p>
          <p style=""font-size: 16px;"">F = YES &nbsp;&nbsp;&nbsp; J = NO</p>
        ","j","html-keyboard-response","94","2.1.0","156855","F=YES, J=NO","qu8yam4hxw","1","75","85","65","","","","","","","","","dropt","vehicle1","pseudoword","pseudoword","j","true","",""
"null","<p style=""font-size: 50px;"">+</p>","null","html-keyboard-response","95","2.1.0","157168","F=YES, J=NO","qu8yam4hxw","1","75","85","65","","","","","","","","","","","","","","","",""
"null","audio/beep-329314.mp3","null","audio-keyboard-response","96","2.1.0","158702","F=YES, J=NO","qu8yam4hxw","1","75","85","65","","","","","","","","","","","","","","","",""
"null","audio/meal.wav","null","audio-keyboard-response","97","2.1.0","159162","F=YES, J=NO","qu8yam4hxw","1","75","85","65","","","","","","","","","","","","","","","",""
"780","
          <p id=""word"" style=""font-size: 40px;"">gallite</p>
          <p style=""font-size: 16px;"">F = YES &nbsp;&nbsp;&nbsp; J = NO</p>
        ","j","html-keyboard-response","98","2.1.0","159942","F=YES, J=NO","qu8yam4hxw","1","75","85","65","","","","","","","","","gallite","meal","pseudoword","pseudoword","j","true","",""
"null","<p style=""font-size: 50px;"">+</p>","null","html-keyboard-response","99","2.1.0","160251","F=YES, J=NO","qu8yam4hxw","1","75","85","65","","","","","","","","","","","","","","","",""
"null","audio/beep-329314.mp3","null","audio-keyboard-response","100","2.1.0","161782","F=YES, J=NO","qu8yam4hxw","1","75","85","65","","","","","","","","","","","","","","","",""
"null","audio/hawk1.wav","null","audio-keyboard-response","101","2.1.0","162382","F=YES, J=NO","qu8yam4hxw","1","75","85","65","","","","","","","","","","","","","","","",""
"696","
          <p id=""word"" style=""font-size: 40px;"">ostach</p>
          <p style=""font-size: 16px;"">F = YES &nbsp;&nbsp;&nbsp; J = NO</p>
        ","j","html-keyboard-response","102","2.1.0","163078","F=YES, J=NO","qu8yam4hxw","1","75","85","65","","","","","","","","","ostach","hawk1","pseudoword","pseudoword","j","true","",""
"null","<p style=""font-size: 50px;"">+</p>","null","html-keyboard-response","103","2.1.0","163392","F=YES, J=NO","qu8yam4hxw","1","75","85","65","","","","","","","","","","","","","","","",""
"null","audio/beep-329314.mp3","null","audio-keyboard-response","104","2.1.0","164922","F=YES, J=NO","qu8yam4hxw","1","75","85","65","","","","","","","","","","","","","","","",""
"null","audio/ankle1.wav","null","audio-keyboard-response","105","2.1.0","165442","F=YES, J=NO","qu8yam4hxw","1","75","85","65","","","","","","","","","","","","","","","",""
"596","
          <p id=""word"" style=""font-size: 40px;"">kick</p>
          <p style=""font-size: 16px;"">F = YES &nbsp;&nbsp;&nbsp; J = NO</p>
        ","f","html-keyboard-response","106","2.1.0","166039","F=YES, J=NO","qu8yam4hxw","1","75","85","65","","","","","","","","","kick","ankle1","filler","filler","f","true","",""
"null","<p style=""font-size: 50px;"">+</p>","null","html-keyboard-response","107","2.1.0","166347","F=YES, J=NO","qu8yam4hxw","1","75","85","65","","","","","","","","","","","","","","","",""
"null","audio/beep-329314.mp3","null","audio-keyboard-response","108","2.1.0","167882","F=YES, J=NO","qu8yam4hxw","1","75","85","65","","","","","","","","","","","","","","","",""
"null","audio/age1.wav","null","audio-keyboard-response","109","2.1.0","168422","F=YES, J=NO","qu8yam4hxw","1","75","85","65","","","","","","","","","","","","","","","",""
"576","
          <p id=""word"" style=""font-size: 40px;"">bake</p>
          <p style=""font-size: 16px;"">F = YES &nbsp;&nbsp;&nbsp; J = NO</p>
        ","f","html-keyboard-response","110","2.1.0","168998","F=YES, J=NO","qu8yam4hxw","1","75","85","65","","","","","","","","","bake","age1","filler","filler","f","true","",""
"null","<p style=""font-size: 50px;"">+</p>","null","html-keyboard-response","111","2.1.0","169299","F=YES, J=NO","qu8yam4hxw","1","75","85","65","","","","","","","","","","","","","","","",""
"null","audio/beep-329314.mp3","null","audio-keyboard-response","112","2.1.0","170822","F=YES, J=NO","qu8yam4hxw","1","75","85","65","","","","","","","","","","","","","","","",""
"null","audio/butter1.wav","null","audio-keyboard-response","113","2.1.0","171262","F=YES, J=NO","qu8yam4hxw","1","75","85","65","","","","","","","","","","","","","","","",""
"664","
          <p id=""word"" style=""font-size: 40px;"">chew</p>
          <p style=""font-size: 16px;"">F = YES &nbsp;&nbsp;&nbsp; J = NO</p>
        ","f","html-keyboard-response","114","2.1.0","171926","F=YES, J=NO","qu8yam4hxw","1","75","85","65","","","","","","","","","chew","butter1","filler","filler","f","true","",""
"1960","<p>Starting practice block 2 of 2. Press any key to continue.</p>"," ","html-keyboard-response","115","2.1.0","173886","F=YES, J=NO","qu8yam4hxw","1","75","85","65","","","","","","","","","","","","","","","",""
"null","<p style=""font-size: 50px;"">+</p>","null","html-keyboard-response","116","2.1.0","174201","F=YES, J=NO","qu8yam4hxw","1","75","85","65","","","","","","","","","","","","","","","",""
"null","audio/beep-329314.mp3","null","audio-keyboard-response","117","2.1.0","175722","F=YES, J=NO","qu8yam4hxw","1","75","85","65","","","","","","","","","","","","","","","",""
"null","audio/planet1.wav","null","audio-keyboard-response","118","2.1.0","176402","F=YES, J=NO","qu8yam4hxw","1","75","85","65","","","","","","","","","","","","","","","",""
"1020","
          <p id=""word"" style=""font-size: 40px;"">cratched</p>
          <p style=""font-size: 16px;"">F = YES &nbsp;&nbsp;&nbsp; J = NO</p>
        ","j","html-keyboard-response","119","2.1.0","177422","F=YES, J=NO","qu8yam4hxw","1","75","85","65","","","","","","","","","cratched","planet1","pseudoword","pseudoword","j","true","",""
"null","<p style=""font-size: 50px;"">+</p>","null","html-keyboard-response","120","2.1.0","177728","F=YES, J=NO","qu8yam4hxw","1","75","85","65","","","","","","","","","","","","","","","",""
"null","audio/beep-329314.mp3","null","audio-keyboard-response","121","2.1.0","179262","F=YES, J=NO","qu8yam4hxw","1","75","85","65","","","","","","","","","","","","","","","",""
"null","audio/mind.wav","null","audio-keyboard-response","122","2.1.0","179822","F=YES, J=NO","qu8yam4hxw","1","75","85","65","","","","","","","","","","","","","","","",""
"825","
          <p id=""word"" style=""font-size: 40px;"">crainate</p>
          <p style=""font-size: 16px;"">F = YES &nbsp;&nbsp;&nbsp; J = NO</p>
        ","j","html-keyboard-response","123","2.1.0","180647","F=YES, J=NO","qu8yam4hxw","1","75","85","65","","","","","","","","","crainate","mind","pseudoword","pseudoword","j","true","",""
"null","<p style=""font-size: 50px;"">+</p>","null","html-keyboard-response","124","2.1.0","180959","F=YES, J=NO","qu8yam4hxw","1","75","85","65","","","","","","","","","","","","","","","",""
"null","audio/beep-329314.mp3","null","audio-keyboard-response","125","2.1.0","182482","F=YES, J=NO","qu8yam4hxw","1","75","85","65","","","","","","","","","","","","","","","",""
"null","audio/bishop1.wav","null","audio-keyboard-response","126","2.1.0","183062","F=YES, J=NO","qu8yam4hxw","1","75","85","65","","","","","","","","","","","","","","","",""
"656","
          <p id=""word"" style=""font-size: 40px;"">play</p>
          <p style=""font-size: 16px;"">F = YES &nbsp;&nbsp;&nbsp; J = NO</p>
        ","f","html-keyboard-response","127","2.1.0","183718","F=YES, J=NO","qu8yam4hxw","1","75","85","65","","","","","","","","","play","bishop1","filler","filler","f","true","",""
"null","<p style=""font-size: 50px;"">+</p>","null","html-keyboard-response","128","2.1.0","184024","F=YES, J=NO","qu8yam4hxw","1","75","85","65","","","","","","","","","","","","","","","",""
"null","audio/beep-329314.mp3","null","audio-keyboard-response","129","2.1.0","185562","F=YES, J=NO","qu8yam4hxw","1","75","85","65","","","","","","","","","","","","","","","",""
"null","audio/theory1.wav","null","audio-keyboard-response","130","2.1.0","186202","F=YES, J=NO","qu8yam4hxw","1","75","85","65","","","","","","","","","","","","","","","",""
"756","
          <p id=""word"" style=""font-size: 40px;"">scolve</p>
          <p style=""font-size: 16px;"">F = YES &nbsp;&nbsp;&nbsp; J = NO</p>
        ","f","html-keyboard-response","131","2.1.0","186958","F=YES, J=NO","qu8yam4hxw","1","75","85","65","","","","","","","","","scolve","theory1","pseudoword","pseudoword","j","false","",""
"null","<p style=""font-size: 50px;"">+</p>","null","html-keyboard-response","132","2.1.0","187259","F=YES, J=NO","qu8yam4hxw","1","75","85","65","","","","","","","","","","","","","","","",""
"null","audio/beep-329314.mp3","null","audio-keyboard-response","133","2.1.0","188782","F=YES, J=NO","qu8yam4hxw","1","75","85","65","","","","","","","","","","","","","","","",""
"null","audio/bomb1.wav","null","audio-keyboard-response","134","2.1.0","189182","F=YES, J=NO","qu8yam4hxw","1","75","85","65","","","","","","","","","","","","","","","",""
"496","
          <p id=""word"" style=""font-size: 40px;"">clean</p>
          <p style=""font-size: 16px;"">F = YES &nbsp;&nbsp;&nbsp; J = NO</p>
        ","f","html-keyboard-response","135","2.1.0","189678","F=YES, J=NO","qu8yam4hxw","1","75","85","65","","","","","","","","","clean","bomb1","filler","filler","f","true","",""
"null","<p style=""font-size: 50px;"">+</p>","null","html-keyboard-response","136","2.1.0","189987","F=YES, J=NO","qu8yam4hxw","1","75","85","65","","","","","","","","","","","","","","","",""
"null","audio/beep-329314.mp3","null","audio-keyboard-response","137","2.1.0","191522","F=YES, J=NO","qu8yam4hxw","1","75","85","65","","","","","","","","","","","","","","","",""
"null","audio/effort.wav","null","audio-keyboard-response","138","2.1.0","192102","F=YES, J=NO","qu8yam4hxw","1","75","85","65","","","","","","","","","","","","","","","",""
"1008","
          <p id=""word"" style=""font-size: 40px;"">whonk</p>
          <p style=""font-size: 16px;"">F = YES &nbsp;&nbsp;&nbsp; J = NO</p>
        ","j","html-keyboard-response","139","2.1.0","193111","F=YES, J=NO","qu8yam4hxw","1","75","85","65","","","","","","","","","whonk","effort","pseudoword","pseudoword","j","true","",""
"null","<p style=""font-size: 50px;"">+</p>","null","html-keyboard-response","140","2.1.0","193423","F=YES, J=NO","qu8yam4hxw","1","75","85","65","","","","","","","","","","","","","","","",""
"null","audio/beep-329314.mp3","null","audio-keyboard-response","141","2.1.0","194962","F=YES, J=NO","qu8yam4hxw","1","75","85","65","","","","","","","","","","","","","","","",""
"null","audio/cancer1.wav","null","audio-keyboard-response","142","2.1.0","195502","F=YES, J=NO","qu8yam4hxw","1","75","85","65","","","","","","","","","","","","","","","",""
"456","
          <p id=""word"" style=""font-size: 40px;"">draw</p>
          <p style=""font-size: 16px;"">F = YES &nbsp;&nbsp;&nbsp; J = NO</p>
        ","f","html-keyboard-response","143","2.1.0","195958","F=YES, J=NO","qu8yam4hxw","1","75","85","65","","","","","","","","","draw","cancer1","filler","filler","f","true","",""
"null","<p style=""font-size: 50px;"">+</p>","null","html-keyboard-response","144","2.1.0","196272","F=YES, J=NO","qu8yam4hxw","1","75","85","65","","","","","","","","","","","","","","","",""
"null","audio/beep-329314.mp3","null","audio-keyboard-response","145","2.1.0","197802","F=YES, J=NO","qu8yam4hxw","1","75","85","65","","","","","","","","","","","","","","","",""
"null","audio/novel.wav","null","audio-keyboard-response","146","2.1.0","198302","F=YES, J=NO","qu8yam4hxw","1","75","85","65","","","","","","","","","","","","","","","",""
"512","
          <p id=""word"" style=""font-size: 40px;"">type</p>
          <p style=""font-size: 16px;"">F = YES &nbsp;&nbsp;&nbsp; J = NO</p>
        ","f","html-keyboard-response","147","2.1.0","198814","F=YES, J=NO","qu8yam4hxw","1","75","85","65","","","","","","","","","type","novel","filler","filler","f","true","",""
"null","<p style=""font-size: 50px;"">+</p>","null","html-keyboard-response","148","2.1.0","199120","F=YES, J=NO","qu8yam4hxw","1","75","85","65","","","","","","","","","","","","","","","",""
"null","audio/beep-329314.mp3","null","audio-keyboard-response","149","2.1.0","200642","F=YES, J=NO","qu8yam4hxw","1","75","85","65","","","","","","","","","","","","","","","",""
"null","audio/gift1.wav","null","audio-keyboard-response","150","2.1.0","201102","F=YES, J=NO","qu8yam4hxw","1","75","85","65","","","","","","","","","","","","","","","",""
"736","
          <p id=""word"" style=""font-size: 40px;"">protsh</p>
          <p style=""font-size: 16px;"">F = YES &nbsp;&nbsp;&nbsp; J = NO</p>
        ","j","html-keyboard-response","151","2.1.0","201838","F=YES, J=NO","qu8yam4hxw","1","75","85","65","","","","","","","","","protsh","gift1","pseudoword","pseudoword","j","true","",""
"null","<p style=""font-size: 50px;"">+</p>","null","html-keyboard-response","152","2.1.0","202152","F=YES, J=NO","qu8yam4hxw","1","75","85","65","","","","","","","","","","","","","","","",""
"null","audio/beep-329314.mp3","null","audio-keyboard-response","153","2.1.0","203682","F=YES, J=NO","qu8yam4hxw","1","75","85","65","","","","","","","","","","","","","","","",""
"null","audio/account1.wav","null","audio-keyboard-response","154","2.1.0","204382","F=YES, J=NO","qu8yam4hxw","1","75","85","65","","","","","","","","","","","","","","","",""
"520","
          <p id=""word"" style=""font-size: 40px;"">paint</p>
          <p style=""font-size: 16px;"">F = YES &nbsp;&nbsp;&nbsp; J = NO</p>
        ","f","html-keyboard-response","155","2.1.0","204902","F=YES, J=NO","qu8yam4hxw","1","75","85","65","","","","","","","","","paint","account1","filler","filler","f","true","",""
"null","<p style=""font-size: 50px;"">+</p>","null","html-keyboard-response","156","2.1.0","205218","F=YES, J=NO","qu8yam4hxw","1","75","85","65","","","","","","","","","","","","","","","",""
"null","audio/beep-329314.mp3","null","audio-keyboard-response","157","2.1.0","206742","F=YES, J=NO","qu8yam4hxw","1","75","85","65","","","","","","","","","","","","","","","",""
"null","audio/menu.wav","null","audio-keyboard-response","158","2.1.0","207302","F=YES, J=NO","qu8yam4hxw","1","75","85","65","","","","","","","","","","","","","","","",""
"616","
          <p id=""word"" style=""font-size: 40px;"">slice</p>
          <p style=""font-size: 16px;"">F = YES &nbsp;&nbsp;&nbsp; J = NO</p>
        ","f","html-keyboard-response","159","2.1.0","207918","F=YES, J=NO","qu8yam4hxw","1","75","85","65","","","","","","","","","slice","menu","filler","filler","f","true","",""
"null","<p style=""font-size: 50px;"">+</p>","null","html-keyboard-response","160","2.1.0","208231","F=YES, J=NO","qu8yam4hxw","1","75","85","65","","","","","","","","","","","","","","","",""
"null","audio/beep-329314.mp3","null","audio-keyboard-response","161","2.1.0","209762","F=YES, J=NO","qu8yam4hxw","1","75","85","65","","","","","","","","","","","","","","","",""
"null","audio/foe1.wav","null","audio-keyboard-response","162","2.1.0","210282","F=YES, J=NO","qu8yam4hxw","1","75","85","65","","","","","","","","","","","","","","","",""
"644","
          <p id=""word"" style=""font-size: 40px;"">creth</p>
          <p style=""font-size: 16px;"">F = YES &nbsp;&nbsp;&nbsp; J = NO</p>
        ","j","html-keyboard-response","163","2.1.0","210926","F=YES, J=NO","qu8yam4hxw","1","75","85","65","","","","","","","","","creth","foe1","pseudoword","pseudoword","j","true","",""
"3640","
    <div style=""max-width: 800px; margin: auto; text-align: left;"">
      <h2>Part 2: Main Trials</h2>
      <p>Great job on the practice trials!</p>
      <p>You will now begin the <strong>main set of trials</strong>.</p>
      <p>Remember your key assignments:</p>
      <ul>
        <li><strong>F</strong> = YES (real English word)</li>
        <li><strong>J</strong> = NO (not a real English word)</li>
      </ul>
      <p>Try to respond as <strong>quickly and accurately</strong> as possible.</p>
      <p style=""margin-top: 2em;"">Press any key to begin the main trials.</p>
    </div>
  "," ","html-keyboard-response","164","2.1.0","214566","F=YES, J=NO","qu8yam4hxw","1","75","85","65","","","","","","","","","","","","","","","",""
"1592","<p>Starting main block 1 of 8. Press any key to continue.</p>"," ","html-keyboard-response","165","2.1.0","216159","F=YES, J=NO","qu8yam4hxw","1","75","85","65","","","","","","","","","","","","","","","",""
"null","<p style=""font-size: 50px;"">+</p>","null","html-keyboard-response","166","2.1.0","216468","F=YES, J=NO","qu8yam4hxw","1","75","85","65","","","","","","","","","","","","","","","",""
"null","audio/beep-329314.mp3","null","audio-keyboard-response","167","2.1.0","218002","F=YES, J=NO","qu8yam4hxw","1","75","85","65","","","","","","","","","","","","","","","",""
"null","audio/grass.wav","null","audio-keyboard-response","168","2.1.0","218762","F=YES, J=NO","qu8yam4hxw","1","75","85","65","","","","","","","","","","","","","","","",""
"772","
          <p id=""word"" style=""font-size: 40px;"">milames</p>
          <p style=""font-size: 16px;"">F = YES &nbsp;&nbsp;&nbsp; J = NO</p>
        ","j","html-keyboard-response","169","2.1.0","219534","F=YES, J=NO","qu8yam4hxw","1","75","85","65","","","","","","","","","milames","grass","pseudoword","pseudoword","j","true","",""
"null","<p style=""font-size: 50px;"">+</p>","null","html-keyboard-response","170","2.1.0","219849","F=YES, J=NO","qu8yam4hxw","1","75","85","65","","","","","","","","","","","","","","","",""
"null","audio/beep-329314.mp3","null","audio-keyboard-response","171","2.1.0","221382","F=YES, J=NO","qu8yam4hxw","1","75","85","65","","","","","","","","","","","","","","","",""
"null","audio/baby.wav","null","audio-keyboard-response","172","2.1.0","221842","F=YES, J=NO","qu8yam4hxw","1","75","85","65","","","","","","","","","","","","","","","",""
"596","
          <p id=""word"" style=""font-size: 40px;"">lift</p>
          <p style=""font-size: 16px;"">F = YES &nbsp;&nbsp;&nbsp; J = NO</p>
        ","f","html-keyboard-response","173","2.1.0","222438","F=YES, J=NO","qu8yam4hxw","1","75","85","65","","","","","","","","","lift","baby","filler","filler","f","true","",""
"null","<p style=""font-size: 50px;"">+</p>","null","html-keyboard-response","174","2.1.0","222747","F=YES, J=NO","qu8yam4hxw","1","75","85","65","","","","","","","","","","","","","","","",""
"null","audio/beep-329314.mp3","null","audio-keyboard-response","175","2.1.0","224282","F=YES, J=NO","qu8yam4hxw","1","75","85","65","","","","","","","","","","","","","","","",""
"null","audio/van1.wav","null","audio-keyboard-response","176","2.1.0","224762","F=YES, J=NO","qu8yam4hxw","1","75","85","65","","","","","","","","","","","","","","","",""
"524","
          <p id=""word"" style=""font-size: 40px;"">support</p>
          <p style=""font-size: 16px;"">F = YES &nbsp;&nbsp;&nbsp; J = NO</p>
        ","f","html-keyboard-response","177","2.1.0","225286","F=YES, J=NO","qu8yam4hxw","1","75","85","65","","","","","","","","","support","van1","unrelated","experimental","f","true","",""
"null","<p style=""font-size: 50px;"">+</p>","null","html-keyboard-response","178","2.1.0","225591","F=YES, J=NO","qu8yam4hxw","1","75","85","65","","","","","","","","","","","","","","","",""
"null","audio/beep-329314.mp3","null","audio-keyboard-response","179","2.1.0","227122","F=YES, J=NO","qu8yam4hxw","1","75","85","65","","","","","","","","","","","","","","","",""
"null","audio/budget1.wav","null","audio-keyboard-response","180","2.1.0","227742","F=YES, J=NO","qu8yam4hxw","1","75","85","65","","","","","","","","","","","","","","","",""
"664","
          <p id=""word"" style=""font-size: 40px;"">sulist</p>
          <p style=""font-size: 16px;"">F = YES &nbsp;&nbsp;&nbsp; J = NO</p>
        ","j","html-keyboard-response","181","2.1.0","228407","F=YES, J=NO","qu8yam4hxw","1","75","85","65","","","","","","","","","sulist","budget1","pseudoword","pseudoword","j","true","",""
"null","<p style=""font-size: 50px;"">+</p>","null","html-keyboard-response","182","2.1.0","228718","F=YES, J=NO","qu8yam4hxw","1","75","85","65","","","","","","","","","","","","","","","",""
"null","audio/beep-329314.mp3","null","audio-keyboard-response","183","2.1.0","230242","F=YES, J=NO","qu8yam4hxw","1","75","85","65","","","","","","","","","","","","","","","",""
"null","audio/scar.wav","null","audio-keyboard-response","184","2.1.0","230822","F=YES, J=NO","qu8yam4hxw","1","75","85","65","","","","","","","","","","","","","","","",""
"568","
          <p id=""word"" style=""font-size: 40px;"">hide</p>
          <p style=""font-size: 16px;"">F = YES &nbsp;&nbsp;&nbsp; J = NO</p>
        ","f","html-keyboard-response","185","2.1.0","231390","F=YES, J=NO","qu8yam4hxw","1","75","85","65","","","","","","","","","hide","scar","literal","experimental","f","true","",""
"null","<p style=""font-size: 50px;"">+</p>","null","html-keyboard-response","186","2.1.0","231701","F=YES, J=NO","qu8yam4hxw","1","75","85","65","","","","","","","","","","","","","","","",""
"null","audio/beep-329314.mp3","null","audio-keyboard-response","187","2.1.0","233222","F=YES, J=NO","qu8yam4hxw","1","75","85","65","","","","","","","","","","","","","","","",""
"null","audio/battle1.wav","null","audio-keyboard-response","188","2.1.0","233802","F=YES, J=NO","qu8yam4hxw","1","75","85","65","","","","","","","","","","","","","","","",""
"532","
          <p id=""word"" style=""font-size: 40px;"">boil</p>
          <p style=""font-size: 16px;"">F = YES &nbsp;&nbsp;&nbsp; J = NO</p>
        ","f","html-keyboard-response","189","2.1.0","234334","F=YES, J=NO","qu8yam4hxw","1","75","85","65","","","","","","","","","boil","battle1","filler","filler","f","true","",""
"null","<p style=""font-size: 50px;"">+</p>","null","html-keyboard-response","190","2.1.0","234641","F=YES, J=NO","qu8yam4hxw","1","75","85","65","","","","","","","","","","","","","","","",""
"null","audio/beep-329314.mp3","null","audio-keyboard-response","191","2.1.0","236162","F=YES, J=NO","qu8yam4hxw","1","75","85","65","","","","","","","","","","","","","","","",""
"null","audio/cash1.wav","null","audio-keyboard-response","192","2.1.0","236722","F=YES, J=NO","qu8yam4hxw","1","75","85","65","","","","","","","","","","","","","","","",""
"660","
          <p id=""word"" style=""font-size: 40px;"">splear</p>
          <p style=""font-size: 16px;"">F = YES &nbsp;&nbsp;&nbsp; J = NO</p>
        ","j","html-keyboard-response","193","2.1.0","237382","F=YES, J=NO","qu8yam4hxw","1","75","85","65","","","","","","","","","splear","cash1","pseudoword","pseudoword","j","true","",""
"null","<p style=""font-size: 50px;"">+</p>","null","html-keyboard-response","194","2.1.0","237694","F=YES, J=NO","qu8yam4hxw","1","75","85","65","","","","","","","","","","","","","","","",""
"null","audio/beep-329314.mp3","null","audio-keyboard-response","195","2.1.0","239222","F=YES, J=NO","qu8yam4hxw","1","75","85","65","","","","","","","","","","","","","","","",""
"null","audio/winter.wav","null","audio-keyboard-response","196","2.1.0","239902","F=YES, J=NO","qu8yam4hxw","1","75","85","65","","","","","","","","","","","","","","","",""
"840","
          <p id=""word"" style=""font-size: 40px;"">straven</p>
          <p style=""font-size: 16px;"">F = YES &nbsp;&nbsp;&nbsp; J = NO</p>
        ","f","html-keyboard-response","197","2.1.0","240743","F=YES, J=NO","qu8yam4hxw","1","75","85","65","","","","","","","","","straven","winter","pseudoword","pseudoword","j","false","",""
"null","<p style=""font-size: 50px;"">+</p>","null","html-keyboard-response","198","2.1.0","241043","F=YES, J=NO","qu8yam4hxw","1","75","85","65","","","","","","","","","","","","","","","",""
"null","audio/beep-329314.mp3","null","audio-keyboard-response","199","2.1.0","242582","F=YES, J=NO","qu8yam4hxw","1","75","85","65","","","","","","","","","","","","","","","",""
"null","audio/wealth1.wav","null","audio-keyboard-response","200","2.1.0","243142","F=YES, J=NO","qu8yam4hxw","1","75","85","65","","","","","","","","","","","","","","","",""
"616","
          <p id=""word"" style=""font-size: 40px;"">possess</p>
          <p style=""font-size: 16px;"">F = YES &nbsp;&nbsp;&nbsp; J = NO</p>
        ","f","html-keyboard-response","201","2.1.0","243758","F=YES, J=NO","qu8yam4hxw","1","75","85","65","","","","","","","","","possess","wealth1","literal","experimental","f","true","",""
"null","<p style=""font-size: 50px;"">+</p>","null","html-keyboard-response","202","2.1.0","244059","F=YES, J=NO","qu8yam4hxw","1","75","85","65","","","","","","","","","","","","","","","",""
"null","audio/beep-329314.mp3","null","audio-keyboard-response","203","2.1.0","245582","F=YES, J=NO","qu8yam4hxw","1","75","85","65","","","","","","","","","","","","","","","",""
"null","audio/strength.wav","null","audio-keyboard-response","204","2.1.0","246302","F=YES, J=NO","qu8yam4hxw","1","75","85","65","","","","","","","","","","","","","","","",""
"729","
          <p id=""word"" style=""font-size: 40px;"">plabet</p>
          <p style=""font-size: 16px;"">F = YES &nbsp;&nbsp;&nbsp; J = NO</p>
        ","j","html-keyboard-response","205","2.1.0","247032","F=YES, J=NO","qu8yam4hxw","1","75","85","65","","","","","","","","","plabet","strength","pseudoword","pseudoword","j","true","",""
"null","<p style=""font-size: 50px;"">+</p>","null","html-keyboard-response","206","2.1.0","247345","F=YES, J=NO","qu8yam4hxw","1","75","85","65","","","","","","","","","","","","","","","",""
"null","audio/beep-329314.mp3","null","audio-keyboard-response","207","2.1.0","248882","F=YES, J=NO","qu8yam4hxw","1","75","85","65","","","","","","","","","","","","","","","",""
"null","audio/foot1.wav","null","audio-keyboard-response","208","2.1.0","249442","F=YES, J=NO","qu8yam4hxw","1","75","85","65","","","","","","","","","","","","","","","",""
"780","
          <p id=""word"" style=""font-size: 40px;"">thrutt</p>
          <p style=""font-size: 16px;"">F = YES &nbsp;&nbsp;&nbsp; J = NO</p>
        ","j","html-keyboard-response","209","2.1.0","250222","F=YES, J=NO","qu8yam4hxw","1","75","85","65","","","","","","","","","thrutt","foot1","pseudoword","pseudoword","j","true","",""
"null","<p style=""font-size: 50px;"">+</p>","null","html-keyboard-response","210","2.1.0","250536","F=YES, J=NO","qu8yam4hxw","1","75","85","65","","","","","","","","","","","","","","","",""
"null","audio/beep-329314.mp3","null","audio-keyboard-response","211","2.1.0","252062","F=YES, J=NO","qu8yam4hxw","1","75","85","65","","","","","","","","","","","","","","","",""
"null","audio/heart1.wav","null","audio-keyboard-response","212","2.1.0","252682","F=YES, J=NO","qu8yam4hxw","1","75","85","65","","","","","","","","","","","","","","","",""
"596","
          <p id=""word"" style=""font-size: 40px;"">touch</p>
          <p style=""font-size: 16px;"">F = YES &nbsp;&nbsp;&nbsp; J = NO</p>
        ","f","html-keyboard-response","213","2.1.0","253279","F=YES, J=NO","qu8yam4hxw","1","75","85","65","","","","","","","","","touch","heart1","metaphor","experimental","f","true","",""
"null","<p style=""font-size: 50px;"">+</p>","null","html-keyboard-response","214","2.1.0","253584","F=YES, J=NO","qu8yam4hxw","1","75","85","65","","","","","","","","","","","","","","","",""
"null","audio/beep-329314.mp3","null","audio-keyboard-response","215","2.1.0","255122","F=YES, J=NO","qu8yam4hxw","1","75","85","65","","","","","","","","","","","","","","","",""
"null","audio/purpose.wav","null","audio-keyboard-response","216","2.1.0","255782","F=YES, J=NO","qu8yam4hxw","1","75","85","65","","","","","","","","","","","","","","","",""
"472","
          <p id=""word"" style=""font-size: 40px;"">defeat</p>
          <p style=""font-size: 16px;"">F = YES &nbsp;&nbsp;&nbsp; J = NO</p>
        ","f","html-keyboard-response","217","2.1.0","256255","F=YES, J=NO","qu8yam4hxw","1","75","85","65","","","","","","","","","defeat","purpose","metaphor","experimental","f","true","",""
"null","<p style=""font-size: 50px;"">+</p>","null","html-keyboard-response","218","2.1.0","256555","F=YES, J=NO","qu8yam4hxw","1","75","85","65","","","","","","","","","","","","","","","",""
"null","audio/beep-329314.mp3","null","audio-keyboard-response","219","2.1.0","258082","F=YES, J=NO","qu8yam4hxw","1","75","85","65","","","","","","","","","","","","","","","",""
"null","audio/promise1.wav","null","audio-keyboard-response","220","2.1.0","258702","F=YES, J=NO","qu8yam4hxw","1","75","85","65","","","","","","","","","","","","","","","",""
"384","
          <p id=""word"" style=""font-size: 40px;"">break</p>
          <p style=""font-size: 16px;"">F = YES &nbsp;&nbsp;&nbsp; J = NO</p>
        ","f","html-keyboard-response","221","2.1.0","259086","F=YES, J=NO","qu8yam4hxw","1","75","85","65","","","","","","","","","break","promise1","metaphor","experimental","f","true","",""
"null","<p style=""font-size: 50px;"">+</p>","null","html-keyboard-response","222","2.1.0","259392","F=YES, J=NO","qu8yam4hxw","1","75","85","65","","","","","","","","","","","","","","","",""
"null","audio/beep-329314.mp3","null","audio-keyboard-response","223","2.1.0","260922","F=YES, J=NO","qu8yam4hxw","1","75","85","65","","","","","","","","","","","","","","","",""
"null","audio/dollar.wav","null","audio-keyboard-response","224","2.1.0","261302","F=YES, J=NO","qu8yam4hxw","1","75","85","65","","","","","","","","","","","","","","","",""
"968","
          <p id=""word"" style=""font-size: 40px;"">gliptism</p>
          <p style=""font-size: 16px;"">F = YES &nbsp;&nbsp;&nbsp; J = NO</p>
        ","j","html-keyboard-response","225","2.1.0","262271","F=YES, J=NO","qu8yam4hxw","1","75","85","65","","","","","","","","","gliptism","dollar","pseudoword","pseudoword","j","true","",""
"null","<p style=""font-size: 50px;"">+</p>","null","html-keyboard-response","226","2.1.0","262582","F=YES, J=NO","qu8yam4hxw","1","75","85","65","","","","","","","","","","","","","","","",""
"null","audio/beep-329314.mp3","null","audio-keyboard-response","227","2.1.0","264122","F=YES, J=NO","qu8yam4hxw","1","75","85","65","","","","","","","","","","","","","","","",""
"null","audio/ship.wav","null","audio-keyboard-response","228","2.1.0","264662","F=YES, J=NO","qu8yam4hxw","1","75","85","65","","","","","","","","","","","","","","","",""
"481","
          <p id=""word"" style=""font-size: 40px;"">scrap</p>
          <p style=""font-size: 16px;"">F = YES &nbsp;&nbsp;&nbsp; J = NO</p>
        ","f","html-keyboard-response","229","2.1.0","265143","F=YES, J=NO","qu8yam4hxw","1","75","85","65","","","","","","","","","scrap","ship","literal","experimental","f","true","",""
"1943","<p>Excellent! You have finished block 1 of 8.</p>
                     <p>Feel free to take a 30 second break.</p>
                     <p>Press any key when you're ready to continue.</p>"," ","html-keyboard-response","230","2.1.0","267086","F=YES, J=NO","qu8yam4hxw","1","75","85","65","","","","","","","","","","","","","","","",""
"1856","<p>Starting main block 2 of 8. Press any key to continue.</p>","f","html-keyboard-response","231","2.1.0","268942","F=YES, J=NO","qu8yam4hxw","1","75","85","65","","","","","","","","","","","","","","","",""
"null","<p style=""font-size: 50px;"">+</p>","null","html-keyboard-response","232","2.1.0","269253","F=YES, J=NO","qu8yam4hxw","1","75","85","65","","","","","","","","","","","","","","","",""
"null","audio/beep-329314.mp3","null","audio-keyboard-response","233","2.1.0","270782","F=YES, J=NO","qu8yam4hxw","1","75","85","65","","","","","","","","","","","","","","","",""
"null","audio/fence.wav","null","audio-keyboard-response","234","2.1.0","271422","F=YES, J=NO","qu8yam4hxw","1","75","85","65","","","","","","","","","","","","","","","",""
"512","
          <p id=""word"" style=""font-size: 40px;"">climb</p>
          <p style=""font-size: 16px;"">F = YES &nbsp;&nbsp;&nbsp; J = NO</p>
        ","f","html-keyboard-response","235","2.1.0","271934","F=YES, J=NO","qu8yam4hxw","1","75","85","65","","","","","","","","","climb","fence","literal","experimental","f","true","",""
"null","<p style=""font-size: 50px;"">+</p>","null","html-keyboard-response","236","2.1.0","272244","F=YES, J=NO","qu8yam4hxw","1","75","85","65","","","","","","","","","","","","","","","",""
"null","audio/beep-329314.mp3","null","audio-keyboard-response","237","2.1.0","273782","F=YES, J=NO","qu8yam4hxw","1","75","85","65","","","","","","","","","","","","","","","",""
"null","audio/topic.wav","null","audio-keyboard-response","238","2.1.0","274462","F=YES, J=NO","qu8yam4hxw","1","75","85","65","","","","","","","","","","","","","","","",""
"544","
          <p id=""word"" style=""font-size: 40px;"">approach</p>
          <p style=""font-size: 16px;"">F = YES &nbsp;&nbsp;&nbsp; J = NO</p>
        ","f","html-keyboard-response","239","2.1.0","275006","F=YES, J=NO","qu8yam4hxw","1","75","85","65","","","","","","","","","approach","topic","metaphor","experimental","f","true","",""
"null","<p style=""font-size: 50px;"">+</p>","null","html-keyboard-response","240","2.1.0","275308","F=YES, J=NO","qu8yam4hxw","1","75","85","65","","","","","","","","","","","","","","","",""
"null","audio/beep-329314.mp3","null","audio-keyboard-response","241","2.1.0","276842","F=YES, J=NO","qu8yam4hxw","1","75","85","65","","","","","","","","","","","","","","","",""
"null","audio/purpose.wav","null","audio-keyboard-response","242","2.1.0","277502","F=YES, J=NO","qu8yam4hxw","1","75","85","65","","","","","","","","","","","","","","","",""
"640","
          <p id=""word"" style=""font-size: 40px;"">whigm</p>
          <p style=""font-size: 16px;"">F = YES &nbsp;&nbsp;&nbsp; J = NO</p>
        ","j","html-keyboard-response","243","2.1.0","278143","F=YES, J=NO","qu8yam4hxw","1","75","85","65","","","","","","","","","whigm","purpose","pseudoword","pseudoword","j","true","",""
"null","<p style=""font-size: 50px;"">+</p>","null","html-keyboard-response","244","2.1.0","278458","F=YES, J=NO","qu8yam4hxw","1","75","85","65","","","","","","","","","","","","","","","",""
"null","audio/beep-329314.mp3","null","audio-keyboard-response","245","2.1.0","279982","F=YES, J=NO","qu8yam4hxw","1","75","85","65","","","","","","","","","","","","","","","",""
"null","audio/weapon.wav","null","audio-keyboard-response","246","2.1.0","280662","F=YES, J=NO","qu8yam4hxw","1","75","85","65","","","","","","","","","","","","","","","",""
"432","
          <p id=""word"" style=""font-size: 40px;"">carry</p>
          <p style=""font-size: 16px;"">F = YES &nbsp;&nbsp;&nbsp; J = NO</p>
        ","f","html-keyboard-response","247","2.1.0","281094","F=YES, J=NO","qu8yam4hxw","1","75","85","65","","","","","","","","","carry","weapon","literal","experimental","f","true","",""
"null","<p style=""font-size: 50px;"">+</p>","null","html-keyboard-response","248","2.1.0","281398","F=YES, J=NO","qu8yam4hxw","1","75","85","65","","","","","","","","","","","","","","","",""
"null","audio/beep-329314.mp3","null","audio-keyboard-response","249","2.1.0","282922","F=YES, J=NO","qu8yam4hxw","1","75","85","65","","","","","","","","","","","","","","","",""
"null","audio/alarm1.wav","null","audio-keyboard-response","250","2.1.0","283502","F=YES, J=NO","qu8yam4hxw","1","75","85","65","","","","","","","","","","","","","","","",""
"488","
          <p id=""word"" style=""font-size: 40px;"">lock</p>
          <p style=""font-size: 16px;"">F = YES &nbsp;&nbsp;&nbsp; J = NO</p>
        ","f","html-keyboard-response","251","2.1.0","283990","F=YES, J=NO","qu8yam4hxw","1","75","85","65","","","","","","","","","lock","alarm1","filler","filler","f","true","",""
"null","<p style=""font-size: 50px;"">+</p>","null","html-keyboard-response","252","2.1.0","284305","F=YES, J=NO","qu8yam4hxw","1","75","85","65","","","","","","","","","","","","","","","",""
"null","audio/beep-329314.mp3","null","audio-keyboard-response","253","2.1.0","285842","F=YES, J=NO","qu8yam4hxw","1","75","85","65","","","","","","","","","","","","","","","",""
"null","audio/gossip1.wav","null","audio-keyboard-response","254","2.1.0","286462","F=YES, J=NO","qu8yam4hxw","1","75","85","65","","","","","","","","","","","","","","","",""
"688","
          <p id=""word"" style=""font-size: 40px;"">camerish</p>
          <p style=""font-size: 16px;"">F = YES &nbsp;&nbsp;&nbsp; J = NO</p>
        ","j","html-keyboard-response","255","2.1.0","287150","F=YES, J=NO","qu8yam4hxw","1","75","85","65","","","","","","","","","camerish","gossip1","pseudoword","pseudoword","j","true","",""
"null","<p style=""font-size: 50px;"">+</p>","null","html-keyboard-response","256","2.1.0","287465","F=YES, J=NO","qu8yam4hxw","1","75","85","65","","","","","","","","","","","","","","","",""
"null","audio/beep-329314.mp3","null","audio-keyboard-response","257","2.1.0","289002","F=YES, J=NO","qu8yam4hxw","1","75","85","65","","","","","","","","","","","","","","","",""
"null","audio/empire.wav","null","audio-keyboard-response","258","2.1.0","289622","F=YES, J=NO","qu8yam4hxw","1","75","85","65","","","","","","","","","","","","","","","",""
"506","
          <p id=""word"" style=""font-size: 40px;"">bring</p>
          <p style=""font-size: 16px;"">F = YES &nbsp;&nbsp;&nbsp; J = NO</p>
        ","f","html-keyboard-response","259","2.1.0","290128","F=YES, J=NO","qu8yam4hxw","1","75","85","65","","","","","","","","","bring","empire","unrelated","experimental","f","true","",""
"null","<p style=""font-size: 50px;"">+</p>","null","html-keyboard-response","260","2.1.0","290435","F=YES, J=NO","qu8yam4hxw","1","75","85","65","","","","","","","","","","","","","","","",""
"null","audio/beep-329314.mp3","null","audio-keyboard-response","261","2.1.0","291962","F=YES, J=NO","qu8yam4hxw","1","75","85","65","","","","","","","","","","","","","","","",""
"null","audio/weight1.wav","null","audio-keyboard-response","262","2.1.0","292482","F=YES, J=NO","qu8yam4hxw","1","75","85","65","","","","","","","","","","","","","","","",""
"748","
          <p id=""word"" style=""font-size: 40px;"">crimsh</p>
          <p style=""font-size: 16px;"">F = YES &nbsp;&nbsp;&nbsp; J = NO</p>
        ","j","html-keyboard-response","263","2.1.0","293231","F=YES, J=NO","qu8yam4hxw","1","75","85","65","","","","","","","","","crimsh","weight1","pseudoword","pseudoword","j","true","",""
"null","<p style=""font-size: 50px;"">+</p>","null","html-keyboard-response","264","2.1.0","293534","F=YES, J=NO","qu8yam4hxw","1","75","85","65","","","","","","","","","","","","","","","",""
"null","audio/beep-329314.mp3","null","audio-keyboard-response","265","2.1.0","295062","F=YES, J=NO","qu8yam4hxw","1","75","85","65","","","","","","","","","","","","","","","",""
"null","audio/desire.wav","null","audio-keyboard-response","266","2.1.0","295682","F=YES, J=NO","qu8yam4hxw","1","75","85","65","","","","","","","","","","","","","","","",""
"852","
          <p id=""word"" style=""font-size: 40px;"">nophed</p>
          <p style=""font-size: 16px;"">F = YES &nbsp;&nbsp;&nbsp; J = NO</p>
        ","j","html-keyboard-response","267","2.1.0","296534","F=YES, J=NO","qu8yam4hxw","1","75","85","65","","","","","","","","","nophed","desire","pseudoword","pseudoword","j","true","",""
"null","<p style=""font-size: 50px;"">+</p>","null","html-keyboard-response","268","2.1.0","296850","F=YES, J=NO","qu8yam4hxw","1","75","85","65","","","","","","","","","","","","","","","",""
"null","audio/beep-329314.mp3","null","audio-keyboard-response","269","2.1.0","298382","F=YES, J=NO","qu8yam4hxw","1","75","85","65","","","","","","","","","","","","","","","",""
"null","audio/flaw.wav","null","audio-keyboard-response","270","2.1.0","299002","F=YES, J=NO","qu8yam4hxw","1","75","85","65","","","","","","","","","","","","","","","",""
"964","
          <p id=""word"" style=""font-size: 40px;"">thwool</p>
          <p style=""font-size: 16px;"">F = YES &nbsp;&nbsp;&nbsp; J = NO</p>
        ","j","html-keyboard-response","271","2.1.0","299967","F=YES, J=NO","qu8yam4hxw","1","75","85","65","","","","","","","","","thwool","flaw","pseudoword","pseudoword","j","true","",""
"null","<p style=""font-size: 50px;"">+</p>","null","html-keyboard-response","272","2.1.0","300280","F=YES, J=NO","qu8yam4hxw","1","75","85","65","","","","","","","","","","","","","","","",""
"null","audio/beep-329314.mp3","null","audio-keyboard-response","273","2.1.0","301802","F=YES, J=NO","qu8yam4hxw","1","75","85","65","","","","","","","","","","","","","","","",""
"null","audio/trust.wav","null","audio-keyboard-response","274","2.1.0","302422","F=YES, J=NO","qu8yam4hxw","1","75","85","65","","","","","","","","","","","","","","","",""
"1185","
          <p id=""word"" style=""font-size: 40px;"">swint</p>
          <p style=""font-size: 16px;"">F = YES &nbsp;&nbsp;&nbsp; J = NO</p>
        ","f","html-keyboard-response","275","2.1.0","303608","F=YES, J=NO","qu8yam4hxw","1","75","85","65","","","","","","","","","swint","trust","pseudoword","pseudoword","j","false","",""
"null","<p style=""font-size: 50px;"">+</p>","null","html-keyboard-response","276","2.1.0","303913","F=YES, J=NO","qu8yam4hxw","1","75","85","65","","","","","","","","","","","","","","","",""
"null","audio/beep-329314.mp3","null","audio-keyboard-response","277","2.1.0","305442","F=YES, J=NO","qu8yam4hxw","1","75","85","65","","","","","","","","","","","","","","","",""
"null","audio/essence1.wav","null","audio-keyboard-response","278","2.1.0","306122","F=YES, J=NO","qu8yam4hxw","1","75","85","65","","","","","","","","","","","","","","","",""
"620","
          <p id=""word"" style=""font-size: 40px;"">grasp</p>
          <p style=""font-size: 16px;"">F = YES &nbsp;&nbsp;&nbsp; J = NO</p>
        ","f","html-keyboard-response","279","2.1.0","306743","F=YES, J=NO","qu8yam4hxw","1","75","85","65","","","","","","","","","grasp","essence1","metaphor","experimental","f","true","",""
"null","<p style=""font-size: 50px;"">+</p>","null","html-keyboard-response","280","2.1.0","307048","F=YES, J=NO","qu8yam4hxw","1","75","85","65","","","","","","","","","","","","","","","",""
"null","audio/beep-329314.mp3","null","audio-keyboard-response","281","2.1.0","308582","F=YES, J=NO","qu8yam4hxw","1","75","85","65","","","","","","","","","","","","","","","",""
"null","audio/smirk1.wav","null","audio-keyboard-response","282","2.1.0","309302","F=YES, J=NO","qu8yam4hxw","1","75","85","65","","","","","","","","","","","","","","","",""
"832","
          <p id=""word"" style=""font-size: 40px;"">snopt</p>
          <p style=""font-size: 16px;"">F = YES &nbsp;&nbsp;&nbsp; J = NO</p>
        ","j","html-keyboard-response","283","2.1.0","310134","F=YES, J=NO","qu8yam4hxw","1","75","85","65","","","","","","","","","snopt","smirk1","pseudoword","pseudoword","j","true","",""
"null","<p style=""font-size: 50px;"">+</p>","null","html-keyboard-response","284","2.1.0","310444","F=YES, J=NO","qu8yam4hxw","1","75","85","65","","","","","","","","","","","","","","","",""
"null","audio/beep-329314.mp3","null","audio-keyboard-response","285","2.1.0","311982","F=YES, J=NO","qu8yam4hxw","1","75","85","65","","","","","","","","","","","","","","","",""
"null","audio/cancer1.wav","null","audio-keyboard-response","286","2.1.0","312522","F=YES, J=NO","qu8yam4hxw","1","75","85","65","","","","","","","","","","","","","","","",""
"460","
          <p id=""word"" style=""font-size: 40px;"">fight</p>
          <p style=""font-size: 16px;"">F = YES &nbsp;&nbsp;&nbsp; J = NO</p>
        ","f","html-keyboard-response","287","2.1.0","312982","F=YES, J=NO","qu8yam4hxw","1","75","85","65","","","","","","","","","fight","cancer1","metaphor","experimental","f","true","",""
"null","<p style=""font-size: 50px;"">+</p>","null","html-keyboard-response","288","2.1.0","313294","F=YES, J=NO","qu8yam4hxw","1","75","85","65","","","","","","","","","","","","","","","",""
"null","audio/beep-329314.mp3","null","audio-keyboard-response","289","2.1.0","314822","F=YES, J=NO","qu8yam4hxw","1","75","85","65","","","","","","","","","","","","","","","",""
"null","audio/alarm1.wav","null","audio-keyboard-response","290","2.1.0","315402","F=YES, J=NO","qu8yam4hxw","1","75","85","65","","","","","","","","","","","","","","","",""
"660","
          <p id=""word"" style=""font-size: 40px;"">swetp</p>
          <p style=""font-size: 16px;"">F = YES &nbsp;&nbsp;&nbsp; J = NO</p>
        ","j","html-keyboard-response","291","2.1.0","316063","F=YES, J=NO","qu8yam4hxw","1","75","85","65","","","","","","","","","swetp","alarm1","pseudoword","pseudoword","j","true","",""
"null","<p style=""font-size: 50px;"">+</p>","null","html-keyboard-response","292","2.1.0","316376","F=YES, J=NO","qu8yam4hxw","1","75","85","65","","","","","","","","","","","","","","","",""
"null","audio/beep-329314.mp3","null","audio-keyboard-response","293","2.1.0","317902","F=YES, J=NO","qu8yam4hxw","1","75","85","65","","","","","","","","","","","","","","","",""
"null","audio/age1.wav","null","audio-keyboard-response","294","2.1.0","318442","F=YES, J=NO","qu8yam4hxw","1","75","85","65","","","","","","","","","","","","","","","",""
"980","
          <p id=""word"" style=""font-size: 40px;"">lachry</p>
          <p style=""font-size: 16px;"">F = YES &nbsp;&nbsp;&nbsp; J = NO</p>
        ","j","html-keyboard-response","295","2.1.0","319423","F=YES, J=NO","qu8yam4hxw","1","75","85","65","","","","","","","","","lachry","age1","pseudoword","pseudoword","j","true","",""
"1208","<p>Excellent! You have finished block 2 of 8.</p>
                     <p>Feel free to take a 30 second break.</p>
                     <p>Press any key when you're ready to continue.</p>"," ","html-keyboard-response","296","2.1.0","320630","F=YES, J=NO","qu8yam4hxw","1","75","85","65","","","","","","","","","","","","","","","",""
"353","<p>Starting main block 3 of 8. Press any key to continue.</p>"," ","html-keyboard-response","297","2.1.0","320983","F=YES, J=NO","qu8yam4hxw","1","75","85","65","","","","","","","","","","","","","","","",""
"null","<p style=""font-size: 50px;"">+</p>","null","html-keyboard-response","298","2.1.0","321284","F=YES, J=NO","qu8yam4hxw","1","75","85","65","","","","","","","","","","","","","","","",""
"null","audio/beep-329314.mp3","null","audio-keyboard-response","299","2.1.0","322822","F=YES, J=NO","qu8yam4hxw","1","75","85","65","","","","","","","","","","","","","","","",""
"null","audio/pain1.wav","null","audio-keyboard-response","300","2.1.0","323262","F=YES, J=NO","qu8yam4hxw","1","75","85","65","","","","","","","","","","","","","","","",""
"896","
          <p id=""word"" style=""font-size: 40px;"">tritted</p>
          <p style=""font-size: 16px;"">F = YES &nbsp;&nbsp;&nbsp; J = NO</p>
        ","j","html-keyboard-response","301","2.1.0","324159","F=YES, J=NO","qu8yam4hxw","1","75","85","65","","","","","","","","","tritted","pain1","pseudoword","pseudoword","j","true","",""
"null","<p style=""font-size: 50px;"">+</p>","null","html-keyboard-response","302","2.1.0","324464","F=YES, J=NO","qu8yam4hxw","1","75","85","65","","","","","","","","","","","","","","","",""
"null","audio/beep-329314.mp3","null","audio-keyboard-response","303","2.1.0","326002","F=YES, J=NO","qu8yam4hxw","1","75","85","65","","","","","","","","","","","","","","","",""
"null","audio/breath.wav","null","audio-keyboard-response","304","2.1.0","326682","F=YES, J=NO","qu8yam4hxw","1","75","85","65","","","","","","","","","","","","","","","",""
"780","
          <p id=""word"" style=""font-size: 40px;"">twets</p>
          <p style=""font-size: 16px;"">F = YES &nbsp;&nbsp;&nbsp; J = NO</p>
        ","j","html-keyboard-response","305","2.1.0","327463","F=YES, J=NO","qu8yam4hxw","1","75","85","65","","","","","","","","","twets","breath","pseudoword","pseudoword","j","true","",""
"null","<p style=""font-size: 50px;"">+</p>","null","html-keyboard-response","306","2.1.0","327775","F=YES, J=NO","qu8yam4hxw","1","75","85","65","","","","","","","","","","","","","","","",""
"null","audio/beep-329314.mp3","null","audio-keyboard-response","307","2.1.0","329302","F=YES, J=NO","qu8yam4hxw","1","75","85","65","","","","","","","","","","","","","","","",""
"null","audio/key1.wav","null","audio-keyboard-response","308","2.1.0","329662","F=YES, J=NO","qu8yam4hxw","1","75","85","65","","","","","","","","","","","","","","","",""
"992","
          <p id=""word"" style=""font-size: 40px;"">sminsh</p>
          <p style=""font-size: 16px;"">F = YES &nbsp;&nbsp;&nbsp; J = NO</p>
        ","j","html-keyboard-response","309","2.1.0","330655","F=YES, J=NO","qu8yam4hxw","1","75","85","65","","","","","","","","","sminsh","key1","pseudoword","pseudoword","j","true","",""
"null","<p style=""font-size: 50px;"">+</p>","null","html-keyboard-response","310","2.1.0","330965","F=YES, J=NO","qu8yam4hxw","1","75","85","65","","","","","","","","","","","","","","","",""
"null","audio/beep-329314.mp3","null","audio-keyboard-response","311","2.1.0","332502","F=YES, J=NO","qu8yam4hxw","1","75","85","65","","","","","","","","","","","","","","","",""
"null","audio/radio1.wav","null","audio-keyboard-response","312","2.1.0","333202","F=YES, J=NO","qu8yam4hxw","1","75","85","65","","","","","","","","","","","","","","","",""
"572","
          <p id=""word"" style=""font-size: 40px;"">spend</p>
          <p style=""font-size: 16px;"">F = YES &nbsp;&nbsp;&nbsp; J = NO</p>
        ","f","html-keyboard-response","313","2.1.0","333775","F=YES, J=NO","qu8yam4hxw","1","75","85","65","","","","","","","","","spend","radio1","unrelated","experimental","f","true","",""
"null","<p style=""font-size: 50px;"">+</p>","null","html-keyboard-response","314","2.1.0","334087","F=YES, J=NO","qu8yam4hxw","1","75","85","65","","","","","","","","","","","","","","","",""
"null","audio/beep-329314.mp3","null","audio-keyboard-response","315","2.1.0","335622","F=YES, J=NO","qu8yam4hxw","1","75","85","65","","","","","","","","","","","","","","","",""
"null","audio/client1.wav","null","audio-keyboard-response","316","2.1.0","336422","F=YES, J=NO","qu8yam4hxw","1","75","85","65","","","","","","","","","","","","","","","",""
"896","
          <p id=""word"" style=""font-size: 40px;"">droothe</p>
          <p style=""font-size: 16px;"">F = YES &nbsp;&nbsp;&nbsp; J = NO</p>
        ","j","html-keyboard-response","317","2.1.0","337318","F=YES, J=NO","qu8yam4hxw","1","75","85","65","","","","","","","","","droothe","client1","pseudoword","pseudoword","j","true","",""
"null","<p style=""font-size: 50px;"">+</p>","null","html-keyboard-response","318","2.1.0","337632","F=YES, J=NO","qu8yam4hxw","1","75","85","65","","","","","","","","","","","","","","","",""
"null","audio/beep-329314.mp3","null","audio-keyboard-response","319","2.1.0","339162","F=YES, J=NO","qu8yam4hxw","1","75","85","65","","","","","","","","","","","","","","","",""
"null","audio/handle.wav","null","audio-keyboard-response","320","2.1.0","339782","F=YES, J=NO","qu8yam4hxw","1","75","85","65","","","","","","","","","","","","","","","",""
"736","
          <p id=""word"" style=""font-size: 40px;"">moutes</p>
          <p style=""font-size: 16px;"">F = YES &nbsp;&nbsp;&nbsp; J = NO</p>
        ","j","html-keyboard-response","321","2.1.0","340519","F=YES, J=NO","qu8yam4hxw","1","75","85","65","","","","","","","","","moutes","handle","pseudoword","pseudoword","j","true","",""
"null","<p style=""font-size: 50px;"">+</p>","null","html-keyboard-response","322","2.1.0","340827","F=YES, J=NO","qu8yam4hxw","1","75","85","65","","","","","","","","","","","","","","","",""
"null","audio/beep-329314.mp3","null","audio-keyboard-response","323","2.1.0","342362","F=YES, J=NO","qu8yam4hxw","1","75","85","65","","","","","","","","","","","","","","","",""
"null","audio/skin1.wav","null","audio-keyboard-response","324","2.1.0","342922","F=YES, J=NO","qu8yam4hxw","1","75","85","65","","","","","","","","","","","","","","","",""
"540","
          <p id=""word"" style=""font-size: 40px;"">expose</p>
          <p style=""font-size: 16px;"">F = YES &nbsp;&nbsp;&nbsp; J = NO</p>
        ","f","html-keyboard-response","325","2.1.0","343462","F=YES, J=NO","qu8yam4hxw","1","75","85","65","","","","","","","","","expose","skin1","literal","experimental","f","true","",""
"null","<p style=""font-size: 50px;"">+</p>","null","html-keyboard-response","326","2.1.0","343773","F=YES, J=NO","qu8yam4hxw","1","75","85","65","","","","","","","","","","","","","","","",""
"null","audio/beep-329314.mp3","null","audio-keyboard-response","327","2.1.0","345302","F=YES, J=NO","qu8yam4hxw","1","75","85","65","","","","","","","","","","","","","","","",""
"null","audio/empire.wav","null","audio-keyboard-response","328","2.1.0","345922","F=YES, J=NO","qu8yam4hxw","1","75","85","65","","","","","","","","","","","","","","","",""
"732","
          <p id=""word"" style=""font-size: 40px;"">slorby</p>
          <p style=""font-size: 16px;"">F = YES &nbsp;&nbsp;&nbsp; J = NO</p>
        ","j","html-keyboard-response","329","2.1.0","346654","F=YES, J=NO","qu8yam4hxw","1","75","85","65","","","","","","","","","slorby","empire","pseudoword","pseudoword","j","true","",""
"null","<p style=""font-size: 50px;"">+</p>","null","html-keyboard-response","330","2.1.0","346958","F=YES, J=NO","qu8yam4hxw","1","75","85","65","","","","","","","","","","","","","","","",""
"null","audio/beep-329314.mp3","null","audio-keyboard-response","331","2.1.0","348482","F=YES, J=NO","qu8yam4hxw","1","75","85","65","","","","","","","","","","","","","","","",""
"null","audio/bishop1.wav","null","audio-keyboard-response","332","2.1.0","349062","F=YES, J=NO","qu8yam4hxw","1","75","85","65","","","","","","","","","","","","","","","",""
"616","
          <p id=""word"" style=""font-size: 40px;"">devour</p>
          <p style=""font-size: 16px;"">F = YES &nbsp;&nbsp;&nbsp; J = NO</p>
        ","f","html-keyboard-response","333","2.1.0","349679","F=YES, J=NO","qu8yam4hxw","1","75","85","65","","","","","","","","","devour","bishop1","unrelated","experimental","f","true","",""
"null","<p style=""font-size: 50px;"">+</p>","null","html-keyboard-response","334","2.1.0","349994","F=YES, J=NO","qu8yam4hxw","1","75","85","65","","","","","","","","","","","","","","","",""
"null","audio/beep-329314.mp3","null","audio-keyboard-response","335","2.1.0","351522","F=YES, J=NO","qu8yam4hxw","1","75","85","65","","","","","","","","","","","","","","","",""
"null","audio/camera1.wav","null","audio-keyboard-response","336","2.1.0","352002","F=YES, J=NO","qu8yam4hxw","1","75","85","65","","","","","","","","","","","","","","","",""
"564","
          <p id=""word"" style=""font-size: 40px;"">stir</p>
          <p style=""font-size: 16px;"">F = YES &nbsp;&nbsp;&nbsp; J = NO</p>
        ","f","html-keyboard-response","337","2.1.0","352567","F=YES, J=NO","qu8yam4hxw","1","75","85","65","","","","","","","","","stir","camera1","filler","filler","f","true","",""
"null","<p style=""font-size: 50px;"">+</p>","null","html-keyboard-response","338","2.1.0","352868","F=YES, J=NO","qu8yam4hxw","1","75","85","65","","","","","","","","","","","","","","","",""
"null","audio/beep-329314.mp3","null","audio-keyboard-response","339","2.1.0","354402","F=YES, J=NO","qu8yam4hxw","1","75","85","65","","","","","","","","","","","","","","","",""
"null","audio/mouth1.wav","null","audio-keyboard-response","340","2.1.0","354962","F=YES, J=NO","qu8yam4hxw","1","75","85","65","","","","","","","","","","","","","","","",""
"404","
          <p id=""word"" style=""font-size: 40px;"">close</p>
          <p style=""font-size: 16px;"">F = YES &nbsp;&nbsp;&nbsp; J = NO</p>
        ","f","html-keyboard-response","341","2.1.0","355367","F=YES, J=NO","qu8yam4hxw","1","75","85","65","","","","","","","","","close","mouth1","literal","experimental","f","true","",""
"null","<p style=""font-size: 50px;"">+</p>","null","html-keyboard-response","342","2.1.0","355669","F=YES, J=NO","qu8yam4hxw","1","75","85","65","","","","","","","","","","","","","","","",""
"null","audio/beep-329314.mp3","null","audio-keyboard-response","343","2.1.0","357202","F=YES, J=NO","qu8yam4hxw","1","75","85","65","","","","","","","","","","","","","","","",""
"null","audio/mind.wav","null","audio-keyboard-response","344","2.1.0","357762","F=YES, J=NO","qu8yam4hxw","1","75","85","65","","","","","","","","","","","","","","","",""
"420","
          <p id=""word"" style=""font-size: 40px;"">clear</p>
          <p style=""font-size: 16px;"">F = YES &nbsp;&nbsp;&nbsp; J = NO</p>
        ","f","html-keyboard-response","345","2.1.0","358183","F=YES, J=NO","qu8yam4hxw","1","75","85","65","","","","","","","","","clear","mind","metaphor","experimental","f","true","",""
"null","<p style=""font-size: 50px;"">+</p>","null","html-keyboard-response","346","2.1.0","358496","F=YES, J=NO","qu8yam4hxw","1","75","85","65","","","","","","","","","","","","","","","",""
"null","audio/beep-329314.mp3","null","audio-keyboard-response","347","2.1.0","360022","F=YES, J=NO","qu8yam4hxw","1","75","85","65","","","","","","","","","","","","","","","",""
"null","audio/gift1.wav","null","audio-keyboard-response","348","2.1.0","360482","F=YES, J=NO","qu8yam4hxw","1","75","85","65","","","","","","","","","","","","","","","",""
"468","
          <p id=""word"" style=""font-size: 40px;"">give</p>
          <p style=""font-size: 16px;"">F = YES &nbsp;&nbsp;&nbsp; J = NO</p>
        ","f","html-keyboard-response","349","2.1.0","360951","F=YES, J=NO","qu8yam4hxw","1","75","85","65","","","","","","","","","give","gift1","literal","experimental","f","true","",""
"null","<p style=""font-size: 50px;"">+</p>","null","html-keyboard-response","350","2.1.0","361259","F=YES, J=NO","qu8yam4hxw","1","75","85","65","","","","","","","","","","","","","","","",""
"null","audio/beep-329314.mp3","null","audio-keyboard-response","351","2.1.0","362782","F=YES, J=NO","qu8yam4hxw","1","75","85","65","","","","","","","","","","","","","","","",""
"null","audio/effort.wav","null","audio-keyboard-response","352","2.1.0","363362","F=YES, J=NO","qu8yam4hxw","1","75","85","65","","","","","","","","","","","","","","","",""
"516","
          <p id=""word"" style=""font-size: 40px;"">invest</p>
          <p style=""font-size: 16px;"">F = YES &nbsp;&nbsp;&nbsp; J = NO</p>
        ","f","html-keyboard-response","353","2.1.0","363879","F=YES, J=NO","qu8yam4hxw","1","75","85","65","","","","","","","","","invest","effort","metaphor","experimental","f","true","",""
"null","<p style=""font-size: 50px;"">+</p>","null","html-keyboard-response","354","2.1.0","364186","F=YES, J=NO","qu8yam4hxw","1","75","85","65","","","","","","","","","","","","","","","",""
"null","audio/beep-329314.mp3","null","audio-keyboard-response","355","2.1.0","365722","F=YES, J=NO","qu8yam4hxw","1","75","85","65","","","","","","","","","","","","","","","",""
"null","audio/van1.wav","null","audio-keyboard-response","356","2.1.0","366202","F=YES, J=NO","qu8yam4hxw","1","75","85","65","","","","","","","","","","","","","","","",""
"396","
          <p id=""word"" style=""font-size: 40px;"">push</p>
          <p style=""font-size: 16px;"">F = YES &nbsp;&nbsp;&nbsp; J = NO</p>
        ","f","html-keyboard-response","357","2.1.0","366599","F=YES, J=NO","qu8yam4hxw","1","75","85","65","","","","","","","","","push","van1","filler","filler","f","true","",""
"null","<p style=""font-size: 50px;"">+</p>","null","html-keyboard-response","358","2.1.0","366907","F=YES, J=NO","qu8yam4hxw","1","75","85","65","","","","","","","","","","","","","","","",""
"null","audio/beep-329314.mp3","null","audio-keyboard-response","359","2.1.0","368442","F=YES, J=NO","qu8yam4hxw","1","75","85","65","","","","","","","","","","","","","","","",""
"null","audio/life1.wav","null","audio-keyboard-response","360","2.1.0","369002","F=YES, J=NO","qu8yam4hxw","1","75","85","65","","","","","","","","","","","","","","","",""
"852","
          <p id=""word"" style=""font-size: 40px;"">flimch</p>
          <p style=""font-size: 16px;"">F = YES &nbsp;&nbsp;&nbsp; J = NO</p>
        ","j","html-keyboard-response","361","2.1.0","369855","F=YES, J=NO","qu8yam4hxw","1","75","85","65","","","","","","","","","flimch","life1","pseudoword","pseudoword","j","true","",""
"824","<p>Excellent! You have finished block 3 of 8.</p>
                     <p>Feel free to take a 30 second break.</p>
                     <p>Press any key when you're ready to continue.</p>"," ","html-keyboard-response","362","2.1.0","370678","F=YES, J=NO","qu8yam4hxw","1","75","85","65","","","","","","","","","","","","","","","",""
"296","<p>Starting main block 4 of 8. Press any key to continue.</p>"," ","html-keyboard-response","363","2.1.0","370975","F=YES, J=NO","qu8yam4hxw","1","75","85","65","","","","","","","","","","","","","","","",""
"null","<p style=""font-size: 50px;"">+</p>","null","html-keyboard-response","364","2.1.0","371284","F=YES, J=NO","qu8yam4hxw","1","75","85","65","","","","","","","","","","","","","","","",""
"null","audio/beep-329314.mp3","null","audio-keyboard-response","365","2.1.0","372822","F=YES, J=NO","qu8yam4hxw","1","75","85","65","","","","","","","","","","","","","","","",""
"null","audio/mouth1.wav","null","audio-keyboard-response","366","2.1.0","373382","F=YES, J=NO","qu8yam4hxw","1","75","85","65","","","","","","","","","","","","","","","",""
"752","
          <p id=""word"" style=""font-size: 40px;"">spolial</p>
          <p style=""font-size: 16px;"">F = YES &nbsp;&nbsp;&nbsp; J = NO</p>
        ","j","html-keyboard-response","367","2.1.0","374135","F=YES, J=NO","qu8yam4hxw","1","75","85","65","","","","","","","","","spolial","mouth1","pseudoword","pseudoword","j","true","",""
"null","<p style=""font-size: 50px;"">+</p>","null","html-keyboard-response","368","2.1.0","374442","F=YES, J=NO","qu8yam4hxw","1","75","85","65","","","","","","","","","","","","","","","",""
"null","audio/beep-329314.mp3","null","audio-keyboard-response","369","2.1.0","375982","F=YES, J=NO","qu8yam4hxw","1","75","85","65","","","","","","","","","","","","","","","",""
"null","audio/stain.wav","null","audio-keyboard-response","370","2.1.0","376742","F=YES, J=NO","qu8yam4hxw","1","75","85","65","","","","","","","","","","","","","","","",""
"568","
          <p id=""word"" style=""font-size: 40px;"">wipe</p>
          <p style=""font-size: 16px;"">F = YES &nbsp;&nbsp;&nbsp; J = NO</p>
        ","f","html-keyboard-response","371","2.1.0","377311","F=YES, J=NO","qu8yam4hxw","1","75","85","65","","","","","","","","","wipe","stain","literal","experimental","f","true","",""
"null","<p style=""font-size: 50px;"">+</p>","null","html-keyboard-response","372","2.1.0","377617","F=YES, J=NO","qu8yam4hxw","1","75","85","65","","","","","","","","","","","","","","","",""
"null","audio/beep-329314.mp3","null","audio-keyboard-response","373","2.1.0","379142","F=YES, J=NO","qu8yam4hxw","1","75","85","65","","","","","","","","","","","","","","","",""
"null","audio/arm.wav","null","audio-keyboard-response","374","2.1.0","379682","F=YES, J=NO","qu8yam4hxw","1","75","85","65","","","","","","","","","","","","","","","",""
"644","
          <p id=""word"" style=""font-size: 40px;"">pigne</p>
          <p style=""font-size: 16px;"">F = YES &nbsp;&nbsp;&nbsp; J = NO</p>
        ","j","html-keyboard-response","375","2.1.0","380327","F=YES, J=NO","qu8yam4hxw","1","75","85","65","","","","","","","","","pigne","arm","pseudoword","pseudoword","j","true","",""
"null","<p style=""font-size: 50px;"">+</p>","null","html-keyboard-response","376","2.1.0","380639","F=YES, J=NO","qu8yam4hxw","1","75","85","65","","","","","","","","","","","","","","","",""
"null","audio/beep-329314.mp3","null","audio-keyboard-response","377","2.1.0","382162","F=YES, J=NO","qu8yam4hxw","1","75","85","65","","","","","","","","","","","","","","","",""
"null","audio/pride1.wav","null","audio-keyboard-response","378","2.1.0","382702","F=YES, J=NO","qu8yam4hxw","1","75","85","65","","","","","","","","","","","","","","","",""
"393","
          <p id=""word"" style=""font-size: 40px;"">hurt</p>
          <p style=""font-size: 16px;"">F = YES &nbsp;&nbsp;&nbsp; J = NO</p>
        ","f","html-keyboard-response","379","2.1.0","383096","F=YES, J=NO","qu8yam4hxw","1","75","85","65","","","","","","","","","hurt","pride1","metaphor","experimental","f","true","",""
"null","<p style=""font-size: 50px;"">+</p>","null","html-keyboard-response","380","2.1.0","383408","F=YES, J=NO","qu8yam4hxw","1","75","85","65","","","","","","","","","","","","","","","",""
"null","audio/beep-329314.mp3","null","audio-keyboard-response","381","2.1.0","384942","F=YES, J=NO","qu8yam4hxw","1","75","85","65","","","","","","","","","","","","","","","",""
"null","audio/mile1.wav","null","audio-keyboard-response","382","2.1.0","385422","F=YES, J=NO","qu8yam4hxw","1","75","85","65","","","","","","","","","","","","","","","",""
"576","
          <p id=""word"" style=""font-size: 40px;"">writch</p>
          <p style=""font-size: 16px;"">F = YES &nbsp;&nbsp;&nbsp; J = NO</p>
        ","f","html-keyboard-response","383","2.1.0","385999","F=YES, J=NO","qu8yam4hxw","1","75","85","65","","","","","","","","","writch","mile1","pseudoword","pseudoword","j","false","",""
"null","<p style=""font-size: 50px;"">+</p>","null","html-keyboard-response","384","2.1.0","386310","F=YES, J=NO","qu8yam4hxw","1","75","85","65","","","","","","","","","","","","","","","",""
"null","audio/beep-329314.mp3","null","audio-keyboard-response","385","2.1.0","387842","F=YES, J=NO","qu8yam4hxw","1","75","85","65","","","","","","","","","","","","","","","",""
"null","audio/floor.wav","null","audio-keyboard-response","386","2.1.0","388402","F=YES, J=NO","qu8yam4hxw","1","75","85","65","","","","","","","","","","","","","","","",""
"396","
          <p id=""word"" style=""font-size: 40px;"">cover</p>
          <p style=""font-size: 16px;"">F = YES &nbsp;&nbsp;&nbsp; J = NO</p>
        ","f","html-keyboard-response","387","2.1.0","388799","F=YES, J=NO","qu8yam4hxw","1","75","85","65","","","","","","","","","cover","floor","literal","experimental","f","true","",""
"null","<p style=""font-size: 50px;"">+</p>","null","html-keyboard-response","388","2.1.0","389099","F=YES, J=NO","qu8yam4hxw","1","75","85","65","","","","","","","","","","","","","","","",""
"null","audio/beep-329314.mp3","null","audio-keyboard-response","389","2.1.0","390622","F=YES, J=NO","qu8yam4hxw","1","75","85","65","","","","","","","","","","","","","","","",""
"null","audio/pattern.wav","null","audio-keyboard-response","390","2.1.0","391242","F=YES, J=NO","qu8yam4hxw","1","75","85","65","","","","","","","","","","","","","","","",""
"508","
          <p id=""word"" style=""font-size: 40px;"">tug</p>
          <p style=""font-size: 16px;"">F = YES &nbsp;&nbsp;&nbsp; J = NO</p>
        ","f","html-keyboard-response","391","2.1.0","391751","F=YES, J=NO","qu8yam4hxw","1","75","85","65","","","","","","","","","tug","pattern","filler","filler","f","true","",""
