"rt","stimulus","response","trial_type","trial_index","plugin_version","time_elapsed","response_mapping","subject_id","list_index","lextale_score","lextale_word_score","lextale_nonword_score","success","timeout","failed_images","failed_audio","failed_video","task","isWord","isDummy","target","prime","prime_type","stimulus_type","correct_response","correct","section","question_order"
"2206","
    <div style=""max-width: 800px; margin: auto; text-align: left;"">
      <h2>STANFORD UNIVERSITY</h2>
      <h3>Research Information Sheet</h3>
      <p><strong>Protocol Director:</strong> Robert Hawkins<br>
      <strong>Protocol Title:</strong> Communication and social cognition in natural audiovisual contexts<br>
      <strong>IRB#:</strong> 77226</p>

      <p><strong>DESCRIPTION:</strong> You are invited to participate in a research study about language and communication. The purpose of the research is to understand how you interact and communicate with other people in naturalistic settings as a fluent English speaker. This research will be conducted through the Prolific platform, including participants from the US, UK, and Canada. If you decide to participate in this research, you will play a communication game in a group with one or more partners.</p>

      <p><strong>TIME INVOLVEMENT:</strong> The task will last the amount of time advertised on Prolific. You are free to withdraw from the study at any time.</p>

      <p><strong>RISKS AND BENEFITS:</strong> You may become frustrated if your partner gets distracted, or experience discomfort if other participants in your group send text that is inappropriate for the task. We ask you to please be respectful of other participants you might be interacting with to mitigate these risks. You may also experience discomfort when being asked to discuss or challenge emotionally salient political beliefs. Study data will be stored securely, in compliance with Stanford University standards, minimizing the risk of confidentiality breach. This study advances our scientific understanding of how people communicate and collaborate in naturalistic settings. This study may lead to further insights about what can go wrong in teamwork, suggest potential interventions to overcome these barriers, and help to develop assistive technologies that collaborate with human partners. We cannot and do not guarantee or promise that you will receive any benefits from this study.</p>

      <p><strong>PAYMENTS:</strong> You will receive payment in the amount advertised on Prolific. If you do not complete this study, you will receive prorated payment based on the time that you have spent. Additionally, you may be eligible for bonus payments as described in the instructions.</p>

      <p><strong>PARTICIPANT’S RIGHTS:</strong> If you have read this form and have decided to participate in this project, please understand your participation is voluntary and you have the right to withdraw your consent or discontinue participation at any time without penalty or loss of benefits to which you are otherwise entitled. The alternative is not to participate. You have the right to refuse to answer particular questions. The results of this research study may be presented at scientific or professional meetings or published in scientific journals. Your individual privacy will be maintained in all published and written data resulting from the study. In accordance with scientific norms, the data from this study may be used or shared with other researchers for future research (after removing personally identifying information) without additional consent from you.</p>

      <p><strong>CONTACT INFORMATION:</strong><br>
      Questions: If you have any questions, concerns or complaints about this research, its procedures, risks and benefits, contact the Protocol Director, Robert Hawkins (<a href=""mailto:rdhawkins@stanford.edu"">rdhawkins@stanford.edu</a>, 217-549-6923).<br>
      Independent Contact: If you are not satisfied with how this study is being conducted, or if you have any concerns, complaints, or general questions about the research or your rights as a participant, please contact the Stanford Institutional Review Board (IRB) to speak to someone independent of the research team at 650-723-2480 or toll free at 1-866-680-2906, or email at <a href=""mailto:irbnon-med@stanford.edu"">irbnon-med@stanford.edu</a>. You can also write to the Stanford IRB, Stanford University, 1705 El Camino Real, Palo Alto, CA 94306.</p>

      <p><strong>Please save or print a copy of this page for your records.</strong></p>
      <p>If you agree to participate in this research, click ""Continue"" below.</p>
    </div>
  ","0","html-button-response","0","2.1.0","2215","J=YES, F=NO","qubkqe3wqk","0","76","78","75","","","","","","","","","","","","","","","",""
"29462","
    <div style=""max-width: 800px; margin: auto; text-align: left;"">
      <h2>Welcome!</h2>
      <p>Thank you for participating in this study. The experiment consists of three parts:</p>
      <ol>
        <li>An English vocabulary test</li>
        <li>A main task in which you will hear and see words, and decide whether the written word is a real English word</li>
        <li>A brief survey about your background</li>
      </ol>
      <p>Each part will be introduced before it begins.</p>
      <p>Please make sure you are in a quiet environment and can hear audio clearly for the final task.</p>
      <p style=""margin-top: 2em;"">Press any key to begin.</p>
    </div>
  "," ","html-keyboard-response","1","2.1.0","29860","J=YES, F=NO","qubkqe3wqk","0","76","78","75","","","","","","","","","","","","","","","",""
"","","","preload","2","2.1.0","32477","J=YES, F=NO","qubkqe3wqk","0","76","78","75","true","false","[]","[]","[]","","","","","","","","","","",""
"5114","
    <div style=""max-width: 800px; margin: auto; text-align: left;"">
      <h2>Part 1: Vocabulary Test</h2>
      <p>You will now complete the first part of the study: a short English vocabulary test.</p>
      <p>This test is called <strong>LexTALE</strong> and helps us get a general sense of your English proficiency.</p>
      <p style=""margin-top: 2em;"">Press any key to continue.</p>
    </div>
  "," ","html-keyboard-response","3","2.1.0","37594","J=YES, F=NO","qubkqe3wqk","0","76","78","75","","","","","","","","","","","","","","","",""
"17572","
    <div style=""max-width: 800px; margin: auto; text-align: left;"">
      <h2>LexTALE Vocabulary Test</h2>
      <p>In this test, you will see a series of letter strings—one at a time.</p>
      <p>Your task is to decide whether each string is a real English word.</p>
      <p><strong>Key responses:</strong></p>
      <ul>
        <li><strong>J</strong> = YES (real English word)</li>
        <li><strong>F</strong> = NO (not a real English word)</li>
      </ul>
      <p>There is no time limit, but please try to be accurate.</p>
      <p style=""margin-top: 2em;"">Press any key to begin.</p>
    </div>
  "," ","html-keyboard-response","4","2.1.0","55168","J=YES, F=NO","qubkqe3wqk","0","76","78","75","","","","","","","","","","","","","","","",""
"2036","
  <p style=""font-size: 40px;"">platery</p>
  <p style=""font-size: 16px;"">J = YES &nbsp;&nbsp;&nbsp; F = NO</p>
","j","html-keyboard-response","5","2.1.0","57206","J=YES, F=NO","qubkqe3wqk","0","76","78","75","","","","","","lextale","false","true","","","","","","","",""
"1013","
  <p style=""font-size: 40px;"">denial</p>
  <p style=""font-size: 16px;"">J = YES &nbsp;&nbsp;&nbsp; F = NO</p>
","j","html-keyboard-response","6","2.1.0","58222","J=YES, F=NO","qubkqe3wqk","0","76","78","75","","","","","","lextale","true","true","","","","","","","",""
"1064","
  <p style=""font-size: 40px;"">marrit</p>
  <p style=""font-size: 16px;"">J = YES &nbsp;&nbsp;&nbsp; F = NO</p>
","f","html-keyboard-response","7","2.1.0","59289","J=YES, F=NO","qubkqe3wqk","0","76","78","75","","","","","","lextale","false","true","","","","","","","",""
"1595","
  <p style=""font-size: 40px;"">bottle</p>
  <p style=""font-size: 16px;"">J = YES &nbsp;&nbsp;&nbsp; F = NO</p>
","j","html-keyboard-response","8","2.1.0","60889","J=YES, F=NO","qubkqe3wqk","0","76","78","75","","","","","","lextale","true","false","","","","","","","",""
"3011","
  <p style=""font-size: 40px;"">birst</p>
  <p style=""font-size: 16px;"">J = YES &nbsp;&nbsp;&nbsp; F = NO</p>
","f","html-keyboard-response","9","2.1.0","63903","J=YES, F=NO","qubkqe3wqk","0","76","78","75","","","","","","lextale","false","false","","","","","","","",""
"659","
  <p style=""font-size: 40px;"">envy</p>
  <p style=""font-size: 16px;"">J = YES &nbsp;&nbsp;&nbsp; F = NO</p>
","j","html-keyboard-response","10","2.1.0","64564","J=YES, F=NO","qubkqe3wqk","0","76","78","75","","","","","","lextale","true","false","","","","","","","",""
"2210","
  <p style=""font-size: 40px;"">brang</p>
  <p style=""font-size: 16px;"">J = YES &nbsp;&nbsp;&nbsp; F = NO</p>
","f","html-keyboard-response","11","2.1.0","66778","J=YES, F=NO","qubkqe3wqk","0","76","78","75","","","","","","lextale","false","false","","","","","","","",""
"3150","
  <p style=""font-size: 40px;"">huge</p>
  <p style=""font-size: 16px;"">J = YES &nbsp;&nbsp;&nbsp; F = NO</p>
","j","html-keyboard-response","12","2.1.0","69931","J=YES, F=NO","qubkqe3wqk","0","76","78","75","","","","","","lextale","true","false","","","","","","","",""
"1361","
  <p style=""font-size: 40px;"">plove</p>
  <p style=""font-size: 16px;"">J = YES &nbsp;&nbsp;&nbsp; F = NO</p>
","f","html-keyboard-response","13","2.1.0","71298","J=YES, F=NO","qubkqe3wqk","0","76","78","75","","","","","","lextale","false","false","","","","","","","",""
"1286","
  <p style=""font-size: 40px;"">border</p>
  <p style=""font-size: 16px;"">J = YES &nbsp;&nbsp;&nbsp; F = NO</p>
","j","html-keyboard-response","14","2.1.0","72587","J=YES, F=NO","qubkqe3wqk","0","76","78","75","","","","","","lextale","true","false","","","","","","","",""
"1067","
  <p style=""font-size: 40px;"">flimsy</p>
  <p style=""font-size: 16px;"">J = YES &nbsp;&nbsp;&nbsp; F = NO</p>
","j","html-keyboard-response","15","2.1.0","73659","J=YES, F=NO","qubkqe3wqk","0","76","78","75","","","","","","lextale","true","false","","","","","","","",""
"717","
  <p style=""font-size: 40px;"">drain</p>
  <p style=""font-size: 16px;"">J = YES &nbsp;&nbsp;&nbsp; F = NO</p>
","j","html-keyboard-response","16","2.1.0","74378","J=YES, F=NO","qubkqe3wqk","0","76","78","75","","","","","","lextale","true","false","","","","","","","",""
"927","
  <p style=""font-size: 40px;"">twindle</p>
  <p style=""font-size: 16px;"">J = YES &nbsp;&nbsp;&nbsp; F = NO</p>
","j","html-keyboard-response","17","2.1.0","75306","J=YES, F=NO","qubkqe3wqk","0","76","78","75","","","","","","lextale","false","false","","","","","","","",""
"947","
  <p style=""font-size: 40px;"">propose</p>
  <p style=""font-size: 16px;"">J = YES &nbsp;&nbsp;&nbsp; F = NO</p>
","j","html-keyboard-response","18","2.1.0","76254","J=YES, F=NO","qubkqe3wqk","0","76","78","75","","","","","","lextale","true","false","","","","","","","",""
"1229","
  <p style=""font-size: 40px;"">forlay</p>
  <p style=""font-size: 16px;"">J = YES &nbsp;&nbsp;&nbsp; F = NO</p>
","j","html-keyboard-response","19","2.1.0","77486","J=YES, F=NO","qubkqe3wqk","0","76","78","75","","","","","","lextale","false","false","","","","","","","",""
"890","
  <p style=""font-size: 40px;"">tenant</p>
  <p style=""font-size: 16px;"">J = YES &nbsp;&nbsp;&nbsp; F = NO</p>
","j","html-keyboard-response","20","2.1.0","78380","J=YES, F=NO","qubkqe3wqk","0","76","78","75","","","","","","lextale","true","false","","","","","","","",""
"699","
  <p style=""font-size: 40px;"">strain</p>
  <p style=""font-size: 16px;"">J = YES &nbsp;&nbsp;&nbsp; F = NO</p>
","j","html-keyboard-response","21","2.1.0","79083","J=YES, F=NO","qubkqe3wqk","0","76","78","75","","","","","","lextale","true","false","","","","","","","",""
"2975","
  <p style=""font-size: 40px;"">holster</p>
  <p style=""font-size: 16px;"">J = YES &nbsp;&nbsp;&nbsp; F = NO</p>
","j","html-keyboard-response","22","2.1.0","82060","J=YES, F=NO","qubkqe3wqk","0","76","78","75","","","","","","lextale","true","false","","","","","","","",""
"834","
  <p style=""font-size: 40px;"">hinder</p>
  <p style=""font-size: 16px;"">J = YES &nbsp;&nbsp;&nbsp; F = NO</p>
","j","html-keyboard-response","23","2.1.0","82895","J=YES, F=NO","qubkqe3wqk","0","76","78","75","","","","","","lextale","true","false","","","","","","","",""
"1002","
  <p style=""font-size: 40px;"">swindle</p>
  <p style=""font-size: 16px;"">J = YES &nbsp;&nbsp;&nbsp; F = NO</p>
","j","html-keyboard-response","24","2.1.0","83898","J=YES, F=NO","qubkqe3wqk","0","76","78","75","","","","","","lextale","true","false","","","","","","","",""
"1122","
  <p style=""font-size: 40px;"">nuder</p>
  <p style=""font-size: 16px;"">J = YES &nbsp;&nbsp;&nbsp; F = NO</p>
","f","html-keyboard-response","25","2.1.0","85021","J=YES, F=NO","qubkqe3wqk","0","76","78","75","","","","","","lextale","false","false","","","","","","","",""
"550","
  <p style=""font-size: 40px;"">pillow</p>
  <p style=""font-size: 16px;"">J = YES &nbsp;&nbsp;&nbsp; F = NO</p>
","j","html-keyboard-response","26","2.1.0","85574","J=YES, F=NO","qubkqe3wqk","0","76","78","75","","","","","","lextale","true","false","","","","","","","",""
"905","
  <p style=""font-size: 40px;"">shumble</p>
  <p style=""font-size: 16px;"">J = YES &nbsp;&nbsp;&nbsp; F = NO</p>
","f","html-keyboard-response","27","2.1.0","86482","J=YES, F=NO","qubkqe3wqk","0","76","78","75","","","","","","lextale","false","false","","","","","","","",""
"617","
  <p style=""font-size: 40px;"">thirst</p>
  <p style=""font-size: 16px;"">J = YES &nbsp;&nbsp;&nbsp; F = NO</p>
","j","html-keyboard-response","28","2.1.0","87102","J=YES, F=NO","qubkqe3wqk","0","76","78","75","","","","","","lextale","true","false","","","","","","","",""
"1017","
  <p style=""font-size: 40px;"">unsail</p>
  <p style=""font-size: 16px;"">J = YES &nbsp;&nbsp;&nbsp; F = NO</p>
","f","html-keyboard-response","29","2.1.0","88120","J=YES, F=NO","qubkqe3wqk","0","76","78","75","","","","","","lextale","false","false","","","","","","","",""
"736","
  <p style=""font-size: 40px;"">rifle</p>
  <p style=""font-size: 16px;"">J = YES &nbsp;&nbsp;&nbsp; F = NO</p>
","j","html-keyboard-response","30","2.1.0","88860","J=YES, F=NO","qubkqe3wqk","0","76","78","75","","","","","","lextale","true","false","","","","","","","",""
"674","
  <p style=""font-size: 40px;"">mush</p>
  <p style=""font-size: 16px;"">J = YES &nbsp;&nbsp;&nbsp; F = NO</p>
","j","html-keyboard-response","31","2.1.0","89537","J=YES, F=NO","qubkqe3wqk","0","76","78","75","","","","","","lextale","false","false","","","","","","","",""
"732","
  <p style=""font-size: 40px;"">drench</p>
  <p style=""font-size: 16px;"">J = YES &nbsp;&nbsp;&nbsp; F = NO</p>
","j","html-keyboard-response","32","2.1.0","90273","J=YES, F=NO","qubkqe3wqk","0","76","78","75","","","","","","lextale","true","false","","","","","","","",""
"948","
  <p style=""font-size: 40px;"">snirt</p>
  <p style=""font-size: 16px;"">J = YES &nbsp;&nbsp;&nbsp; F = NO</p>
","f","html-keyboard-response","33","2.1.0","91225","J=YES, F=NO","qubkqe3wqk","0","76","78","75","","","","","","lextale","false","false","","","","","","","",""
"611","
  <p style=""font-size: 40px;"">bitter</p>
  <p style=""font-size: 16px;"">J = YES &nbsp;&nbsp;&nbsp; F = NO</p>
","j","html-keyboard-response","34","2.1.0","91839","J=YES, F=NO","qubkqe3wqk","0","76","78","75","","","","","","lextale","true","false","","","","","","","",""
"704","
  <p style=""font-size: 40px;"">pliff</p>
  <p style=""font-size: 16px;"">J = YES &nbsp;&nbsp;&nbsp; F = NO</p>
","f","html-keyboard-response","35","2.1.0","92545","J=YES, F=NO","qubkqe3wqk","0","76","78","75","","","","","","lextale","false","false","","","","","","","",""
"546","
  <p style=""font-size: 40px;"">tablet</p>
  <p style=""font-size: 16px;"">J = YES &nbsp;&nbsp;&nbsp; F = NO</p>
","j","html-keyboard-response","36","2.1.0","93095","J=YES, F=NO","qubkqe3wqk","0","76","78","75","","","","","","lextale","true","false","","","","","","","",""
"1030","
  <p style=""font-size: 40px;"">glimmer</p>
  <p style=""font-size: 16px;"">J = YES &nbsp;&nbsp;&nbsp; F = NO</p>
","j","html-keyboard-response","37","2.1.0","94129","J=YES, F=NO","qubkqe3wqk","0","76","78","75","","","","","","lextale","true","false","","","","","","","",""
"1428","
  <p style=""font-size: 40px;"">slink</p>
  <p style=""font-size: 16px;"">J = YES &nbsp;&nbsp;&nbsp; F = NO</p>
","f","html-keyboard-response","38","2.1.0","95559","J=YES, F=NO","qubkqe3wqk","0","76","78","75","","","","","","lextale","true","false","","","","","","","",""
"562","
  <p style=""font-size: 40px;"">clever</p>
  <p style=""font-size: 16px;"">J = YES &nbsp;&nbsp;&nbsp; F = NO</p>
","j","html-keyboard-response","39","2.1.0","96123","J=YES, F=NO","qubkqe3wqk","0","76","78","75","","","","","","lextale","true","false","","","","","","","",""
"663","
  <p style=""font-size: 40px;"">grum</p>
  <p style=""font-size: 16px;"">J = YES &nbsp;&nbsp;&nbsp; F = NO</p>
","f","html-keyboard-response","40","2.1.0","96788","J=YES, F=NO","qubkqe3wqk","0","76","78","75","","","","","","lextale","false","false","","","","","","","",""
"720","
  <p style=""font-size: 40px;"">string</p>
  <p style=""font-size: 16px;"">J = YES &nbsp;&nbsp;&nbsp; F = NO</p>
","j","html-keyboard-response","41","2.1.0","97511","J=YES, F=NO","qubkqe3wqk","0","76","78","75","","","","","","lextale","true","false","","","","","","","",""
"735","
  <p style=""font-size: 40px;"">plim</p>
  <p style=""font-size: 16px;"">J = YES &nbsp;&nbsp;&nbsp; F = NO</p>
","f","html-keyboard-response","42","2.1.0","98249","J=YES, F=NO","qubkqe3wqk","0","76","78","75","","","","","","lextale","false","false","","","","","","","",""
"494","
  <p style=""font-size: 40px;"">cable</p>
  <p style=""font-size: 16px;"">J = YES &nbsp;&nbsp;&nbsp; F = NO</p>
","j","html-keyboard-response","43","2.1.0","98745","J=YES, F=NO","qubkqe3wqk","0","76","78","75","","","","","","lextale","true","false","","","","","","","",""
"900","
  <p style=""font-size: 40px;"">shrivel</p>
  <p style=""font-size: 16px;"">J = YES &nbsp;&nbsp;&nbsp; F = NO</p>
","f","html-keyboard-response","44","2.1.0","99646","J=YES, F=NO","qubkqe3wqk","0","76","78","75","","","","","","lextale","true","false","","","","","","","",""
"1493","
  <p style=""font-size: 40px;"">tarnish</p>
  <p style=""font-size: 16px;"">J = YES &nbsp;&nbsp;&nbsp; F = NO</p>
","j","html-keyboard-response","45","2.1.0","101143","J=YES, F=NO","qubkqe3wqk","0","76","78","75","","","","","","lextale","true","false","","","","","","","",""
"2167","
  <p style=""font-size: 40px;"">blim</p>
  <p style=""font-size: 16px;"">J = YES &nbsp;&nbsp;&nbsp; F = NO</p>
","f","html-keyboard-response","46","2.1.0","103312","J=YES, F=NO","qubkqe3wqk","0","76","78","75","","","","","","lextale","false","false","","","","","","","",""
"746","
  <p style=""font-size: 40px;"">stifle</p>
  <p style=""font-size: 16px;"">J = YES &nbsp;&nbsp;&nbsp; F = NO</p>
","f","html-keyboard-response","47","2.1.0","104061","J=YES, F=NO","qubkqe3wqk","0","76","78","75","","","","","","lextale","true","false","","","","","","","",""
"822","
  <p style=""font-size: 40px;"">bint</p>
  <p style=""font-size: 16px;"">J = YES &nbsp;&nbsp;&nbsp; F = NO</p>
","f","html-keyboard-response","48","2.1.0","104885","J=YES, F=NO","qubkqe3wqk","0","76","78","75","","","","","","lextale","false","false","","","","","","","",""
"616","
  <p style=""font-size: 40px;"">purple</p>
  <p style=""font-size: 16px;"">J = YES &nbsp;&nbsp;&nbsp; F = NO</p>
","j","html-keyboard-response","49","2.1.0","105505","J=YES, F=NO","qubkqe3wqk","0","76","78","75","","","","","","lextale","true","false","","","","","","","",""
"848","
  <p style=""font-size: 40px;"">wriggle</p>
  <p style=""font-size: 16px;"">J = YES &nbsp;&nbsp;&nbsp; F = NO</p>
","j","html-keyboard-response","50","2.1.0","106355","J=YES, F=NO","qubkqe3wqk","0","76","78","75","","","","","","lextale","true","false","","","","","","","",""
"861","
  <p style=""font-size: 40px;"">mangle</p>
  <p style=""font-size: 16px;"">J = YES &nbsp;&nbsp;&nbsp; F = NO</p>
","j","html-keyboard-response","51","2.1.0","107220","J=YES, F=NO","qubkqe3wqk","0","76","78","75","","","","","","lextale","true","false","","","","","","","",""
"1102","
  <p style=""font-size: 40px;"">shramp</p>
  <p style=""font-size: 16px;"">J = YES &nbsp;&nbsp;&nbsp; F = NO</p>
","f","html-keyboard-response","52","2.1.0","108326","J=YES, F=NO","qubkqe3wqk","0","76","78","75","","","","","","lextale","false","false","","","","","","","",""
"699","
  <p style=""font-size: 40px;"">flirt</p>
  <p style=""font-size: 16px;"">J = YES &nbsp;&nbsp;&nbsp; F = NO</p>
","j","html-keyboard-response","53","2.1.0","109028","J=YES, F=NO","qubkqe3wqk","0","76","78","75","","","","","","lextale","true","false","","","","","","","",""
"738","
  <p style=""font-size: 40px;"">frip</p>
  <p style=""font-size: 16px;"">J = YES &nbsp;&nbsp;&nbsp; F = NO</p>
","f","html-keyboard-response","54","2.1.0","109770","J=YES, F=NO","qubkqe3wqk","0","76","78","75","","","","","","lextale","false","false","","","","","","","",""
"581","
  <p style=""font-size: 40px;"">tangle</p>
  <p style=""font-size: 16px;"">J = YES &nbsp;&nbsp;&nbsp; F = NO</p>
","j","html-keyboard-response","55","2.1.0","110354","J=YES, F=NO","qubkqe3wqk","0","76","78","75","","","","","","lextale","true","false","","","","","","","",""
"792","
  <p style=""font-size: 40px;"">crumble</p>
  <p style=""font-size: 16px;"">J = YES &nbsp;&nbsp;&nbsp; F = NO</p>
","j","html-keyboard-response","56","2.1.0","111150","J=YES, F=NO","qubkqe3wqk","0","76","78","75","","","","","","lextale","true","false","","","","","","","",""
"713","
  <p style=""font-size: 40px;"">wrinkle</p>
  <p style=""font-size: 16px;"">J = YES &nbsp;&nbsp;&nbsp; F = NO</p>
","j","html-keyboard-response","57","2.1.0","111866","J=YES, F=NO","qubkqe3wqk","0","76","78","75","","","","","","lextale","true","false","","","","","","","",""
"1884","
  <p style=""font-size: 40px;"">slumb</p>
  <p style=""font-size: 16px;"">J = YES &nbsp;&nbsp;&nbsp; F = NO</p>
","f","html-keyboard-response","58","2.1.0","113752","J=YES, F=NO","qubkqe3wqk","0","76","78","75","","","","","","lextale","false","false","","","","","","","",""
"707","
  <p style=""font-size: 40px;"">jungle</p>
  <p style=""font-size: 16px;"">J = YES &nbsp;&nbsp;&nbsp; F = NO</p>
","j","html-keyboard-response","59","2.1.0","114460","J=YES, F=NO","qubkqe3wqk","0","76","78","75","","","","","","lextale","true","false","","","","","","","",""
"798","
  <p style=""font-size: 40px;"">frolick</p>
  <p style=""font-size: 16px;"">J = YES &nbsp;&nbsp;&nbsp; F = NO</p>
","j","html-keyboard-response","60","2.1.0","115259","J=YES, F=NO","qubkqe3wqk","0","76","78","75","","","","","","lextale","false","false","","","","","","","",""
"1513","
      <h2>LexTALE Test Completed</h2>
      <p>Your LexTALE vocabulary score is: <strong>76%</strong></p>
      <p>Press any key to continue.</p>
    "," ","html-keyboard-response","61","2.1.0","116776","J=YES, F=NO","qubkqe3wqk","0","76","78","75","","","","","","","","","","","","","","","",""
"2190","
    <div style=""max-width: 800px; margin: auto; text-align: left;"">
      <h2>Break Time</h2>
      <p>You have completed the first part of the study.</p>
      <p>You may take a short <strong>30-second break</strong> before continuing.</p>
      <p>When you’re ready, press any key to continue to the final task.</p>
    </div>
  "," ","html-keyboard-response","62","2.1.0","118968","J=YES, F=NO","qubkqe3wqk","0","76","78","75","","","","","","","","","","","","","","","",""
"8658","
    <div style=""max-width: 800px; margin: auto; text-align: left;"">
      <h2>Part 2: Lexical Decision Task</h2>
      <p>You will now begin the second part of the study.</p>
      <p>Each trial will follow this sequence:</p>
      <ul>
        <li>A fixation cross (+) appears at the center of the screen.</li>
        <li>You will hear a short beep followed by a spoken word.</li>
        <li>A written word will appear briefly on the screen.</li>
      </ul>
      <p>Your task is to judge whether the <strong>written word</strong> is a real English word.</p>
      <p style=""margin-top: 1em;""><strong>Key responses:</strong></p>
      <ul>
        <li><strong>J</strong> = YES (real English word)</li>
        <li><strong>F</strong> = NO (not a real English word)</li>
      </ul>
      <p>Please respond as quickly and accurately as you can.</p>
      <p style=""margin-top: 2em;"">Press any key to continue.</p>
    </div>
  "," ","html-keyboard-response","63","2.1.0","127628","J=YES, F=NO","qubkqe3wqk","0","76","78","75","","","","","","","","","","","","","","","",""
"13795","
    <div style=""max-width: 800px; margin: auto; text-align: left;"">
      <h2>Before You Begin</h2>
      <p>Make sure your sound is turned on.</p>
      <p>You will hear audio during each trial, but your decision should be based only on the <strong>written word</strong> you see on the screen.</p>
      <p><strong>Reminder:</strong></p>
      <ul>
        <li><strong>J</strong> = YES (real English word)</li>
        <li><strong>F</strong> = NO (not a real English word)</li>
      </ul>
      <p style=""margin-top: 2em;"">Press any key when you are ready to begin.</p>
    </div>
  "," ","html-keyboard-response","64","2.1.0","141427","J=YES, F=NO","qubkqe3wqk","0","76","78","75","","","","","","","","","","","","","","","",""
"1380","
    <div style=""max-width: 800px; margin: auto; text-align: left;"">
      <h2>Part 2: Practice Trials</h2>
      <p>You will now complete a few <strong>practice trials</strong> to get familiar with the task.</p>
      <p>These trials are <strong>not scored</strong> and are only to help you get used to the format.</p>
      <p style=""margin-top: 2em;"">Press any key to begin.</p>
    </div>
  "," ","html-keyboard-response","65","2.1.0","142808","J=YES, F=NO","qubkqe3wqk","0","76","78","75","","","","","","","","","","","","","","","",""
"1099","<p>Starting practice block 1 of 2. Press any key to continue.</p>"," ","html-keyboard-response","66","2.1.0","143908","J=YES, F=NO","qubkqe3wqk","0","76","78","75","","","","","","","","","","","","","","","",""
"null","<p style=""font-size: 50px;"">+</p>","null","html-keyboard-response","67","2.1.0","144217","J=YES, F=NO","qubkqe3wqk","0","76","78","75","","","","","","","","","","","","","","","",""
"null","audio/beep-329314.mp3","null","audio-keyboard-response","68","2.1.0","146117","J=YES, F=NO","qubkqe3wqk","0","76","78","75","","","","","","","","","","","","","","","",""
"null","audio/gossip1.wav","null","audio-keyboard-response","69","2.1.0","146977","J=YES, F=NO","qubkqe3wqk","0","76","78","75","","","","","","","","","","","","","","","",""
"null","
          <p id=""word"" style=""font-size: 40px;"">camerish</p>
          <p style=""font-size: 16px;"">J = YES &nbsp;&nbsp;&nbsp; F = NO</p>
        ","null","html-keyboard-response","70","2.1.0","148488","J=YES, F=NO","qubkqe3wqk","0","76","78","75","","","","","","","","","camerish","gossip1","pseudoword","pseudoword","f","false","",""
"null","<p style=""font-size: 50px;"">+</p>","null","html-keyboard-response","71","2.1.0","148796","J=YES, F=NO","qubkqe3wqk","0","76","78","75","","","","","","","","","","","","","","","",""
"null","audio/beep-329314.mp3","null","audio-keyboard-response","72","2.1.0","150337","J=YES, F=NO","qubkqe3wqk","0","76","78","75","","","","","","","","","","","","","","","",""
"null","audio/hotel1.wav","null","audio-keyboard-response","73","2.1.0","151216","J=YES, F=NO","qubkqe3wqk","0","76","78","75","","","","","","","","","","","","","","","",""
"876","
          <p id=""word"" style=""font-size: 40px;"">flanter</p>
          <p style=""font-size: 16px;"">J = YES &nbsp;&nbsp;&nbsp; F = NO</p>
        ","j","html-keyboard-response","74","2.1.0","152095","J=YES, F=NO","qubkqe3wqk","0","76","78","75","","","","","","","","","flanter","hotel1","pseudoword","pseudoword","f","false","",""
"null","<p style=""font-size: 50px;"">+</p>","null","html-keyboard-response","75","2.1.0","152409","J=YES, F=NO","qubkqe3wqk","0","76","78","75","","","","","","","","","","","","","","","",""
"null","audio/beep-329314.mp3","null","audio-keyboard-response","76","2.1.0","153956","J=YES, F=NO","qubkqe3wqk","0","76","78","75","","","","","","","","","","","","","","","",""
"null","audio/belief.wav","null","audio-keyboard-response","77","2.1.0","154596","J=YES, F=NO","qubkqe3wqk","0","76","78","75","","","","","","","","","","","","","","","",""
"375","
          <p id=""word"" style=""font-size: 40px;"">read</p>
          <p style=""font-size: 16px;"">J = YES &nbsp;&nbsp;&nbsp; F = NO</p>
        ","j","html-keyboard-response","78","2.1.0","154975","J=YES, F=NO","qubkqe3wqk","0","76","78","75","","","","","","","","","read","belief","filler","filler","j","true","",""
"null","<p style=""font-size: 50px;"">+</p>","null","html-keyboard-response","79","2.1.0","155288","J=YES, F=NO","qubkqe3wqk","0","76","78","75","","","","","","","","","","","","","","","",""
"null","audio/beep-329314.mp3","null","audio-keyboard-response","80","2.1.0","156816","J=YES, F=NO","qubkqe3wqk","0","76","78","75","","","","","","","","","","","","","","","",""
"null","audio/planet1.wav","null","audio-keyboard-response","81","2.1.0","157635","J=YES, F=NO","qubkqe3wqk","0","76","78","75","","","","","","","","","","","","","","","",""
"409","
          <p id=""word"" style=""font-size: 40px;"">cratched</p>
          <p style=""font-size: 16px;"">J = YES &nbsp;&nbsp;&nbsp; F = NO</p>
        ","j","html-keyboard-response","82","2.1.0","158048","J=YES, F=NO","qubkqe3wqk","0","76","78","75","","","","","","","","","cratched","planet1","pseudoword","pseudoword","f","false","",""
"null","<p style=""font-size: 50px;"">+</p>","null","html-keyboard-response","83","2.1.0","158358","J=YES, F=NO","qubkqe3wqk","0","76","78","75","","","","","","","","","","","","","","","",""
"null","audio/beep-329314.mp3","null","audio-keyboard-response","84","2.1.0","159896","J=YES, F=NO","qubkqe3wqk","0","76","78","75","","","","","","","","","","","","","","","",""
"null","audio/account1.wav","null","audio-keyboard-response","85","2.1.0","160796","J=YES, F=NO","qubkqe3wqk","0","76","78","75","","","","","","","","","","","","","","","",""
"609","
          <p id=""word"" style=""font-size: 40px;"">paint</p>
          <p style=""font-size: 16px;"">J = YES &nbsp;&nbsp;&nbsp; F = NO</p>
        ","j","html-keyboard-response","86","2.1.0","161410","J=YES, F=NO","qubkqe3wqk","0","76","78","75","","","","","","","","","paint","account1","filler","filler","j","true","",""
"null","<p style=""font-size: 50px;"">+</p>","null","html-keyboard-response","87","2.1.0","161727","J=YES, F=NO","qubkqe3wqk","0","76","78","75","","","","","","","","","","","","","","","",""
"null","audio/beep-329314.mp3","null","audio-keyboard-response","88","2.1.0","163256","J=YES, F=NO","qubkqe3wqk","0","76","78","75","","","","","","","","","","","","","","","",""
"null","audio/winter.wav","null","audio-keyboard-response","89","2.1.0","163975","J=YES, F=NO","qubkqe3wqk","0","76","78","75","","","","","","","","","","","","","","","",""
"597","
          <p id=""word"" style=""font-size: 40px;"">straven</p>
          <p style=""font-size: 16px;"">J = YES &nbsp;&nbsp;&nbsp; F = NO</p>
        ","f","html-keyboard-response","90","2.1.0","164577","J=YES, F=NO","qubkqe3wqk","0","76","78","75","","","","","","","","","straven","winter","pseudoword","pseudoword","f","true","",""
"null","<p style=""font-size: 50px;"">+</p>","null","html-keyboard-response","91","2.1.0","164882","J=YES, F=NO","qubkqe3wqk","0","76","78","75","","","","","","","","","","","","","","","",""
"null","audio/beep-329314.mp3","null","audio-keyboard-response","92","2.1.0","166416","J=YES, F=NO","qubkqe3wqk","0","76","78","75","","","","","","","","","","","","","","","",""
"null","audio/baby.wav","null","audio-keyboard-response","93","2.1.0","167036","J=YES, F=NO","qubkqe3wqk","0","76","78","75","","","","","","","","","","","","","","","",""
"424","
          <p id=""word"" style=""font-size: 40px;"">lift</p>
          <p style=""font-size: 16px;"">J = YES &nbsp;&nbsp;&nbsp; F = NO</p>
        ","j","html-keyboard-response","94","2.1.0","167464","J=YES, F=NO","qubkqe3wqk","0","76","78","75","","","","","","","","","lift","baby","filler","filler","j","true","",""
"null","<p style=""font-size: 50px;"">+</p>","null","html-keyboard-response","95","2.1.0","167777","J=YES, F=NO","qubkqe3wqk","0","76","78","75","","","","","","","","","","","","","","","",""
"null","audio/beep-329314.mp3","null","audio-keyboard-response","96","2.1.0","169316","J=YES, F=NO","qubkqe3wqk","0","76","78","75","","","","","","","","","","","","","","","",""
"null","audio/floor.wav","null","audio-keyboard-response","97","2.1.0","170035","J=YES, F=NO","qubkqe3wqk","0","76","78","75","","","","","","","","","","","","","","","",""
"756","
          <p id=""word"" style=""font-size: 40px;"">mop</p>
          <p style=""font-size: 16px;"">J = YES &nbsp;&nbsp;&nbsp; F = NO</p>
        ","j","html-keyboard-response","98","2.1.0","170795","J=YES, F=NO","qubkqe3wqk","0","76","78","75","","","","","","","","","mop","floor","filler","filler","j","true","",""
"null","<p style=""font-size: 50px;"">+</p>","null","html-keyboard-response","99","2.1.0","171106","J=YES, F=NO","qubkqe3wqk","0","76","78","75","","","","","","","","","","","","","","","",""
"null","audio/beep-329314.mp3","null","audio-keyboard-response","100","2.1.0","172636","J=YES, F=NO","qubkqe3wqk","0","76","78","75","","","","","","","","","","","","","","","",""
"null","audio/breath.wav","null","audio-keyboard-response","101","2.1.0","173216","J=YES, F=NO","qubkqe3wqk","0","76","78","75","","","","","","","","","","","","","","","",""
"497","
          <p id=""word"" style=""font-size: 40px;"">twets</p>
          <p style=""font-size: 16px;"">J = YES &nbsp;&nbsp;&nbsp; F = NO</p>
        ","j","html-keyboard-response","102","2.1.0","173718","J=YES, F=NO","qubkqe3wqk","0","76","78","75","","","","","","","","","twets","breath","pseudoword","pseudoword","f","false","",""
"null","<p style=""font-size: 50px;"">+</p>","null","html-keyboard-response","103","2.1.0","174030","J=YES, F=NO","qubkqe3wqk","0","76","78","75","","","","","","","","","","","","","","","",""
"null","audio/beep-329314.mp3","null","audio-keyboard-response","104","2.1.0","175576","J=YES, F=NO","qubkqe3wqk","0","76","78","75","","","","","","","","","","","","","","","",""
"null","audio/cancer1.wav","null","audio-keyboard-response","105","2.1.0","176276","J=YES, F=NO","qubkqe3wqk","0","76","78","75","","","","","","","","","","","","","","","",""
"319","
          <p id=""word"" style=""font-size: 40px;"">draw</p>
          <p style=""font-size: 16px;"">J = YES &nbsp;&nbsp;&nbsp; F = NO</p>
        ","f","html-keyboard-response","106","2.1.0","176598","J=YES, F=NO","qubkqe3wqk","0","76","78","75","","","","","","","","","draw","cancer1","filler","filler","j","false","",""
"null","<p style=""font-size: 50px;"">+</p>","null","html-keyboard-response","107","2.1.0","176903","J=YES, F=NO","qubkqe3wqk","0","76","78","75","","","","","","","","","","","","","","","",""
"null","audio/beep-329314.mp3","null","audio-keyboard-response","108","2.1.0","178437","J=YES, F=NO","qubkqe3wqk","0","76","78","75","","","","","","","","","","","","","","","",""
"null","audio/brain.wav","null","audio-keyboard-response","109","2.1.0","178936","J=YES, F=NO","qubkqe3wqk","0","76","78","75","","","","","","","","","","","","","","","",""
"447","
          <p id=""word"" style=""font-size: 40px;"">throw</p>
          <p style=""font-size: 16px;"">J = YES &nbsp;&nbsp;&nbsp; F = NO</p>
        ","j","html-keyboard-response","110","2.1.0","179387","J=YES, F=NO","qubkqe3wqk","0","76","78","75","","","","","","","","","throw","brain","filler","filler","j","true","",""
"null","<p style=""font-size: 50px;"">+</p>","null","html-keyboard-response","111","2.1.0","179704","J=YES, F=NO","qubkqe3wqk","0","76","78","75","","","","","","","","","","","","","","","",""
"null","audio/beep-329314.mp3","null","audio-keyboard-response","112","2.1.0","181236","J=YES, F=NO","qubkqe3wqk","0","76","78","75","","","","","","","","","","","","","","","",""
"null","audio/survey1.wav","null","audio-keyboard-response","113","2.1.0","182235","J=YES, F=NO","qubkqe3wqk","0","76","78","75","","","","","","","","","","","","","","","",""
"646","
          <p id=""word"" style=""font-size: 40px;"">imploth</p>
          <p style=""font-size: 16px;"">J = YES &nbsp;&nbsp;&nbsp; F = NO</p>
        ","f","html-keyboard-response","114","2.1.0","182886","J=YES, F=NO","qubkqe3wqk","0","76","78","75","","","","","","","","","imploth","survey1","pseudoword","pseudoword","f","true","",""
"1046","<p>Starting practice block 2 of 2. Press any key to continue.</p>"," ","html-keyboard-response","115","2.1.0","183934","J=YES, F=NO","qubkqe3wqk","0","76","78","75","","","","","","","","","","","","","","","",""
"null","<p style=""font-size: 50px;"">+</p>","null","html-keyboard-response","116","2.1.0","184241","J=YES, F=NO","qubkqe3wqk","0","76","78","75","","","","","","","","","","","","","","","",""
"null","audio/beep-329314.mp3","null","audio-keyboard-response","117","2.1.0","185777","J=YES, F=NO","qubkqe3wqk","0","76","78","75","","","","","","","","","","","","","","","",""
"null","audio/cash1.wav","null","audio-keyboard-response","118","2.1.0","186376","J=YES, F=NO","qubkqe3wqk","0","76","78","75","","","","","","","","","","","","","","","",""
"911","
          <p id=""word"" style=""font-size: 40px;"">splear</p>
          <p style=""font-size: 16px;"">J = YES &nbsp;&nbsp;&nbsp; F = NO</p>
        ","f","html-keyboard-response","119","2.1.0","187290","J=YES, F=NO","qubkqe3wqk","0","76","78","75","","","","","","","","","splear","cash1","pseudoword","pseudoword","f","true","",""
"null","<p style=""font-size: 50px;"">+</p>","null","html-keyboard-response","120","2.1.0","187607","J=YES, F=NO","qubkqe3wqk","0","76","78","75","","","","","","","","","","","","","","","",""
"null","audio/beep-329314.mp3","null","audio-keyboard-response","121","2.1.0","189136","J=YES, F=NO","qubkqe3wqk","0","76","78","75","","","","","","","","","","","","","","","",""
"null","audio/ankle1.wav","null","audio-keyboard-response","122","2.1.0","189675","J=YES, F=NO","qubkqe3wqk","0","76","78","75","","","","","","","","","","","","","","","",""
"366","
          <p id=""word"" style=""font-size: 40px;"">kick</p>
          <p style=""font-size: 16px;"">J = YES &nbsp;&nbsp;&nbsp; F = NO</p>
        ","j","html-keyboard-response","123","2.1.0","190046","J=YES, F=NO","qubkqe3wqk","0","76","78","75","","","","","","","","","kick","ankle1","filler","filler","j","true","",""
"null","<p style=""font-size: 50px;"">+</p>","null","html-keyboard-response","124","2.1.0","190360","J=YES, F=NO","qubkqe3wqk","0","76","78","75","","","","","","","","","","","","","","","",""
"null","audio/beep-329314.mp3","null","audio-keyboard-response","125","2.1.0","191896","J=YES, F=NO","qubkqe3wqk","0","76","78","75","","","","","","","","","","","","","","","",""
"null","audio/arm.wav","null","audio-keyboard-response","126","2.1.0","192456","J=YES, F=NO","qubkqe3wqk","0","76","78","75","","","","","","","","","","","","","","","",""
"353","
          <p id=""word"" style=""font-size: 40px;"">pigne</p>
          <p style=""font-size: 16px;"">J = YES &nbsp;&nbsp;&nbsp; F = NO</p>
        ","j","html-keyboard-response","127","2.1.0","192811","J=YES, F=NO","qubkqe3wqk","0","76","78","75","","","","","","","","","pigne","arm","pseudoword","pseudoword","f","false","",""
"null","<p style=""font-size: 50px;"">+</p>","null","html-keyboard-response","128","2.1.0","193125","J=YES, F=NO","qubkqe3wqk","0","76","78","75","","","","","","","","","","","","","","","",""
"null","audio/beep-329314.mp3","null","audio-keyboard-response","129","2.1.0","194652","J=YES, F=NO","qubkqe3wqk","0","76","78","75","","","","","","","","","","","","","","","",""
"null","audio/window1.wav","null","audio-keyboard-response","130","2.1.0","195273","J=YES, F=NO","qubkqe3wqk","0","76","78","75","","","","","","","","","","","","","","","",""
"483","
          <p id=""word"" style=""font-size: 40px;"">toss</p>
          <p style=""font-size: 16px;"">J = YES &nbsp;&nbsp;&nbsp; F = NO</p>
        ","j","html-keyboard-response","131","2.1.0","195756","J=YES, F=NO","qubkqe3wqk","0","76","78","75","","","","","","","","","toss","window1","filler","filler","j","true","",""
"null","<p style=""font-size: 50px;"">+</p>","null","html-keyboard-response","132","2.1.0","196061","J=YES, F=NO","qubkqe3wqk","0","76","78","75","","","","","","","","","","","","","","","",""
"null","audio/beep-329314.mp3","null","audio-keyboard-response","133","2.1.0","197593","J=YES, F=NO","qubkqe3wqk","0","76","78","75","","","","","","","","","","","","","","","",""
"null","audio/beach1.wav","null","audio-keyboard-response","134","2.1.0","198335","J=YES, F=NO","qubkqe3wqk","0","76","78","75","","","","","","","","","","","","","","","",""
"409","
          <p id=""word"" style=""font-size: 40px;"">drive</p>
          <p style=""font-size: 16px;"">J = YES &nbsp;&nbsp;&nbsp; F = NO</p>
        ","j","html-keyboard-response","135","2.1.0","198745","J=YES, F=NO","qubkqe3wqk","0","76","78","75","","","","","","","","","drive","beach1","filler","filler","j","true","",""
"null","<p style=""font-size: 50px;"">+</p>","null","html-keyboard-response","136","2.1.0","199048","J=YES, F=NO","qubkqe3wqk","0","76","78","75","","","","","","","","","","","","","","","",""
"null","audio/beep-329314.mp3","null","audio-keyboard-response","137","2.1.0","200575","J=YES, F=NO","qubkqe3wqk","0","76","78","75","","","","","","","","","","","","","","","",""
"null","audio/vehicle1.wav","null","audio-keyboard-response","138","2.1.0","201234","J=YES, F=NO","qubkqe3wqk","0","76","78","75","","","","","","","","","","","","","","","",""
"518","
          <p id=""word"" style=""font-size: 40px;"">dropt</p>
          <p style=""font-size: 16px;"">J = YES &nbsp;&nbsp;&nbsp; F = NO</p>
        ","j","html-keyboard-response","139","2.1.0","201754","J=YES, F=NO","qubkqe3wqk","0","76","78","75","","","","","","","","","dropt","vehicle1","pseudoword","pseudoword","f","false","",""
"null","<p style=""font-size: 50px;"">+</p>","null","html-keyboard-response","140","2.1.0","202064","J=YES, F=NO","qubkqe3wqk","0","76","78","75","","","","","","","","","","","","","","","",""
"null","audio/beep-329314.mp3","null","audio-keyboard-response","141","2.1.0","203595","J=YES, F=NO","qubkqe3wqk","0","76","78","75","","","","","","","","","","","","","","","",""
"null","audio/bomb1.wav","null","audio-keyboard-response","142","2.1.0","204233","J=YES, F=NO","qubkqe3wqk","0","76","78","75","","","","","","","","","","","","","","","",""
"393","
          <p id=""word"" style=""font-size: 40px;"">clean</p>
          <p style=""font-size: 16px;"">J = YES &nbsp;&nbsp;&nbsp; F = NO</p>
        ","j","html-keyboard-response","143","2.1.0","204628","J=YES, F=NO","qubkqe3wqk","0","76","78","75","","","","","","","","","clean","bomb1","filler","filler","j","true","",""
"null","<p style=""font-size: 50px;"">+</p>","null","html-keyboard-response","144","2.1.0","204933","J=YES, F=NO","qubkqe3wqk","0","76","78","75","","","","","","","","","","","","","","","",""
"null","audio/beep-329314.mp3","null","audio-keyboard-response","145","2.1.0","206476","J=YES, F=NO","qubkqe3wqk","0","76","78","75","","","","","","","","","","","","","","","",""
"null","audio/flaw.wav","null","audio-keyboard-response","146","2.1.0","207335","J=YES, F=NO","qubkqe3wqk","0","76","78","75","","","","","","","","","","","","","","","",""
"515","
          <p id=""word"" style=""font-size: 40px;"">thwool</p>
          <p style=""font-size: 16px;"">J = YES &nbsp;&nbsp;&nbsp; F = NO</p>
        ","j","html-keyboard-response","147","2.1.0","207853","J=YES, F=NO","qubkqe3wqk","0","76","78","75","","","","","","","","","thwool","flaw","pseudoword","pseudoword","f","false","",""
"null","<p style=""font-size: 50px;"">+</p>","null","html-keyboard-response","148","2.1.0","208155","J=YES, F=NO","qubkqe3wqk","0","76","78","75","","","","","","","","","","","","","","","",""
"null","audio/beep-329314.mp3","null","audio-keyboard-response","149","2.1.0","209693","J=YES, F=NO","qubkqe3wqk","0","76","78","75","","","","","","","","","","","","","","","",""
"null","audio/butter1.wav","null","audio-keyboard-response","150","2.1.0","210153","J=YES, F=NO","qubkqe3wqk","0","76","78","75","","","","","","","","","","","","","","","",""
"463","
          <p id=""word"" style=""font-size: 40px;"">chew</p>
          <p style=""font-size: 16px;"">J = YES &nbsp;&nbsp;&nbsp; F = NO</p>
        ","f","html-keyboard-response","151","2.1.0","210616","J=YES, F=NO","qubkqe3wqk","0","76","78","75","","","","","","","","","chew","butter1","filler","filler","j","false","",""
"null","<p style=""font-size: 50px;"">+</p>","null","html-keyboard-response","152","2.1.0","210923","J=YES, F=NO","qubkqe3wqk","0","76","78","75","","","","","","","","","","","","","","","",""
"null","audio/beep-329314.mp3","null","audio-keyboard-response","153","2.1.0","212457","J=YES, F=NO","qubkqe3wqk","0","76","78","75","","","","","","","","","","","","","","","",""
"null","audio/kettle1.wav","null","audio-keyboard-response","154","2.1.0","213072","J=YES, F=NO","qubkqe3wqk","0","76","78","75","","","","","","","","","","","","","","","",""
"419","
          <p id=""word"" style=""font-size: 40px;"">wrap</p>
          <p style=""font-size: 16px;"">J = YES &nbsp;&nbsp;&nbsp; F = NO</p>
        ","j","html-keyboard-response","155","2.1.0","213493","J=YES, F=NO","qubkqe3wqk","0","76","78","75","","","","","","","","","wrap","kettle1","filler","filler","j","true","",""
"null","<p style=""font-size: 50px;"">+</p>","null","html-keyboard-response","156","2.1.0","213805","J=YES, F=NO","qubkqe3wqk","0","76","78","75","","","","","","","","","","","","","","","",""
"null","audio/beep-329314.mp3","null","audio-keyboard-response","157","2.1.0","215337","J=YES, F=NO","qubkqe3wqk","0","76","78","75","","","","","","","","","","","","","","","",""
"null","audio/cinema1.wav","null","audio-keyboard-response","158","2.1.0","216214","J=YES, F=NO","qubkqe3wqk","0","76","78","75","","","","","","","","","","","","","","","",""
"347","
          <p id=""word"" style=""font-size: 40px;"">murple</p>
          <p style=""font-size: 16px;"">J = YES &nbsp;&nbsp;&nbsp; F = NO</p>
        ","j","html-keyboard-response","159","2.1.0","216563","J=YES, F=NO","qubkqe3wqk","0","76","78","75","","","","","","","","","murple","cinema1","pseudoword","pseudoword","f","false","",""
"null","<p style=""font-size: 50px;"">+</p>","null","html-keyboard-response","160","2.1.0","216875","J=YES, F=NO","qubkqe3wqk","0","76","78","75","","","","","","","","","","","","","","","",""
"null","audio/beep-329314.mp3","null","audio-keyboard-response","161","2.1.0","218416","J=YES, F=NO","qubkqe3wqk","0","76","78","75","","","","","","","","","","","","","","","",""
"null","audio/plot1.wav","null","audio-keyboard-response","162","2.1.0","219114","J=YES, F=NO","qubkqe3wqk","0","76","78","75","","","","","","","","","","","","","","","",""
"395","
          <p id=""word"" style=""font-size: 40px;"">glenter</p>
          <p style=""font-size: 16px;"">J = YES &nbsp;&nbsp;&nbsp; F = NO</p>
        ","j","html-keyboard-response","163","2.1.0","219510","J=YES, F=NO","qubkqe3wqk","0","76","78","75","","","","","","","","","glenter","plot1","pseudoword","pseudoword","f","false","",""
"61938","
    <div style=""max-width: 800px; margin: auto; text-align: left;"">
      <h2>Part 2: Main Trials</h2>
      <p>Great job on the practice trials!</p>
      <p>You will now begin the <strong>main set of trials</strong>.</p>
      <p>Remember your key assignments:</p>
      <ul>
        <li><strong>J</strong> = YES (real English word)</li>
        <li><strong>F</strong> = NO (not a real English word)</li>
      </ul>
      <p>Try to respond as <strong>quickly and accurately</strong> as possible.</p>
      <p style=""margin-top: 2em;"">Press any key to begin the main trials.</p>
    </div>
  "," ","html-keyboard-response","164","2.1.0","281451","J=YES, F=NO","qubkqe3wqk","0","76","78","75","","","","","","","","","","","","","","","",""
"2102","<p>Starting main block 1 of 8. Press any key to continue.</p>"," ","html-keyboard-response","165","2.1.0","283554","J=YES, F=NO","qubkqe3wqk","0","76","78","75","","","","","","","","","","","","","","","",""
"null","<p style=""font-size: 50px;"">+</p>","null","html-keyboard-response","166","2.1.0","283867","J=YES, F=NO","qubkqe3wqk","0","76","78","75","","","","","","","","","","","","","","","",""
"null","audio/beep-329314.mp3","null","audio-keyboard-response","167","2.1.0","285734","J=YES, F=NO","qubkqe3wqk","0","76","78","75","","","","","","","","","","","","","","","",""
"null","audio/noise1.wav","null","audio-keyboard-response","168","2.1.0","286434","J=YES, F=NO","qubkqe3wqk","0","76","78","75","","","","","","","","","","","","","","","",""
"446","
          <p id=""word"" style=""font-size: 40px;"">slintered</p>
          <p style=""font-size: 16px;"">J = YES &nbsp;&nbsp;&nbsp; F = NO</p>
        ","j","html-keyboard-response","169","2.1.0","286884","J=YES, F=NO","qubkqe3wqk","0","76","78","75","","","","","","","","","slintered","noise1","pseudoword","pseudoword","f","false","",""
"null","<p style=""font-size: 50px;"">+</p>","null","html-keyboard-response","170","2.1.0","287195","J=YES, F=NO","qubkqe3wqk","0","76","78","75","","","","","","","","","","","","","","","",""
"null","audio/beep-329314.mp3","null","audio-keyboard-response","171","2.1.0","288734","J=YES, F=NO","qubkqe3wqk","0","76","78","75","","","","","","","","","","","","","","","",""
"null","audio/dollar.wav","null","audio-keyboard-response","172","2.1.0","289115","J=YES, F=NO","qubkqe3wqk","0","76","78","75","","","","","","","","","","","","","","","",""
"308","
          <p id=""word"" style=""font-size: 40px;"">save</p>
          <p style=""font-size: 16px;"">J = YES &nbsp;&nbsp;&nbsp; F = NO</p>
        ","j","html-keyboard-response","173","2.1.0","289426","J=YES, F=NO","qubkqe3wqk","0","76","78","75","","","","","","","","","save","dollar","literal","experimental","j","true","",""
"null","<p style=""font-size: 50px;"">+</p>","null","html-keyboard-response","174","2.1.0","289737","J=YES, F=NO","qubkqe3wqk","0","76","78","75","","","","","","","","","","","","","","","",""
"null","audio/beep-329314.mp3","null","audio-keyboard-response","175","2.1.0","291276","J=YES, F=NO","qubkqe3wqk","0","76","78","75","","","","","","","","","","","","","","","",""
"null","audio/inch1.wav","null","audio-keyboard-response","176","2.1.0","291875","J=YES, F=NO","qubkqe3wqk","0","76","78","75","","","","","","","","","","","","","","","",""
"330","
          <p id=""word"" style=""font-size: 40px;"">lose</p>
          <p style=""font-size: 16px;"">J = YES &nbsp;&nbsp;&nbsp; F = NO</p>
        ","j","html-keyboard-response","177","2.1.0","292208","J=YES, F=NO","qubkqe3wqk","0","76","78","75","","","","","","","","","lose","inch1","metaphor","experimental","j","true","",""
"null","<p style=""font-size: 50px;"">+</p>","null","html-keyboard-response","178","2.1.0","292510","J=YES, F=NO","qubkqe3wqk","0","76","78","75","","","","","","","","","","","","","","","",""
"null","audio/beep-329314.mp3","null","audio-keyboard-response","179","2.1.0","294054","J=YES, F=NO","qubkqe3wqk","0","76","78","75","","","","","","","","","","","","","","","",""
"null","audio/mind.wav","null","audio-keyboard-response","180","2.1.0","294635","J=YES, F=NO","qubkqe3wqk","0","76","78","75","","","","","","","","","","","","","","","",""
"336","
          <p id=""word"" style=""font-size: 40px;"">clear</p>
          <p style=""font-size: 16px;"">J = YES &nbsp;&nbsp;&nbsp; F = NO</p>
        ","j","html-keyboard-response","181","2.1.0","294973","J=YES, F=NO","qubkqe3wqk","0","76","78","75","","","","","","","","","clear","mind","metaphor","experimental","j","true","",""
"null","<p style=""font-size: 50px;"">+</p>","null","html-keyboard-response","182","2.1.0","295285","J=YES, F=NO","qubkqe3wqk","0","76","78","75","","","","","","","","","","","","","","","",""
"null","audio/beep-329314.mp3","null","audio-keyboard-response","183","2.1.0","296814","J=YES, F=NO","qubkqe3wqk","0","76","78","75","","","","","","","","","","","","","","","",""
"null","audio/weight1.wav","null","audio-keyboard-response","184","2.1.0","297354","J=YES, F=NO","qubkqe3wqk","0","76","78","75","","","","","","","","","","","","","","","",""
"362","
          <p id=""word"" style=""font-size: 40px;"">crimsh</p>
          <p style=""font-size: 16px;"">J = YES &nbsp;&nbsp;&nbsp; F = NO</p>
        ","j","html-keyboard-response","185","2.1.0","297720","J=YES, F=NO","qubkqe3wqk","0","76","78","75","","","","","","","","","crimsh","weight1","pseudoword","pseudoword","f","false","",""
"null","<p style=""font-size: 50px;"">+</p>","null","html-keyboard-response","186","2.1.0","298029","J=YES, F=NO","qubkqe3wqk","0","76","78","75","","","","","","","","","","","","","","","",""
"null","audio/beep-329314.mp3","null","audio-keyboard-response","187","2.1.0","299575","J=YES, F=NO","qubkqe3wqk","0","76","78","75","","","","","","","","","","","","","","","",""
"null","audio/sugar1.wav","null","audio-keyboard-response","188","2.1.0","300074","J=YES, F=NO","qubkqe3wqk","0","76","78","75","","","","","","","","","","","","","","","",""
"381","
          <p id=""word"" style=""font-size: 40px;"">glung</p>
          <p style=""font-size: 16px;"">J = YES &nbsp;&nbsp;&nbsp; F = NO</p>
        ","j","html-keyboard-response","189","2.1.0","300457","J=YES, F=NO","qubkqe3wqk","0","76","78","75","","","","","","","","","glung","sugar1","pseudoword","pseudoword","f","false","",""
"null","<p style=""font-size: 50px;"">+</p>","null","html-keyboard-response","190","2.1.0","300774","J=YES, F=NO","qubkqe3wqk","0","76","78","75","","","","","","","","","","","","","","","",""
"null","audio/beep-329314.mp3","null","audio-keyboard-response","191","2.1.0","302315","J=YES, F=NO","qubkqe3wqk","0","76","78","75","","","","","","","","","","","","","","","",""
"null","audio/window1.wav","null","audio-keyboard-response","192","2.1.0","302915","J=YES, F=NO","qubkqe3wqk","0","76","78","75","","","","","","","","","","","","","","","",""
"319","
          <p id=""word"" style=""font-size: 40px;"">break</p>
          <p style=""font-size: 16px;"">J = YES &nbsp;&nbsp;&nbsp; F = NO</p>
        ","j","html-keyboard-response","193","2.1.0","303237","J=YES, F=NO","qubkqe3wqk","0","76","78","75","","","","","","","","","break","window1","literal","experimental","j","true","",""
"null","<p style=""font-size: 50px;"">+</p>","null","html-keyboard-response","194","2.1.0","303546","J=YES, F=NO","qubkqe3wqk","0","76","78","75","","","","","","","","","","","","","","","",""
"null","audio/beep-329314.mp3","null","audio-keyboard-response","195","2.1.0","305094","J=YES, F=NO","qubkqe3wqk","0","76","78","75","","","","","","","","","","","","","","","",""
"null","audio/bush1.wav","null","audio-keyboard-response","196","2.1.0","305573","J=YES, F=NO","qubkqe3wqk","0","76","78","75","","","","","","","","","","","","","","","",""
"406","
          <p id=""word"" style=""font-size: 40px;"">platined</p>
          <p style=""font-size: 16px;"">J = YES &nbsp;&nbsp;&nbsp; F = NO</p>
        ","j","html-keyboard-response","197","2.1.0","305984","J=YES, F=NO","qubkqe3wqk","0","76","78","75","","","","","","","","","platined","bush1","pseudoword","pseudoword","f","false","",""
"null","<p style=""font-size: 50px;"">+</p>","null","html-keyboard-response","198","2.1.0","306287","J=YES, F=NO","qubkqe3wqk","0","76","78","75","","","","","","","","","","","","","","","",""
"null","audio/beep-329314.mp3","null","audio-keyboard-response","199","2.1.0","307815","J=YES, F=NO","qubkqe3wqk","0","76","78","75","","","","","","","","","","","","","","","",""
"null","audio/menu.wav","null","audio-keyboard-response","200","2.1.0","308394","J=YES, F=NO","qubkqe3wqk","0","76","78","75","","","","","","","","","","","","","","","",""
"454","
          <p id=""word"" style=""font-size: 40px;"">navigate</p>
          <p style=""font-size: 16px;"">J = YES &nbsp;&nbsp;&nbsp; F = NO</p>
        ","j","html-keyboard-response","201","2.1.0","308851","J=YES, F=NO","qubkqe3wqk","0","76","78","75","","","","","","","","","navigate","menu","metaphor","experimental","j","true","",""
"null","<p style=""font-size: 50px;"">+</p>","null","html-keyboard-response","202","2.1.0","309156","J=YES, F=NO","qubkqe3wqk","0","76","78","75","","","","","","","","","","","","","","","",""
"null","audio/beep-329314.mp3","null","audio-keyboard-response","203","2.1.0","310694","J=YES, F=NO","qubkqe3wqk","0","76","78","75","","","","","","","","","","","","","","","",""
"null","audio/fox.wav","null","audio-keyboard-response","204","2.1.0","311495","J=YES, F=NO","qubkqe3wqk","0","76","78","75","","","","","","","","","","","","","","","",""
"350","
          <p id=""word"" style=""font-size: 40px;"">conquer</p>
          <p style=""font-size: 16px;"">J = YES &nbsp;&nbsp;&nbsp; F = NO</p>
        ","j","html-keyboard-response","205","2.1.0","311847","J=YES, F=NO","qubkqe3wqk","0","76","78","75","","","","","","","","","conquer","fox","unrelated","experimental","j","true","",""
"null","<p style=""font-size: 50px;"">+</p>","null","html-keyboard-response","206","2.1.0","312164","J=YES, F=NO","qubkqe3wqk","0","76","78","75","","","","","","","","","","","","","","","",""
"null","audio/beep-329314.mp3","null","audio-keyboard-response","207","2.1.0","313694","J=YES, F=NO","qubkqe3wqk","0","76","78","75","","","","","","","","","","","","","","","",""
"null","audio/uncle1.wav","null","audio-keyboard-response","208","2.1.0","314174","J=YES, F=NO","qubkqe3wqk","0","76","78","75","","","","","","","","","","","","","","","",""
"361","
          <p id=""word"" style=""font-size: 40px;"">dramble</p>
          <p style=""font-size: 16px;"">J = YES &nbsp;&nbsp;&nbsp; F = NO</p>
        ","j","html-keyboard-response","209","2.1.0","314539","J=YES, F=NO","qubkqe3wqk","0","76","78","75","","","","","","","","","dramble","uncle1","pseudoword","pseudoword","f","false","",""
"null","<p style=""font-size: 50px;"">+</p>","null","html-keyboard-response","210","2.1.0","314843","J=YES, F=NO","qubkqe3wqk","0","76","78","75","","","","","","","","","","","","","","","",""
"null","audio/beep-329314.mp3","null","audio-keyboard-response","211","2.1.0","316371","J=YES, F=NO","qubkqe3wqk","0","76","78","75","","","","","","","","","","","","","","","",""
"null","audio/emotion.wav","null","audio-keyboard-response","212","2.1.0","317033","J=YES, F=NO","qubkqe3wqk","0","76","78","75","","","","","","","","","","","","","","","",""
"633","
          <p id=""word"" style=""font-size: 40px;"">devering</p>
          <p style=""font-size: 16px;"">J = YES &nbsp;&nbsp;&nbsp; F = NO</p>
        ","f","html-keyboard-response","213","2.1.0","317669","J=YES, F=NO","qubkqe3wqk","0","76","78","75","","","","","","","","","devering","emotion","pseudoword","pseudoword","f","true","",""
"null","<p style=""font-size: 50px;"">+</p>","null","html-keyboard-response","214","2.1.0","317977","J=YES, F=NO","qubkqe3wqk","0","76","78","75","","","","","","","","","","","","","","","",""
"null","audio/beep-329314.mp3","null","audio-keyboard-response","215","2.1.0","319515","J=YES, F=NO","qubkqe3wqk","0","76","78","75","","","","","","","","","","","","","","","",""
"null","audio/show.wav","null","audio-keyboard-response","216","2.1.0","320093","J=YES, F=NO","qubkqe3wqk","0","76","78","75","","","","","","","","","","","","","","","",""
"319","
          <p id=""word"" style=""font-size: 40px;"">hold</p>
          <p style=""font-size: 16px;"">J = YES &nbsp;&nbsp;&nbsp; F = NO</p>
        ","j","html-keyboard-response","217","2.1.0","320415","J=YES, F=NO","qubkqe3wqk","0","76","78","75","","","","","","","","","hold","show","metaphor","experimental","j","true","",""
"null","<p style=""font-size: 50px;"">+</p>","null","html-keyboard-response","218","2.1.0","320732","J=YES, F=NO","qubkqe3wqk","0","76","78","75","","","","","","","","","","","","","","","",""
"null","audio/beep-329314.mp3","null","audio-keyboard-response","219","2.1.0","322274","J=YES, F=NO","qubkqe3wqk","0","76","78","75","","","","","","","","","","","","","","","",""
"null","audio/tomato.wav","null","audio-keyboard-response","220","2.1.0","322954","J=YES, F=NO","qubkqe3wqk","0","76","78","75","","","","","","","","","","","","","","","",""
"355","
          <p id=""word"" style=""font-size: 40px;"">gladies</p>
          <p style=""font-size: 16px;"">J = YES &nbsp;&nbsp;&nbsp; F = NO</p>
        ","j","html-keyboard-response","221","2.1.0","323312","J=YES, F=NO","qubkqe3wqk","0","76","78","75","","","","","","","","","gladies","tomato","pseudoword","pseudoword","f","false","",""
"null","<p style=""font-size: 50px;"">+</p>","null","html-keyboard-response","222","2.1.0","323629","J=YES, F=NO","qubkqe3wqk","0","76","78","75","","","","","","","","","","","","","","","",""
"null","audio/beep-329314.mp3","null","audio-keyboard-response","223","2.1.0","325176","J=YES, F=NO","qubkqe3wqk","0","76","78","75","","","","","","","","","","","","","","","",""
"null","audio/terrain.wav","null","audio-keyboard-response","224","2.1.0","325772","J=YES, F=NO","qubkqe3wqk","0","76","78","75","","","","","","","","","","","","","","","",""
"355","
          <p id=""word"" style=""font-size: 40px;"">twist</p>
          <p style=""font-size: 16px;"">J = YES &nbsp;&nbsp;&nbsp; F = NO</p>
        ","j","html-keyboard-response","225","2.1.0","326129","J=YES, F=NO","qubkqe3wqk","0","76","78","75","","","","","","","","","twist","terrain","filler","filler","j","true","",""
"null","<p style=""font-size: 50px;"">+</p>","null","html-keyboard-response","226","2.1.0","326439","J=YES, F=NO","qubkqe3wqk","0","76","78","75","","","","","","","","","","","","","","","",""
"null","audio/beep-329314.mp3","null","audio-keyboard-response","227","2.1.0","327974","J=YES, F=NO","qubkqe3wqk","0","76","78","75","","","","","","","","","","","","","","","",""
"null","audio/trust.wav","null","audio-keyboard-response","228","2.1.0","328614","J=YES, F=NO","qubkqe3wqk","0","76","78","75","","","","","","","","","","","","","","","",""
"343","
          <p id=""word"" style=""font-size: 40px;"">swint</p>
          <p style=""font-size: 16px;"">J = YES &nbsp;&nbsp;&nbsp; F = NO</p>
        ","j","html-keyboard-response","229","2.1.0","328959","J=YES, F=NO","qubkqe3wqk","0","76","78","75","","","","","","","","","swint","trust","pseudoword","pseudoword","f","false","",""
"4053","<p>Excellent! You have finished block 1 of 8.</p>
                     <p>Feel free to take a 30 second break.</p>
                     <p>Press any key when you're ready to continue.</p>"," ","html-keyboard-response","230","2.1.0","333015","J=YES, F=NO","qubkqe3wqk","0","76","78","75","","","","","","","","","","","","","","","",""
"3983","<p>Starting main block 2 of 8. Press any key to continue.</p>"," ","html-keyboard-response","231","2.1.0","337000","J=YES, F=NO","qubkqe3wqk","0","76","78","75","","","","","","","","","","","","","","","",""
"null","<p style=""font-size: 50px;"">+</p>","null","html-keyboard-response","232","2.1.0","337307","J=YES, F=NO","qubkqe3wqk","0","76","78","75","","","","","","","","","","","","","","","",""
"null","audio/beep-329314.mp3","null","audio-keyboard-response","233","2.1.0","338855","J=YES, F=NO","qubkqe3wqk","0","76","78","75","","","","","","","","","","","","","","","",""
"null","audio/budget1.wav","null","audio-keyboard-response","234","2.1.0","339455","J=YES, F=NO","qubkqe3wqk","0","76","78","75","","","","","","","","","","","","","","","",""
"484","
          <p id=""word"" style=""font-size: 40px;"">sulist</p>
          <p style=""font-size: 16px;"">J = YES &nbsp;&nbsp;&nbsp; F = NO</p>
        ","j","html-keyboard-response","235","2.1.0","339942","J=YES, F=NO","qubkqe3wqk","0","76","78","75","","","","","","","","","sulist","budget1","pseudoword","pseudoword","f","false","",""
"null","<p style=""font-size: 50px;"">+</p>","null","html-keyboard-response","236","2.1.0","340248","J=YES, F=NO","qubkqe3wqk","0","76","78","75","","","","","","","","","","","","","","","",""
"null","audio/beep-329314.mp3","null","audio-keyboard-response","237","2.1.0","341795","J=YES, F=NO","qubkqe3wqk","0","76","78","75","","","","","","","","","","","","","","","",""
"null","audio/roof1.wav","null","audio-keyboard-response","238","2.1.0","342334","J=YES, F=NO","qubkqe3wqk","0","76","78","75","","","","","","","","","","","","","","","",""
"340","
          <p id=""word"" style=""font-size: 40px;"">wronb</p>
          <p style=""font-size: 16px;"">J = YES &nbsp;&nbsp;&nbsp; F = NO</p>
        ","j","html-keyboard-response","239","2.1.0","342677","J=YES, F=NO","qubkqe3wqk","0","76","78","75","","","","","","","","","wronb","roof1","pseudoword","pseudoword","f","false","",""
"null","<p style=""font-size: 50px;"">+</p>","null","html-keyboard-response","240","2.1.0","342989","J=YES, F=NO","qubkqe3wqk","0","76","78","75","","","","","","","","","","","","","","","",""
"null","audio/beep-329314.mp3","null","audio-keyboard-response","241","2.1.0","344535","J=YES, F=NO","qubkqe3wqk","0","76","78","75","","","","","","","","","","","","","","","",""
"null","audio/vehicle1.wav","null","audio-keyboard-response","242","2.1.0","345174","J=YES, F=NO","qubkqe3wqk","0","76","78","75","","","","","","","","","","","","","","","",""
"436","
          <p id=""word"" style=""font-size: 40px;"">approach</p>
          <p style=""font-size: 16px;"">J = YES &nbsp;&nbsp;&nbsp; F = NO</p>
        ","j","html-keyboard-response","243","2.1.0","345613","J=YES, F=NO","qubkqe3wqk","0","76","78","75","","","","","","","","","approach","vehicle1","literal","experimental","j","true","",""
"null","<p style=""font-size: 50px;"">+</p>","null","html-keyboard-response","244","2.1.0","345917","J=YES, F=NO","qubkqe3wqk","0","76","78","75","","","","","","","","","","","","","","","",""
"null","audio/beep-329314.mp3","null","audio-keyboard-response","245","2.1.0","347454","J=YES, F=NO","qubkqe3wqk","0","76","78","75","","","","","","","","","","","","","","","",""
"null","audio/novel.wav","null","audio-keyboard-response","246","2.1.0","347955","J=YES, F=NO","qubkqe3wqk","0","76","78","75","","","","","","","","","","","","","","","",""
"457","
          <p id=""word"" style=""font-size: 40px;"">type</p>
          <p style=""font-size: 16px;"">J = YES &nbsp;&nbsp;&nbsp; F = NO</p>
        ","j","html-keyboard-response","247","2.1.0","348415","J=YES, F=NO","qubkqe3wqk","0","76","78","75","","","","","","","","","type","novel","filler","filler","j","true","",""
"null","<p style=""font-size: 50px;"">+</p>","null","html-keyboard-response","248","2.1.0","348733","J=YES, F=NO","qubkqe3wqk","0","76","78","75","","","","","","","","","","","","","","","",""
"null","audio/beep-329314.mp3","null","audio-keyboard-response","249","2.1.0","350274","J=YES, F=NO","qubkqe3wqk","0","76","78","75","","","","","","","","","","","","","","","",""
"null","audio/alarm1.wav","null","audio-keyboard-response","250","2.1.0","350874","J=YES, F=NO","qubkqe3wqk","0","76","78","75","","","","","","","","","","","","","","","",""
"527","
          <p id=""word"" style=""font-size: 40px;"">lock</p>
          <p style=""font-size: 16px;"">J = YES &nbsp;&nbsp;&nbsp; F = NO</p>
        ","j","html-keyboard-response","251","2.1.0","351404","J=YES, F=NO","qubkqe3wqk","0","76","78","75","","","","","","","","","lock","alarm1","filler","filler","j","true","",""
"null","<p style=""font-size: 50px;"">+</p>","null","html-keyboard-response","252","2.1.0","351712","J=YES, F=NO","qubkqe3wqk","0","76","78","75","","","","","","","","","","","","","","","",""
"null","audio/beep-329314.mp3","null","audio-keyboard-response","253","2.1.0","353255","J=YES, F=NO","qubkqe3wqk","0","76","78","75","","","","","","","","","","","","","","","",""
"null","audio/key1.wav","null","audio-keyboard-response","254","2.1.0","353634","J=YES, F=NO","qubkqe3wqk","0","76","78","75","","","","","","","","","","","","","","","",""
"602","
          <p id=""word"" style=""font-size: 40px;"">sminsh</p>
          <p style=""font-size: 16px;"">J = YES &nbsp;&nbsp;&nbsp; F = NO</p>
        ","f","html-keyboard-response","255","2.1.0","354240","J=YES, F=NO","qubkqe3wqk","0","76","78","75","","","","","","","","","sminsh","key1","pseudoword","pseudoword","f","true","",""
"null","<p style=""font-size: 50px;"">+</p>","null","html-keyboard-response","256","2.1.0","354545","J=YES, F=NO","qubkqe3wqk","0","76","78","75","","","","","","","","","","","","","","","",""
"null","audio/beep-329314.mp3","null","audio-keyboard-response","257","2.1.0","356076","J=YES, F=NO","qubkqe3wqk","0","76","78","75","","","","","","","","","","","","","","","",""
"null","audio/budget1.wav","null","audio-keyboard-response","258","2.1.0","356675","J=YES, F=NO","qubkqe3wqk","0","76","78","75","","","","","","","","","","","","","","","",""
"316","
          <p id=""word"" style=""font-size: 40px;"">cut</p>
          <p style=""font-size: 16px;"">J = YES &nbsp;&nbsp;&nbsp; F = NO</p>
        ","j","html-keyboard-response","259","2.1.0","356993","J=YES, F=NO","qubkqe3wqk","0","76","78","75","","","","","","","","","cut","budget1","metaphor","experimental","j","true","",""
"null","<p style=""font-size: 50px;"">+</p>","null","html-keyboard-response","260","2.1.0","357300","J=YES, F=NO","qubkqe3wqk","0","76","78","75","","","","","","","","","","","","","","","",""
"null","audio/beep-329314.mp3","null","audio-keyboard-response","261","2.1.0","358836","J=YES, F=NO","qubkqe3wqk","0","76","78","75","","","","","","","","","","","","","","","",""
"null","audio/foot1.wav","null","audio-keyboard-response","262","2.1.0","359394","J=YES, F=NO","qubkqe3wqk","0","76","78","75","","","","","","","","","","","","","","","",""
"363","
          <p id=""word"" style=""font-size: 40px;"">thrutt</p>
          <p style=""font-size: 16px;"">J = YES &nbsp;&nbsp;&nbsp; F = NO</p>
        ","j","html-keyboard-response","263","2.1.0","359760","J=YES, F=NO","qubkqe3wqk","0","76","78","75","","","","","","","","","thrutt","foot1","pseudoword","pseudoword","f","false","",""
"null","<p style=""font-size: 50px;"">+</p>","null","html-keyboard-response","264","2.1.0","360072","J=YES, F=NO","qubkqe3wqk","0","76","78","75","","","","","","","","","","","","","","","",""
"null","audio/beep-329314.mp3","null","audio-keyboard-response","265","2.1.0","361615","J=YES, F=NO","qubkqe3wqk","0","76","78","75","","","","","","","","","","","","","","","",""
"null","audio/mile1.wav","null","audio-keyboard-response","266","2.1.0","362114","J=YES, F=NO","qubkqe3wqk","0","76","78","75","","","","","","","","","","","","","","","",""
"944","
          <p id=""word"" style=""font-size: 40px;"">writch</p>
          <p style=""font-size: 16px;"">J = YES &nbsp;&nbsp;&nbsp; F = NO</p>
        ","f","html-keyboard-response","267","2.1.0","363063","J=YES, F=NO","qubkqe3wqk","0","76","78","75","","","","","","","","","writch","mile1","pseudoword","pseudoword","f","true","",""
"null","<p style=""font-size: 50px;"">+</p>","null","html-keyboard-response","268","2.1.0","363373","J=YES, F=NO","qubkqe3wqk","0","76","78","75","","","","","","","","","","","","","","","",""
"null","audio/beep-329314.mp3","null","audio-keyboard-response","269","2.1.0","364915","J=YES, F=NO","qubkqe3wqk","0","76","78","75","","","","","","","","","","","","","","","",""
"null","audio/heart1.wav","null","audio-keyboard-response","270","2.1.0","365555","J=YES, F=NO","qubkqe3wqk","0","76","78","75","","","","","","","","","","","","","","","",""
"307","
          <p id=""word"" style=""font-size: 40px;"">dralm</p>
          <p style=""font-size: 16px;"">J = YES &nbsp;&nbsp;&nbsp; F = NO</p>
        ","j","html-keyboard-response","271","2.1.0","365866","J=YES, F=NO","qubkqe3wqk","0","76","78","75","","","","","","","","","dralm","heart1","pseudoword","pseudoword","f","false","",""
"null","<p style=""font-size: 50px;"">+</p>","null","html-keyboard-response","272","2.1.0","366172","J=YES, F=NO","qubkqe3wqk","0","76","78","75","","","","","","","","","","","","","","","",""
"null","audio/beep-329314.mp3","null","audio-keyboard-response","273","2.1.0","367715","J=YES, F=NO","qubkqe3wqk","0","76","78","75","","","","","","","","","","","","","","","",""
"null","audio/tunnel.wav","null","audio-keyboard-response","274","2.1.0","368154","J=YES, F=NO","qubkqe3wqk","0","76","78","75","","","","","","","","","","","","","","","",""
"892","
          <p id=""word"" style=""font-size: 40px;"">gred</p>
          <p style=""font-size: 16px;"">J = YES &nbsp;&nbsp;&nbsp; F = NO</p>
        ","f","html-keyboard-response","275","2.1.0","369049","J=YES, F=NO","qubkqe3wqk","0","76","78","75","","","","","","","","","gred","tunnel","pseudoword","pseudoword","f","true","",""
"null","<p style=""font-size: 50px;"">+</p>","null","html-keyboard-response","276","2.1.0","369363","J=YES, F=NO","qubkqe3wqk","0","76","78","75","","","","","","","","","","","","","","","",""
"null","audio/beep-329314.mp3","null","audio-keyboard-response","277","2.1.0","370896","J=YES, F=NO","qubkqe3wqk","0","76","78","75","","","","","","","","","","","","","","","",""
"null","audio/mouth1.wav","null","audio-keyboard-response","278","2.1.0","371473","J=YES, F=NO","qubkqe3wqk","0","76","78","75","","","","","","","","","","","","","","","",""
"660","
          <p id=""word"" style=""font-size: 40px;"">spolial</p>
          <p style=""font-size: 16px;"">J = YES &nbsp;&nbsp;&nbsp; F = NO</p>
        ","f","html-keyboard-response","279","2.1.0","372137","J=YES, F=NO","qubkqe3wqk","0","76","78","75","","","","","","","","","spolial","mouth1","pseudoword","pseudoword","f","true","",""
"null","<p style=""font-size: 50px;"">+</p>","null","html-keyboard-response","280","2.1.0","372442","J=YES, F=NO","qubkqe3wqk","0","76","78","75","","","","","","","","","","","","","","","",""
"null","audio/beep-329314.mp3","null","audio-keyboard-response","281","2.1.0","373975","J=YES, F=NO","qubkqe3wqk","0","76","78","75","","","","","","","","","","","","","","","",""
"null","audio/life1.wav","null","audio-keyboard-response","282","2.1.0","374555","J=YES, F=NO","qubkqe3wqk","0","76","78","75","","","","","","","","","","","","","","","",""
"888","
          <p id=""word"" style=""font-size: 40px;"">flimch</p>
          <p style=""font-size: 16px;"">J = YES &nbsp;&nbsp;&nbsp; F = NO</p>
        ","f","html-keyboard-response","283","2.1.0","375446","J=YES, F=NO","qubkqe3wqk","0","76","78","75","","","","","","","","","flimch","life1","pseudoword","pseudoword","f","true","",""
"null","<p style=""font-size: 50px;"">+</p>","null","html-keyboard-response","284","2.1.0","375757","J=YES, F=NO","qubkqe3wqk","0","76","78","75","","","","","","","","","","","","","","","",""
"null","audio/beep-329314.mp3","null","audio-keyboard-response","285","2.1.0","377294","J=YES, F=NO","qubkqe3wqk","0","76","78","75","","","","","","","","","","","","","","","",""
"null","audio/empire.wav","null","audio-keyboard-response","286","2.1.0","377934","J=YES, F=NO","qubkqe3wqk","0","76","78","75","","","","","","","","","","","","","","","",""
"480","
          <p id=""word"" style=""font-size: 40px;"">bring</p>
          <p style=""font-size: 16px;"">J = YES &nbsp;&nbsp;&nbsp; F = NO</p>
        ","j","html-keyboard-response","287","2.1.0","378418","J=YES, F=NO","qubkqe3wqk","0","76","78","75","","","","","","","","","bring","empire","unrelated","experimental","j","true","",""
"null","<p style=""font-size: 50px;"">+</p>","null","html-keyboard-response","288","2.1.0","378725","J=YES, F=NO","qubkqe3wqk","0","76","78","75","","","","","","","","","","","","","","","",""
"null","audio/beep-329314.mp3","null","audio-keyboard-response","289","2.1.0","380255","J=YES, F=NO","qubkqe3wqk","0","76","78","75","","","","","","","","","","","","","","","",""
"null","audio/birth1.wav","null","audio-keyboard-response","290","2.1.0","380795","J=YES, F=NO","qubkqe3wqk","0","76","78","75","","","","","","","","","","","","","","","",""
"450","
          <p id=""word"" style=""font-size: 40px;"">drop</p>
          <p style=""font-size: 16px;"">J = YES &nbsp;&nbsp;&nbsp; F = NO</p>
        ","j","html-keyboard-response","291","2.1.0","381248","J=YES, F=NO","qubkqe3wqk","0","76","78","75","","","","","","","","","drop","birth1","unrelated","experimental","j","true","",""
"null","<p style=""font-size: 50px;"">+</p>","null","html-keyboard-response","292","2.1.0","381557","J=YES, F=NO","qubkqe3wqk","0","76","78","75","","","","","","","","","","","","","","","",""
"null","audio/beep-329314.mp3","null","audio-keyboard-response","293","2.1.0","383094","J=YES, F=NO","qubkqe3wqk","0","76","78","75","","","","","","","","","","","","","","","",""
"null","audio/church1.wav","null","audio-keyboard-response","294","2.1.0","383794","J=YES, F=NO","qubkqe3wqk","0","76","78","75","","","","","","","","","","","","","","","",""
"477","
          <p id=""word"" style=""font-size: 40px;"">cover</p>
          <p style=""font-size: 16px;"">J = YES &nbsp;&nbsp;&nbsp; F = NO</p>
        ","j","html-keyboard-response","295","2.1.0","384275","J=YES, F=NO","qubkqe3wqk","0","76","78","75","","","","","","","","","cover","church1","unrelated","experimental","j","true","",""
"933","<p>Excellent! You have finished block 2 of 8.</p>
                     <p>Feel free to take a 30 second break.</p>
                     <p>Press any key when you're ready to continue.</p>"," ","html-keyboard-response","296","2.1.0","385209","J=YES, F=NO","qubkqe3wqk","0","76","78","75","","","","","","","","","","","","","","","",""
"811","<p>Starting main block 3 of 8. Press any key to continue.</p>"," ","html-keyboard-response","297","2.1.0","386021","J=YES, F=NO","qubkqe3wqk","0","76","78","75","","","","","","","","","","","","","","","",""
"null","<p style=""font-size: 50px;"">+</p>","null","html-keyboard-response","298","2.1.0","386335","J=YES, F=NO","qubkqe3wqk","0","76","78","75","","","","","","","","","","","","","","","",""
"null","audio/beep-329314.mp3","null","audio-keyboard-response","299","2.1.0","387874","J=YES, F=NO","qubkqe3wqk","0","76","78","75","","","","","","","","","","","","","","","",""
"null","audio/dome.wav","null","audio-keyboard-response","300","2.1.0","388314","J=YES, F=NO","qubkqe3wqk","0","76","78","75","","","","","","","","","","","","","","","",""
"589","
          <p id=""word"" style=""font-size: 40px;"">scrupliness</p>
          <p style=""font-size: 16px;"">J = YES &nbsp;&nbsp;&nbsp; F = NO</p>
        ","f","html-keyboard-response","301","2.1.0","388905","J=YES, F=NO","qubkqe3wqk","0","76","78","75","","","","","","","","","scrupliness","dome","pseudoword","pseudoword","f","true","",""
"null","<p style=""font-size: 50px;"">+</p>","null","html-keyboard-response","302","2.1.0","389206","J=YES, F=NO","qubkqe3wqk","0","76","78","75","","","","","","","","","","","","","","","",""
"null","audio/beep-329314.mp3","null","audio-keyboard-response","303","2.1.0","390734","J=YES, F=NO","qubkqe3wqk","0","76","78","75","","","","","","","","","","","","","","","",""
"null","audio/cottage1.wav","null","audio-keyboard-response","304","2.1.0","391392","J=YES, F=NO","qubkqe3wqk","0","76","78","75","","","","","","","","","","","","","","","",""
"423","
          <p id=""word"" style=""font-size: 40px;"">release</p>
          <p style=""font-size: 16px;"">J = YES &nbsp;&nbsp;&nbsp; F = NO</p>
        ","j","html-keyboard-response","305","2.1.0","391818","J=YES, F=NO","qubkqe3wqk","0","76","78","75","","","","","","","","","release","cottage1","unrelated","experimental","j","true","",""
"null","<p style=""font-size: 50px;"">+</p>","null","html-keyboard-response","306","2.1.0","392124","J=YES, F=NO","qubkqe3wqk","0","76","78","75","","","","","","","","","","","","","","","",""
"null","audio/beep-329314.mp3","null","audio-keyboard-response","307","2.1.0","393654","J=YES, F=NO","qubkqe3wqk","0","76","78","75","","","","","","","","","","","","","","","",""
"null","audio/foe1.wav","null","audio-keyboard-response","308","2.1.0","394174","J=YES, F=NO","qubkqe3wqk","0","76","78","75","","","","","","","","","","","","","","","",""
"489","
          <p id=""word"" style=""font-size: 40px;"">creth</p>
          <p style=""font-size: 16px;"">J = YES &nbsp;&nbsp;&nbsp; F = NO</p>
        ","j","html-keyboard-response","309","2.1.0","394666","J=YES, F=NO","qubkqe3wqk","0","76","78","75","","","","","","","","","creth","foe1","pseudoword","pseudoword","f","false","",""
"null","<p style=""font-size: 50px;"">+</p>","null","html-keyboard-response","310","2.1.0","394973","J=YES, F=NO","qubkqe3wqk","0","76","78","75","","","","","","","","","","","","","","","",""
"null","audio/beep-329314.mp3","null","audio-keyboard-response","311","2.1.0","396515","J=YES, F=NO","qubkqe3wqk","0","76","78","75","","","","","","","","","","","","","","","",""
"null","audio/weight1.wav","null","audio-keyboard-response","312","2.1.0","397034","J=YES, F=NO","qubkqe3wqk","0","76","78","75","","","","","","","","","","","","","","","",""
"425","
          <p id=""word"" style=""font-size: 40px;"">support</p>
          <p style=""font-size: 16px;"">J = YES &nbsp;&nbsp;&nbsp; F = NO</p>
        ","j","html-keyboard-response","313","2.1.0","397462","J=YES, F=NO","qubkqe3wqk","0","76","78","75","","","","","","","","","support","weight1","literal","experimental","j","true","",""
"null","<p style=""font-size: 50px;"">+</p>","null","html-keyboard-response","314","2.1.0","397775","J=YES, F=NO","qubkqe3wqk","0","76","78","75","","","","","","","","","","","","","","","",""
"null","audio/beep-329314.mp3","null","audio-keyboard-response","315","2.1.0","399314","J=YES, F=NO","qubkqe3wqk","0","76","78","75","","","","","","","","","","","","","","","",""
"null","audio/age1.wav","null","audio-keyboard-response","316","2.1.0","399875","J=YES, F=NO","qubkqe3wqk","0","76","78","75","","","","","","","","","","","","","","","",""
"669","
          <p id=""word"" style=""font-size: 40px;"">seize</p>
          <p style=""font-size: 16px;"">J = YES &nbsp;&nbsp;&nbsp; F = NO</p>
        ","f","html-keyboard-response","317","2.1.0","400547","J=YES, F=NO","qubkqe3wqk","0","76","78","75","","","","","","","","","seize","age1","unrelated","experimental","j","false","",""
"null","<p style=""font-size: 50px;"">+</p>","null","html-keyboard-response","318","2.1.0","400864","J=YES, F=NO","qubkqe3wqk","0","76","78","75","","","","","","","","","","","","","","","",""
"null","audio/beep-329314.mp3","null","audio-keyboard-response","319","2.1.0","402392","J=YES, F=NO","qubkqe3wqk","0","76","78","75","","","","","","","","","","","","","","","",""
"null","audio/test1.wav","null","audio-keyboard-response","320","2.1.0","402974","J=YES, F=NO","qubkqe3wqk","0","76","78","75","","","","","","","","","","","","","","","",""
"564","
          <p id=""word"" style=""font-size: 40px;"">twopch</p>
          <p style=""font-size: 16px;"">J = YES &nbsp;&nbsp;&nbsp; F = NO</p>
        ","f","html-keyboard-response","321","2.1.0","403541","J=YES, F=NO","qubkqe3wqk","0","76","78","75","","","","","","","","","twopch","test1","pseudoword","pseudoword","f","true","",""
"null","<p style=""font-size: 50px;"">+</p>","null","html-keyboard-response","322","2.1.0","403845","J=YES, F=NO","qubkqe3wqk","0","76","78","75","","","","","","","","","","","","","","","",""
"null","audio/beep-329314.mp3","null","audio-keyboard-response","323","2.1.0","405395","J=YES, F=NO","qubkqe3wqk","0","76","78","75","","","","","","","","","","","","","","","",""
"null","audio/handle.wav","null","audio-keyboard-response","324","2.1.0","406034","J=YES, F=NO","qubkqe3wqk","0","76","78","75","","","","","","","","","","","","","","","",""
"616","
          <p id=""word"" style=""font-size: 40px;"">grasp</p>
          <p style=""font-size: 16px;"">J = YES &nbsp;&nbsp;&nbsp; F = NO</p>
        ","j","html-keyboard-response","325","2.1.0","406653","J=YES, F=NO","qubkqe3wqk","0","76","78","75","","","","","","","","","grasp","handle","literal","experimental","j","true","",""
"null","<p style=""font-size: 50px;"">+</p>","null","html-keyboard-response","326","2.1.0","406967","J=YES, F=NO","qubkqe3wqk","0","76","78","75","","","","","","","","","","","","","","","",""
"null","audio/beep-329314.mp3","null","audio-keyboard-response","327","2.1.0","408494","J=YES, F=NO","qubkqe3wqk","0","76","78","75","","","","","","","","","","","","","","","",""
"null","audio/mirror1.wav","null","audio-keyboard-response","328","2.1.0","408936","J=YES, F=NO","qubkqe3wqk","0","76","78","75","","","","","","","","","","","","","","","",""
"466","
          <p id=""word"" style=""font-size: 40px;"">fight</p>
          <p style=""font-size: 16px;"">J = YES &nbsp;&nbsp;&nbsp; F = NO</p>
        ","j","html-keyboard-response","329","2.1.0","409403","J=YES, F=NO","qubkqe3wqk","0","76","78","75","","","","","","","","","fight","mirror1","unrelated","experimental","j","true","",""
"null","<p style=""font-size: 50px;"">+</p>","null","html-keyboard-response","330","2.1.0","409714","J=YES, F=NO","qubkqe3wqk","0","76","78","75","","","","","","","","","","","","","","","",""
"null","audio/beep-329314.mp3","null","audio-keyboard-response","331","2.1.0","411254","J=YES, F=NO","qubkqe3wqk","0","76","78","75","","","","","","","","","","","","","","","",""
"null","audio/strength.wav","null","audio-keyboard-response","332","2.1.0","411995","J=YES, F=NO","qubkqe3wqk","0","76","78","75","","","","","","","","","","","","","","","",""
"541","
          <p id=""word"" style=""font-size: 40px;"">plabet</p>
          <p style=""font-size: 16px;"">J = YES &nbsp;&nbsp;&nbsp; F = NO</p>
        ","f","html-keyboard-response","333","2.1.0","412539","J=YES, F=NO","qubkqe3wqk","0","76","78","75","","","","","","","","","plabet","strength","pseudoword","pseudoword","f","true","",""
"null","<p style=""font-size: 50px;"">+</p>","null","html-keyboard-response","334","2.1.0","412853","J=YES, F=NO","qubkqe3wqk","0","76","78","75","","","","","","","","","","","","","","","",""
"null","audio/beep-329314.mp3","null","audio-keyboard-response","335","2.1.0","414396","J=YES, F=NO","qubkqe3wqk","0","76","78","75","","","","","","","","","","","","","","","",""
"null","audio/ankle1.wav","null","audio-keyboard-response","336","2.1.0","414913","J=YES, F=NO","qubkqe3wqk","0","76","78","75","","","","","","","","","","","","","","","",""
"581","
          <p id=""word"" style=""font-size: 40px;"">switm</p>
          <p style=""font-size: 16px;"">J = YES &nbsp;&nbsp;&nbsp; F = NO</p>
        ","f","html-keyboard-response","337","2.1.0","415499","J=YES, F=NO","qubkqe3wqk","0","76","78","75","","","","","","","","","switm","ankle1","pseudoword","pseudoword","f","true","",""
"null","<p style=""font-size: 50px;"">+</p>","null","html-keyboard-response","338","2.1.0","415813","J=YES, F=NO","qubkqe3wqk","0","76","78","75","","","","","","","","","","","","","","","",""
"null","audio/beep-329314.mp3","null","audio-keyboard-response","339","2.1.0","417355","J=YES, F=NO","qubkqe3wqk","0","76","78","75","","","","","","","","","","","","","","","",""
"null","audio/radio1.wav","null","audio-keyboard-response","340","2.1.0","417953","J=YES, F=NO","qubkqe3wqk","0","76","78","75","","","","","","","","","","","","","","","",""
"452","
          <p id=""word"" style=""font-size: 40px;"">spend</p>
          <p style=""font-size: 16px;"">J = YES &nbsp;&nbsp;&nbsp; F = NO</p>
        ","j","html-keyboard-response","341","2.1.0","418409","J=YES, F=NO","qubkqe3wqk","0","76","78","75","","","","","","","","","spend","radio1","unrelated","experimental","j","true","",""
"null","<p style=""font-size: 50px;"">+</p>","null","html-keyboard-response","342","2.1.0","418711","J=YES, F=NO","qubkqe3wqk","0","76","78","75","","","","","","","","","","","","","","","",""
"null","audio/beep-329314.mp3","null","audio-keyboard-response","343","2.1.0","420254","J=YES, F=NO","qubkqe3wqk","0","76","78","75","","","","","","","","","","","","","","","",""
"null","audio/belief.wav","null","audio-keyboard-response","344","2.1.0","420875","J=YES, F=NO","qubkqe3wqk","0","76","78","75","","","","","","","","","","","","","","","",""
"490","
          <p id=""word"" style=""font-size: 40px;"">share</p>
          <p style=""font-size: 16px;"">J = YES &nbsp;&nbsp;&nbsp; F = NO</p>
        ","j","html-keyboard-response","345","2.1.0","421368","J=YES, F=NO","qubkqe3wqk","0","76","78","75","","","","","","","","","share","belief","metaphor","experimental","j","true","",""
"null","<p style=""font-size: 50px;"">+</p>","null","html-keyboard-response","346","2.1.0","421675","J=YES, F=NO","qubkqe3wqk","0","76","78","75","","","","","","","","","","","","","","","",""
"null","audio/beep-329314.mp3","null","audio-keyboard-response","347","2.1.0","423215","J=YES, F=NO","qubkqe3wqk","0","76","78","75","","","","","","","","","","","","","","","",""
"null","audio/sand.wav","null","audio-keyboard-response","348","2.1.0","423894","J=YES, F=NO","qubkqe3wqk","0","76","78","75","","","","","","","","","","","","","","","",""
"684","
          <p id=""word"" style=""font-size: 40px;"">proted</p>
          <p style=""font-size: 16px;"">J = YES &nbsp;&nbsp;&nbsp; F = NO</p>
        ","f","html-keyboard-response","349","2.1.0","424581","J=YES, F=NO","qubkqe3wqk","0","76","78","75","","","","","","","","","proted","sand","pseudoword","pseudoword","f","true","",""
"null","<p style=""font-size: 50px;"">+</p>","null","html-keyboard-response","350","2.1.0","424885","J=YES, F=NO","qubkqe3wqk","0","76","78","75","","","","","","","","","","","","","","","",""
"null","audio/beep-329314.mp3","null","audio-keyboard-response","351","2.1.0","426415","J=YES, F=NO","qubkqe3wqk","0","76","78","75","","","","","","","","","","","","","","","",""
"null","audio/strength.wav","null","audio-keyboard-response","352","2.1.0","427135","J=YES, F=NO","qubkqe3wqk","0","76","78","75","","","","","","","","","","","","","","","",""
"486","
          <p id=""word"" style=""font-size: 40px;"">possess</p>
          <p style=""font-size: 16px;"">J = YES &nbsp;&nbsp;&nbsp; F = NO</p>
        ","j","html-keyboard-response","353","2.1.0","427623","J=YES, F=NO","qubkqe3wqk","0","76","78","75","","","","","","","","","possess","strength","metaphor","experimental","j","true","",""
"null","<p style=""font-size: 50px;"">+</p>","null","html-keyboard-response","354","2.1.0","427937","J=YES, F=NO","qubkqe3wqk","0","76","78","75","","","","","","","","","","","","","","","",""
"null","audio/beep-329314.mp3","null","audio-keyboard-response","355","2.1.0","429474","J=YES, F=NO","qubkqe3wqk","0","76","78","75","","","","","","","","","","","","","","","",""
"null","audio/trout1.wav","null","audio-keyboard-response","356","2.1.0","430073","J=YES, F=NO","qubkqe3wqk","0","76","78","75","","","","","","","","","","","","","","","",""
"766","
          <p id=""word"" style=""font-size: 40px;"">spimt</p>
          <p style=""font-size: 16px;"">J = YES &nbsp;&nbsp;&nbsp; F = NO</p>
        ","f","html-keyboard-response","357","2.1.0","430841","J=YES, F=NO","qubkqe3wqk","0","76","78","75","","","","","","","","","spimt","trout1","pseudoword","pseudoword","f","true","",""
"null","<p style=""font-size: 50px;"">+</p>","null","html-keyboard-response","358","2.1.0","431149","J=YES, F=NO","qubkqe3wqk","0","76","78","75","","","","","","","","","","","","","","","",""
"null","audio/beep-329314.mp3","null","audio-keyboard-response","359","2.1.0","432674","J=YES, F=NO","qubkqe3wqk","0","76","78","75","","","","","","","","","","","","","","","",""
"null","audio/pain1.wav","null","audio-keyboard-response","360","2.1.0","433133","J=YES, F=NO","qubkqe3wqk","0","76","78","75","","","","","","","","","","","","","","","",""
"518","
          <p id=""word"" style=""font-size: 40px;"">sell</p>
          <p style=""font-size: 16px;"">J = YES &nbsp;&nbsp;&nbsp; F = NO</p>
        ","j","html-keyboard-response","361","2.1.0","433654","J=YES, F=NO","qubkqe3wqk","0","76","78","75","","","","","","","","","sell","pain1","unrelated","experimental","j","true","",""
"1501","<p>Excellent! You have finished block 3 of 8.</p>
                     <p>Feel free to take a 30 second break.</p>
                     <p>Press any key when you're ready to continue.</p>"," ","html-keyboard-response","362","2.1.0","435158","J=YES, F=NO","qubkqe3wqk","0","76","78","75","","","","","","","","","","","","","","","",""
"490","<p>Starting main block 4 of 8. Press any key to continue.</p>"," ","html-keyboard-response","363","2.1.0","435650","J=YES, F=NO","qubkqe3wqk","0","76","78","75","","","","","","","","","","","","","","","",""
"null","<p style=""font-size: 50px;"">+</p>","null","html-keyboard-response","364","2.1.0","435954","J=YES, F=NO","qubkqe3wqk","0","76","78","75","","","","","","","","","","","","","","","",""
"null","audio/beep-329314.mp3","null","audio-keyboard-response","365","2.1.0","437496","J=YES, F=NO","qubkqe3wqk","0","76","78","75","","","","","","","","","","","","","","","",""
"null","audio/foot1.wav","null","audio-keyboard-response","366","2.1.0","438035","J=YES, F=NO","qubkqe3wqk","0","76","78","75","","","","","","","","","","","","","","","",""
"428","
          <p id=""word"" style=""font-size: 40px;"">close</p>
          <p style=""font-size: 16px;"">J = YES &nbsp;&nbsp;&nbsp; F = NO</p>
        ","j","html-keyboard-response","367","2.1.0","438465","J=YES, F=NO","qubkqe3wqk","0","76","78","75","","","","","","","","","close","foot1","unrelated","experimental","j","true","",""
"null","<p style=""font-size: 50px;"">+</p>","null","html-keyboard-response","368","2.1.0","438772","J=YES, F=NO","qubkqe3wqk","0","76","78","75","","","","","","","","","","","","","","","",""
"null","audio/beep-329314.mp3","null","audio-keyboard-response","369","2.1.0","440315","J=YES, F=NO","qubkqe3wqk","0","76","78","75","","","","","","","","","","","","","","","",""
"null","audio/bottle.wav","null","audio-keyboard-response","370","2.1.0","440813","J=YES, F=NO","qubkqe3wqk","0","76","78","75","","","","","","","","","","","","","","","",""
"431","
          <p id=""word"" style=""font-size: 40px;"">watch</p>
          <p style=""font-size: 16px;"">J = YES &nbsp;&nbsp;&nbsp; F = NO</p>
        ","j","html-keyboard-response","371","2.1.0","441247","J=YES, F=NO","qubkqe3wqk","0","76","78","75","","","","","","","","","watch","bottle","filler","filler","j","true","",""
"null","<p style=""font-size: 50px;"">+</p>","null","html-keyboard-response","372","2.1.0","441557","J=YES, F=NO","qubkqe3wqk","0","76","78","75","","","","","","","","","","","","","","","",""
"null","audio/beep-329314.mp3","null","audio-keyboard-response","373","2.1.0","443094","J=YES, F=NO","qubkqe3wqk","0","76","78","75","","","","","","","","","","","","","","","",""
"null","audio/client1.wav","null","audio-keyboard-response","374","2.1.0","443794","J=YES, F=NO","qubkqe3wqk","0","76","78","75","","","","","","","","","","","","","","","",""
"523","
          <p id=""word"" style=""font-size: 40px;"">droothe</p>
          <p style=""font-size: 16px;"">J = YES &nbsp;&nbsp;&nbsp; F = NO</p>
        ","j","html-keyboard-response","375","2.1.0","444320","J=YES, F=NO","qubkqe3wqk","0","76","78","75","","","","","","","","","droothe","client1","pseudoword","pseudoword","f","false","",""
"null","<p style=""font-size: 50px;"">+</p>","null","html-keyboard-response","376","2.1.0","444626","J=YES, F=NO","qubkqe3wqk","0","76","78","75","","","","","","","","","","","","","","","",""
"null","audio/beep-329314.mp3","null","audio-keyboard-response","377","2.1.0","446154","J=YES, F=NO","qubkqe3wqk","0","76","78","75","","","","","","","","","","","","","","","",""
"null","audio/voice.wav","null","audio-keyboard-response","378","2.1.0","446755","J=YES, F=NO","qubkqe3wqk","0","76","78","75","","","","","","","","","","","","","","","",""
"566","
          <p id=""word"" style=""font-size: 40px;"">grintle</p>
          <p style=""font-size: 16px;"">J = YES &nbsp;&nbsp;&nbsp; F = NO</p>
        ","f","html-keyboard-response","379","2.1.0","447324","J=YES, F=NO","qubkqe3wqk","0","76","78","75","","","","","","","","","grintle","voice","pseudoword","pseudoword","f","true","",""
"null","<p style=""font-size: 50px;"">+</p>","null","html-keyboard-response","380","2.1.0","447633","J=YES, F=NO","qubkqe3wqk","0","76","78","75","","","","","","","","","","","","","","","",""
"null","audio/beep-329314.mp3","null","audio-keyboard-response","381","2.1.0","449174","J=YES, F=NO","qubkqe3wqk","0","76","78","75","","","","","","","","","","","","","","","",""
"null","audio/handle.wav","null","audio-keyboard-response","382","2.1.0","449794","J=YES, F=NO","qubkqe3wqk","0","76","78","75","","","","","","","","","","","","","","","",""
"656","
          <p id=""word"" style=""font-size: 40px;"">moutes</p>
          <p style=""font-size: 16px;"">J = YES &nbsp;&nbsp;&nbsp; F = NO</p>
        ","f","html-keyboard-response","383","2.1.0","450452","J=YES, F=NO","qubkqe3wqk","0","76","78","75","","","","","","","","","moutes","handle","pseudoword","pseudoword","f","true","",""
"null","<p style=""font-size: 50px;"">+</p>","null","html-keyboard-response","384","2.1.0","450768","J=YES, F=NO","qubkqe3wqk","0","76","78","75","","","","","","","","","","","","","","","",""
"null","audio/beep-329314.mp3","null","audio-keyboard-response","385","2.1.0","452315","J=YES, F=NO","qubkqe3wqk","0","76","78","75","","","","","","","","","","","","","","","",""
"null","audio/holiday1.wav","null","audio-keyboard-response","386","2.1.0","452954","J=YES, F=NO","qubkqe3wqk","0","76","78","75","","","","","","","","","","","","","","","",""
"560","
          <p id=""word"" style=""font-size: 40px;"">drivets</p>
          <p style=""font-size: 16px;"">J = YES &nbsp;&nbsp;&nbsp; F = NO</p>
        ","f","html-keyboard-response","387","2.1.0","453517","J=YES, F=NO","qubkqe3wqk","0","76","78","75","","","","","","","","","drivets","holiday1","pseudoword","pseudoword","f","true","",""
"null","<p style=""font-size: 50px;"">+</p>","null","html-keyboard-response","388","2.1.0","453821","J=YES, F=NO","qubkqe3wqk","0","76","78","75","","","","","","","","","","","","","","","",""
"null","audio/beep-329314.mp3","null","audio-keyboard-response","389","2.1.0","455355","J=YES, F=NO","qubkqe3wqk","0","76","78","75","","","","","","","","","","","","","","","",""
"null","audio/revenue1.wav","null","audio-keyboard-response","390","2.1.0","456035","J=YES, F=NO","qubkqe3wqk","0","76","78","75","","","","","","","","","","","","","","","",""
"381","
          <p id=""word"" style=""font-size: 40px;"">grow</p>
          <p style=""font-size: 16px;"">J = YES &nbsp;&nbsp;&nbsp; F = NO</p>
