"rt","stimulus","response","trial_type","trial_index","plugin_version","time_elapsed","response_mapping","subject_id","list_index","lextale_score","lextale_word_score","lextale_nonword_score","success","timeout","failed_images","failed_audio","failed_video","task","isWord","isDummy","target","prime","prime_type","stimulus_type","correct_response","correct","section","question_order"
"7687","
    <div style=""max-width: 800px; margin: auto; text-align: left;"">
      <h2>STANFORD UNIVERSITY</h2>
      <h3>Research Information Sheet</h3>
      <p><strong>Protocol Director:</strong> Robert Hawkins<br>
      <strong>Protocol Title:</strong> Communication and social cognition in natural audiovisual contexts<br>
      <strong>IRB#:</strong> 77226</p>

      <p><strong>DESCRIPTION:</strong> You are invited to participate in a research study about language and communication. The purpose of the research is to understand how you interact and communicate with other people in naturalistic settings as a fluent English speaker. This research will be conducted through the Prolific platform, including participants from the US, UK, and Canada. If you decide to participate in this research, you will play a communication game in a group with one or more partners.</p>

      <p><strong>TIME INVOLVEMENT:</strong> The task will last the amount of time advertised on Prolific. You are free to withdraw from the study at any time.</p>

      <p><strong>RISKS AND BENEFITS:</strong> You may become frustrated if your partner gets distracted, or experience discomfort if other participants in your group send text that is inappropriate for the task. We ask you to please be respectful of other participants you might be interacting with to mitigate these risks. You may also experience discomfort when being asked to discuss or challenge emotionally salient political beliefs. Study data will be stored securely, in compliance with Stanford University standards, minimizing the risk of confidentiality breach. This study advances our scientific understanding of how people communicate and collaborate in naturalistic settings. This study may lead to further insights about what can go wrong in teamwork, suggest potential interventions to overcome these barriers, and help to develop assistive technologies that collaborate with human partners. We cannot and do not guarantee or promise that you will receive any benefits from this study.</p>

      <p><strong>PAYMENTS:</strong> You will receive payment in the amount advertised on Prolific. If you do not complete this study, you will receive prorated payment based on the time that you have spent. Additionally, you may be eligible for bonus payments as described in the instructions.</p>

      <p><strong>PARTICIPANT’S RIGHTS:</strong> If you have read this form and have decided to participate in this project, please understand your participation is voluntary and you have the right to withdraw your consent or discontinue participation at any time without penalty or loss of benefits to which you are otherwise entitled. The alternative is not to participate. You have the right to refuse to answer particular questions. The results of this research study may be presented at scientific or professional meetings or published in scientific journals. Your individual privacy will be maintained in all published and written data resulting from the study. In accordance with scientific norms, the data from this study may be used or shared with other researchers for future research (after removing personally identifying information) without additional consent from you.</p>

      <p><strong>CONTACT INFORMATION:</strong><br>
      Questions: If you have any questions, concerns or complaints about this research, its procedures, risks and benefits, contact the Protocol Director, Robert Hawkins (<a href=""mailto:rdhawkins@stanford.edu"">rdhawkins@stanford.edu</a>, 217-549-6923).<br>
      Independent Contact: If you are not satisfied with how this study is being conducted, or if you have any concerns, complaints, or general questions about the research or your rights as a participant, please contact the Stanford Institutional Review Board (IRB) to speak to someone independent of the research team at 650-723-2480 or toll free at 1-866-680-2906, or email at <a href=""mailto:irbnon-med@stanford.edu"">irbnon-med@stanford.edu</a>. You can also write to the Stanford IRB, Stanford University, 1705 El Camino Real, Palo Alto, CA 94306.</p>

      <p><strong>Please save or print a copy of this page for your records.</strong></p>
      <p>If you agree to participate in this research, click ""Continue"" below.</p>
    </div>
  ","0","html-button-response","0","2.1.0","7695","J=YES, F=NO","qywu4l7kjq","0","65","55","75","","","","","","","","","","","","","","","",""
"38450","
    <div style=""max-width: 800px; margin: auto; text-align: left;"">
      <h2>Welcome!</h2>
      <p>Thank you for participating in this study. The experiment consists of three parts:</p>
      <ol>
        <li>An English vocabulary test</li>
        <li>A main task in which you will hear and see words, and decide whether the written word is a real English word</li>
        <li>A brief survey about your background</li>
      </ol>
      <p>Each part will be introduced before it begins.</p>
      <p>Please make sure you are in a quiet environment and can hear audio clearly for the final task.</p>
      <p style=""margin-top: 2em;"">Press any key to begin.</p>
    </div>
  "," ","html-keyboard-response","1","2.1.0","46147","J=YES, F=NO","qywu4l7kjq","0","65","55","75","","","","","","","","","","","","","","","",""
"","","","preload","2","2.1.0","47138","J=YES, F=NO","qywu4l7kjq","0","65","55","75","true","false","[]","[]","[]","","","","","","","","","","",""
"8837","
    <div style=""max-width: 800px; margin: auto; text-align: left;"">
      <h2>Part 1: Vocabulary Test</h2>
      <p>You will now complete the first part of the study: a short English vocabulary test.</p>
      <p>This test is called <strong>LexTALE</strong> and helps us get a general sense of your English proficiency.</p>
      <p style=""margin-top: 2em;"">Press any key to continue.</p>
    </div>
  "," ","html-keyboard-response","3","2.1.0","55976","J=YES, F=NO","qywu4l7kjq","0","65","55","75","","","","","","","","","","","","","","","",""
"21813","
    <div style=""max-width: 800px; margin: auto; text-align: left;"">
      <h2>LexTALE Vocabulary Test</h2>
      <p>In this test, you will see a series of letter strings—one at a time.</p>
      <p>Your task is to decide whether each string is a real English word.</p>
      <p><strong>Key responses:</strong></p>
      <ul>
        <li><strong>J</strong> = YES (real English word)</li>
        <li><strong>F</strong> = NO (not a real English word)</li>
      </ul>
      <p>There is no time limit, but please try to be accurate.</p>
      <p style=""margin-top: 2em;"">Press any key to begin.</p>
    </div>
  ","j","html-keyboard-response","4","2.1.0","77789","J=YES, F=NO","qywu4l7kjq","0","65","55","75","","","","","","","","","","","","","","","",""
"12066","
  <p style=""font-size: 40px;"">platery</p>
  <p style=""font-size: 16px;"">J = YES &nbsp;&nbsp;&nbsp; F = NO</p>
","j","html-keyboard-response","5","2.1.0","89856","J=YES, F=NO","qywu4l7kjq","0","65","55","75","","","","","","lextale","false","true","","","","","","","",""
"2812","
  <p style=""font-size: 40px;"">denial</p>
  <p style=""font-size: 16px;"">J = YES &nbsp;&nbsp;&nbsp; F = NO</p>
","f","html-keyboard-response","6","2.1.0","92669","J=YES, F=NO","qywu4l7kjq","0","65","55","75","","","","","","lextale","true","true","","","","","","","",""
"1997","
  <p style=""font-size: 40px;"">marrit</p>
  <p style=""font-size: 16px;"">J = YES &nbsp;&nbsp;&nbsp; F = NO</p>
","f","html-keyboard-response","7","2.1.0","94668","J=YES, F=NO","qywu4l7kjq","0","65","55","75","","","","","","lextale","false","true","","","","","","","",""
"3548","
  <p style=""font-size: 40px;"">bottle</p>
  <p style=""font-size: 16px;"">J = YES &nbsp;&nbsp;&nbsp; F = NO</p>
","j","html-keyboard-response","8","2.1.0","98216","J=YES, F=NO","qywu4l7kjq","0","65","55","75","","","","","","lextale","true","false","","","","","","","",""
"2500","
  <p style=""font-size: 40px;"">birst</p>
  <p style=""font-size: 16px;"">J = YES &nbsp;&nbsp;&nbsp; F = NO</p>
","f","html-keyboard-response","9","2.1.0","100717","J=YES, F=NO","qywu4l7kjq","0","65","55","75","","","","","","lextale","false","false","","","","","","","",""
"1873","
  <p style=""font-size: 40px;"">envy</p>
  <p style=""font-size: 16px;"">J = YES &nbsp;&nbsp;&nbsp; F = NO</p>
","j","html-keyboard-response","10","2.1.0","102591","J=YES, F=NO","qywu4l7kjq","0","65","55","75","","","","","","lextale","true","false","","","","","","","",""
"17004","
  <p style=""font-size: 40px;"">brang</p>
  <p style=""font-size: 16px;"">J = YES &nbsp;&nbsp;&nbsp; F = NO</p>
","f","html-keyboard-response","11","2.1.0","119596","J=YES, F=NO","qywu4l7kjq","0","65","55","75","","","","","","lextale","false","false","","","","","","","",""
"1785","
  <p style=""font-size: 40px;"">huge</p>
  <p style=""font-size: 16px;"">J = YES &nbsp;&nbsp;&nbsp; F = NO</p>
","j","html-keyboard-response","12","2.1.0","121382","J=YES, F=NO","qywu4l7kjq","0","65","55","75","","","","","","lextale","true","false","","","","","","","",""
"1624","
  <p style=""font-size: 40px;"">plove</p>
  <p style=""font-size: 16px;"">J = YES &nbsp;&nbsp;&nbsp; F = NO</p>
","j","html-keyboard-response","13","2.1.0","123006","J=YES, F=NO","qywu4l7kjq","0","65","55","75","","","","","","lextale","false","false","","","","","","","",""
"1387","
  <p style=""font-size: 40px;"">border</p>
  <p style=""font-size: 16px;"">J = YES &nbsp;&nbsp;&nbsp; F = NO</p>
","j","html-keyboard-response","14","2.1.0","124394","J=YES, F=NO","qywu4l7kjq","0","65","55","75","","","","","","lextale","true","false","","","","","","","",""
"1882","
  <p style=""font-size: 40px;"">flimsy</p>
  <p style=""font-size: 16px;"">J = YES &nbsp;&nbsp;&nbsp; F = NO</p>
","f","html-keyboard-response","15","2.1.0","126277","J=YES, F=NO","qywu4l7kjq","0","65","55","75","","","","","","lextale","true","false","","","","","","","",""
"2291","
  <p style=""font-size: 40px;"">drain</p>
  <p style=""font-size: 16px;"">J = YES &nbsp;&nbsp;&nbsp; F = NO</p>
","j","html-keyboard-response","16","2.1.0","128569","J=YES, F=NO","qywu4l7kjq","0","65","55","75","","","","","","lextale","true","false","","","","","","","",""
"1853","
  <p style=""font-size: 40px;"">twindle</p>
  <p style=""font-size: 16px;"">J = YES &nbsp;&nbsp;&nbsp; F = NO</p>
","f","html-keyboard-response","17","2.1.0","130423","J=YES, F=NO","qywu4l7kjq","0","65","55","75","","","","","","lextale","false","false","","","","","","","",""
"1756","
  <p style=""font-size: 40px;"">propose</p>
  <p style=""font-size: 16px;"">J = YES &nbsp;&nbsp;&nbsp; F = NO</p>
","j","html-keyboard-response","18","2.1.0","132180","J=YES, F=NO","qywu4l7kjq","0","65","55","75","","","","","","lextale","true","false","","","","","","","",""
"1932","
  <p style=""font-size: 40px;"">forlay</p>
  <p style=""font-size: 16px;"">J = YES &nbsp;&nbsp;&nbsp; F = NO</p>
","f","html-keyboard-response","19","2.1.0","134112","J=YES, F=NO","qywu4l7kjq","0","65","55","75","","","","","","lextale","false","false","","","","","","","",""
"2884","
  <p style=""font-size: 40px;"">tenant</p>
  <p style=""font-size: 16px;"">J = YES &nbsp;&nbsp;&nbsp; F = NO</p>
","j","html-keyboard-response","20","2.1.0","136997","J=YES, F=NO","qywu4l7kjq","0","65","55","75","","","","","","lextale","true","false","","","","","","","",""
"1766","
  <p style=""font-size: 40px;"">strain</p>
  <p style=""font-size: 16px;"">J = YES &nbsp;&nbsp;&nbsp; F = NO</p>
","j","html-keyboard-response","21","2.1.0","138764","J=YES, F=NO","qywu4l7kjq","0","65","55","75","","","","","","lextale","true","false","","","","","","","",""
"1750","
  <p style=""font-size: 40px;"">holster</p>
  <p style=""font-size: 16px;"">J = YES &nbsp;&nbsp;&nbsp; F = NO</p>
","f","html-keyboard-response","22","2.1.0","140515","J=YES, F=NO","qywu4l7kjq","0","65","55","75","","","","","","lextale","true","false","","","","","","","",""
"2735","
  <p style=""font-size: 40px;"">hinder</p>
  <p style=""font-size: 16px;"">J = YES &nbsp;&nbsp;&nbsp; F = NO</p>
","f","html-keyboard-response","23","2.1.0","143251","J=YES, F=NO","qywu4l7kjq","0","65","55","75","","","","","","lextale","true","false","","","","","","","",""
"1610","
  <p style=""font-size: 40px;"">swindle</p>
  <p style=""font-size: 16px;"">J = YES &nbsp;&nbsp;&nbsp; F = NO</p>
","j","html-keyboard-response","24","2.1.0","144863","J=YES, F=NO","qywu4l7kjq","0","65","55","75","","","","","","lextale","true","false","","","","","","","",""
"2075","
  <p style=""font-size: 40px;"">nuder</p>
  <p style=""font-size: 16px;"">J = YES &nbsp;&nbsp;&nbsp; F = NO</p>
","j","html-keyboard-response","25","2.1.0","146938","J=YES, F=NO","qywu4l7kjq","0","65","55","75","","","","","","lextale","false","false","","","","","","","",""
"1745","
  <p style=""font-size: 40px;"">pillow</p>
  <p style=""font-size: 16px;"">J = YES &nbsp;&nbsp;&nbsp; F = NO</p>
","f","html-keyboard-response","26","2.1.0","148684","J=YES, F=NO","qywu4l7kjq","0","65","55","75","","","","","","lextale","true","false","","","","","","","",""
"3434","
  <p style=""font-size: 40px;"">shumble</p>
  <p style=""font-size: 16px;"">J = YES &nbsp;&nbsp;&nbsp; F = NO</p>
","f","html-keyboard-response","27","2.1.0","152119","J=YES, F=NO","qywu4l7kjq","0","65","55","75","","","","","","lextale","false","false","","","","","","","",""
"1744","
  <p style=""font-size: 40px;"">thirst</p>
  <p style=""font-size: 16px;"">J = YES &nbsp;&nbsp;&nbsp; F = NO</p>
","j","html-keyboard-response","28","2.1.0","153864","J=YES, F=NO","qywu4l7kjq","0","65","55","75","","","","","","lextale","true","false","","","","","","","",""
"3229","
  <p style=""font-size: 40px;"">unsail</p>
  <p style=""font-size: 16px;"">J = YES &nbsp;&nbsp;&nbsp; F = NO</p>
","j","html-keyboard-response","29","2.1.0","157094","J=YES, F=NO","qywu4l7kjq","0","65","55","75","","","","","","lextale","false","false","","","","","","","",""
"1351","
  <p style=""font-size: 40px;"">rifle</p>
  <p style=""font-size: 16px;"">J = YES &nbsp;&nbsp;&nbsp; F = NO</p>
","j","html-keyboard-response","30","2.1.0","158445","J=YES, F=NO","qywu4l7kjq","0","65","55","75","","","","","","lextale","true","false","","","","","","","",""
"4553","
  <p style=""font-size: 40px;"">mush</p>
  <p style=""font-size: 16px;"">J = YES &nbsp;&nbsp;&nbsp; F = NO</p>
","f","html-keyboard-response","31","2.1.0","162999","J=YES, F=NO","qywu4l7kjq","0","65","55","75","","","","","","lextale","false","false","","","","","","","",""
"2276","
  <p style=""font-size: 40px;"">drench</p>
  <p style=""font-size: 16px;"">J = YES &nbsp;&nbsp;&nbsp; F = NO</p>
","f","html-keyboard-response","32","2.1.0","165276","J=YES, F=NO","qywu4l7kjq","0","65","55","75","","","","","","lextale","true","false","","","","","","","",""
"1556","
  <p style=""font-size: 40px;"">snirt</p>
  <p style=""font-size: 16px;"">J = YES &nbsp;&nbsp;&nbsp; F = NO</p>
","f","html-keyboard-response","33","2.1.0","166832","J=YES, F=NO","qywu4l7kjq","0","65","55","75","","","","","","lextale","false","false","","","","","","","",""
"20446","
  <p style=""font-size: 40px;"">bitter</p>
  <p style=""font-size: 16px;"">J = YES &nbsp;&nbsp;&nbsp; F = NO</p>
","j","html-keyboard-response","34","2.1.0","187279","J=YES, F=NO","qywu4l7kjq","0","65","55","75","","","","","","lextale","true","false","","","","","","","",""
"16235","
  <p style=""font-size: 40px;"">pliff</p>
  <p style=""font-size: 16px;"">J = YES &nbsp;&nbsp;&nbsp; F = NO</p>
","f","html-keyboard-response","35","2.1.0","203515","J=YES, F=NO","qywu4l7kjq","0","65","55","75","","","","","","lextale","false","false","","","","","","","",""
"2014","
  <p style=""font-size: 40px;"">tablet</p>
  <p style=""font-size: 16px;"">J = YES &nbsp;&nbsp;&nbsp; F = NO</p>
","j","html-keyboard-response","36","2.1.0","205530","J=YES, F=NO","qywu4l7kjq","0","65","55","75","","","","","","lextale","true","false","","","","","","","",""
"2002","
  <p style=""font-size: 40px;"">glimmer</p>
  <p style=""font-size: 16px;"">J = YES &nbsp;&nbsp;&nbsp; F = NO</p>
","j","html-keyboard-response","37","2.1.0","207533","J=YES, F=NO","qywu4l7kjq","0","65","55","75","","","","","","lextale","true","false","","","","","","","",""
"2119","
  <p style=""font-size: 40px;"">slink</p>
  <p style=""font-size: 16px;"">J = YES &nbsp;&nbsp;&nbsp; F = NO</p>
","j","html-keyboard-response","38","2.1.0","209652","J=YES, F=NO","qywu4l7kjq","0","65","55","75","","","","","","lextale","true","false","","","","","","","",""
"1518","
  <p style=""font-size: 40px;"">clever</p>
  <p style=""font-size: 16px;"">J = YES &nbsp;&nbsp;&nbsp; F = NO</p>
","j","html-keyboard-response","39","2.1.0","211171","J=YES, F=NO","qywu4l7kjq","0","65","55","75","","","","","","lextale","true","false","","","","","","","",""
"1959","
  <p style=""font-size: 40px;"">grum</p>
  <p style=""font-size: 16px;"">J = YES &nbsp;&nbsp;&nbsp; F = NO</p>
","f","html-keyboard-response","40","2.1.0","213131","J=YES, F=NO","qywu4l7kjq","0","65","55","75","","","","","","lextale","false","false","","","","","","","",""
"1523","
  <p style=""font-size: 40px;"">string</p>
  <p style=""font-size: 16px;"">J = YES &nbsp;&nbsp;&nbsp; F = NO</p>
","j","html-keyboard-response","41","2.1.0","214654","J=YES, F=NO","qywu4l7kjq","0","65","55","75","","","","","","lextale","true","false","","","","","","","",""
"12041","
  <p style=""font-size: 40px;"">plim</p>
  <p style=""font-size: 16px;"">J = YES &nbsp;&nbsp;&nbsp; F = NO</p>
","f","html-keyboard-response","42","2.1.0","226696","J=YES, F=NO","qywu4l7kjq","0","65","55","75","","","","","","lextale","false","false","","","","","","","",""
"1969","
  <p style=""font-size: 40px;"">cable</p>
  <p style=""font-size: 16px;"">J = YES &nbsp;&nbsp;&nbsp; F = NO</p>
","j","html-keyboard-response","43","2.1.0","228666","J=YES, F=NO","qywu4l7kjq","0","65","55","75","","","","","","lextale","true","false","","","","","","","",""
"2403","
  <p style=""font-size: 40px;"">shrivel</p>
  <p style=""font-size: 16px;"">J = YES &nbsp;&nbsp;&nbsp; F = NO</p>
","f","html-keyboard-response","44","2.1.0","231069","J=YES, F=NO","qywu4l7kjq","0","65","55","75","","","","","","lextale","true","false","","","","","","","",""
"1560","
  <p style=""font-size: 40px;"">tarnish</p>
  <p style=""font-size: 16px;"">J = YES &nbsp;&nbsp;&nbsp; F = NO</p>
","f","html-keyboard-response","45","2.1.0","232631","J=YES, F=NO","qywu4l7kjq","0","65","55","75","","","","","","lextale","true","false","","","","","","","",""
"1339","
  <p style=""font-size: 40px;"">blim</p>
  <p style=""font-size: 16px;"">J = YES &nbsp;&nbsp;&nbsp; F = NO</p>
","f","html-keyboard-response","46","2.1.0","233970","J=YES, F=NO","qywu4l7kjq","0","65","55","75","","","","","","lextale","false","false","","","","","","","",""
"3149","
  <p style=""font-size: 40px;"">stifle</p>
  <p style=""font-size: 16px;"">J = YES &nbsp;&nbsp;&nbsp; F = NO</p>
","f","html-keyboard-response","47","2.1.0","237120","J=YES, F=NO","qywu4l7kjq","0","65","55","75","","","","","","lextale","true","false","","","","","","","",""
"1709","
  <p style=""font-size: 40px;"">bint</p>
  <p style=""font-size: 16px;"">J = YES &nbsp;&nbsp;&nbsp; F = NO</p>
","f","html-keyboard-response","48","2.1.0","238830","J=YES, F=NO","qywu4l7kjq","0","65","55","75","","","","","","lextale","false","false","","","","","","","",""
"1615","
  <p style=""font-size: 40px;"">purple</p>
  <p style=""font-size: 16px;"">J = YES &nbsp;&nbsp;&nbsp; F = NO</p>
","j","html-keyboard-response","49","2.1.0","240447","J=YES, F=NO","qywu4l7kjq","0","65","55","75","","","","","","lextale","true","false","","","","","","","",""
"4708","
  <p style=""font-size: 40px;"">wriggle</p>
  <p style=""font-size: 16px;"">J = YES &nbsp;&nbsp;&nbsp; F = NO</p>
","f","html-keyboard-response","50","2.1.0","245155","J=YES, F=NO","qywu4l7kjq","0","65","55","75","","","","","","lextale","true","false","","","","","","","",""
"7227","
  <p style=""font-size: 40px;"">mangle</p>
  <p style=""font-size: 16px;"">J = YES &nbsp;&nbsp;&nbsp; F = NO</p>
","f","html-keyboard-response","51","2.1.0","252383","J=YES, F=NO","qywu4l7kjq","0","65","55","75","","","","","","lextale","true","false","","","","","","","",""
"13417","
  <p style=""font-size: 40px;"">shramp</p>
  <p style=""font-size: 16px;"">J = YES &nbsp;&nbsp;&nbsp; F = NO</p>
","j","html-keyboard-response","52","2.1.0","265801","J=YES, F=NO","qywu4l7kjq","0","65","55","75","","","","","","lextale","false","false","","","","","","","",""
"3535","
  <p style=""font-size: 40px;"">flirt</p>
  <p style=""font-size: 16px;"">J = YES &nbsp;&nbsp;&nbsp; F = NO</p>
","j","html-keyboard-response","53","2.1.0","269337","J=YES, F=NO","qywu4l7kjq","0","65","55","75","","","","","","lextale","true","false","","","","","","","",""
"2374","
  <p style=""font-size: 40px;"">frip</p>
  <p style=""font-size: 16px;"">J = YES &nbsp;&nbsp;&nbsp; F = NO</p>
","f","html-keyboard-response","54","2.1.0","271712","J=YES, F=NO","qywu4l7kjq","0","65","55","75","","","","","","lextale","false","false","","","","","","","",""
"2707","
  <p style=""font-size: 40px;"">tangle</p>
  <p style=""font-size: 16px;"">J = YES &nbsp;&nbsp;&nbsp; F = NO</p>
","f","html-keyboard-response","55","2.1.0","274419","J=YES, F=NO","qywu4l7kjq","0","65","55","75","","","","","","lextale","true","false","","","","","","","",""
"2000","
  <p style=""font-size: 40px;"">crumble</p>
  <p style=""font-size: 16px;"">J = YES &nbsp;&nbsp;&nbsp; F = NO</p>
","f","html-keyboard-response","56","2.1.0","276419","J=YES, F=NO","qywu4l7kjq","0","65","55","75","","","","","","lextale","true","false","","","","","","","",""
"1903","
  <p style=""font-size: 40px;"">wrinkle</p>
  <p style=""font-size: 16px;"">J = YES &nbsp;&nbsp;&nbsp; F = NO</p>
","j","html-keyboard-response","57","2.1.0","278323","J=YES, F=NO","qywu4l7kjq","0","65","55","75","","","","","","lextale","true","false","","","","","","","",""
"1705","
  <p style=""font-size: 40px;"">slumb</p>
  <p style=""font-size: 16px;"">J = YES &nbsp;&nbsp;&nbsp; F = NO</p>
","f","html-keyboard-response","58","2.1.0","280029","J=YES, F=NO","qywu4l7kjq","0","65","55","75","","","","","","lextale","false","false","","","","","","","",""
"1555","
  <p style=""font-size: 40px;"">jungle</p>
  <p style=""font-size: 16px;"">J = YES &nbsp;&nbsp;&nbsp; F = NO</p>
","j","html-keyboard-response","59","2.1.0","281585","J=YES, F=NO","qywu4l7kjq","0","65","55","75","","","","","","lextale","true","false","","","","","","","",""
"2418","
  <p style=""font-size: 40px;"">frolick</p>
  <p style=""font-size: 16px;"">J = YES &nbsp;&nbsp;&nbsp; F = NO</p>
","f","html-keyboard-response","60","2.1.0","284004","J=YES, F=NO","qywu4l7kjq","0","65","55","75","","","","","","lextale","false","false","","","","","","","",""
"23433","
      <h2>LexTALE Test Completed</h2>
      <p>Your LexTALE vocabulary score is: <strong>65%</strong></p>
      <p>Press any key to continue.</p>
    "," ","html-keyboard-response","61","2.1.0","307438","J=YES, F=NO","qywu4l7kjq","0","65","55","75","","","","","","","","","","","","","","","",""
"12394","
    <div style=""max-width: 800px; margin: auto; text-align: left;"">
      <h2>Break Time</h2>
      <p>You have completed the first part of the study.</p>
      <p>You may take a short <strong>30-second break</strong> before continuing.</p>
      <p>When you’re ready, press any key to continue to the final task.</p>
    </div>
  "," ","html-keyboard-response","62","2.1.0","319833","J=YES, F=NO","qywu4l7kjq","0","65","55","75","","","","","","","","","","","","","","","",""
"26793","
    <div style=""max-width: 800px; margin: auto; text-align: left;"">
      <h2>Part 2: Lexical Decision Task</h2>
      <p>You will now begin the second part of the study.</p>
      <p>Each trial will follow this sequence:</p>
      <ul>
        <li>A fixation cross (+) appears at the center of the screen.</li>
        <li>You will hear a short beep followed by a spoken word.</li>
        <li>A written word will appear briefly on the screen.</li>
      </ul>
      <p>Your task is to judge whether the <strong>written word</strong> is a real English word.</p>
      <p style=""margin-top: 1em;""><strong>Key responses:</strong></p>
      <ul>
        <li><strong>J</strong> = YES (real English word)</li>
        <li><strong>F</strong> = NO (not a real English word)</li>
      </ul>
      <p>Please respond as quickly and accurately as you can.</p>
      <p style=""margin-top: 2em;"">Press any key to continue.</p>
    </div>
  "," ","html-keyboard-response","63","2.1.0","346627","J=YES, F=NO","qywu4l7kjq","0","65","55","75","","","","","","","","","","","","","","","",""
"15393","
    <div style=""max-width: 800px; margin: auto; text-align: left;"">
      <h2>Before You Begin</h2>
      <p>Make sure your sound is turned on.</p>
      <p>You will hear audio during each trial, but your decision should be based only on the <strong>written word</strong> you see on the screen.</p>
      <p><strong>Reminder:</strong></p>
      <ul>
        <li><strong>J</strong> = YES (real English word)</li>
        <li><strong>F</strong> = NO (not a real English word)</li>
      </ul>
      <p style=""margin-top: 2em;"">Press any key when you are ready to begin.</p>
    </div>
  "," ","html-keyboard-response","64","2.1.0","362021","J=YES, F=NO","qywu4l7kjq","0","65","55","75","","","","","","","","","","","","","","","",""
"9189","
    <div style=""max-width: 800px; margin: auto; text-align: left;"">
      <h2>Part 2: Practice Trials</h2>
      <p>You will now complete a few <strong>practice trials</strong> to get familiar with the task.</p>
      <p>These trials are <strong>not scored</strong> and are only to help you get used to the format.</p>
      <p style=""margin-top: 2em;"">Press any key to begin.</p>
    </div>
  "," ","html-keyboard-response","65","2.1.0","371211","J=YES, F=NO","qywu4l7kjq","0","65","55","75","","","","","","","","","","","","","","","",""
"3686","<p>Starting practice block 1 of 2. Press any key to continue.</p>","j","html-keyboard-response","66","2.1.0","374897","J=YES, F=NO","qywu4l7kjq","0","65","55","75","","","","","","","","","","","","","","","",""
"null","<p style=""font-size: 50px;"">+</p>","null","html-keyboard-response","67","2.1.0","375207","J=YES, F=NO","qywu4l7kjq","0","65","55","75","","","","","","","","","","","","","","","",""
"null","audio/beep-329314.mp3","null","audio-keyboard-response","68","2.1.0","376943","J=YES, F=NO","qywu4l7kjq","0","65","55","75","","","","","","","","","","","","","","","",""
"null","audio/holiday1.wav","null","audio-keyboard-response","69","2.1.0","377562","J=YES, F=NO","qywu4l7kjq","0","65","55","75","","","","","","","","","","","","","","","",""
"null","
          <p id=""word"" style=""font-size: 40px;"">drivets</p>
          <p style=""font-size: 16px;"">J = YES &nbsp;&nbsp;&nbsp; F = NO</p>
        ","null","html-keyboard-response","70","2.1.0","379065","J=YES, F=NO","qywu4l7kjq","0","65","55","75","","","","","","","","","drivets","holiday1","pseudoword","pseudoword","f","false","",""
"null","<p style=""font-size: 50px;"">+</p>","null","html-keyboard-response","71","2.1.0","379378","J=YES, F=NO","qywu4l7kjq","0","65","55","75","","","","","","","","","","","","","","","",""
"null","audio/beep-329314.mp3","null","audio-keyboard-response","72","2.1.0","380881","J=YES, F=NO","qywu4l7kjq","0","65","55","75","","","","","","","","","","","","","","","",""
"null","audio/bridge.wav","null","audio-keyboard-response","73","2.1.0","381621","J=YES, F=NO","qywu4l7kjq","0","65","55","75","","","","","","","","","","","","","","","",""
"1413","
          <p id=""word"" style=""font-size: 40px;"">crack</p>
          <p style=""font-size: 16px;"">J = YES &nbsp;&nbsp;&nbsp; F = NO</p>
        ","j","html-keyboard-response","74","2.1.0","383036","J=YES, F=NO","qywu4l7kjq","0","65","55","75","","","","","","","","","crack","bridge","filler","filler","j","true","",""
"null","<p style=""font-size: 50px;"">+</p>","null","html-keyboard-response","75","2.1.0","383342","J=YES, F=NO","qywu4l7kjq","0","65","55","75","","","","","","","","","","","","","","","",""
"null","audio/beep-329314.mp3","null","audio-keyboard-response","76","2.1.0","384862","J=YES, F=NO","qywu4l7kjq","0","65","55","75","","","","","","","","","","","","","","","",""
"null","audio/desire.wav","null","audio-keyboard-response","77","2.1.0","385662","J=YES, F=NO","qywu4l7kjq","0","65","55","75","","","","","","","","","","","","","","","",""
"1268","
          <p id=""word"" style=""font-size: 40px;"">nophed</p>
          <p style=""font-size: 16px;"">J = YES &nbsp;&nbsp;&nbsp; F = NO</p>
        ","f","html-keyboard-response","78","2.1.0","386931","J=YES, F=NO","qywu4l7kjq","0","65","55","75","","","","","","","","","nophed","desire","pseudoword","pseudoword","f","true","",""
"null","<p style=""font-size: 50px;"">+</p>","null","html-keyboard-response","79","2.1.0","387237","J=YES, F=NO","qywu4l7kjq","0","65","55","75","","","","","","","","","","","","","","","",""
"null","audio/beep-329314.mp3","null","audio-keyboard-response","80","2.1.0","388741","J=YES, F=NO","qywu4l7kjq","0","65","55","75","","","","","","","","","","","","","","","",""
"null","audio/floor.wav","null","audio-keyboard-response","81","2.1.0","389462","J=YES, F=NO","qywu4l7kjq","0","65","55","75","","","","","","","","","","","","","","","",""
"1227","
          <p id=""word"" style=""font-size: 40px;"">mop</p>
          <p style=""font-size: 16px;"">J = YES &nbsp;&nbsp;&nbsp; F = NO</p>
        ","j","html-keyboard-response","82","2.1.0","390689","J=YES, F=NO","qywu4l7kjq","0","65","55","75","","","","","","","","","mop","floor","filler","filler","j","true","",""
"null","<p style=""font-size: 50px;"">+</p>","null","html-keyboard-response","83","2.1.0","391005","J=YES, F=NO","qywu4l7kjq","0","65","55","75","","","","","","","","","","","","","","","",""
"null","audio/beep-329314.mp3","null","audio-keyboard-response","84","2.1.0","392522","J=YES, F=NO","qywu4l7kjq","0","65","55","75","","","","","","","","","","","","","","","",""
"null","audio/prisoner.wav","null","audio-keyboard-response","85","2.1.0","393022","J=YES, F=NO","qywu4l7kjq","0","65","55","75","","","","","","","","","","","","","","","",""
"1358","
          <p id=""word"" style=""font-size: 40px;"">egotian</p>
          <p style=""font-size: 16px;"">J = YES &nbsp;&nbsp;&nbsp; F = NO</p>
        ","f","html-keyboard-response","86","2.1.0","394381","J=YES, F=NO","qywu4l7kjq","0","65","55","75","","","","","","","","","egotian","prisoner","pseudoword","pseudoword","f","true","",""
"null","<p style=""font-size: 50px;"">+</p>","null","html-keyboard-response","87","2.1.0","394691","J=YES, F=NO","qywu4l7kjq","0","65","55","75","","","","","","","","","","","","","","","",""
"null","audio/beep-329314.mp3","null","audio-keyboard-response","88","2.1.0","396201","J=YES, F=NO","qywu4l7kjq","0","65","55","75","","","","","","","","","","","","","","","",""
"null","audio/grass.wav","null","audio-keyboard-response","89","2.1.0","396842","J=YES, F=NO","qywu4l7kjq","0","65","55","75","","","","","","","","","","","","","","","",""
"null","
          <p id=""word"" style=""font-size: 40px;"">milames</p>
          <p style=""font-size: 16px;"">J = YES &nbsp;&nbsp;&nbsp; F = NO</p>
        ","null","html-keyboard-response","90","2.1.0","398359","J=YES, F=NO","qywu4l7kjq","0","65","55","75","","","","","","","","","milames","grass","pseudoword","pseudoword","f","false","",""
"null","<p style=""font-size: 50px;"">+</p>","null","html-keyboard-response","91","2.1.0","398668","J=YES, F=NO","qywu4l7kjq","0","65","55","75","","","","","","","","","","","","","","","",""
"null","audio/beep-329314.mp3","null","audio-keyboard-response","92","2.1.0","400182","J=YES, F=NO","qywu4l7kjq","0","65","55","75","","","","","","","","","","","","","","","",""
"null","audio/planet1.wav","null","audio-keyboard-response","93","2.1.0","400961","J=YES, F=NO","qywu4l7kjq","0","65","55","75","","","","","","","","","","","","","","","",""
"1251","
          <p id=""word"" style=""font-size: 40px;"">cratched</p>
          <p style=""font-size: 16px;"">J = YES &nbsp;&nbsp;&nbsp; F = NO</p>
        ","j","html-keyboard-response","94","2.1.0","402214","J=YES, F=NO","qywu4l7kjq","0","65","55","75","","","","","","","","","cratched","planet1","pseudoword","pseudoword","f","false","",""
"null","<p style=""font-size: 50px;"">+</p>","null","html-keyboard-response","95","2.1.0","402515","J=YES, F=NO","qywu4l7kjq","0","65","55","75","","","","","","","","","","","","","","","",""
"null","audio/beep-329314.mp3","null","audio-keyboard-response","96","2.1.0","404021","J=YES, F=NO","qywu4l7kjq","0","65","55","75","","","","","","","","","","","","","","","",""
"null","audio/bomb1.wav","null","audio-keyboard-response","97","2.1.0","404581","J=YES, F=NO","qywu4l7kjq","0","65","55","75","","","","","","","","","","","","","","","",""
"null","
          <p id=""word"" style=""font-size: 40px;"">clean</p>
          <p style=""font-size: 16px;"">J = YES &nbsp;&nbsp;&nbsp; F = NO</p>
        ","null","html-keyboard-response","98","2.1.0","406084","J=YES, F=NO","qywu4l7kjq","0","65","55","75","","","","","","","","","clean","bomb1","filler","filler","j","false","",""
"null","<p style=""font-size: 50px;"">+</p>","null","html-keyboard-response","99","2.1.0","406386","J=YES, F=NO","qywu4l7kjq","0","65","55","75","","","","","","","","","","","","","","","",""
"null","audio/beep-329314.mp3","null","audio-keyboard-response","100","2.1.0","407901","J=YES, F=NO","qywu4l7kjq","0","65","55","75","","","","","","","","","","","","","","","",""
"null","audio/camera1.wav","null","audio-keyboard-response","101","2.1.0","408561","J=YES, F=NO","qywu4l7kjq","0","65","55","75","","","","","","","","","","","","","","","",""
"null","
          <p id=""word"" style=""font-size: 40px;"">stir</p>
          <p style=""font-size: 16px;"">J = YES &nbsp;&nbsp;&nbsp; F = NO</p>
        ","null","html-keyboard-response","102","2.1.0","410078","J=YES, F=NO","qywu4l7kjq","0","65","55","75","","","","","","","","","stir","camera1","filler","filler","j","false","",""
"null","<p style=""font-size: 50px;"">+</p>","null","html-keyboard-response","103","2.1.0","410389","J=YES, F=NO","qywu4l7kjq","0","65","55","75","","","","","","","","","","","","","","","",""
"null","audio/beep-329314.mp3","null","audio-keyboard-response","104","2.1.0","411902","J=YES, F=NO","qywu4l7kjq","0","65","55","75","","","","","","","","","","","","","","","",""
"null","audio/birth1.wav","null","audio-keyboard-response","105","2.1.0","412621","J=YES, F=NO","qywu4l7kjq","0","65","55","75","","","","","","","","","","","","","","","",""
"1279","
          <p id=""word"" style=""font-size: 40px;"">peel</p>
          <p style=""font-size: 16px;"">J = YES &nbsp;&nbsp;&nbsp; F = NO</p>
        ","f","html-keyboard-response","106","2.1.0","413901","J=YES, F=NO","qywu4l7kjq","0","65","55","75","","","","","","","","","peel","birth1","filler","filler","j","false","",""
"null","<p style=""font-size: 50px;"">+</p>","null","html-keyboard-response","107","2.1.0","414209","J=YES, F=NO","qywu4l7kjq","0","65","55","75","","","","","","","","","","","","","","","",""
"null","audio/beep-329314.mp3","null","audio-keyboard-response","108","2.1.0","415721","J=YES, F=NO","qywu4l7kjq","0","65","55","75","","","","","","","","","","","","","","","",""
"null","audio/road.wav","null","audio-keyboard-response","109","2.1.0","416141","J=YES, F=NO","qywu4l7kjq","0","65","55","75","","","","","","","","","","","","","","","",""
"null","
          <p id=""word"" style=""font-size: 40px;"">wappings</p>
          <p style=""font-size: 16px;"">J = YES &nbsp;&nbsp;&nbsp; F = NO</p>
        ","null","html-keyboard-response","110","2.1.0","417643","J=YES, F=NO","qywu4l7kjq","0","65","55","75","","","","","","","","","wappings","road","pseudoword","pseudoword","f","false","",""
"null","<p style=""font-size: 50px;"">+</p>","null","html-keyboard-response","111","2.1.0","417955","J=YES, F=NO","qywu4l7kjq","0","65","55","75","","","","","","","","","","","","","","","",""
"null","audio/beep-329314.mp3","null","audio-keyboard-response","112","2.1.0","419462","J=YES, F=NO","qywu4l7kjq","0","65","55","75","","","","","","","","","","","","","","","",""
"null","audio/fence.wav","null","audio-keyboard-response","113","2.1.0","420281","J=YES, F=NO","qywu4l7kjq","0","65","55","75","","","","","","","","","","","","","","","",""
"null","
          <p id=""word"" style=""font-size: 40px;"">trim</p>
          <p style=""font-size: 16px;"">J = YES &nbsp;&nbsp;&nbsp; F = NO</p>
        ","null","html-keyboard-response","114","2.1.0","421785","J=YES, F=NO","qywu4l7kjq","0","65","55","75","","","","","","","","","trim","fence","filler","filler","j","false","",""
"98","<p>Starting practice block 2 of 2. Press any key to continue.</p>","j","html-keyboard-response","115","2.1.0","421884","J=YES, F=NO","qywu4l7kjq","0","65","55","75","","","","","","","","","","","","","","","",""
"null","<p style=""font-size: 50px;"">+</p>","null","html-keyboard-response","116","2.1.0","422192","J=YES, F=NO","qywu4l7kjq","0","65","55","75","","","","","","","","","","","","","","","",""
"null","audio/beep-329314.mp3","null","audio-keyboard-response","117","2.1.0","423702","J=YES, F=NO","qywu4l7kjq","0","65","55","75","","","","","","","","","","","","","","","",""
"null","audio/voice.wav","null","audio-keyboard-response","118","2.1.0","424481","J=YES, F=NO","qywu4l7kjq","0","65","55","75","","","","","","","","","","","","","","","",""
"1220","
          <p id=""word"" style=""font-size: 40px;"">grintle</p>
          <p style=""font-size: 16px;"">J = YES &nbsp;&nbsp;&nbsp; F = NO</p>
        ","f","html-keyboard-response","119","2.1.0","425702","J=YES, F=NO","qywu4l7kjq","0","65","55","75","","","","","","","","","grintle","voice","pseudoword","pseudoword","f","true","",""
"null","<p style=""font-size: 50px;"">+</p>","null","html-keyboard-response","120","2.1.0","426010","J=YES, F=NO","qywu4l7kjq","0","65","55","75","","","","","","","","","","","","","","","",""
"null","audio/beep-329314.mp3","null","audio-keyboard-response","121","2.1.0","427521","J=YES, F=NO","qywu4l7kjq","0","65","55","75","","","","","","","","","","","","","","","",""
"null","audio/dome.wav","null","audio-keyboard-response","122","2.1.0","428122","J=YES, F=NO","qywu4l7kjq","0","65","55","75","","","","","","","","","","","","","","","",""
"1262","
          <p id=""word"" style=""font-size: 40px;"">scrupliness</p>
          <p style=""font-size: 16px;"">J = YES &nbsp;&nbsp;&nbsp; F = NO</p>
        ","f","html-keyboard-response","123","2.1.0","429385","J=YES, F=NO","qywu4l7kjq","0","65","55","75","","","","","","","","","scrupliness","dome","pseudoword","pseudoword","f","true","",""
"null","<p style=""font-size: 50px;"">+</p>","null","html-keyboard-response","124","2.1.0","429688","J=YES, F=NO","qywu4l7kjq","0","65","55","75","","","","","","","","","","","","","","","",""
"null","audio/beep-329314.mp3","null","audio-keyboard-response","125","2.1.0","431201","J=YES, F=NO","qywu4l7kjq","0","65","55","75","","","","","","","","","","","","","","","",""
"null","audio/baby.wav","null","audio-keyboard-response","126","2.1.0","431661","J=YES, F=NO","qywu4l7kjq","0","65","55","75","","","","","","","","","","","","","","","",""
"1221","
          <p id=""word"" style=""font-size: 40px;"">lift</p>
          <p style=""font-size: 16px;"">J = YES &nbsp;&nbsp;&nbsp; F = NO</p>
        ","f","html-keyboard-response","127","2.1.0","432883","J=YES, F=NO","qywu4l7kjq","0","65","55","75","","","","","","","","","lift","baby","filler","filler","j","false","",""
"null","<p style=""font-size: 50px;"">+</p>","null","html-keyboard-response","128","2.1.0","433189","J=YES, F=NO","qywu4l7kjq","0","65","55","75","","","","","","","","","","","","","","","",""
"null","audio/beep-329314.mp3","null","audio-keyboard-response","129","2.1.0","434701","J=YES, F=NO","qywu4l7kjq","0","65","55","75","","","","","","","","","","","","","","","",""
"null","audio/ego.wav","null","audio-keyboard-response","130","2.1.0","435422","J=YES, F=NO","qywu4l7kjq","0","65","55","75","","","","","","","","","","","","","","","",""
"1247","
          <p id=""word"" style=""font-size: 40px;"">bruite</p>
          <p style=""font-size: 16px;"">J = YES &nbsp;&nbsp;&nbsp; F = NO</p>
        ","f","html-keyboard-response","131","2.1.0","436669","J=YES, F=NO","qywu4l7kjq","0","65","55","75","","","","","","","","","bruite","ego","pseudoword","pseudoword","f","true","",""
"null","<p style=""font-size: 50px;"">+</p>","null","html-keyboard-response","132","2.1.0","436985","J=YES, F=NO","qywu4l7kjq","0","65","55","75","","","","","","","","","","","","","","","",""
"null","audio/beep-329314.mp3","null","audio-keyboard-response","133","2.1.0","438501","J=YES, F=NO","qywu4l7kjq","0","65","55","75","","","","","","","","","","","","","","","",""
"null","audio/cancer1.wav","null","audio-keyboard-response","134","2.1.0","439041","J=YES, F=NO","qywu4l7kjq","0","65","55","75","","","","","","","","","","","","","","","",""
"1378","
          <p id=""word"" style=""font-size: 40px;"">draw</p>
          <p style=""font-size: 16px;"">J = YES &nbsp;&nbsp;&nbsp; F = NO</p>
        ","j","html-keyboard-response","135","2.1.0","440420","J=YES, F=NO","qywu4l7kjq","0","65","55","75","","","","","","","","","draw","cancer1","filler","filler","j","true","",""
"null","<p style=""font-size: 50px;"">+</p>","null","html-keyboard-response","136","2.1.0","440730","J=YES, F=NO","qywu4l7kjq","0","65","55","75","","","","","","","","","","","","","","","",""
"null","audio/beep-329314.mp3","null","audio-keyboard-response","137","2.1.0","442241","J=YES, F=NO","qywu4l7kjq","0","65","55","75","","","","","","","","","","","","","","","",""
"null","audio/table1.wav","null","audio-keyboard-response","138","2.1.0","442721","J=YES, F=NO","qywu4l7kjq","0","65","55","75","","","","","","","","","","","","","","","",""
"500","
          <p id=""word"" style=""font-size: 40px;"">stimb</p>
          <p style=""font-size: 16px;"">J = YES &nbsp;&nbsp;&nbsp; F = NO</p>
        ","f","html-keyboard-response","139","2.1.0","443223","J=YES, F=NO","qywu4l7kjq","0","65","55","75","","","","","","","","","stimb","table1","pseudoword","pseudoword","f","true","",""
"null","<p style=""font-size: 50px;"">+</p>","null","html-keyboard-response","140","2.1.0","443527","J=YES, F=NO","qywu4l7kjq","0","65","55","75","","","","","","","","","","","","","","","",""
"null","audio/beep-329314.mp3","null","audio-keyboard-response","141","2.1.0","445041","J=YES, F=NO","qywu4l7kjq","0","65","55","75","","","","","","","","","","","","","","","",""
"null","audio/van1.wav","null","audio-keyboard-response","142","2.1.0","445701","J=YES, F=NO","qywu4l7kjq","0","65","55","75","","","","","","","","","","","","","","","",""
"null","
          <p id=""word"" style=""font-size: 40px;"">push</p>
          <p style=""font-size: 16px;"">J = YES &nbsp;&nbsp;&nbsp; F = NO</p>
        ","null","html-keyboard-response","143","2.1.0","447212","J=YES, F=NO","qywu4l7kjq","0","65","55","75","","","","","","","","","push","van1","filler","filler","j","false","",""
"null","<p style=""font-size: 50px;"">+</p>","null","html-keyboard-response","144","2.1.0","447525","J=YES, F=NO","qywu4l7kjq","0","65","55","75","","","","","","","","","","","","","","","",""
"null","audio/beep-329314.mp3","null","audio-keyboard-response","145","2.1.0","449041","J=YES, F=NO","qywu4l7kjq","0","65","55","75","","","","","","","","","","","","","","","",""
"null","audio/pattern.wav","null","audio-keyboard-response","146","2.1.0","449721","J=YES, F=NO","qywu4l7kjq","0","65","55","75","","","","","","","","","","","","","","","",""
"1378","
          <p id=""word"" style=""font-size: 40px;"">tug</p>
          <p style=""font-size: 16px;"">J = YES &nbsp;&nbsp;&nbsp; F = NO</p>
        ","f","html-keyboard-response","147","2.1.0","451101","J=YES, F=NO","qywu4l7kjq","0","65","55","75","","","","","","","","","tug","pattern","filler","filler","j","false","",""
"null","<p style=""font-size: 50px;"">+</p>","null","html-keyboard-response","148","2.1.0","451411","J=YES, F=NO","qywu4l7kjq","0","65","55","75","","","","","","","","","","","","","","","",""
"null","audio/beep-329314.mp3","null","audio-keyboard-response","149","2.1.0","452922","J=YES, F=NO","qywu4l7kjq","0","65","55","75","","","","","","","","","","","","","","","",""
"null","audio/menu.wav","null","audio-keyboard-response","150","2.1.0","453481","J=YES, F=NO","qywu4l7kjq","0","65","55","75","","","","","","","","","","","","","","","",""
"1311","
          <p id=""word"" style=""font-size: 40px;"">slice</p>
          <p style=""font-size: 16px;"">J = YES &nbsp;&nbsp;&nbsp; F = NO</p>
        ","j","html-keyboard-response","151","2.1.0","454793","J=YES, F=NO","qywu4l7kjq","0","65","55","75","","","","","","","","","slice","menu","filler","filler","j","true","",""
"null","<p style=""font-size: 50px;"">+</p>","null","html-keyboard-response","152","2.1.0","455108","J=YES, F=NO","qywu4l7kjq","0","65","55","75","","","","","","","","","","","","","","","",""
"null","audio/beep-329314.mp3","null","audio-keyboard-response","153","2.1.0","456621","J=YES, F=NO","qywu4l7kjq","0","65","55","75","","","","","","","","","","","","","","","",""
"null","audio/foe1.wav","null","audio-keyboard-response","154","2.1.0","457301","J=YES, F=NO","qywu4l7kjq","0","65","55","75","","","","","","","","","","","","","","","",""
"733","
          <p id=""word"" style=""font-size: 40px;"">creth</p>
          <p style=""font-size: 16px;"">J = YES &nbsp;&nbsp;&nbsp; F = NO</p>
        ","f","html-keyboard-response","155","2.1.0","458035","J=YES, F=NO","qywu4l7kjq","0","65","55","75","","","","","","","","","creth","foe1","pseudoword","pseudoword","f","true","",""
"null","<p style=""font-size: 50px;"">+</p>","null","html-keyboard-response","156","2.1.0","458351","J=YES, F=NO","qywu4l7kjq","0","65","55","75","","","","","","","","","","","","","","","",""
"null","audio/beep-329314.mp3","null","audio-keyboard-response","157","2.1.0","459861","J=YES, F=NO","qywu4l7kjq","0","65","55","75","","","","","","","","","","","","","","","",""
"null","audio/alarm1.wav","null","audio-keyboard-response","158","2.1.0","460441","J=YES, F=NO","qywu4l7kjq","0","65","55","75","","","","","","","","","","","","","","","",""
"731","
          <p id=""word"" style=""font-size: 40px;"">lock</p>
          <p style=""font-size: 16px;"">J = YES &nbsp;&nbsp;&nbsp; F = NO</p>
        ","j","html-keyboard-response","159","2.1.0","461173","J=YES, F=NO","qywu4l7kjq","0","65","55","75","","","","","","","","","lock","alarm1","filler","filler","j","true","",""
"null","<p style=""font-size: 50px;"">+</p>","null","html-keyboard-response","160","2.1.0","461475","J=YES, F=NO","qywu4l7kjq","0","65","55","75","","","","","","","","","","","","","","","",""
"null","audio/beep-329314.mp3","null","audio-keyboard-response","161","2.1.0","462981","J=YES, F=NO","qywu4l7kjq","0","65","55","75","","","","","","","","","","","","","","","",""
"null","audio/pine.wav","null","audio-keyboard-response","162","2.1.0","463461","J=YES, F=NO","qywu4l7kjq","0","65","55","75","","","","","","","","","","","","","","","",""
"818","
          <p id=""word"" style=""font-size: 40px;"">crebble</p>
          <p style=""font-size: 16px;"">J = YES &nbsp;&nbsp;&nbsp; F = NO</p>
        ","f","html-keyboard-response","163","2.1.0","464280","J=YES, F=NO","qywu4l7kjq","0","65","55","75","","","","","","","","","crebble","pine","pseudoword","pseudoword","f","true","",""
"20534","
    <div style=""max-width: 800px; margin: auto; text-align: left;"">
      <h2>Part 2: Main Trials</h2>
      <p>Great job on the practice trials!</p>
      <p>You will now begin the <strong>main set of trials</strong>.</p>
      <p>Remember your key assignments:</p>
      <ul>
        <li><strong>J</strong> = YES (real English word)</li>
        <li><strong>F</strong> = NO (not a real English word)</li>
      </ul>
      <p>Try to respond as <strong>quickly and accurately</strong> as possible.</p>
      <p style=""margin-top: 2em;"">Press any key to begin the main trials.</p>
    </div>
  "," ","html-keyboard-response","164","2.1.0","484815","J=YES, F=NO","qywu4l7kjq","0","65","55","75","","","","","","","","","","","","","","","",""
"4445","<p>Starting main block 1 of 8. Press any key to continue.</p>"," ","html-keyboard-response","165","2.1.0","489260","J=YES, F=NO","qywu4l7kjq","0","65","55","75","","","","","","","","","","","","","","","",""
"null","<p style=""font-size: 50px;"">+</p>","null","html-keyboard-response","166","2.1.0","489563","J=YES, F=NO","qywu4l7kjq","0","65","55","75","","","","","","","","","","","","","","","",""
"null","audio/beep-329314.mp3","null","audio-keyboard-response","167","2.1.0","491277","J=YES, F=NO","qywu4l7kjq","0","65","55","75","","","","","","","","","","","","","","","",""
"null","audio/pine.wav","null","audio-keyboard-response","168","2.1.0","491727","J=YES, F=NO","qywu4l7kjq","0","65","55","75","","","","","","","","","","","","","","","",""
"1276","
          <p id=""word"" style=""font-size: 40px;"">weave</p>
          <p style=""font-size: 16px;"">J = YES &nbsp;&nbsp;&nbsp; F = NO</p>
        ","f","html-keyboard-response","169","2.1.0","493003","J=YES, F=NO","qywu4l7kjq","0","65","55","75","","","","","","","","","weave","pine","unrelated","experimental","j","false","",""
"null","<p style=""font-size: 50px;"">+</p>","null","html-keyboard-response","170","2.1.0","493313","J=YES, F=NO","qywu4l7kjq","0","65","55","75","","","","","","","","","","","","","","","",""
"null","audio/beep-329314.mp3","null","audio-keyboard-response","171","2.1.0","494817","J=YES, F=NO","qywu4l7kjq","0","65","55","75","","","","","","","","","","","","","","","",""
"null","audio/pizza1.wav","null","audio-keyboard-response","172","2.1.0","495367","J=YES, F=NO","qywu4l7kjq","0","65","55","75","","","","","","","","","","","","","","","",""
"1170","
          <p id=""word"" style=""font-size: 40px;"">devour</p>
          <p style=""font-size: 16px;"">J = YES &nbsp;&nbsp;&nbsp; F = NO</p>
        ","f","html-keyboard-response","173","2.1.0","496538","J=YES, F=NO","qywu4l7kjq","0","65","55","75","","","","","","","","","devour","pizza1","literal","experimental","j","false","",""
"null","<p style=""font-size: 50px;"">+</p>","null","html-keyboard-response","174","2.1.0","496839","J=YES, F=NO","qywu4l7kjq","0","65","55","75","","","","","","","","","","","","","","","",""
"null","audio/beep-329314.mp3","null","audio-keyboard-response","175","2.1.0","498357","J=YES, F=NO","qywu4l7kjq","0","65","55","75","","","","","","","","","","","","","","","",""
"null","audio/theory1.wav","null","audio-keyboard-response","176","2.1.0","498987","J=YES, F=NO","qywu4l7kjq","0","65","55","75","","","","","","","","","","","","","","","",""
"1038","
          <p id=""word"" style=""font-size: 40px;"">scolve</p>
          <p style=""font-size: 16px;"">J = YES &nbsp;&nbsp;&nbsp; F = NO</p>
        ","j","html-keyboard-response","177","2.1.0","500025","J=YES, F=NO","qywu4l7kjq","0","65","55","75","","","","","","","","","scolve","theory1","pseudoword","pseudoword","f","false","",""
"null","<p style=""font-size: 50px;"">+</p>","null","html-keyboard-response","178","2.1.0","500333","J=YES, F=NO","qywu4l7kjq","0","65","55","75","","","","","","","","","","","","","","","",""
"null","audio/beep-329314.mp3","null","audio-keyboard-response","179","2.1.0","501837","J=YES, F=NO","qywu4l7kjq","0","65","55","75","","","","","","","","","","","","","","","",""
"null","audio/topic.wav","null","audio-keyboard-response","180","2.1.0","502407","J=YES, F=NO","qywu4l7kjq","0","65","55","75","","","","","","","","","","","","","","","",""
"1137","
          <p id=""word"" style=""font-size: 40px;"">infortuitist</p>
          <p style=""font-size: 16px;"">J = YES &nbsp;&nbsp;&nbsp; F = NO</p>
        ","f","html-keyboard-response","181","2.1.0","503545","J=YES, F=NO","qywu4l7kjq","0","65","55","75","","","","","","","","","infortuitist","topic","pseudoword","pseudoword","f","true","",""
"null","<p style=""font-size: 50px;"">+</p>","null","html-keyboard-response","182","2.1.0","503851","J=YES, F=NO","qywu4l7kjq","0","65","55","75","","","","","","","","","","","","","","","",""
"null","audio/beep-329314.mp3","null","audio-keyboard-response","183","2.1.0","505357","J=YES, F=NO","qywu4l7kjq","0","65","55","75","","","","","","","","","","","","","","","",""
"null","audio/brain.wav","null","audio-keyboard-response","184","2.1.0","505848","J=YES, F=NO","qywu4l7kjq","0","65","55","75","","","","","","","","","","","","","","","",""
"812","
          <p id=""word"" style=""font-size: 40px;"">throw</p>
          <p style=""font-size: 16px;"">J = YES &nbsp;&nbsp;&nbsp; F = NO</p>
        ","j","html-keyboard-response","185","2.1.0","506660","J=YES, F=NO","qywu4l7kjq","0","65","55","75","","","","","","","","","throw","brain","filler","filler","j","true","",""
"null","<p style=""font-size: 50px;"">+</p>","null","html-keyboard-response","186","2.1.0","506969","J=YES, F=NO","qywu4l7kjq","0","65","55","75","","","","","","","","","","","","","","","",""
"null","audio/beep-329314.mp3","null","audio-keyboard-response","187","2.1.0","508477","J=YES, F=NO","qywu4l7kjq","0","65","55","75","","","","","","","","","","","","","","","",""
"null","audio/strength.wav","null","audio-keyboard-response","188","2.1.0","509207","J=YES, F=NO","qywu4l7kjq","0","65","55","75","","","","","","","","","","","","","","","",""
"1285","
          <p id=""word"" style=""font-size: 40px;"">possess</p>
          <p style=""font-size: 16px;"">J = YES &nbsp;&nbsp;&nbsp; F = NO</p>
        ","f","html-keyboard-response","189","2.1.0","510493","J=YES, F=NO","qywu4l7kjq","0","65","55","75","","","","","","","","","possess","strength","metaphor","experimental","j","false","",""
"null","<p style=""font-size: 50px;"">+</p>","null","html-keyboard-response","190","2.1.0","510797","J=YES, F=NO","qywu4l7kjq","0","65","55","75","","","","","","","","","","","","","","","",""
"null","audio/beep-329314.mp3","null","audio-keyboard-response","191","2.1.0","512318","J=YES, F=NO","qywu4l7kjq","0","65","55","75","","","","","","","","","","","","","","","",""
"null","audio/noise1.wav","null","audio-keyboard-response","192","2.1.0","512927","J=YES, F=NO","qywu4l7kjq","0","65","55","75","","","","","","","","","","","","","","","",""
"1177","
          <p id=""word"" style=""font-size: 40px;"">slintered</p>
          <p style=""font-size: 16px;"">J = YES &nbsp;&nbsp;&nbsp; F = NO</p>
        ","f","html-keyboard-response","193","2.1.0","514104","J=YES, F=NO","qywu4l7kjq","0","65","55","75","","","","","","","","","slintered","noise1","pseudoword","pseudoword","f","true","",""
"null","<p style=""font-size: 50px;"">+</p>","null","html-keyboard-response","194","2.1.0","514406","J=YES, F=NO","qywu4l7kjq","0","65","55","75","","","","","","","","","","","","","","","",""
"null","audio/beep-329314.mp3","null","audio-keyboard-response","195","2.1.0","515917","J=YES, F=NO","qywu4l7kjq","0","65","55","75","","","","","","","","","","","","","","","",""
"null","audio/storm1.wav","null","audio-keyboard-response","196","2.1.0","516508","J=YES, F=NO","qywu4l7kjq","0","65","55","75","","","","","","","","","","","","","","","",""
"711","
          <p id=""word"" style=""font-size: 40px;"">climb</p>
          <p style=""font-size: 16px;"">J = YES &nbsp;&nbsp;&nbsp; F = NO</p>
        ","j","html-keyboard-response","197","2.1.0","517220","J=YES, F=NO","qywu4l7kjq","0","65","55","75","","","","","","","","","climb","storm1","unrelated","experimental","j","true","",""
"null","<p style=""font-size: 50px;"">+</p>","null","html-keyboard-response","198","2.1.0","517532","J=YES, F=NO","qywu4l7kjq","0","65","55","75","","","","","","","","","","","","","","","",""
"null","audio/beep-329314.mp3","null","audio-keyboard-response","199","2.1.0","519038","J=YES, F=NO","qywu4l7kjq","0","65","55","75","","","","","","","","","","","","","","","",""
"null","audio/sand.wav","null","audio-keyboard-response","200","2.1.0","519687","J=YES, F=NO","qywu4l7kjq","0","65","55","75","","","","","","","","","","","","","","","",""
"1030","
          <p id=""word"" style=""font-size: 40px;"">proted</p>
          <p style=""font-size: 16px;"">J = YES &nbsp;&nbsp;&nbsp; F = NO</p>
        ","j","html-keyboard-response","201","2.1.0","520719","J=YES, F=NO","qywu4l7kjq","0","65","55","75","","","","","","","","","proted","sand","pseudoword","pseudoword","f","false","",""
"null","<p style=""font-size: 50px;"">+</p>","null","html-keyboard-response","202","2.1.0","521025","J=YES, F=NO","qywu4l7kjq","0","65","55","75","","","","","","","","","","","","","","","",""
"null","audio/beep-329314.mp3","null","audio-keyboard-response","203","2.1.0","522537","J=YES, F=NO","qywu4l7kjq","0","65","55","75","","","","","","","","","","","","","","","",""
"null","audio/ground.wav","null","audio-keyboard-response","204","2.1.0","523128","J=YES, F=NO","qywu4l7kjq","0","65","55","75","","","","","","","","","","","","","","","",""
"1024","
          <p id=""word"" style=""font-size: 40px;"">touch</p>
          <p style=""font-size: 16px;"">J = YES &nbsp;&nbsp;&nbsp; F = NO</p>
        ","j","html-keyboard-response","205","2.1.0","524152","J=YES, F=NO","qywu4l7kjq","0","65","55","75","","","","","","","","","touch","ground","literal","experimental","j","true","",""
"null","<p style=""font-size: 50px;"">+</p>","null","html-keyboard-response","206","2.1.0","524461","J=YES, F=NO","qywu4l7kjq","0","65","55","75","","","","","","","","","","","","","","","",""
"null","audio/beep-329314.mp3","null","audio-keyboard-response","207","2.1.0","525978","J=YES, F=NO","qywu4l7kjq","0","65","55","75","","","","","","","","","","","","","","","",""
"null","audio/cinema1.wav","null","audio-keyboard-response","208","2.1.0","526588","J=YES, F=NO","qywu4l7kjq","0","65","55","75","","","","","","","","","","","","","","","",""
"1196","
          <p id=""word"" style=""font-size: 40px;"">murple</p>
          <p style=""font-size: 16px;"">J = YES &nbsp;&nbsp;&nbsp; F = NO</p>
        ","f","html-keyboard-response","209","2.1.0","527785","J=YES, F=NO","qywu4l7kjq","0","65","55","75","","","","","","","","","murple","cinema1","pseudoword","pseudoword","f","true","",""
"null","<p style=""font-size: 50px;"">+</p>","null","html-keyboard-response","210","2.1.0","528096","J=YES, F=NO","qywu4l7kjq","0","65","55","75","","","","","","","","","","","","","","","",""
"null","audio/beep-329314.mp3","null","audio-keyboard-response","211","2.1.0","529618","J=YES, F=NO","qywu4l7kjq","0","65","55","75","","","","","","","","","","","","","","","",""
"null","audio/smirk1.wav","null","audio-keyboard-response","212","2.1.0","530347","J=YES, F=NO","qywu4l7kjq","0","65","55","75","","","","","","","","","","","","","","","",""
"922","
          <p id=""word"" style=""font-size: 40px;"">wipe</p>
          <p style=""font-size: 16px;"">J = YES &nbsp;&nbsp;&nbsp; F = NO</p>
        ","j","html-keyboard-response","213","2.1.0","531269","J=YES, F=NO","qywu4l7kjq","0","65","55","75","","","","","","","","","wipe","smirk1","metaphor","experimental","j","true","",""
"null","<p style=""font-size: 50px;"">+</p>","null","html-keyboard-response","214","2.1.0","531578","J=YES, F=NO","qywu4l7kjq","0","65","55","75","","","","","","","","","","","","","","","",""
"null","audio/beep-329314.mp3","null","audio-keyboard-response","215","2.1.0","533097","J=YES, F=NO","qywu4l7kjq","0","65","55","75","","","","","","","","","","","","","","","",""
"null","audio/window1.wav","null","audio-keyboard-response","216","2.1.0","533687","J=YES, F=NO","qywu4l7kjq","0","65","55","75","","","","","","","","","","","","","","","",""
"1280","
          <p id=""word"" style=""font-size: 40px;"">toss</p>
          <p style=""font-size: 16px;"">J = YES &nbsp;&nbsp;&nbsp; F = NO</p>
        ","f","html-keyboard-response","217","2.1.0","534968","J=YES, F=NO","qywu4l7kjq","0","65","55","75","","","","","","","","","toss","window1","filler","filler","j","false","",""
"null","<p style=""font-size: 50px;"">+</p>","null","html-keyboard-response","218","2.1.0","535281","J=YES, F=NO","qywu4l7kjq","0","65","55","75","","","","","","","","","","","","","","","",""
"null","audio/beep-329314.mp3","null","audio-keyboard-response","219","2.1.0","536797","J=YES, F=NO","qywu4l7kjq","0","65","55","75","","","","","","","","","","","","","","","",""
"null","audio/belief.wav","null","audio-keyboard-response","220","2.1.0","537408","J=YES, F=NO","qywu4l7kjq","0","65","55","75","","","","","","","","","","","","","","","",""
"887","
          <p id=""word"" style=""font-size: 40px;"">read</p>
          <p style=""font-size: 16px;"">J = YES &nbsp;&nbsp;&nbsp; F = NO</p>
        ","j","html-keyboard-response","221","2.1.0","538296","J=YES, F=NO","qywu4l7kjq","0","65","55","75","","","","","","","","","read","belief","filler","filler","j","true","",""
"null","<p style=""font-size: 50px;"">+</p>","null","html-keyboard-response","222","2.1.0","538602","J=YES, F=NO","qywu4l7kjq","0","65","55","75","","","","","","","","","","","","","","","",""
"null","audio/beep-329314.mp3","null","audio-keyboard-response","223","2.1.0","540117","J=YES, F=NO","qywu4l7kjq","0","65","55","75","","","","","","","","","","","","","","","",""
"null","audio/tunnel.wav","null","audio-keyboard-response","224","2.1.0","540527","J=YES, F=NO","qywu4l7kjq","0","65","55","75","","","","","","","","","","","","","","","",""
"1043","
          <p id=""word"" style=""font-size: 40px;"">gred</p>
          <p style=""font-size: 16px;"">J = YES &nbsp;&nbsp;&nbsp; F = NO</p>
        ","j","html-keyboard-response","225","2.1.0","541571","J=YES, F=NO","qywu4l7kjq","0","65","55","75","","","","","","","","","gred","tunnel","pseudoword","pseudoword","f","false","",""
"null","<p style=""font-size: 50px;"">+</p>","null","html-keyboard-response","226","2.1.0","541878","J=YES, F=NO","qywu4l7kjq","0","65","55","75","","","","","","","","","","","","","","","",""
"null","audio/beep-329314.mp3","null","audio-keyboard-response","227","2.1.0","543398","J=YES, F=NO","qywu4l7kjq","0","65","55","75","","","","","","","","","","","","","","","",""
"null","audio/golf1.wav","null","audio-keyboard-response","228","2.1.0","544147","J=YES, F=NO","qywu4l7kjq","0","65","55","75","","","","","","","","","","","","","","","",""
"1117","
          <p id=""word"" style=""font-size: 40px;"">drabble</p>
          <p style=""font-size: 16px;"">J = YES &nbsp;&nbsp;&nbsp; F = NO</p>
        ","f","html-keyboard-response","229","2.1.0","545265","J=YES, F=NO","qywu4l7kjq","0","65","55","75","","","","","","","","","drabble","golf1","pseudoword","pseudoword","f","true","",""
"29479","<p>Excellent! You have finished block 1 of 8.</p>
                     <p>Feel free to take a 30 second break.</p>
                     <p>Press any key when you're ready to continue.</p>"," ","html-keyboard-response","230","2.1.0","574745","J=YES, F=NO","qywu4l7kjq","0","65","55","75","","","","","","","","","","","","","","","",""
"4925","<p>Starting main block 2 of 8. Press any key to continue.</p>","j","html-keyboard-response","231","2.1.0","579670","J=YES, F=NO","qywu4l7kjq","0","65","55","75","","","","","","","","","","","","","","","",""
"null","<p style=""font-size: 50px;"">+</p>","null","html-keyboard-response","232","2.1.0","579986","J=YES, F=NO","qywu4l7kjq","0","65","55","75","","","","","","","","","","","","","","","",""
"null","audio/beep-329314.mp3","null","audio-keyboard-response","233","2.1.0","581704","J=YES, F=NO","qywu4l7kjq","0","65","55","75","","","","","","","","","","","","","","","",""
"null","audio/budget1.wav","null","audio-keyboard-response","234","2.1.0","582474","J=YES, F=NO","qywu4l7kjq","0","65","55","75","","","","","","","","","","","","","","","",""
"1067","
          <p id=""word"" style=""font-size: 40px;"">sulist</p>
          <p style=""font-size: 16px;"">J = YES &nbsp;&nbsp;&nbsp; F = NO</p>
        ","f","html-keyboard-response","235","2.1.0","583541","J=YES, F=NO","qywu4l7kjq","0","65","55","75","","","","","","","","","sulist","budget1","pseudoword","pseudoword","f","true","",""
"null","<p style=""font-size: 50px;"">+</p>","null","html-keyboard-response","236","2.1.0","583851","J=YES, F=NO","qywu4l7kjq","0","65","55","75","","","","","","","","","","","","","","","",""
"null","audio/beep-329314.mp3","null","audio-keyboard-response","237","2.1.0","585363","J=YES, F=NO","qywu4l7kjq","0","65","55","75","","","","","","","","","","","","","","","",""
"null","audio/demon1.wav","null","audio-keyboard-response","238","2.1.0","585853","J=YES, F=NO","qywu4l7kjq","0","65","55","75","","","","","","","","","","","","","","","",""
"1241","
          <p id=""word"" style=""font-size: 40px;"">wrestle</p>
          <p style=""font-size: 16px;"">J = YES &nbsp;&nbsp;&nbsp; F = NO</p>
        ","f","html-keyboard-response","239","2.1.0","587094","J=YES, F=NO","qywu4l7kjq","0","65","55","75","","","","","","","","","wrestle","demon1","metaphor","experimental","j","false","",""
"null","<p style=""font-size: 50px;"">+</p>","null","html-keyboard-response","240","2.1.0","587401","J=YES, F=NO","qywu4l7kjq","0","65","55","75","","","","","","","","","","","","","","","",""
"null","audio/beep-329314.mp3","null","audio-keyboard-response","241","2.1.0","588923","J=YES, F=NO","qywu4l7kjq","0","65","55","75","","","","","","","","","","","","","","","",""
"null","audio/battle1.wav","null","audio-keyboard-response","242","2.1.0","589373","J=YES, F=NO","qywu4l7kjq","0","65","55","75","","","","","","","","","","","","","","","",""
"1053","
          <p id=""word"" style=""font-size: 40px;"">boil</p>
          <p style=""font-size: 16px;"">J = YES &nbsp;&nbsp;&nbsp; F = NO</p>
        ","j","html-keyboard-response","243","2.1.0","590427","J=YES, F=NO","qywu4l7kjq","0","65","55","75","","","","","","","","","boil","battle1","filler","filler","j","true","",""
"null","<p style=""font-size: 50px;"">+</p>","null","html-keyboard-response","244","2.1.0","590736","J=YES, F=NO","qywu4l7kjq","0","65","55","75","","","","","","","","","","","","","","","",""
"null","audio/beep-329314.mp3","null","audio-keyboard-response","245","2.1.0","592244","J=YES, F=NO","qywu4l7kjq","0","65","55","75","","","","","","","","","","","","","","","",""
"null","audio/emotion.wav","null","audio-keyboard-response","246","2.1.0","593053","J=YES, F=NO","qywu4l7kjq","0","65","55","75","","","","","","","","","","","","","","","",""
"null","
          <p id=""word"" style=""font-size: 40px;"">devering</p>
          <p style=""font-size: 16px;"">J = YES &nbsp;&nbsp;&nbsp; F = NO</p>
        ","null","html-keyboard-response","247","2.1.0","594562","J=YES, F=NO","qywu4l7kjq","0","65","55","75","","","","","","","","","devering","emotion","pseudoword","pseudoword","f","false","",""
"null","<p style=""font-size: 50px;"">+</p>","null","html-keyboard-response","248","2.1.0","594874","J=YES, F=NO","qywu4l7kjq","0","65","55","75","","","","","","","","","","","","","","","",""
"null","audio/beep-329314.mp3","null","audio-keyboard-response","249","2.1.0","596384","J=YES, F=NO","qywu4l7kjq","0","65","55","75","","","","","","","","","","","","","","","",""
"null","audio/ship.wav","null","audio-keyboard-response","250","2.1.0","596933","J=YES, F=NO","qywu4l7kjq","0","65","55","75","","","","","","","","","","","","","","","",""
"1152","
          <p id=""word"" style=""font-size: 40px;"">scrap</p>
          <p style=""font-size: 16px;"">J = YES &nbsp;&nbsp;&nbsp; F = NO</p>
        ","j","html-keyboard-response","251","2.1.0","598086","J=YES, F=NO","qywu4l7kjq","0","65","55","75","","","","","","","","","scrap","ship","literal","experimental","j","true","",""
"null","<p style=""font-size: 50px;"">+</p>","null","html-keyboard-response","252","2.1.0","598387","J=YES, F=NO","qywu4l7kjq","0","65","55","75","","","","","","","","","","","","","","","",""
"null","audio/beep-329314.mp3","null","audio-keyboard-response","253","2.1.0","599903","J=YES, F=NO","qywu4l7kjq","0","65","55","75","","","","","","","","","","","","","","","",""
"null","audio/fear.wav","null","audio-keyboard-response","254","2.1.0","600433","J=YES, F=NO","qywu4l7kjq","0","65","55","75","","","","","","","","","","","","","","","",""
"null","
          <p id=""word"" style=""font-size: 40px;"">spread</p>
          <p style=""font-size: 16px;"">J = YES &nbsp;&nbsp;&nbsp; F = NO</p>
        ","null","html-keyboard-response","255","2.1.0","601949","J=YES, F=NO","qywu4l7kjq","0","65","55","75","","","","","","","","","spread","fear","metaphor","experimental","j","false","",""
"null","<p style=""font-size: 50px;"">+</p>","null","html-keyboard-response","256","2.1.0","602262","J=YES, F=NO","qywu4l7kjq","0","65","55","75","","","","","","","","","","","","","","","",""
"null","audio/beep-329314.mp3","null","audio-keyboard-response","257","2.1.0","603783","J=YES, F=NO","qywu4l7kjq","0","65","55","75","","","","","","","","","","","","","","","",""
"null","audio/key1.wav","null","audio-keyboard-response","258","2.1.0","604133","J=YES, F=NO","qywu4l7kjq","0","65","55","75","","","","","","","","","","","","","","","",""
"916","
          <p id=""word"" style=""font-size: 40px;"">lose</p>
          <p style=""font-size: 16px;"">J = YES &nbsp;&nbsp;&nbsp; F = NO</p>
        ","j","html-keyboard-response","259","2.1.0","605050","J=YES, F=NO","qywu4l7kjq","0","65","55","75","","","","","","","","","lose","key1","literal","experimental","j","true","",""
"null","<p style=""font-size: 50px;"">+</p>","null","html-keyboard-response","260","2.1.0","605365","J=YES, F=NO","qywu4l7kjq","0","65","55","75","","","","","","","","","","","","","","","",""
"null","audio/beep-329314.mp3","null","audio-keyboard-response","261","2.1.0","606883","J=YES, F=NO","qywu4l7kjq","0","65","55","75","","","","","","","","","","","","","","","",""
"null","audio/age1.wav","null","audio-keyboard-response","262","2.1.0","607434","J=YES, F=NO","qywu4l7kjq","0","65","55","75","","","","","","","","","","","","","","","",""
"1261","
          <p id=""word"" style=""font-size: 40px;"">lachry</p>
          <p style=""font-size: 16px;"">J = YES &nbsp;&nbsp;&nbsp; F = NO</p>
        ","f","html-keyboard-response","263","2.1.0","608696","J=YES, F=NO","qywu4l7kjq","0","65","55","75","","","","","","","","","lachry","age1","pseudoword","pseudoword","f","true","",""
"null","<p style=""font-size: 50px;"">+</p>","null","html-keyboard-response","264","2.1.0","609001","J=YES, F=NO","qywu4l7kjq","0","65","55","75","","","","","","","","","","","","","","","",""
"null","audio/beep-329314.mp3","null","audio-keyboard-response","265","2.1.0","610504","J=YES, F=NO","qywu4l7kjq","0","65","55","75","","","","","","","","","","","","","","","",""
"null","audio/price.wav","null","audio-keyboard-response","266","2.1.0","611134","J=YES, F=NO","qywu4l7kjq","0","65","55","75","","","","","","","","","","","","","","","",""
"949","
          <p id=""word"" style=""font-size: 40px;"">drop</p>
          <p style=""font-size: 16px;"">J = YES &nbsp;&nbsp;&nbsp; F = NO</p>
        ","j","html-keyboard-response","267","2.1.0","612084","J=YES, F=NO","qywu4l7kjq","0","65","55","75","","","","","","","","","drop","price","metaphor","experimental","j","true","",""
"null","<p style=""font-size: 50px;"">+</p>","null","html-keyboard-response","268","2.1.0","612400","J=YES, F=NO","qywu4l7kjq","0","65","55","75","","","","","","","","","","","","","","","",""
"null","audio/beep-329314.mp3","null","audio-keyboard-response","269","2.1.0","613903","J=YES, F=NO","qywu4l7kjq","0","65","55","75","","","","","","","","","","","","","","","",""
"null","audio/client1.wav","null","audio-keyboard-response","270","2.1.0","614574","J=YES, F=NO","qywu4l7kjq","0","65","55","75","","","","","","","","","","","","","","","",""
"1155","
          <p id=""word"" style=""font-size: 40px;"">droothe</p>
          <p style=""font-size: 16px;"">J = YES &nbsp;&nbsp;&nbsp; F = NO</p>
        ","f","html-keyboard-response","271","2.1.0","615730","J=YES, F=NO","qywu4l7kjq","0","65","55","75","","","","","","","","","droothe","client1","pseudoword","pseudoword","f","true","",""
"null","<p style=""font-size: 50px;"">+</p>","null","html-keyboard-response","272","2.1.0","616044","J=YES, F=NO","qywu4l7kjq","0","65","55","75","","","","","","","","","","","","","","","",""
"null","audio/beep-329314.mp3","null","audio-keyboard-response","273","2.1.0","617564","J=YES, F=NO","qywu4l7kjq","0","65","55","75","","","","","","","","","","","","","","","",""
"null","audio/kettle1.wav","null","audio-keyboard-response","274","2.1.0","618034","J=YES, F=NO","qywu4l7kjq","0","65","55","75","","","","","","","","","","","","","","","",""
"1043","
          <p id=""word"" style=""font-size: 40px;"">wrap</p>
          <p style=""font-size: 16px;"">J = YES &nbsp;&nbsp;&nbsp; F = NO</p>
        ","j","html-keyboard-response","275","2.1.0","619078","J=YES, F=NO","qywu4l7kjq","0","65","55","75","","","","","","","","","wrap","kettle1","filler","filler","j","true","",""
"null","<p style=""font-size: 50px;"">+</p>","null","html-keyboard-response","276","2.1.0","619390","J=YES, F=NO","qywu4l7kjq","0","65","55","75","","","","","","","","","","","","","","","",""
"null","audio/beep-329314.mp3","null","audio-keyboard-response","277","2.1.0","620904","J=YES, F=NO","qywu4l7kjq","0","65","55","75","","","","","","","","","","","","","","","",""
"null","audio/cinema1.wav","null","audio-keyboard-response","278","2.1.0","621494","J=YES, F=NO","qywu4l7kjq","0","65","55","75","","","","","","","","","","","","","","","",""
"1397","
          <p id=""word"" style=""font-size: 40px;"">grow</p>
          <p style=""font-size: 16px;"">J = YES &nbsp;&nbsp;&nbsp; F = NO</p>
        ","j","html-keyboard-response","279","2.1.0","622892","J=YES, F=NO","qywu4l7kjq","0","65","55","75","","","","","","","","","grow","cinema1","unrelated","experimental","j","true","",""
"null","<p style=""font-size: 50px;"">+</p>","null","html-keyboard-response","280","2.1.0","623202","J=YES, F=NO","qywu4l7kjq","0","65","55","75","","","","","","","","","","","","","","","",""
"null","audio/beep-329314.mp3","null","audio-keyboard-response","281","2.1.0","624723","J=YES, F=NO","qywu4l7kjq","0","65","55","75","","","","","","","","","","","","","","","",""
"null","audio/enemy1.wav","null","audio-keyboard-response","282","2.1.0","625213","J=YES, F=NO","qywu4l7kjq","0","65","55","75","","","","","","","","","","","","","","","",""
"1145","
          <p id=""word"" style=""font-size: 40px;"">defeat</p>
          <p style=""font-size: 16px;"">J = YES &nbsp;&nbsp;&nbsp; F = NO</p>
        ","f","html-keyboard-response","283","2.1.0","626359","J=YES, F=NO","qywu4l7kjq","0","65","55","75","","","","","","","","","defeat","enemy1","literal","experimental","j","false","",""
"null","<p style=""font-size: 50px;"">+</p>","null","html-keyboard-response","284","2.1.0","626673","J=YES, F=NO","qywu4l7kjq","0","65","55","75","","","","","","","","","","","","","","","",""
"null","audio/beep-329314.mp3","null","audio-keyboard-response","285","2.1.0","628184","J=YES, F=NO","qywu4l7kjq","0","65","55","75","","","","","","","","","","","","","","","",""
"null","audio/winter.wav","null","audio-keyboard-response","286","2.1.0","628794","J=YES, F=NO","qywu4l7kjq","0","65","55","75","","","","","","","","","","","","","","","",""
"1284","
          <p id=""word"" style=""font-size: 40px;"">straven</p>
          <p style=""font-size: 16px;"">J = YES &nbsp;&nbsp;&nbsp; F = NO</p>
        ","f","html-keyboard-response","287","2.1.0","630078","J=YES, F=NO","qywu4l7kjq","0","65","55","75","","","","","","","","","straven","winter","pseudoword","pseudoword","f","true","",""
"null","<p style=""font-size: 50px;"">+</p>","null","html-keyboard-response","288","2.1.0","630380","J=YES, F=NO","qywu4l7kjq","0","65","55","75","","","","","","","","","","","","","","","",""
"null","audio/beep-329314.mp3","null","audio-keyboard-response","289","2.1.0","631883","J=YES, F=NO","qywu4l7kjq","0","65","55","75","","","","","","","","","","","","","","","",""
"null","audio/butter1.wav","null","audio-keyboard-response","290","2.1.0","632374","J=YES, F=NO","qywu4l7kjq","0","65","55","75","","","","","","","","","","","","","","","",""
"1377","
          <p id=""word"" style=""font-size: 40px;"">chew</p>
          <p style=""font-size: 16px;"">J = YES &nbsp;&nbsp;&nbsp; F = NO</p>
        ","f","html-keyboard-response","291","2.1.0","633751","J=YES, F=NO","qywu4l7kjq","0","65","55","75","","","","","","","","","chew","butter1","filler","filler","j","false","",""
"null","<p style=""font-size: 50px;"">+</p>","null","html-keyboard-response","292","2.1.0","634060","J=YES, F=NO","qywu4l7kjq","0","65","55","75","","","","","","","","","","","","","","","",""
"null","audio/beep-329314.mp3","null","audio-keyboard-response","293","2.1.0","635564","J=YES, F=NO","qywu4l7kjq","0","65","55","75","","","","","","","","","","","","","","","",""
"null","audio/show.wav","null","audio-keyboard-response","294","2.1.0","636274","J=YES, F=NO","qywu4l7kjq","0","65","55","75","","","","","","","","","","","","","","","",""
"1297","
          <p id=""word"" style=""font-size: 40px;"">smark</p>
          <p style=""font-size: 16px;"">J = YES &nbsp;&nbsp;&nbsp; F = NO</p>
        ","j","html-keyboard-response","295","2.1.0","637572","J=YES, F=NO","qywu4l7kjq","0","65","55","75","","","","","","","","","smark","show","pseudoword","pseudoword","f","false","",""
"26135","<p>Excellent! You have finished block 2 of 8.</p>
                     <p>Feel free to take a 30 second break.</p>
                     <p>Press any key when you're ready to continue.</p>"," ","html-keyboard-response","296","2.1.0","663709","J=YES, F=NO","qywu4l7kjq","0","65","55","75","","","","","","","","","","","","","","","",""
"1937","<p>Starting main block 3 of 8. Press any key to continue.</p>","j","html-keyboard-response","297","2.1.0","665646","J=YES, F=NO","qywu4l7kjq","0","65","55","75","","","","","","","","","","","","","","","",""
"null","<p style=""font-size: 50px;"">+</p>","null","html-keyboard-response","298","2.1.0","665949","J=YES, F=NO","qywu4l7kjq","0","65","55","75","","","","","","","","","","","","","","","",""
"null","audio/beep-329314.mp3","null","audio-keyboard-response","299","2.1.0","667666","J=YES, F=NO","qywu4l7kjq","0","65","55","75","","","","","","","","","","","","","","","",""
"null","audio/beach1.wav","null","audio-keyboard-response","300","2.1.0","668407","J=YES, F=NO","qywu4l7kjq","0","65","55","75","","","","","","","","","","","","","","","",""
"1418","
          <p id=""word"" style=""font-size: 40px;"">drive</p>
          <p style=""font-size: 16px;"">J = YES &nbsp;&nbsp;&nbsp; F = NO</p>
        ","j","html-keyboard-response","301","2.1.0","669826","J=YES, F=NO","qywu4l7kjq","0","65","55","75","","","","","","","","","drive","beach1","filler","filler","j","true","",""
"null","<p style=""font-size: 50px;"">+</p>","null","html-keyboard-response","302","2.1.0","670141","J=YES, F=NO","qywu4l7kjq","0","65","55","75","","","","","","","","","","","","","","","",""
"null","audio/beep-329314.mp3","null","audio-keyboard-response","303","2.1.0","671646","J=YES, F=NO","qywu4l7kjq","0","65","55","75","","","","","","","","","","","","","","","",""
"null","audio/gossip1.wav","null","audio-keyboard-response","304","2.1.0","672447","J=YES, F=NO","qywu4l7kjq","0","65","55","75","","","","","","","","","","","","","","","",""
"null","
          <p id=""word"" style=""font-size: 40px;"">camerish</p>
          <p style=""font-size: 16px;"">J = YES &nbsp;&nbsp;&nbsp; F = NO</p>
        ","null","html-keyboard-response","305","2.1.0","673956","J=YES, F=NO","qywu4l7kjq","0","65","55","75","","","","","","","","","camerish","gossip1","pseudoword","pseudoword","f","false","",""
"null","<p style=""font-size: 50px;"">+</p>","null","html-keyboard-response","306","2.1.0","674267","J=YES, F=NO","qywu4l7kjq","0","65","55","75","","","","","","","","","","","","","","","",""
"null","audio/beep-329314.mp3","null","audio-keyboard-response","307","2.1.0","675786","J=YES, F=NO","qywu4l7kjq","0","65","55","75","","","","","","","","","","","","","","","",""
"null","audio/burden.wav","null","audio-keyboard-response","308","2.1.0","676467","J=YES, F=NO","qywu4l7kjq","0","65","55","75","","","","","","","","","","","","","","","",""
"1247","
          <p id=""word"" style=""font-size: 40px;"">whotth</p>
          <p style=""font-size: 16px;"">J = YES &nbsp;&nbsp;&nbsp; F = NO</p>
        ","f","html-keyboard-response","309","2.1.0","677715","J=YES, F=NO","qywu4l7kjq","0","65","55","75","","","","","","","","","whotth","burden","pseudoword","pseudoword","f","true","",""
"null","<p style=""font-size: 50px;"">+</p>","null","html-keyboard-response","310","2.1.0","678020","J=YES, F=NO","qywu4l7kjq","0","65","55","75","","","","","","","","","","","","","","","",""
"null","audio/beep-329314.mp3","null","audio-keyboard-response","311","2.1.0","679527","J=YES, F=NO","qywu4l7kjq","0","65","55","75","","","","","","","","","","","","","","","",""
"null","audio/age1.wav","null","audio-keyboard-response","312","2.1.0","680067","J=YES, F=NO","qywu4l7kjq","0","65","55","75","","","","","","","","","","","","","","","",""
"1120","
          <p id=""word"" style=""font-size: 40px;"">bake</p>
          <p style=""font-size: 16px;"">J = YES &nbsp;&nbsp;&nbsp; F = NO</p>
        ","j","html-keyboard-response","313","2.1.0","681188","J=YES, F=NO","qywu4l7kjq","0","65","55","75","","","","","","","","","bake","age1","filler","filler","j","true","",""
"null","<p style=""font-size: 50px;"">+</p>","null","html-keyboard-response","314","2.1.0","681495","J=YES, F=NO","qywu4l7kjq","0","65","55","75","","","","","","","","","","","","","","","",""
"null","audio/beep-329314.mp3","null","audio-keyboard-response","315","2.1.0","683007","J=YES, F=NO","qywu4l7kjq","0","65","55","75","","","","","","","","","","","","","","","",""
"null","audio/corpse1.wav","null","audio-keyboard-response","316","2.1.0","683806","J=YES, F=NO","qywu4l7kjq","0","65","55","75","","","","","","","","","","","","","","","",""
"1317","
          <p id=""word"" style=""font-size: 40px;"">glonet</p>
          <p style=""font-size: 16px;"">J = YES &nbsp;&nbsp;&nbsp; F = NO</p>
        ","f","html-keyboard-response","317","2.1.0","685125","J=YES, F=NO","qywu4l7kjq","0","65","55","75","","","","","","","","","glonet","corpse1","pseudoword","pseudoword","f","true","",""
"null","<p style=""font-size: 50px;"">+</p>","null","html-keyboard-response","318","2.1.0","685428","J=YES, F=NO","qywu4l7kjq","0","65","55","75","","","","","","","","","","","","","","","",""
"null","audio/beep-329314.mp3","null","audio-keyboard-response","319","2.1.0","686946","J=YES, F=NO","qywu4l7kjq","0","65","55","75","","","","","","","","","","","","","","","",""
"null","audio/test1.wav","null","audio-keyboard-response","320","2.1.0","687667","J=YES, F=NO","qywu4l7kjq","0","65","55","75","","","","","","","","","","","","","","","",""
"1310","
          <p id=""word"" style=""font-size: 40px;"">twopch</p>
          <p style=""font-size: 16px;"">J = YES &nbsp;&nbsp;&nbsp; F = NO</p>
        ","f","html-keyboard-response","321","2.1.0","688978","J=YES, F=NO","qywu4l7kjq","0","65","55","75","","","","","","","","","twopch","test1","pseudoword","pseudoword","f","true","",""
"null","<p style=""font-size: 50px;"">+</p>","null","html-keyboard-response","322","2.1.0","689281","J=YES, F=NO","qywu4l7kjq","0","65","55","75","","","","","","","","","","","","","","","",""
"null","audio/beep-329314.mp3","null","audio-keyboard-response","323","2.1.0","690787","J=YES, F=NO","qywu4l7kjq","0","65","55","75","","","","","","","","","","","","","","","",""
"null","audio/roof1.wav","null","audio-keyboard-response","324","2.1.0","691506","J=YES, F=NO","qywu4l7kjq","0","65","55","75","","","","","","","","","","","","","","","",""
"1472","
          <p id=""word"" style=""font-size: 40px;"">wronb</p>
          <p style=""font-size: 16px;"">J = YES &nbsp;&nbsp;&nbsp; F = NO</p>
        ","f","html-keyboard-response","325","2.1.0","692980","J=YES, F=NO","qywu4l7kjq","0","65","55","75","","","","","","","","","wronb","roof1","pseudoword","pseudoword","f","true","",""
"null","<p style=""font-size: 50px;"">+</p>","null","html-keyboard-response","326","2.1.0","693296","J=YES, F=NO","qywu4l7kjq","0","65","55","75","","","","","","","","","","","","","","","",""
"null","audio/beep-329314.mp3","null","audio-keyboard-response","327","2.1.0","694806","J=YES, F=NO","qywu4l7kjq","0","65","55","75","","","","","","","","","","","","","","","",""
"null","audio/life1.wav","null","audio-keyboard-response","328","2.1.0","695547","J=YES, F=NO","qywu4l7kjq","0","65","55","75","","","","","","","","","","","","","","","",""
"1205","
          <p id=""word"" style=""font-size: 40px;"">flimch</p>
          <p style=""font-size: 16px;"">J = YES &nbsp;&nbsp;&nbsp; F = NO</p>
        ","f","html-keyboard-response","329","2.1.0","696752","J=YES, F=NO","qywu4l7kjq","0","65","55","75","","","","","","","","","flimch","life1","pseudoword","pseudoword","f","true","",""
"null","<p style=""font-size: 50px;"">+</p>","null","html-keyboard-response","330","2.1.0","697068","J=YES, F=NO","qywu4l7kjq","0","65","55","75","","","","","","","","","","","","","","","",""
"null","audio/beep-329314.mp3","null","audio-keyboard-response","331","2.1.0","698587","J=YES, F=NO","qywu4l7kjq","0","65","55","75","","","","","","","","","","","","","","","",""
"null","audio/account1.wav","null","audio-keyboard-response","332","2.1.0","699447","J=YES, F=NO","qywu4l7kjq","0","65","55","75","","","","","","","","","","","","","","","",""
"1275","
          <p id=""word"" style=""font-size: 40px;"">paint</p>
          <p style=""font-size: 16px;"">J = YES &nbsp;&nbsp;&nbsp; F = NO</p>
        ","j","html-keyboard-response","333","2.1.0","700723","J=YES, F=NO","qywu4l7kjq","0","65","55","75","","","","","","","","","paint","account1","filler","filler","j","true","",""
"null","<p style=""font-size: 50px;"">+</p>","null","html-keyboard-response","334","2.1.0","701024","J=YES, F=NO","qywu4l7kjq","0","65","55","75","","","","","","","","","","","","","","","",""
"null","audio/beep-329314.mp3","null","audio-keyboard-response","335","2.1.0","702527","J=YES, F=NO","qywu4l7kjq","0","65","55","75","","","","","","","","","","","","","","","",""
"null","audio/alarm1.wav","null","audio-keyboard-response","336","2.1.0","703107","J=YES, F=NO","qywu4l7kjq","0","65","55","75","","","","","","","","","","","","","","","",""
"1140","
          <p id=""word"" style=""font-size: 40px;"">swetp</p>
          <p style=""font-size: 16px;"">J = YES &nbsp;&nbsp;&nbsp; F = NO</p>
        ","f","html-keyboard-response","337","2.1.0","704248","J=YES, F=NO","qywu4l7kjq","0","65","55","75","","","","","","","","","swetp","alarm1","pseudoword","pseudoword","f","true","",""
"null","<p style=""font-size: 50px;"">+</p>","null","html-keyboard-response","338","2.1.0","704563","J=YES, F=NO","qywu4l7kjq","0","65","55","75","","","","","","","","","","","","","","","",""
"null","audio/beep-329314.mp3","null","audio-keyboard-response","339","2.1.0","706067","J=YES, F=NO","qywu4l7kjq","0","65","55","75","","","","","","","","","","","","","","","",""
"null","audio/breath.wav","null","audio-keyboard-response","340","2.1.0","706806","J=YES, F=NO","qywu4l7kjq","0","65","55","75","","","","","","","","","","","","","","","",""
"999","
          <p id=""word"" style=""font-size: 40px;"">construct</p>
          <p style=""font-size: 16px;"">J = YES &nbsp;&nbsp;&nbsp; F = NO</p>
        ","j","html-keyboard-response","341","2.1.0","707805","J=YES, F=NO","qywu4l7kjq","0","65","55","75","","","","","","","","","construct","breath","unrelated","experimental","j","true","",""
"null","<p style=""font-size: 50px;"">+</p>","null","html-keyboard-response","342","2.1.0","708114","J=YES, F=NO","qywu4l7kjq","0","65","55","75","","","","","","","","","","","","","","","",""
"null","audio/beep-329314.mp3","null","audio-keyboard-response","343","2.1.0","709627","J=YES, F=NO","qywu4l7kjq","0","65","55","75","","","","","","","","","","","","","","","",""
"null","audio/case1.wav","null","audio-keyboard-response","344","2.1.0","710287","J=YES, F=NO","qywu4l7kjq","0","65","55","75","","","","","","","","","","","","","","","",""
"1002","
          <p id=""word"" style=""font-size: 40px;"">close</p>
          <p style=""font-size: 16px;"">J = YES &nbsp;&nbsp;&nbsp; F = NO</p>
        ","j","html-keyboard-response","345","2.1.0","711290","J=YES, F=NO","qywu4l7kjq","0","65","55","75","","","","","","","","","close","case1","metaphor","experimental","j","true","",""
"null","<p style=""font-size: 50px;"">+</p>","null","html-keyboard-response","346","2.1.0","711598","J=YES, F=NO","qywu4l7kjq","0","65","55","75","","","","","","","","","","","","","","","",""
"null","audio/beep-329314.mp3","null","audio-keyboard-response","347","2.1.0","713107","J=YES, F=NO","qywu4l7kjq","0","65","55","75","","","","","","","","","","","","","","","",""
"null","audio/plot1.wav","null","audio-keyboard-response","348","2.1.0","713846","J=YES, F=NO","qywu4l7kjq","0","65","55","75","","","","","","","","","","","","","","","",""
"null","
          <p id=""word"" style=""font-size: 40px;"">glenter</p>
          <p style=""font-size: 16px;"">J = YES &nbsp;&nbsp;&nbsp; F = NO</p>
        ","null","html-keyboard-response","349","2.1.0","715361","J=YES, F=NO","qywu4l7kjq","0","65","55","75","","","","","","","","","glenter","plot1","pseudoword","pseudoword","f","false","",""
"null","<p style=""font-size: 50px;"">+</p>","null","html-keyboard-response","350","2.1.0","715672","J=YES, F=NO","qywu4l7kjq","0","65","55","75","","","","","","","","","","","","","","","",""
"null","audio/beep-329314.mp3","null","audio-keyboard-response","351","2.1.0","717187","J=YES, F=NO","qywu4l7kjq","0","65","55","75","","","","","","","","","","","","","","","",""
"null","audio/terrain.wav","null","audio-keyboard-response","352","2.1.0","717946","J=YES, F=NO","qywu4l7kjq","0","65","55","75","","","","","","","","","","","","","","","",""
"1198","
          <p id=""word"" style=""font-size: 40px;"">twist</p>
          <p style=""font-size: 16px;"">J = YES &nbsp;&nbsp;&nbsp; F = NO</p>
        ","j","html-keyboard-response","353","2.1.0","719145","J=YES, F=NO","qywu4l7kjq","0","65","55","75","","","","","","","","","twist","terrain","filler","filler","j","true","",""
"null","<p style=""font-size: 50px;"">+</p>","null","html-keyboard-response","354","2.1.0","719461","J=YES, F=NO","qywu4l7kjq","0","65","55","75","","","","","","","","","","","","","","","",""
"null","audio/beep-329314.mp3","null","audio-keyboard-response","355","2.1.0","720966","J=YES, F=NO","qywu4l7kjq","0","65","55","75","","","","","","","","","","","","","","","",""
"null","audio/weapon.wav","null","audio-keyboard-response","356","2.1.0","721706","J=YES, F=NO","qywu4l7kjq","0","65","55","75","","","","","","","","","","","","","","","",""
"1382","
          <p id=""word"" style=""font-size: 40px;"">carry</p>
          <p style=""font-size: 16px;"">J = YES &nbsp;&nbsp;&nbsp; F = NO</p>
        ","j","html-keyboard-response","357","2.1.0","723089","J=YES, F=NO","qywu4l7kjq","0","65","55","75","","","","","","","","","carry","weapon","literal","experimental","j","true","",""
"null","<p style=""font-size: 50px;"">+</p>","null","html-keyboard-response","358","2.1.0","723397","J=YES, F=NO","qywu4l7kjq","0","65","55","75","","","","","","","","","","","","","","","",""
"null","audio/beep-329314.mp3","null","audio-keyboard-response","359","2.1.0","724906","J=YES, F=NO","qywu4l7kjq","0","65","55","75","","","","","","","","","","","","","","","",""
"null","audio/pig.wav","null","audio-keyboard-response","360","2.1.0","725286","J=YES, F=NO","qywu4l7kjq","0","65","55","75","","","","","","","","","","","","","","","",""
"1342","
          <p id=""word"" style=""font-size: 40px;"">tirlike</p>
          <p style=""font-size: 16px;"">J = YES &nbsp;&nbsp;&nbsp; F = NO</p>
        ","f","html-keyboard-response","361","2.1.0","726629","J=YES, F=NO","qywu4l7kjq","0","65","55","75","","","","","","","","","tirlike","pig","pseudoword","pseudoword","f","true","",""
"12666","<p>Excellent! You have finished block 3 of 8.</p>
                     <p>Feel free to take a 30 second break.</p>
                     <p>Press any key when you're ready to continue.</p>"," ","html-keyboard-response","362","2.1.0","739296","J=YES, F=NO","qywu4l7kjq","0","65","55","75","","","","","","","","","","","","","","","",""
"1458","<p>Starting main block 4 of 8. Press any key to continue.</p>"," ","html-keyboard-response","363","2.1.0","740755","J=YES, F=NO","qywu4l7kjq","0","65","55","75","","","","","","","","","","","","","","","",""
"null","<p style=""font-size: 50px;"">+</p>","null","html-keyboard-response","364","2.1.0","741056","J=YES, F=NO","qywu4l7kjq","0","65","55","75","","","","","","","","","","","","","","","",""
"null","audio/beep-329314.mp3","null","audio-keyboard-response","365","2.1.0","742763","J=YES, F=NO","qywu4l7kjq","0","65","55","75","","","","","","","","","","","","","","","",""
"null","audio/stain.wav","null","audio-keyboard-response","366","2.1.0","743563","J=YES, F=NO","qywu4l7kjq","0","65","55","75","","","","","","","","","","","","","","","",""
"1193","
          <p id=""word"" style=""font-size: 40px;"">rumpsied</p>
          <p style=""font-size: 16px;"">J = YES &nbsp;&nbsp;&nbsp; F = NO</p>
        ","f","html-keyboard-response","367","2.1.0","744757","J=YES, F=NO","qywu4l7kjq","0","65","55","75","","","","","","","","","rumpsied","stain","pseudoword","pseudoword","f","true","",""
"null","<p style=""font-size: 50px;"">+</p>","null","html-keyboard-response","368","2.1.0","745065","J=YES, F=NO","qywu4l7kjq","0","65","55","75","","","","","","","","","","","","","","","",""
"null","audio/beep-329314.mp3","null","audio-keyboard-response","369","2.1.0","746583","J=YES, F=NO","qywu4l7kjq","0","65","55","75","","","","","","","","","","","","","","","",""
"null","audio/sugar1.wav","null","audio-keyboard-response","370","2.1.0","747244","J=YES, F=NO","qywu4l7kjq","0","65","55","75","","","","","","","","","","","","","","","",""
"1247","
          <p id=""word"" style=""font-size: 40px;"">glung</p>
          <p style=""font-size: 16px;"">J = YES &nbsp;&nbsp;&nbsp; F = NO</p>
        ","f","html-keyboard-response","371","2.1.0","748492","J=YES, F=NO","qywu4l7kjq","0","65","55","75","","","","","","","","","glung","sugar1","pseudoword","pseudoword","f","true","",""
"null","<p style=""font-size: 50px;"">+</p>","null","html-keyboard-response","372","2.1.0","748801","J=YES, F=NO","qywu4l7kjq","0","65","55","75","","","","","","","","","","","","","","","",""
"null","audio/beep-329314.mp3","null","audio-keyboard-response","373","2.1.0","750304","J=YES, F=NO","qywu4l7kjq","0","65","55","75","","","","","","","","","","","","","","","",""
"null","audio/strength.wav","null","audio-keyboard-response","374","2.1.0","751023","J=YES, F=NO","qywu4l7kjq","0","65","55","75","","","","","","","","","","","","","","","",""
"1370","
          <p id=""word"" style=""font-size: 40px;"">plabet</p>
          <p style=""font-size: 16px;"">J = YES &nbsp;&nbsp;&nbsp; F = NO</p>
        ","f","html-keyboard-response","375","2.1.0","752394","J=YES, F=NO","qywu4l7kjq","0","65","55","75","","","","","","","","","plabet","strength","pseudoword","pseudoword","f","true","",""
"null","<p style=""font-size: 50px;"">+</p>","null","html-keyboard-response","376","2.1.0","752705","J=YES, F=NO","qywu4l7kjq","0","65","55","75","","","","","","","","","","","","","","","",""
"null","audio/beep-329314.mp3","null","audio-keyboard-response","377","2.1.0","754224","J=YES, F=NO","qywu4l7kjq","0","65","55","75","","","","","","","","","","","","","","","",""
"null","audio/trout1.wav","null","audio-keyboard-response","378","2.1.0","754984","J=YES, F=NO","qywu4l7kjq","0","65","55","75","","","","","","","","","","","","","","","",""
"1085","
          <p id=""word"" style=""font-size: 40px;"">catch</p>
          <p style=""font-size: 16px;"">J = YES &nbsp;&nbsp;&nbsp; F = NO</p>
        ","j","html-keyboard-response","379","2.1.0","756070","J=YES, F=NO","qywu4l7kjq","0","65","55","75","","","","","","","","","catch","trout1","literal","experimental","j","true","",""
"null","<p style=""font-size: 50px;"">+</p>","null","html-keyboard-response","380","2.1.0","756376","J=YES, F=NO","qywu4l7kjq","0","65","55","75","","","","","","","","","","","","","","","",""
"null","audio/beep-329314.mp3","null","audio-keyboard-response","381","2.1.0","757883","J=YES, F=NO","qywu4l7kjq","0","65","55","75","","","","","","","","","","","","","","","",""
"null","audio/weight1.wav","null","audio-keyboard-response","382","2.1.0","758583","J=YES, F=NO","qywu4l7kjq","0","65","55","75","","","","","","","","","","","","","","","",""
"1223","
          <p id=""word"" style=""font-size: 40px;"">crimsh</p>
          <p style=""font-size: 16px;"">J = YES &nbsp;&nbsp;&nbsp; F = NO</p>
        ","f","html-keyboard-response","383","2.1.0","759807","J=YES, F=NO","qywu4l7kjq","0","65","55","75","","","","","","","","","crimsh","weight1","pseudoword","pseudoword","f","true","",""
"null","<p style=""font-size: 50px;"">+</p>","null","html-keyboard-response","384","2.1.0","760122","J=YES, F=NO","qywu4l7kjq","0","65","55","75","","","","","","","","","","","","","","","",""
"null","audio/beep-329314.mp3","null","audio-keyboard-response","385","2.1.0","761644","J=YES, F=NO","qywu4l7kjq","0","65","55","75","","","","","","","","","","","","","","","",""
"null","audio/winter.wav","null","audio-keyboard-response","386","2.1.0","762203","J=YES, F=NO","qywu4l7kjq","0","65","55","75","","","","","","","","","","","","","","","",""
"1254","
          <p id=""word"" style=""font-size: 40px;"">expose</p>
          <p style=""font-size: 16px;"">J = YES &nbsp;&nbsp;&nbsp; F = NO</p>
        ","j","html-keyboard-response","387","2.1.0","763457","J=YES, F=NO","qywu4l7kjq","0","65","55","75","","","","","","","","","expose","winter","unrelated","experimental","j","true","",""
"null","<p style=""font-size: 50px;"">+</p>","null","html-keyboard-response","388","2.1.0","763768","J=YES, F=NO","qywu4l7kjq","0","65","55","75","","","","","","","","","","","","","","","",""
"null","audio/beep-329314.mp3","null","audio-keyboard-response","389","2.1.0","765283","J=YES, F=NO","qywu4l7kjq","0","65","55","75","","","","","","","","","","","","","","","",""
"null","audio/breath.wav","null","audio-keyboard-response","390","2.1.0","765844","J=YES, F=NO","qywu4l7kjq","0","65","55","75","","","","","","","","","","","","","","","",""
"1170","
          <p id=""word"" style=""font-size: 40px;"">twets</p>
          <p style=""font-size: 16px;"">J = YES &nbsp;&nbsp;&nbsp; F = NO</p>
