"rt","stimulus","response","trial_type","trial_index","plugin_version","time_elapsed","response_mapping","subject_id","list_index","lextale_score","lextale_word_score","lextale_nonword_score","success","timeout","failed_images","failed_audio","failed_video","task","isWord","isDummy","target","prime","prime_type","stimulus_type","correct_response","correct","section","question_order"
"1782314","
    <div style=""max-width: 800px; margin: auto; text-align: left;"">
      <h2>STANFORD UNIVERSITY</h2>
      <h3>Research Information Sheet</h3>
      <p><strong>Protocol Director:</strong> Robert Hawkins<br>
      <strong>Protocol Title:</strong> Communication and social cognition in natural audiovisual contexts<br>
      <strong>IRB#:</strong> 77226</p>

      <p><strong>DESCRIPTION:</strong> You are invited to participate in a research study about language and communication. The purpose of the research is to understand how you interact and communicate with other people in naturalistic settings as a fluent English speaker. This research will be conducted through the Prolific platform, including participants from the US, UK, and Canada. If you decide to participate in this research, you will play a communication game in a group with one or more partners.</p>

      <p><strong>TIME INVOLVEMENT:</strong> The task will last the amount of time advertised on Prolific. You are free to withdraw from the study at any time.</p>

      <p><strong>RISKS AND BENEFITS:</strong> You may become frustrated if your partner gets distracted, or experience discomfort if other participants in your group send text that is inappropriate for the task. We ask you to please be respectful of other participants you might be interacting with to mitigate these risks. You may also experience discomfort when being asked to discuss or challenge emotionally salient political beliefs. Study data will be stored securely, in compliance with Stanford University standards, minimizing the risk of confidentiality breach. This study advances our scientific understanding of how people communicate and collaborate in naturalistic settings. This study may lead to further insights about what can go wrong in teamwork, suggest potential interventions to overcome these barriers, and help to develop assistive technologies that collaborate with human partners. We cannot and do not guarantee or promise that you will receive any benefits from this study.</p>

      <p><strong>PAYMENTS:</strong> You will receive payment in the amount advertised on Prolific. If you do not complete this study, you will receive prorated payment based on the time that you have spent. Additionally, you may be eligible for bonus payments as described in the instructions.</p>

      <p><strong>PARTICIPANT’S RIGHTS:</strong> If you have read this form and have decided to participate in this project, please understand your participation is voluntary and you have the right to withdraw your consent or discontinue participation at any time without penalty or loss of benefits to which you are otherwise entitled. The alternative is not to participate. You have the right to refuse to answer particular questions. The results of this research study may be presented at scientific or professional meetings or published in scientific journals. Your individual privacy will be maintained in all published and written data resulting from the study. In accordance with scientific norms, the data from this study may be used or shared with other researchers for future research (after removing personally identifying information) without additional consent from you.</p>

      <p><strong>CONTACT INFORMATION:</strong><br>
      Questions: If you have any questions, concerns or complaints about this research, its procedures, risks and benefits, contact the Protocol Director, Robert Hawkins (<a href=""mailto:rdhawkins@stanford.edu"">rdhawkins@stanford.edu</a>, 217-549-6923).<br>
      Independent Contact: If you are not satisfied with how this study is being conducted, or if you have any concerns, complaints, or general questions about the research or your rights as a participant, please contact the Stanford Institutional Review Board (IRB) to speak to someone independent of the research team at 650-723-2480 or toll free at 1-866-680-2906, or email at <a href=""mailto:irbnon-med@stanford.edu"">irbnon-med@stanford.edu</a>. You can also write to the Stanford IRB, Stanford University, 1705 El Camino Real, Palo Alto, CA 94306.</p>

      <p><strong>Please save or print a copy of this page for your records.</strong></p>
      <p>If you agree to participate in this research, click ""Continue"" below.</p>
    </div>
  ","0","html-button-response","0","2.1.0","1779620","J=YES, F=NO","r2glkyc5ha","1","18","15","20","","","","","","","","","","","","","","","",""
"1683","
    <div style=""max-width: 800px; margin: auto; text-align: left;"">
      <h2>Welcome!</h2>
      <p>Thank you for participating in this study. The experiment consists of three parts:</p>
      <ol>
        <li>An English vocabulary test</li>
        <li>A main task in which you will hear and see words, and decide whether the written word is a real English word</li>
        <li>A brief survey about your background</li>
      </ol>
      <p>Each part will be introduced before it begins.</p>
      <p>Please make sure you are in a quiet environment and can hear audio clearly for the final task.</p>
      <p style=""margin-top: 2em;"">Press any key to begin.</p>
    </div>
  "," ","html-keyboard-response","1","2.1.0","1781305","J=YES, F=NO","r2glkyc5ha","1","18","15","20","","","","","","","","","","","","","","","",""
"","","","preload","2","2.1.0","1782561","J=YES, F=NO","r2glkyc5ha","1","18","15","20","true","false","[]","[]","[]","","","","","","","","","","",""
"3894","
    <div style=""max-width: 800px; margin: auto; text-align: left;"">
      <h2>Part 1: Vocabulary Test</h2>
      <p>You will now complete the first part of the study: a short English vocabulary test.</p>
      <p>This test is called <strong>LexTALE</strong> and helps us get a general sense of your English proficiency.</p>
      <p style=""margin-top: 2em;"">Press any key to continue.</p>
    </div>
  "," ","html-keyboard-response","3","2.1.0","1786456","J=YES, F=NO","r2glkyc5ha","1","18","15","20","","","","","","","","","","","","","","","",""
"4089","
    <div style=""max-width: 800px; margin: auto; text-align: left;"">
      <h2>LexTALE Vocabulary Test</h2>
      <p>In this test, you will see a series of letter strings—one at a time.</p>
      <p>Your task is to decide whether each string is a real English word.</p>
      <p><strong>Key responses:</strong></p>
      <ul>
        <li><strong>J</strong> = YES (real English word)</li>
        <li><strong>F</strong> = NO (not a real English word)</li>
      </ul>
      <p>There is no time limit, but please try to be accurate.</p>
      <p style=""margin-top: 2em;"">Press any key to begin.</p>
    </div>
  "," ","html-keyboard-response","4","2.1.0","1790546","J=YES, F=NO","r2glkyc5ha","1","18","15","20","","","","","","","","","","","","","","","",""
"1440","
  <p style=""font-size: 40px;"">platery</p>
  <p style=""font-size: 16px;"">J = YES &nbsp;&nbsp;&nbsp; F = NO</p>
","j","html-keyboard-response","5","2.1.0","1791987","J=YES, F=NO","r2glkyc5ha","1","18","15","20","","","","","","lextale","false","true","","","","","","","",""
"1447","
  <p style=""font-size: 40px;"">denial</p>
  <p style=""font-size: 16px;"">J = YES &nbsp;&nbsp;&nbsp; F = NO</p>
","f","html-keyboard-response","6","2.1.0","1793434","J=YES, F=NO","r2glkyc5ha","1","18","15","20","","","","","","lextale","true","true","","","","","","","",""
"1791","
  <p style=""font-size: 40px;"">marrit</p>
  <p style=""font-size: 16px;"">J = YES &nbsp;&nbsp;&nbsp; F = NO</p>
","j","html-keyboard-response","7","2.1.0","1795226","J=YES, F=NO","r2glkyc5ha","1","18","15","20","","","","","","lextale","false","true","","","","","","","",""
"2202","
  <p style=""font-size: 40px;"">bottle</p>
  <p style=""font-size: 16px;"">J = YES &nbsp;&nbsp;&nbsp; F = NO</p>
","f","html-keyboard-response","8","2.1.0","1797429","J=YES, F=NO","r2glkyc5ha","1","18","15","20","","","","","","lextale","true","false","","","","","","","",""
"1042","
  <p style=""font-size: 40px;"">birst</p>
  <p style=""font-size: 16px;"">J = YES &nbsp;&nbsp;&nbsp; F = NO</p>
","j","html-keyboard-response","9","2.1.0","1798472","J=YES, F=NO","r2glkyc5ha","1","18","15","20","","","","","","lextale","false","false","","","","","","","",""
"747","
  <p style=""font-size: 40px;"">envy</p>
  <p style=""font-size: 16px;"">J = YES &nbsp;&nbsp;&nbsp; F = NO</p>
","f","html-keyboard-response","10","2.1.0","1799220","J=YES, F=NO","r2glkyc5ha","1","18","15","20","","","","","","lextale","true","false","","","","","","","",""
"1000","
  <p style=""font-size: 40px;"">brang</p>
  <p style=""font-size: 16px;"">J = YES &nbsp;&nbsp;&nbsp; F = NO</p>
","j","html-keyboard-response","11","2.1.0","1800220","J=YES, F=NO","r2glkyc5ha","1","18","15","20","","","","","","lextale","false","false","","","","","","","",""
"649","
  <p style=""font-size: 40px;"">huge</p>
  <p style=""font-size: 16px;"">J = YES &nbsp;&nbsp;&nbsp; F = NO</p>
","f","html-keyboard-response","12","2.1.0","1800870","J=YES, F=NO","r2glkyc5ha","1","18","15","20","","","","","","lextale","true","false","","","","","","","",""
"1848","
  <p style=""font-size: 40px;"">plove</p>
  <p style=""font-size: 16px;"">J = YES &nbsp;&nbsp;&nbsp; F = NO</p>
","j","html-keyboard-response","13","2.1.0","1802719","J=YES, F=NO","r2glkyc5ha","1","18","15","20","","","","","","lextale","false","false","","","","","","","",""
"860","
  <p style=""font-size: 40px;"">border</p>
  <p style=""font-size: 16px;"">J = YES &nbsp;&nbsp;&nbsp; F = NO</p>
","f","html-keyboard-response","14","2.1.0","1803580","J=YES, F=NO","r2glkyc5ha","1","18","15","20","","","","","","lextale","true","false","","","","","","","",""
"1176","
  <p style=""font-size: 40px;"">flimsy</p>
  <p style=""font-size: 16px;"">J = YES &nbsp;&nbsp;&nbsp; F = NO</p>
","f","html-keyboard-response","15","2.1.0","1804756","J=YES, F=NO","r2glkyc5ha","1","18","15","20","","","","","","lextale","true","false","","","","","","","",""
"1616","
  <p style=""font-size: 40px;"">drain</p>
  <p style=""font-size: 16px;"">J = YES &nbsp;&nbsp;&nbsp; F = NO</p>
","f","html-keyboard-response","16","2.1.0","1806372","J=YES, F=NO","r2glkyc5ha","1","18","15","20","","","","","","lextale","true","false","","","","","","","",""
"1176","
  <p style=""font-size: 40px;"">twindle</p>
  <p style=""font-size: 16px;"">J = YES &nbsp;&nbsp;&nbsp; F = NO</p>
","f","html-keyboard-response","17","2.1.0","1807549","J=YES, F=NO","r2glkyc5ha","1","18","15","20","","","","","","lextale","false","false","","","","","","","",""
"1100","
  <p style=""font-size: 40px;"">propose</p>
  <p style=""font-size: 16px;"">J = YES &nbsp;&nbsp;&nbsp; F = NO</p>
","f","html-keyboard-response","18","2.1.0","1808650","J=YES, F=NO","r2glkyc5ha","1","18","15","20","","","","","","lextale","true","false","","","","","","","",""
"1030","
  <p style=""font-size: 40px;"">forlay</p>
  <p style=""font-size: 16px;"">J = YES &nbsp;&nbsp;&nbsp; F = NO</p>
","j","html-keyboard-response","19","2.1.0","1809681","J=YES, F=NO","r2glkyc5ha","1","18","15","20","","","","","","lextale","false","false","","","","","","","",""
"2955","
  <p style=""font-size: 40px;"">tenant</p>
  <p style=""font-size: 16px;"">J = YES &nbsp;&nbsp;&nbsp; F = NO</p>
","f","html-keyboard-response","20","2.1.0","1812637","J=YES, F=NO","r2glkyc5ha","1","18","15","20","","","","","","lextale","true","false","","","","","","","",""
"2648","
  <p style=""font-size: 40px;"">strain</p>
  <p style=""font-size: 16px;"">J = YES &nbsp;&nbsp;&nbsp; F = NO</p>
","f","html-keyboard-response","21","2.1.0","1815285","J=YES, F=NO","r2glkyc5ha","1","18","15","20","","","","","","lextale","true","false","","","","","","","",""
"3988","
  <p style=""font-size: 40px;"">holster</p>
  <p style=""font-size: 16px;"">J = YES &nbsp;&nbsp;&nbsp; F = NO</p>
","j","html-keyboard-response","22","2.1.0","1819273","J=YES, F=NO","r2glkyc5ha","1","18","15","20","","","","","","lextale","true","false","","","","","","","",""
"1126","
  <p style=""font-size: 40px;"">hinder</p>
  <p style=""font-size: 16px;"">J = YES &nbsp;&nbsp;&nbsp; F = NO</p>
","j","html-keyboard-response","23","2.1.0","1820399","J=YES, F=NO","r2glkyc5ha","1","18","15","20","","","","","","lextale","true","false","","","","","","","",""
"1294","
  <p style=""font-size: 40px;"">swindle</p>
  <p style=""font-size: 16px;"">J = YES &nbsp;&nbsp;&nbsp; F = NO</p>
","j","html-keyboard-response","24","2.1.0","1821694","J=YES, F=NO","r2glkyc5ha","1","18","15","20","","","","","","lextale","true","false","","","","","","","",""
"1585","
  <p style=""font-size: 40px;"">nuder</p>
  <p style=""font-size: 16px;"">J = YES &nbsp;&nbsp;&nbsp; F = NO</p>
","j","html-keyboard-response","25","2.1.0","1823279","J=YES, F=NO","r2glkyc5ha","1","18","15","20","","","","","","lextale","false","false","","","","","","","",""
"1189","
  <p style=""font-size: 40px;"">pillow</p>
  <p style=""font-size: 16px;"">J = YES &nbsp;&nbsp;&nbsp; F = NO</p>
","f","html-keyboard-response","26","2.1.0","1824468","J=YES, F=NO","r2glkyc5ha","1","18","15","20","","","","","","lextale","true","false","","","","","","","",""
"2554","
  <p style=""font-size: 40px;"">shumble</p>
  <p style=""font-size: 16px;"">J = YES &nbsp;&nbsp;&nbsp; F = NO</p>
","j","html-keyboard-response","27","2.1.0","1827022","J=YES, F=NO","r2glkyc5ha","1","18","15","20","","","","","","lextale","false","false","","","","","","","",""
"1264","
  <p style=""font-size: 40px;"">thirst</p>
  <p style=""font-size: 16px;"">J = YES &nbsp;&nbsp;&nbsp; F = NO</p>
","f","html-keyboard-response","28","2.1.0","1828286","J=YES, F=NO","r2glkyc5ha","1","18","15","20","","","","","","lextale","true","false","","","","","","","",""
"3214","
  <p style=""font-size: 40px;"">unsail</p>
  <p style=""font-size: 16px;"">J = YES &nbsp;&nbsp;&nbsp; F = NO</p>
","j","html-keyboard-response","29","2.1.0","1831500","J=YES, F=NO","r2glkyc5ha","1","18","15","20","","","","","","lextale","false","false","","","","","","","",""
"1843","
  <p style=""font-size: 40px;"">rifle</p>
  <p style=""font-size: 16px;"">J = YES &nbsp;&nbsp;&nbsp; F = NO</p>
","f","html-keyboard-response","30","2.1.0","1833344","J=YES, F=NO","r2glkyc5ha","1","18","15","20","","","","","","lextale","true","false","","","","","","","",""
"1333","
  <p style=""font-size: 40px;"">mush</p>
  <p style=""font-size: 16px;"">J = YES &nbsp;&nbsp;&nbsp; F = NO</p>
","j","html-keyboard-response","31","2.1.0","1834677","J=YES, F=NO","r2glkyc5ha","1","18","15","20","","","","","","lextale","false","false","","","","","","","",""
"792","
  <p style=""font-size: 40px;"">drench</p>
  <p style=""font-size: 16px;"">J = YES &nbsp;&nbsp;&nbsp; F = NO</p>
","f","html-keyboard-response","32","2.1.0","1835470","J=YES, F=NO","r2glkyc5ha","1","18","15","20","","","","","","lextale","true","false","","","","","","","",""
"975","
  <p style=""font-size: 40px;"">snirt</p>
  <p style=""font-size: 16px;"">J = YES &nbsp;&nbsp;&nbsp; F = NO</p>
","j","html-keyboard-response","33","2.1.0","1836446","J=YES, F=NO","r2glkyc5ha","1","18","15","20","","","","","","lextale","false","false","","","","","","","",""
"754","
  <p style=""font-size: 40px;"">bitter</p>
  <p style=""font-size: 16px;"">J = YES &nbsp;&nbsp;&nbsp; F = NO</p>
","f","html-keyboard-response","34","2.1.0","1837200","J=YES, F=NO","r2glkyc5ha","1","18","15","20","","","","","","lextale","true","false","","","","","","","",""
"1037","
  <p style=""font-size: 40px;"">pliff</p>
  <p style=""font-size: 16px;"">J = YES &nbsp;&nbsp;&nbsp; F = NO</p>
","j","html-keyboard-response","35","2.1.0","1838237","J=YES, F=NO","r2glkyc5ha","1","18","15","20","","","","","","lextale","false","false","","","","","","","",""
"943","
  <p style=""font-size: 40px;"">tablet</p>
  <p style=""font-size: 16px;"">J = YES &nbsp;&nbsp;&nbsp; F = NO</p>
","f","html-keyboard-response","36","2.1.0","1839181","J=YES, F=NO","r2glkyc5ha","1","18","15","20","","","","","","lextale","true","false","","","","","","","",""
"1020","
  <p style=""font-size: 40px;"">glimmer</p>
  <p style=""font-size: 16px;"">J = YES &nbsp;&nbsp;&nbsp; F = NO</p>
","f","html-keyboard-response","37","2.1.0","1840201","J=YES, F=NO","r2glkyc5ha","1","18","15","20","","","","","","lextale","true","false","","","","","","","",""
"1522","
  <p style=""font-size: 40px;"">slink</p>
  <p style=""font-size: 16px;"">J = YES &nbsp;&nbsp;&nbsp; F = NO</p>
","j","html-keyboard-response","38","2.1.0","1841724","J=YES, F=NO","r2glkyc5ha","1","18","15","20","","","","","","lextale","true","false","","","","","","","",""
"937","
  <p style=""font-size: 40px;"">clever</p>
  <p style=""font-size: 16px;"">J = YES &nbsp;&nbsp;&nbsp; F = NO</p>
","f","html-keyboard-response","39","2.1.0","1842661","J=YES, F=NO","r2glkyc5ha","1","18","15","20","","","","","","lextale","true","false","","","","","","","",""
"1668","
  <p style=""font-size: 40px;"">grum</p>
  <p style=""font-size: 16px;"">J = YES &nbsp;&nbsp;&nbsp; F = NO</p>
","f","html-keyboard-response","40","2.1.0","1844329","J=YES, F=NO","r2glkyc5ha","1","18","15","20","","","","","","lextale","false","false","","","","","","","",""
"3397","
  <p style=""font-size: 40px;"">string</p>
  <p style=""font-size: 16px;"">J = YES &nbsp;&nbsp;&nbsp; F = NO</p>
","f","html-keyboard-response","41","2.1.0","1847728","J=YES, F=NO","r2glkyc5ha","1","18","15","20","","","","","","lextale","true","false","","","","","","","",""
"2904","
  <p style=""font-size: 40px;"">plim</p>
  <p style=""font-size: 16px;"">J = YES &nbsp;&nbsp;&nbsp; F = NO</p>
","j","html-keyboard-response","42","2.1.0","1850632","J=YES, F=NO","r2glkyc5ha","1","18","15","20","","","","","","lextale","false","false","","","","","","","",""
"4624","
  <p style=""font-size: 40px;"">cable</p>
  <p style=""font-size: 16px;"">J = YES &nbsp;&nbsp;&nbsp; F = NO</p>
","f","html-keyboard-response","43","2.1.0","1855256","J=YES, F=NO","r2glkyc5ha","1","18","15","20","","","","","","lextale","true","false","","","","","","","",""
"4031","
  <p style=""font-size: 40px;"">shrivel</p>
  <p style=""font-size: 16px;"">J = YES &nbsp;&nbsp;&nbsp; F = NO</p>
","j","html-keyboard-response","44","2.1.0","1859287","J=YES, F=NO","r2glkyc5ha","1","18","15","20","","","","","","lextale","true","false","","","","","","","",""
"1635","
  <p style=""font-size: 40px;"">tarnish</p>
  <p style=""font-size: 16px;"">J = YES &nbsp;&nbsp;&nbsp; F = NO</p>
","f","html-keyboard-response","45","2.1.0","1860923","J=YES, F=NO","r2glkyc5ha","1","18","15","20","","","","","","lextale","true","false","","","","","","","",""
"1250","
  <p style=""font-size: 40px;"">blim</p>
  <p style=""font-size: 16px;"">J = YES &nbsp;&nbsp;&nbsp; F = NO</p>
","f","html-keyboard-response","46","2.1.0","1862174","J=YES, F=NO","r2glkyc5ha","1","18","15","20","","","","","","lextale","false","false","","","","","","","",""
"924","
  <p style=""font-size: 40px;"">stifle</p>
  <p style=""font-size: 16px;"">J = YES &nbsp;&nbsp;&nbsp; F = NO</p>
","j","html-keyboard-response","47","2.1.0","1863099","J=YES, F=NO","r2glkyc5ha","1","18","15","20","","","","","","lextale","true","false","","","","","","","",""
"988","
  <p style=""font-size: 40px;"">bint</p>
  <p style=""font-size: 16px;"">J = YES &nbsp;&nbsp;&nbsp; F = NO</p>
","j","html-keyboard-response","48","2.1.0","1864087","J=YES, F=NO","r2glkyc5ha","1","18","15","20","","","","","","lextale","false","false","","","","","","","",""
"647","
  <p style=""font-size: 40px;"">purple</p>
  <p style=""font-size: 16px;"">J = YES &nbsp;&nbsp;&nbsp; F = NO</p>
","f","html-keyboard-response","49","2.1.0","1864736","J=YES, F=NO","r2glkyc5ha","1","18","15","20","","","","","","lextale","true","false","","","","","","","",""
"2163","
  <p style=""font-size: 40px;"">wriggle</p>
  <p style=""font-size: 16px;"">J = YES &nbsp;&nbsp;&nbsp; F = NO</p>
","f","html-keyboard-response","50","2.1.0","1866899","J=YES, F=NO","r2glkyc5ha","1","18","15","20","","","","","","lextale","true","false","","","","","","","",""
"1169","
  <p style=""font-size: 40px;"">mangle</p>
  <p style=""font-size: 16px;"">J = YES &nbsp;&nbsp;&nbsp; F = NO</p>
","f","html-keyboard-response","51","2.1.0","1868069","J=YES, F=NO","r2glkyc5ha","1","18","15","20","","","","","","lextale","true","false","","","","","","","",""
"995","
  <p style=""font-size: 40px;"">shramp</p>
  <p style=""font-size: 16px;"">J = YES &nbsp;&nbsp;&nbsp; F = NO</p>
","j","html-keyboard-response","52","2.1.0","1869065","J=YES, F=NO","r2glkyc5ha","1","18","15","20","","","","","","lextale","false","false","","","","","","","",""
"1080","
  <p style=""font-size: 40px;"">flirt</p>
  <p style=""font-size: 16px;"">J = YES &nbsp;&nbsp;&nbsp; F = NO</p>
","f","html-keyboard-response","53","2.1.0","1870145","J=YES, F=NO","r2glkyc5ha","1","18","15","20","","","","","","lextale","true","false","","","","","","","",""
"1062","
  <p style=""font-size: 40px;"">frip</p>
  <p style=""font-size: 16px;"">J = YES &nbsp;&nbsp;&nbsp; F = NO</p>
","j","html-keyboard-response","54","2.1.0","1871208","J=YES, F=NO","r2glkyc5ha","1","18","15","20","","","","","","lextale","false","false","","","","","","","",""
"1371","
  <p style=""font-size: 40px;"">tangle</p>
  <p style=""font-size: 16px;"">J = YES &nbsp;&nbsp;&nbsp; F = NO</p>
","f","html-keyboard-response","55","2.1.0","1872580","J=YES, F=NO","r2glkyc5ha","1","18","15","20","","","","","","lextale","true","false","","","","","","","",""
"596","
  <p style=""font-size: 40px;"">crumble</p>
  <p style=""font-size: 16px;"">J = YES &nbsp;&nbsp;&nbsp; F = NO</p>
","f","html-keyboard-response","56","2.1.0","1873177","J=YES, F=NO","r2glkyc5ha","1","18","15","20","","","","","","lextale","true","false","","","","","","","",""
"1422","
  <p style=""font-size: 40px;"">wrinkle</p>
  <p style=""font-size: 16px;"">J = YES &nbsp;&nbsp;&nbsp; F = NO</p>
","f","html-keyboard-response","57","2.1.0","1874600","J=YES, F=NO","r2glkyc5ha","1","18","15","20","","","","","","lextale","true","false","","","","","","","",""
"1509","
  <p style=""font-size: 40px;"">slumb</p>
  <p style=""font-size: 16px;"">J = YES &nbsp;&nbsp;&nbsp; F = NO</p>
","f","html-keyboard-response","58","2.1.0","1876110","J=YES, F=NO","r2glkyc5ha","1","18","15","20","","","","","","lextale","false","false","","","","","","","",""
"779","
  <p style=""font-size: 40px;"">jungle</p>
  <p style=""font-size: 16px;"">J = YES &nbsp;&nbsp;&nbsp; F = NO</p>
","f","html-keyboard-response","59","2.1.0","1876889","J=YES, F=NO","r2glkyc5ha","1","18","15","20","","","","","","lextale","true","false","","","","","","","",""
"3447","
  <p style=""font-size: 40px;"">frolick</p>
  <p style=""font-size: 16px;"">J = YES &nbsp;&nbsp;&nbsp; F = NO</p>
","j","html-keyboard-response","60","2.1.0","1880337","J=YES, F=NO","r2glkyc5ha","1","18","15","20","","","","","","lextale","false","false","","","","","","","",""
"3773","
      <h2>LexTALE Test Completed</h2>
      <p>Your LexTALE vocabulary score is: <strong>18%</strong></p>
      <p>Press any key to continue.</p>
    "," ","html-keyboard-response","61","2.1.0","1884111","J=YES, F=NO","r2glkyc5ha","1","18","15","20","","","","","","","","","","","","","","","",""
"10059","
    <div style=""max-width: 800px; margin: auto; text-align: left;"">
      <h2>Break Time</h2>
      <p>You have completed the first part of the study.</p>
      <p>You may take a short <strong>30-second break</strong> before continuing.</p>
      <p>When you’re ready, press any key to continue to the final task.</p>
    </div>
  "," ","html-keyboard-response","62","2.1.0","1894171","J=YES, F=NO","r2glkyc5ha","1","18","15","20","","","","","","","","","","","","","","","",""
"2599","
    <div style=""max-width: 800px; margin: auto; text-align: left;"">
      <h2>Part 2: Lexical Decision Task</h2>
      <p>You will now begin the second part of the study.</p>
      <p>Each trial will follow this sequence:</p>
      <ul>
        <li>A fixation cross (+) appears at the center of the screen.</li>
        <li>You will hear a short beep followed by a spoken word.</li>
        <li>A written word will appear briefly on the screen.</li>
      </ul>
      <p>Your task is to judge whether the <strong>written word</strong> is a real English word.</p>
      <p style=""margin-top: 1em;""><strong>Key responses:</strong></p>
      <ul>
        <li><strong>J</strong> = YES (real English word)</li>
        <li><strong>F</strong> = NO (not a real English word)</li>
      </ul>
      <p>Please respond as quickly and accurately as you can.</p>
      <p style=""margin-top: 2em;"">Press any key to continue.</p>
    </div>
  "," ","html-keyboard-response","63","2.1.0","1896770","J=YES, F=NO","r2glkyc5ha","1","18","15","20","","","","","","","","","","","","","","","",""
"2774","
    <div style=""max-width: 800px; margin: auto; text-align: left;"">
      <h2>Before You Begin</h2>
      <p>Make sure your sound is turned on.</p>
      <p>You will hear audio during each trial, but your decision should be based only on the <strong>written word</strong> you see on the screen.</p>
      <p><strong>Reminder:</strong></p>
      <ul>
        <li><strong>J</strong> = YES (real English word)</li>
        <li><strong>F</strong> = NO (not a real English word)</li>
      </ul>
      <p style=""margin-top: 2em;"">Press any key when you are ready to begin.</p>
    </div>
  "," ","html-keyboard-response","64","2.1.0","1899545","J=YES, F=NO","r2glkyc5ha","1","18","15","20","","","","","","","","","","","","","","","",""
"12857","
    <div style=""max-width: 800px; margin: auto; text-align: left;"">
      <h2>Part 2: Practice Trials</h2>
      <p>You will now complete a few <strong>practice trials</strong> to get familiar with the task.</p>
      <p>These trials are <strong>not scored</strong> and are only to help you get used to the format.</p>
      <p style=""margin-top: 2em;"">Press any key to begin.</p>
    </div>
  ","s","html-keyboard-response","65","2.1.0","1912402","J=YES, F=NO","r2glkyc5ha","1","18","15","20","","","","","","","","","","","","","","","",""
"4693","<p>Starting practice block 1 of 2. Press any key to continue.</p>","d","html-keyboard-response","66","2.1.0","1917096","J=YES, F=NO","r2glkyc5ha","1","18","15","20","","","","","","","","","","","","","","","",""
"null","<p style=""font-size: 50px;"">+</p>","null","html-keyboard-response","67","2.1.0","1917409","J=YES, F=NO","r2glkyc5ha","1","18","15","20","","","","","","","","","","","","","","","",""
"null","audio/beep-329314.mp3","null","audio-keyboard-response","68","2.1.0","1918944","J=YES, F=NO","r2glkyc5ha","1","18","15","20","","","","","","","","","","","","","","","",""
"null","audio/table1.wav","null","audio-keyboard-response","69","2.1.0","1919504","J=YES, F=NO","r2glkyc5ha","1","18","15","20","","","","","","","","","","","","","","","",""
"null","
          <p id=""word"" style=""font-size: 40px;"">stimb</p>
          <p style=""font-size: 16px;"">J = YES &nbsp;&nbsp;&nbsp; F = NO</p>
        ","null","html-keyboard-response","70","2.1.0","1921017","J=YES, F=NO","r2glkyc5ha","1","18","15","20","","","","","","","","","stimb","table1","pseudoword","pseudoword","f","false","",""
"null","<p style=""font-size: 50px;"">+</p>","null","html-keyboard-response","71","2.1.0","1921325","J=YES, F=NO","r2glkyc5ha","1","18","15","20","","","","","","","","","","","","","","","",""
"null","audio/beep-329314.mp3","null","audio-keyboard-response","72","2.1.0","1922864","J=YES, F=NO","r2glkyc5ha","1","18","15","20","","","","","","","","","","","","","","","",""
"null","audio/trout1.wav","null","audio-keyboard-response","73","2.1.0","1923464","J=YES, F=NO","r2glkyc5ha","1","18","15","20","","","","","","","","","","","","","","","",""
"1281","
          <p id=""word"" style=""font-size: 40px;"">spimt</p>
          <p style=""font-size: 16px;"">J = YES &nbsp;&nbsp;&nbsp; F = NO</p>
        ","j","html-keyboard-response","74","2.1.0","1924746","J=YES, F=NO","r2glkyc5ha","1","18","15","20","","","","","","","","","spimt","trout1","pseudoword","pseudoword","f","false","",""
"null","<p style=""font-size: 50px;"">+</p>","null","html-keyboard-response","75","2.1.0","1925059","J=YES, F=NO","r2glkyc5ha","1","18","15","20","","","","","","","","","","","","","","","",""
"null","audio/beep-329314.mp3","null","audio-keyboard-response","76","2.1.0","1926584","J=YES, F=NO","r2glkyc5ha","1","18","15","20","","","","","","","","","","","","","","","",""
"null","audio/battle1.wav","null","audio-keyboard-response","77","2.1.0","1927044","J=YES, F=NO","r2glkyc5ha","1","18","15","20","","","","","","","","","","","","","","","",""
"null","
          <p id=""word"" style=""font-size: 40px;"">boil</p>
          <p style=""font-size: 16px;"">J = YES &nbsp;&nbsp;&nbsp; F = NO</p>
        ","null","html-keyboard-response","78","2.1.0","1928558","J=YES, F=NO","r2glkyc5ha","1","18","15","20","","","","","","","","","boil","battle1","filler","filler","j","false","",""
"null","<p style=""font-size: 50px;"">+</p>","null","html-keyboard-response","79","2.1.0","1928869","J=YES, F=NO","r2glkyc5ha","1","18","15","20","","","","","","","","","","","","","","","",""
"null","audio/beep-329314.mp3","null","audio-keyboard-response","80","2.1.0","1930404","J=YES, F=NO","r2glkyc5ha","1","18","15","20","","","","","","","","","","","","","","","",""
"null","audio/novel.wav","null","audio-keyboard-response","81","2.1.0","1930964","J=YES, F=NO","r2glkyc5ha","1","18","15","20","","","","","","","","","","","","","","","",""
"null","
          <p id=""word"" style=""font-size: 40px;"">type</p>
          <p style=""font-size: 16px;"">J = YES &nbsp;&nbsp;&nbsp; F = NO</p>
        ","null","html-keyboard-response","82","2.1.0","1932479","J=YES, F=NO","r2glkyc5ha","1","18","15","20","","","","","","","","","type","novel","filler","filler","j","false","",""
"null","<p style=""font-size: 50px;"">+</p>","null","html-keyboard-response","83","2.1.0","1932789","J=YES, F=NO","r2glkyc5ha","1","18","15","20","","","","","","","","","","","","","","","",""
"null","audio/beep-329314.mp3","null","audio-keyboard-response","84","2.1.0","1934324","J=YES, F=NO","r2glkyc5ha","1","18","15","20","","","","","","","","","","","","","","","",""
"null","audio/ego.wav","null","audio-keyboard-response","85","2.1.0","1934884","J=YES, F=NO","r2glkyc5ha","1","18","15","20","","","","","","","","","","","","","","","",""
"852","
          <p id=""word"" style=""font-size: 40px;"">bruite</p>
          <p style=""font-size: 16px;"">J = YES &nbsp;&nbsp;&nbsp; F = NO</p>
        ","j","html-keyboard-response","86","2.1.0","1935738","J=YES, F=NO","r2glkyc5ha","1","18","15","20","","","","","","","","","bruite","ego","pseudoword","pseudoword","f","false","",""
"null","<p style=""font-size: 50px;"">+</p>","null","html-keyboard-response","87","2.1.0","1936053","J=YES, F=NO","r2glkyc5ha","1","18","15","20","","","","","","","","","","","","","","","",""
"null","audio/beep-329314.mp3","null","audio-keyboard-response","88","2.1.0","1937584","J=YES, F=NO","r2glkyc5ha","1","18","15","20","","","","","","","","","","","","","","","",""
"null","audio/baby.wav","null","audio-keyboard-response","89","2.1.0","1938124","J=YES, F=NO","r2glkyc5ha","1","18","15","20","","","","","","","","","","","","","","","",""
"null","
          <p id=""word"" style=""font-size: 40px;"">lift</p>
          <p style=""font-size: 16px;"">J = YES &nbsp;&nbsp;&nbsp; F = NO</p>
        ","null","html-keyboard-response","90","2.1.0","1939627","J=YES, F=NO","r2glkyc5ha","1","18","15","20","","","","","","","","","lift","baby","filler","filler","j","false","",""
"null","<p style=""font-size: 50px;"">+</p>","null","html-keyboard-response","91","2.1.0","1939939","J=YES, F=NO","r2glkyc5ha","1","18","15","20","","","","","","","","","","","","","","","",""
"null","audio/beep-329314.mp3","null","audio-keyboard-response","92","2.1.0","1941464","J=YES, F=NO","r2glkyc5ha","1","18","15","20","","","","","","","","","","","","","","","",""
"null","audio/pig.wav","null","audio-keyboard-response","93","2.1.0","1941924","J=YES, F=NO","r2glkyc5ha","1","18","15","20","","","","","","","","","","","","","","","",""
"1003","
          <p id=""word"" style=""font-size: 40px;"">tirlike</p>
          <p style=""font-size: 16px;"">J = YES &nbsp;&nbsp;&nbsp; F = NO</p>
        ","j","html-keyboard-response","94","2.1.0","1942928","J=YES, F=NO","r2glkyc5ha","1","18","15","20","","","","","","","","","tirlike","pig","pseudoword","pseudoword","f","false","",""
"null","<p style=""font-size: 50px;"">+</p>","null","html-keyboard-response","95","2.1.0","1943232","J=YES, F=NO","r2glkyc5ha","1","18","15","20","","","","","","","","","","","","","","","",""
"null","audio/beep-329314.mp3","null","audio-keyboard-response","96","2.1.0","1944764","J=YES, F=NO","r2glkyc5ha","1","18","15","20","","","","","","","","","","","","","","","",""
"null","audio/age1.wav","null","audio-keyboard-response","97","2.1.0","1945324","J=YES, F=NO","r2glkyc5ha","1","18","15","20","","","","","","","","","","","","","","","",""
"null","
          <p id=""word"" style=""font-size: 40px;"">bake</p>
          <p style=""font-size: 16px;"">J = YES &nbsp;&nbsp;&nbsp; F = NO</p>
        ","null","html-keyboard-response","98","2.1.0","1946840","J=YES, F=NO","r2glkyc5ha","1","18","15","20","","","","","","","","","bake","age1","filler","filler","j","false","",""
"null","<p style=""font-size: 50px;"">+</p>","null","html-keyboard-response","99","2.1.0","1947150","J=YES, F=NO","r2glkyc5ha","1","18","15","20","","","","","","","","","","","","","","","",""
"null","audio/beep-329314.mp3","null","audio-keyboard-response","100","2.1.0","1948684","J=YES, F=NO","r2glkyc5ha","1","18","15","20","","","","","","","","","","","","","","","",""
"null","audio/ankle1.wav","null","audio-keyboard-response","101","2.1.0","1949224","J=YES, F=NO","r2glkyc5ha","1","18","15","20","","","","","","","","","","","","","","","",""
"null","
          <p id=""word"" style=""font-size: 40px;"">kick</p>
          <p style=""font-size: 16px;"">J = YES &nbsp;&nbsp;&nbsp; F = NO</p>
        ","null","html-keyboard-response","102","2.1.0","1950734","J=YES, F=NO","r2glkyc5ha","1","18","15","20","","","","","","","","","kick","ankle1","filler","filler","j","false","",""
"null","<p style=""font-size: 50px;"">+</p>","null","html-keyboard-response","103","2.1.0","1951045","J=YES, F=NO","r2glkyc5ha","1","18","15","20","","","","","","","","","","","","","","","",""
"null","audio/beep-329314.mp3","null","audio-keyboard-response","104","2.1.0","1952584","J=YES, F=NO","r2glkyc5ha","1","18","15","20","","","","","","","","","","","","","","","",""
"null","audio/account1.wav","null","audio-keyboard-response","105","2.1.0","1953264","J=YES, F=NO","r2glkyc5ha","1","18","15","20","","","","","","","","","","","","","","","",""
"1016","
          <p id=""word"" style=""font-size: 40px;"">paint</p>
          <p style=""font-size: 16px;"">J = YES &nbsp;&nbsp;&nbsp; F = NO</p>
        ","f","html-keyboard-response","106","2.1.0","1954281","J=YES, F=NO","r2glkyc5ha","1","18","15","20","","","","","","","","","paint","account1","filler","filler","j","false","",""
"null","<p style=""font-size: 50px;"">+</p>","null","html-keyboard-response","107","2.1.0","1954583","J=YES, F=NO","r2glkyc5ha","1","18","15","20","","","","","","","","","","","","","","","",""
"null","audio/beep-329314.mp3","null","audio-keyboard-response","108","2.1.0","1956124","J=YES, F=NO","r2glkyc5ha","1","18","15","20","","","","","","","","","","","","","","","",""
"null","audio/kettle1.wav","null","audio-keyboard-response","109","2.1.0","1956604","J=YES, F=NO","r2glkyc5ha","1","18","15","20","","","","","","","","","","","","","","","",""
"979","
          <p id=""word"" style=""font-size: 40px;"">wrap</p>
          <p style=""font-size: 16px;"">J = YES &nbsp;&nbsp;&nbsp; F = NO</p>
        ","j","html-keyboard-response","110","2.1.0","1957584","J=YES, F=NO","r2glkyc5ha","1","18","15","20","","","","","","","","","wrap","kettle1","filler","filler","j","true","",""
"null","<p style=""font-size: 50px;"">+</p>","null","html-keyboard-response","111","2.1.0","1957889","J=YES, F=NO","r2glkyc5ha","1","18","15","20","","","","","","","","","","","","","","","",""
"null","audio/beep-329314.mp3","null","audio-keyboard-response","112","2.1.0","1959424","J=YES, F=NO","r2glkyc5ha","1","18","15","20","","","","","","","","","","","","","","","",""
"null","audio/handle.wav","null","audio-keyboard-response","113","2.1.0","1960224","J=YES, F=NO","r2glkyc5ha","1","18","15","20","","","","","","","","","","","","","","","",""
"933","
          <p id=""word"" style=""font-size: 40px;"">moutes</p>
          <p style=""font-size: 16px;"">J = YES &nbsp;&nbsp;&nbsp; F = NO</p>
        ","j","html-keyboard-response","114","2.1.0","1961158","J=YES, F=NO","r2glkyc5ha","1","18","15","20","","","","","","","","","moutes","handle","pseudoword","pseudoword","f","false","",""
"15897","<p>Starting practice block 2 of 2. Press any key to continue.</p>"," ","html-keyboard-response","115","2.1.0","1977056","J=YES, F=NO","r2glkyc5ha","1","18","15","20","","","","","","","","","","","","","","","",""
"null","<p style=""font-size: 50px;"">+</p>","null","html-keyboard-response","116","2.1.0","1977362","J=YES, F=NO","r2glkyc5ha","1","18","15","20","","","","","","","","","","","","","","","",""
"null","audio/beep-329314.mp3","null","audio-keyboard-response","117","2.1.0","1978877","J=YES, F=NO","r2glkyc5ha","1","18","15","20","","","","","","","","","","","","","","","",""
"null","audio/bomb1.wav","null","audio-keyboard-response","118","2.1.0","1979417","J=YES, F=NO","r2glkyc5ha","1","18","15","20","","","","","","","","","","","","","","","",""
"null","
          <p id=""word"" style=""font-size: 40px;"">clean</p>
          <p style=""font-size: 16px;"">J = YES &nbsp;&nbsp;&nbsp; F = NO</p>
        ","null","html-keyboard-response","119","2.1.0","1980924","J=YES, F=NO","r2glkyc5ha","1","18","15","20","","","","","","","","","clean","bomb1","filler","filler","j","false","",""
"null","<p style=""font-size: 50px;"">+</p>","null","html-keyboard-response","120","2.1.0","1981237","J=YES, F=NO","r2glkyc5ha","1","18","15","20","","","","","","","","","","","","","","","",""
"null","audio/beep-329314.mp3","null","audio-keyboard-response","121","2.1.0","1982777","J=YES, F=NO","r2glkyc5ha","1","18","15","20","","","","","","","","","","","","","","","",""
"null","audio/cancer1.wav","null","audio-keyboard-response","122","2.1.0","1983497","J=YES, F=NO","r2glkyc5ha","1","18","15","20","","","","","","","","","","","","","","","",""
"null","
          <p id=""word"" style=""font-size: 40px;"">draw</p>
          <p style=""font-size: 16px;"">J = YES &nbsp;&nbsp;&nbsp; F = NO</p>
        ","null","html-keyboard-response","123","2.1.0","1985011","J=YES, F=NO","r2glkyc5ha","1","18","15","20","","","","","","","","","draw","cancer1","filler","filler","j","false","",""
"null","<p style=""font-size: 50px;"">+</p>","null","html-keyboard-response","124","2.1.0","1985321","J=YES, F=NO","r2glkyc5ha","1","18","15","20","","","","","","","","","","","","","","","",""
"null","audio/beep-329314.mp3","null","audio-keyboard-response","125","2.1.0","1986857","J=YES, F=NO","r2glkyc5ha","1","18","15","20","","","","","","","","","","","","","","","",""
"null","audio/beach1.wav","null","audio-keyboard-response","126","2.1.0","1987517","J=YES, F=NO","r2glkyc5ha","1","18","15","20","","","","","","","","","","","","","","","",""
"1501","
          <p id=""word"" style=""font-size: 40px;"">drive</p>
          <p style=""font-size: 16px;"">J = YES &nbsp;&nbsp;&nbsp; F = NO</p>
        ","j","html-keyboard-response","127","2.1.0","1989019","J=YES, F=NO","r2glkyc5ha","1","18","15","20","","","","","","","","","drive","beach1","filler","filler","j","true","",""
"null","<p style=""font-size: 50px;"">+</p>","null","html-keyboard-response","128","2.1.0","1989320","J=YES, F=NO","r2glkyc5ha","1","18","15","20","","","","","","","","","","","","","","","",""
"null","audio/beep-329314.mp3","null","audio-keyboard-response","129","2.1.0","1990857","J=YES, F=NO","r2glkyc5ha","1","18","15","20","","","","","","","","","","","","","","","",""
"null","audio/cave1.wav","null","audio-keyboard-response","130","2.1.0","1991577","J=YES, F=NO","r2glkyc5ha","1","18","15","20","","","","","","","","","","","","","","","",""
"1286","
          <p id=""word"" style=""font-size: 40px;"">blacket</p>
          <p style=""font-size: 16px;"">J = YES &nbsp;&nbsp;&nbsp; F = NO</p>
        ","f","html-keyboard-response","131","2.1.0","1992863","J=YES, F=NO","r2glkyc5ha","1","18","15","20","","","","","","","","","blacket","cave1","pseudoword","pseudoword","f","true","",""
"null","<p style=""font-size: 50px;"">+</p>","null","html-keyboard-response","132","2.1.0","1993177","J=YES, F=NO","r2glkyc5ha","1","18","15","20","","","","","","","","","","","","","","","",""
"null","audio/beep-329314.mp3","null","audio-keyboard-response","133","2.1.0","1994717","J=YES, F=NO","r2glkyc5ha","1","18","15","20","","","","","","","","","","","","","","","",""
"null","audio/theory1.wav","null","audio-keyboard-response","134","2.1.0","1995417","J=YES, F=NO","r2glkyc5ha","1","18","15","20","","","","","","","","","","","","","","","",""
"1234","
          <p id=""word"" style=""font-size: 40px;"">scolve</p>
          <p style=""font-size: 16px;"">J = YES &nbsp;&nbsp;&nbsp; F = NO</p>
        ","f","html-keyboard-response","135","2.1.0","1996651","J=YES, F=NO","r2glkyc5ha","1","18","15","20","","","","","","","","","scolve","theory1","pseudoword","pseudoword","f","true","",""
"null","<p style=""font-size: 50px;"">+</p>","null","html-keyboard-response","136","2.1.0","1996959","J=YES, F=NO","r2glkyc5ha","1","18","15","20","","","","","","","","","","","","","","","",""
"null","audio/beep-329314.mp3","null","audio-keyboard-response","137","2.1.0","1998497","J=YES, F=NO","r2glkyc5ha","1","18","15","20","","","","","","","","","","","","","","","",""
"null","audio/menu.wav","null","audio-keyboard-response","138","2.1.0","1999137","J=YES, F=NO","r2glkyc5ha","1","18","15","20","","","","","","","","","","","","","","","",""
"1352","
          <p id=""word"" style=""font-size: 40px;"">slice</p>
          <p style=""font-size: 16px;"">J = YES &nbsp;&nbsp;&nbsp; F = NO</p>
        ","j","html-keyboard-response","139","2.1.0","2000489","J=YES, F=NO","r2glkyc5ha","1","18","15","20","","","","","","","","","slice","menu","filler","filler","j","true","",""
"null","<p style=""font-size: 50px;"">+</p>","null","html-keyboard-response","140","2.1.0","2000801","J=YES, F=NO","r2glkyc5ha","1","18","15","20","","","","","","","","","","","","","","","",""
"null","audio/beep-329314.mp3","null","audio-keyboard-response","141","2.1.0","2002337","J=YES, F=NO","r2glkyc5ha","1","18","15","20","","","","","","","","","","","","","","","",""
"null","audio/vehicle1.wav","null","audio-keyboard-response","142","2.1.0","2003077","J=YES, F=NO","r2glkyc5ha","1","18","15","20","","","","","","","","","","","","","","","",""
"1018","
          <p id=""word"" style=""font-size: 40px;"">dropt</p>
          <p style=""font-size: 16px;"">J = YES &nbsp;&nbsp;&nbsp; F = NO</p>
        ","f","html-keyboard-response","143","2.1.0","2004096","J=YES, F=NO","r2glkyc5ha","1","18","15","20","","","","","","","","","dropt","vehicle1","pseudoword","pseudoword","f","true","",""
"null","<p style=""font-size: 50px;"">+</p>","null","html-keyboard-response","144","2.1.0","2004408","J=YES, F=NO","r2glkyc5ha","1","18","15","20","","","","","","","","","","","","","","","",""
"null","audio/beep-329314.mp3","null","audio-keyboard-response","145","2.1.0","2005937","J=YES, F=NO","r2glkyc5ha","1","18","15","20","","","","","","","","","","","","","","","",""
"null","audio/strength.wav","null","audio-keyboard-response","146","2.1.0","2006737","J=YES, F=NO","r2glkyc5ha","1","18","15","20","","","","","","","","","","","","","","","",""
"799","
          <p id=""word"" style=""font-size: 40px;"">plabet</p>
          <p style=""font-size: 16px;"">J = YES &nbsp;&nbsp;&nbsp; F = NO</p>
        ","f","html-keyboard-response","147","2.1.0","2007537","J=YES, F=NO","r2glkyc5ha","1","18","15","20","","","","","","","","","plabet","strength","pseudoword","pseudoword","f","true","",""
"null","<p style=""font-size: 50px;"">+</p>","null","html-keyboard-response","148","2.1.0","2007848","J=YES, F=NO","r2glkyc5ha","1","18","15","20","","","","","","","","","","","","","","","",""
"null","audio/beep-329314.mp3","null","audio-keyboard-response","149","2.1.0","2009377","J=YES, F=NO","r2glkyc5ha","1","18","15","20","","","","","","","","","","","","","","","",""
"null","audio/tunnel.wav","null","audio-keyboard-response","150","2.1.0","2009877","J=YES, F=NO","r2glkyc5ha","1","18","15","20","","","","","","","","","","","","","","","",""
"861","
          <p id=""word"" style=""font-size: 40px;"">gred</p>
          <p style=""font-size: 16px;"">J = YES &nbsp;&nbsp;&nbsp; F = NO</p>
        ","f","html-keyboard-response","151","2.1.0","2010738","J=YES, F=NO","r2glkyc5ha","1","18","15","20","","","","","","","","","gred","tunnel","pseudoword","pseudoword","f","true","",""
"null","<p style=""font-size: 50px;"">+</p>","null","html-keyboard-response","152","2.1.0","2011052","J=YES, F=NO","r2glkyc5ha","1","18","15","20","","","","","","","","","","","","","","","",""
"null","audio/beep-329314.mp3","null","audio-keyboard-response","153","2.1.0","2012577","J=YES, F=NO","r2glkyc5ha","1","18","15","20","","","","","","","","","","","","","","","",""
"null","audio/mind.wav","null","audio-keyboard-response","154","2.1.0","2013217","J=YES, F=NO","r2glkyc5ha","1","18","15","20","","","","","","","","","","","","","","","",""
"867","
          <p id=""word"" style=""font-size: 40px;"">crainate</p>
          <p style=""font-size: 16px;"">J = YES &nbsp;&nbsp;&nbsp; F = NO</p>
        ","j","html-keyboard-response","155","2.1.0","2014084","J=YES, F=NO","r2glkyc5ha","1","18","15","20","","","","","","","","","crainate","mind","pseudoword","pseudoword","f","false","",""
"null","<p style=""font-size: 50px;"">+</p>","null","html-keyboard-response","156","2.1.0","2014385","J=YES, F=NO","r2glkyc5ha","1","18","15","20","","","","","","","","","","","","","","","",""
"null","audio/beep-329314.mp3","null","audio-keyboard-response","157","2.1.0","2015917","J=YES, F=NO","r2glkyc5ha","1","18","15","20","","","","","","","","","","","","","","","",""
"null","audio/bridge.wav","null","audio-keyboard-response","158","2.1.0","2016637","J=YES, F=NO","r2glkyc5ha","1","18","15","20","","","","","","","","","","","","","","","",""
"914","
          <p id=""word"" style=""font-size: 40px;"">crack</p>
          <p style=""font-size: 16px;"">J = YES &nbsp;&nbsp;&nbsp; F = NO</p>
        ","f","html-keyboard-response","159","2.1.0","2017551","J=YES, F=NO","r2glkyc5ha","1","18","15","20","","","","","","","","","crack","bridge","filler","filler","j","false","",""
"null","<p style=""font-size: 50px;"">+</p>","null","html-keyboard-response","160","2.1.0","2017854","J=YES, F=NO","r2glkyc5ha","1","18","15","20","","","","","","","","","","","","","","","",""
"null","audio/beep-329314.mp3","null","audio-keyboard-response","161","2.1.0","2019377","J=YES, F=NO","r2glkyc5ha","1","18","15","20","","","","","","","","","","","","","","","",""
"null","audio/arm.wav","null","audio-keyboard-response","162","2.1.0","2019977","J=YES, F=NO","r2glkyc5ha","1","18","15","20","","","","","","","","","","","","","","","",""
"null","
          <p id=""word"" style=""font-size: 40px;"">pigne</p>
          <p style=""font-size: 16px;"">J = YES &nbsp;&nbsp;&nbsp; F = NO</p>
        ","null","html-keyboard-response","163","2.1.0","2021482","J=YES, F=NO","r2glkyc5ha","1","18","15","20","","","","","","","","","pigne","arm","pseudoword","pseudoword","f","false","",""
"1662","
    <div style=""max-width: 800px; margin: auto; text-align: left;"">
      <h2>Part 2: Main Trials</h2>
      <p>Great job on the practice trials!</p>
      <p>You will now begin the <strong>main set of trials</strong>.</p>
      <p>Remember your key assignments:</p>
      <ul>
        <li><strong>J</strong> = YES (real English word)</li>
        <li><strong>F</strong> = NO (not a real English word)</li>
      </ul>
      <p>Try to respond as <strong>quickly and accurately</strong> as possible.</p>
      <p style=""margin-top: 2em;"">Press any key to begin the main trials.</p>
    </div>
  ","Alt","html-keyboard-response","164","2.1.0","2023144","J=YES, F=NO","r2glkyc5ha","1","18","15","20","","","","","","","","","","","","","","","",""
"2680","<p>Starting main block 1 of 8. Press any key to continue.</p>"," ","html-keyboard-response","165","2.1.0","2025825","J=YES, F=NO","r2glkyc5ha","1","18","15","20","","","","","","","","","","","","","","","",""
"null","<p style=""font-size: 50px;"">+</p>","null","html-keyboard-response","166","2.1.0","2026126","J=YES, F=NO","r2glkyc5ha","1","18","15","20","","","","","","","","","","","","","","","",""
"null","audio/beep-329314.mp3","null","audio-keyboard-response","167","2.1.0","2027657","J=YES, F=NO","r2glkyc5ha","1","18","15","20","","","","","","","","","","","","","","","",""
"null","audio/belief.wav","null","audio-keyboard-response","168","2.1.0","2028457","J=YES, F=NO","r2glkyc5ha","1","18","15","20","","","","","","","","","","","","","","","",""
"965","
          <p id=""word"" style=""font-size: 40px;"">read</p>
          <p style=""font-size: 16px;"">J = YES &nbsp;&nbsp;&nbsp; F = NO</p>
        ","f","html-keyboard-response","169","2.1.0","2029423","J=YES, F=NO","r2glkyc5ha","1","18","15","20","","","","","","","","","read","belief","filler","filler","j","false","",""
"null","<p style=""font-size: 50px;"">+</p>","null","html-keyboard-response","170","2.1.0","2029729","J=YES, F=NO","r2glkyc5ha","1","18","15","20","","","","","","","","","","","","","","","",""
"null","audio/beep-329314.mp3","null","audio-keyboard-response","171","2.1.0","2031257","J=YES, F=NO","r2glkyc5ha","1","18","15","20","","","","","","","","","","","","","","","",""
"null","audio/test1.wav","null","audio-keyboard-response","172","2.1.0","2031997","J=YES, F=NO","r2glkyc5ha","1","18","15","20","","","","","","","","","","","","","","","",""
"785","
          <p id=""word"" style=""font-size: 40px;"">twopch</p>
          <p style=""font-size: 16px;"">J = YES &nbsp;&nbsp;&nbsp; F = NO</p>
        ","f","html-keyboard-response","173","2.1.0","2032782","J=YES, F=NO","r2glkyc5ha","1","18","15","20","","","","","","","","","twopch","test1","pseudoword","pseudoword","f","true","",""
"null","<p style=""font-size: 50px;"">+</p>","null","html-keyboard-response","174","2.1.0","2033095","J=YES, F=NO","r2glkyc5ha","1","18","15","20","","","","","","","","","","","","","","","",""
"null","audio/beep-329314.mp3","null","audio-keyboard-response","175","2.1.0","2034617","J=YES, F=NO","r2glkyc5ha","1","18","15","20","","","","","","","","","","","","","","","",""
"null","audio/mouth1.wav","null","audio-keyboard-response","176","2.1.0","2035257","J=YES, F=NO","r2glkyc5ha","1","18","15","20","","","","","","","","","","","","","","","",""
"null","
          <p id=""word"" style=""font-size: 40px;"">spolial</p>
          <p style=""font-size: 16px;"">J = YES &nbsp;&nbsp;&nbsp; F = NO</p>
        ","null","html-keyboard-response","177","2.1.0","2036768","J=YES, F=NO","r2glkyc5ha","1","18","15","20","","","","","","","","","spolial","mouth1","pseudoword","pseudoword","f","false","",""
"null","<p style=""font-size: 50px;"">+</p>","null","html-keyboard-response","178","2.1.0","2037080","J=YES, F=NO","r2glkyc5ha","1","18","15","20","","","","","","","","","","","","","","","",""
"null","audio/beep-329314.mp3","null","audio-keyboard-response","179","2.1.0","2038617","J=YES, F=NO","r2glkyc5ha","1","18","15","20","","","","","","","","","","","","","","","",""
"null","audio/terrain.wav","null","audio-keyboard-response","180","2.1.0","2039277","J=YES, F=NO","r2glkyc5ha","1","18","15","20","","","","","","","","","","","","","","","",""
"null","
          <p id=""word"" style=""font-size: 40px;"">twist</p>
          <p style=""font-size: 16px;"">J = YES &nbsp;&nbsp;&nbsp; F = NO</p>
        ","null","html-keyboard-response","181","2.1.0","2040789","J=YES, F=NO","r2glkyc5ha","1","18","15","20","","","","","","","","","twist","terrain","filler","filler","j","false","",""
"null","<p style=""font-size: 50px;"">+</p>","null","html-keyboard-response","182","2.1.0","2041098","J=YES, F=NO","r2glkyc5ha","1","18","15","20","","","","","","","","","","","","","","","",""
"null","audio/beep-329314.mp3","null","audio-keyboard-response","183","2.1.0","2042637","J=YES, F=NO","r2glkyc5ha","1","18","15","20","","","","","","","","","","","","","","","",""
"null","audio/mile1.wav","null","audio-keyboard-response","184","2.1.0","2043177","J=YES, F=NO","r2glkyc5ha","1","18","15","20","","","","","","","","","","","","","","","",""
"1105","
          <p id=""word"" style=""font-size: 40px;"">writch</p>
          <p style=""font-size: 16px;"">J = YES &nbsp;&nbsp;&nbsp; F = NO</p>
        ","j","html-keyboard-response","185","2.1.0","2044282","J=YES, F=NO","r2glkyc5ha","1","18","15","20","","","","","","","","","writch","mile1","pseudoword","pseudoword","f","false","",""
"null","<p style=""font-size: 50px;"">+</p>","null","html-keyboard-response","186","2.1.0","2044586","J=YES, F=NO","r2glkyc5ha","1","18","15","20","","","","","","","","","","","","","","","",""
"null","audio/beep-329314.mp3","null","audio-keyboard-response","187","2.1.0","2046117","J=YES, F=NO","r2glkyc5ha","1","18","15","20","","","","","","","","","","","","","","","",""
"null","audio/rain.wav","null","audio-keyboard-response","188","2.1.0","2046737","J=YES, F=NO","r2glkyc5ha","1","18","15","20","","","","","","","","","","","","","","","",""
"930","
          <p id=""word"" style=""font-size: 40px;"">lose</p>
          <p style=""font-size: 16px;"">J = YES &nbsp;&nbsp;&nbsp; F = NO</p>
        ","f","html-keyboard-response","189","2.1.0","2047668","J=YES, F=NO","r2glkyc5ha","1","18","15","20","","","","","","","","","lose","rain","unrelated","experimental","j","false","",""
"null","<p style=""font-size: 50px;"">+</p>","null","html-keyboard-response","190","2.1.0","2047974","J=YES, F=NO","r2glkyc5ha","1","18","15","20","","","","","","","","","","","","","","","",""
"null","audio/beep-329314.mp3","null","audio-keyboard-response","191","2.1.0","2049497","J=YES, F=NO","r2glkyc5ha","1","18","15","20","","","","","","","","","","","","","","","",""
"null","audio/key1.wav","null","audio-keyboard-response","192","2.1.0","2049877","J=YES, F=NO","r2glkyc5ha","1","18","15","20","","","","","","","","","","","","","","","",""
"1237","
          <p id=""word"" style=""font-size: 40px;"">sminsh</p>
          <p style=""font-size: 16px;"">J = YES &nbsp;&nbsp;&nbsp; F = NO</p>
        ","j","html-keyboard-response","193","2.1.0","2051114","J=YES, F=NO","r2glkyc5ha","1","18","15","20","","","","","","","","","sminsh","key1","pseudoword","pseudoword","f","false","",""
"null","<p style=""font-size: 50px;"">+</p>","null","html-keyboard-response","194","2.1.0","2051420","J=YES, F=NO","r2glkyc5ha","1","18","15","20","","","","","","","","","","","","","","","",""
"null","audio/beep-329314.mp3","null","audio-keyboard-response","195","2.1.0","2052957","J=YES, F=NO","r2glkyc5ha","1","18","15","20","","","","","","","","","","","","","","","",""
"null","audio/news.wav","null","audio-keyboard-response","196","2.1.0","2053617","J=YES, F=NO","r2glkyc5ha","1","18","15","20","","","","","","","","","","","","","","","",""
"1109","
          <p id=""word"" style=""font-size: 40px;"">digest</p>
          <p style=""font-size: 16px;"">J = YES &nbsp;&nbsp;&nbsp; F = NO</p>
        ","f","html-keyboard-response","197","2.1.0","2054726","J=YES, F=NO","r2glkyc5ha","1","18","15","20","","","","","","","","","digest","news","metaphor","experimental","j","false","",""
"null","<p style=""font-size: 50px;"">+</p>","null","html-keyboard-response","198","2.1.0","2055033","J=YES, F=NO","r2glkyc5ha","1","18","15","20","","","","","","","","","","","","","","","",""
"null","audio/beep-329314.mp3","null","audio-keyboard-response","199","2.1.0","2056557","J=YES, F=NO","r2glkyc5ha","1","18","15","20","","","","","","","","","","","","","","","",""
"null","audio/road.wav","null","audio-keyboard-response","200","2.1.0","2056997","J=YES, F=NO","r2glkyc5ha","1","18","15","20","","","","","","","","","","","","","","","",""
"882","
          <p id=""word"" style=""font-size: 40px;"">wappings</p>
          <p style=""font-size: 16px;"">J = YES &nbsp;&nbsp;&nbsp; F = NO</p>
        ","j","html-keyboard-response","201","2.1.0","2057879","J=YES, F=NO","r2glkyc5ha","1","18","15","20","","","","","","","","","wappings","road","pseudoword","pseudoword","f","false","",""
"null","<p style=""font-size: 50px;"">+</p>","null","html-keyboard-response","202","2.1.0","2058189","J=YES, F=NO","r2glkyc5ha","1","18","15","20","","","","","","","","","","","","","","","",""
"null","audio/beep-329314.mp3","null","audio-keyboard-response","203","2.1.0","2059717","J=YES, F=NO","r2glkyc5ha","1","18","15","20","","","","","","","","","","","","","","","",""
"null","audio/corpse1.wav","null","audio-keyboard-response","204","2.1.0","2060517","J=YES, F=NO","r2glkyc5ha","1","18","15","20","","","","","","","","","","","","","","","",""
"null","
          <p id=""word"" style=""font-size: 40px;"">glonet</p>
          <p style=""font-size: 16px;"">J = YES &nbsp;&nbsp;&nbsp; F = NO</p>
        ","null","html-keyboard-response","205","2.1.0","2062027","J=YES, F=NO","r2glkyc5ha","1","18","15","20","","","","","","","","","glonet","corpse1","pseudoword","pseudoword","f","false","",""
"null","<p style=""font-size: 50px;"">+</p>","null","html-keyboard-response","206","2.1.0","2062336","J=YES, F=NO","r2glkyc5ha","1","18","15","20","","","","","","","","","","","","","","","",""
"null","audio/beep-329314.mp3","null","audio-keyboard-response","207","2.1.0","2063877","J=YES, F=NO","r2glkyc5ha","1","18","15","20","","","","","","","","","","","","","","","",""
"null","audio/gossip1.wav","null","audio-keyboard-response","208","2.1.0","2064577","J=YES, F=NO","r2glkyc5ha","1","18","15","20","","","","","","","","","","","","","","","",""
"1291","
          <p id=""word"" style=""font-size: 40px;"">wrestle</p>
          <p style=""font-size: 16px;"">J = YES &nbsp;&nbsp;&nbsp; F = NO</p>
        ","j","html-keyboard-response","209","2.1.0","2065869","J=YES, F=NO","r2glkyc5ha","1","18","15","20","","","","","","","","","wrestle","gossip1","unrelated","experimental","j","true","",""
"null","<p style=""font-size: 50px;"">+</p>","null","html-keyboard-response","210","2.1.0","2066174","J=YES, F=NO","r2glkyc5ha","1","18","15","20","","","","","","","","","","","","","","","",""
"null","audio/beep-329314.mp3","null","audio-keyboard-response","211","2.1.0","2067697","J=YES, F=NO","r2glkyc5ha","1","18","15","20","","","","","","","","","","","","","","","",""
"null","audio/topic.wav","null","audio-keyboard-response","212","2.1.0","2068277","J=YES, F=NO","r2glkyc5ha","1","18","15","20","","","","","","","","","","","","","","","",""
"762","
          <p id=""word"" style=""font-size: 40px;"">infortuitist</p>
          <p style=""font-size: 16px;"">J = YES &nbsp;&nbsp;&nbsp; F = NO</p>
        ","f","html-keyboard-response","213","2.1.0","2069039","J=YES, F=NO","r2glkyc5ha","1","18","15","20","","","","","","","","","infortuitist","topic","pseudoword","pseudoword","f","true","",""
"null","<p style=""font-size: 50px;"">+</p>","null","html-keyboard-response","214","2.1.0","2069344","J=YES, F=NO","r2glkyc5ha","1","18","15","20","","","","","","","","","","","","","","","",""
"null","audio/beep-329314.mp3","null","audio-keyboard-response","215","2.1.0","2070877","J=YES, F=NO","r2glkyc5ha","1","18","15","20","","","","","","","","","","","","","","","",""
"null","audio/breath.wav","null","audio-keyboard-response","216","2.1.0","2071497","J=YES, F=NO","r2glkyc5ha","1","18","15","20","","","","","","","","","","","","","","","",""
"825","
          <p id=""word"" style=""font-size: 40px;"">twets</p>
          <p style=""font-size: 16px;"">J = YES &nbsp;&nbsp;&nbsp; F = NO</p>
        ","j","html-keyboard-response","217","2.1.0","2072322","J=YES, F=NO","r2glkyc5ha","1","18","15","20","","","","","","","","","twets","breath","pseudoword","pseudoword","f","false","",""
"null","<p style=""font-size: 50px;"">+</p>","null","html-keyboard-response","218","2.1.0","2072630","J=YES, F=NO","r2glkyc5ha","1","18","15","20","","","","","","","","","","","","","","","",""
"null","audio/beep-329314.mp3","null","audio-keyboard-response","219","2.1.0","2074157","J=YES, F=NO","r2glkyc5ha","1","18","15","20","","","","","","","","","","","","","","","",""
"null","audio/survey1.wav","null","audio-keyboard-response","220","2.1.0","2074957","J=YES, F=NO","r2glkyc5ha","1","18","15","20","","","","","","","","","","","","","","","",""
"901","
          <p id=""word"" style=""font-size: 40px;"">release</p>
          <p style=""font-size: 16px;"">J = YES &nbsp;&nbsp;&nbsp; F = NO</p>
        ","f","html-keyboard-response","221","2.1.0","2075858","J=YES, F=NO","r2glkyc5ha","1","18","15","20","","","","","","","","","release","survey1","metaphor","experimental","j","false","",""
"null","<p style=""font-size: 50px;"">+</p>","null","html-keyboard-response","222","2.1.0","2076171","J=YES, F=NO","r2glkyc5ha","1","18","15","20","","","","","","","","","","","","","","","",""
"null","audio/beep-329314.mp3","null","audio-keyboard-response","223","2.1.0","2077697","J=YES, F=NO","r2glkyc5ha","1","18","15","20","","","","","","","","","","","","","","","",""
"null","audio/birth1.wav","null","audio-keyboard-response","224","2.1.0","2078317","J=YES, F=NO","r2glkyc5ha","1","18","15","20","","","","","","","","","","","","","","","",""
"667","
          <p id=""word"" style=""font-size: 40px;"">drop</p>
          <p style=""font-size: 16px;"">J = YES &nbsp;&nbsp;&nbsp; F = NO</p>
        ","f","html-keyboard-response","225","2.1.0","2078984","J=YES, F=NO","r2glkyc5ha","1","18","15","20","","","","","","","","","drop","birth1","unrelated","experimental","j","false","",""
"null","<p style=""font-size: 50px;"">+</p>","null","html-keyboard-response","226","2.1.0","2079295","J=YES, F=NO","r2glkyc5ha","1","18","15","20","","","","","","","","","","","","","","","",""
"null","audio/beep-329314.mp3","null","audio-keyboard-response","227","2.1.0","2080817","J=YES, F=NO","r2glkyc5ha","1","18","15","20","","","","","","","","","","","","","","","",""
"null","audio/roof1.wav","null","audio-keyboard-response","228","2.1.0","2081357","J=YES, F=NO","r2glkyc5ha","1","18","15","20","","","","","","","","","","","","","","","",""
"684","
          <p id=""word"" style=""font-size: 40px;"">construct</p>
          <p style=""font-size: 16px;"">J = YES &nbsp;&nbsp;&nbsp; F = NO</p>
        ","f","html-keyboard-response","229","2.1.0","2082041","J=YES, F=NO","r2glkyc5ha","1","18","15","20","","","","","","","","","construct","roof1","literal","experimental","j","false","",""
"35750","<p>Excellent! You have finished block 1 of 8.</p>
                     <p>Feel free to take a 30 second break.</p>
                     <p>Press any key when you're ready to continue.</p>"," ","html-keyboard-response","230","2.1.0","2117792","J=YES, F=NO","r2glkyc5ha","1","18","15","20","","","","","","","","","","","","","","","",""
"2099","<p>Starting main block 2 of 8. Press any key to continue.</p>"," ","html-keyboard-response","231","2.1.0","2119891","J=YES, F=NO","r2glkyc5ha","1","18","15","20","","","","","","","","","","","","","","","",""
"null","<p style=""font-size: 50px;"">+</p>","null","html-keyboard-response","232","2.1.0","2120204","J=YES, F=NO","r2glkyc5ha","1","18","15","20","","","","","","","","","","","","","","","",""
"null","audio/beep-329314.mp3","null","audio-keyboard-response","233","2.1.0","2121723","J=YES, F=NO","r2glkyc5ha","1","18","15","20","","","","","","","","","","","","","","","",""
"null","audio/wool1.wav","null","audio-keyboard-response","234","2.1.0","2122082","J=YES, F=NO","r2glkyc5ha","1","18","15","20","","","","","","","","","","","","","","","",""
"null","
          <p id=""word"" style=""font-size: 40px;"">weave</p>
          <p style=""font-size: 16px;"">J = YES &nbsp;&nbsp;&nbsp; F = NO</p>
        ","null","html-keyboard-response","235","2.1.0","2123593","J=YES, F=NO","r2glkyc5ha","1","18","15","20","","","","","","","","","weave","wool1","literal","experimental","j","false","",""
"null","<p style=""font-size: 50px;"">+</p>","null","html-keyboard-response","236","2.1.0","2123904","J=YES, F=NO","r2glkyc5ha","1","18","15","20","","","","","","","","","","","","","","","",""
"null","audio/beep-329314.mp3","null","audio-keyboard-response","237","2.1.0","2125442","J=YES, F=NO","r2glkyc5ha","1","18","15","20","","","","","","","","","","","","","","","",""
"null","audio/gift1.wav","null","audio-keyboard-response","238","2.1.0","2125923","J=YES, F=NO","r2glkyc5ha","1","18","15","20","","","","","","","","","","","","","","","",""
"null","
          <p id=""word"" style=""font-size: 40px;"">protsh</p>
          <p style=""font-size: 16px;"">J = YES &nbsp;&nbsp;&nbsp; F = NO</p>
        ","null","html-keyboard-response","239","2.1.0","2127424","J=YES, F=NO","r2glkyc5ha","1","18","15","20","","","","","","","","","protsh","gift1","pseudoword","pseudoword","f","false","",""
"null","<p style=""font-size: 50px;"">+</p>","null","html-keyboard-response","240","2.1.0","2127733","J=YES, F=NO","r2glkyc5ha","1","18","15","20","","","","","","","","","","","","","","","",""
"null","audio/beep-329314.mp3","null","audio-keyboard-response","241","2.1.0","2129263","J=YES, F=NO","r2glkyc5ha","1","18","15","20","","","","","","","","","","","","","","","",""
"null","audio/truth1.wav","null","audio-keyboard-response","242","2.1.0","2129822","J=YES, F=NO","r2glkyc5ha","1","18","15","20","","","","","","","","","","","","","","","",""
"1045","
          <p id=""word"" style=""font-size: 40px;"">calitom</p>
          <p style=""font-size: 16px;"">J = YES &nbsp;&nbsp;&nbsp; F = NO</p>
        ","f","html-keyboard-response","243","2.1.0","2130868","J=YES, F=NO","r2glkyc5ha","1","18","15","20","","","","","","","","","calitom","truth1","pseudoword","pseudoword","f","true","",""
"null","<p style=""font-size: 50px;"">+</p>","null","html-keyboard-response","244","2.1.0","2131171","J=YES, F=NO","r2glkyc5ha","1","18","15","20","","","","","","","","","","","","","","","",""
"null","audio/beep-329314.mp3","null","audio-keyboard-response","245","2.1.0","2132703","J=YES, F=NO","r2glkyc5ha","1","18","15","20","","","","","","","","","","","","","","","",""
"null","audio/heart1.wav","null","audio-keyboard-response","246","2.1.0","2133403","J=YES, F=NO","r2glkyc5ha","1","18","15","20","","","","","","","","","","","","","","","",""
"824","
          <p id=""word"" style=""font-size: 40px;"">dralm</p>
          <p style=""font-size: 16px;"">J = YES &nbsp;&nbsp;&nbsp; F = NO</p>
        ","f","html-keyboard-response","247","2.1.0","2134227","J=YES, F=NO","r2glkyc5ha","1","18","15","20","","","","","","","","","dralm","heart1","pseudoword","pseudoword","f","true","",""
"null","<p style=""font-size: 50px;"">+</p>","null","html-keyboard-response","248","2.1.0","2134536","J=YES, F=NO","r2glkyc5ha","1","18","15","20","","","","","","","","","","","","","","","",""
"null","audio/beep-329314.mp3","null","audio-keyboard-response","249","2.1.0","2136063","J=YES, F=NO","r2glkyc5ha","1","18","15","20","","","","","","","","","","","","","","","",""
"null","audio/purpose.wav","null","audio-keyboard-response","250","2.1.0","2136743","J=YES, F=NO","r2glkyc5ha","1","18","15","20","","","","","","","","","","","","","","","",""
"880","
          <p id=""word"" style=""font-size: 40px;"">defeat</p>
          <p style=""font-size: 16px;"">J = YES &nbsp;&nbsp;&nbsp; F = NO</p>
        ","j","html-keyboard-response","251","2.1.0","2137624","J=YES, F=NO","r2glkyc5ha","1","18","15","20","","","","","","","","","defeat","purpose","metaphor","experimental","j","true","",""
"null","<p style=""font-size: 50px;"">+</p>","null","html-keyboard-response","252","2.1.0","2137928","J=YES, F=NO","r2glkyc5ha","1","18","15","20","","","","","","","","","","","","","","","",""
"null","audio/beep-329314.mp3","null","audio-keyboard-response","253","2.1.0","2139462","J=YES, F=NO","r2glkyc5ha","1","18","15","20","","","","","","","","","","","","","","","",""
"null","audio/camera1.wav","null","audio-keyboard-response","254","2.1.0","2140122","J=YES, F=NO","r2glkyc5ha","1","18","15","20","","","","","","","","","","","","","","","",""
"796","
          <p id=""word"" style=""font-size: 40px;"">bring</p>
          <p style=""font-size: 16px;"">J = YES &nbsp;&nbsp;&nbsp; F = NO</p>
        ","j","html-keyboard-response","255","2.1.0","2140919","J=YES, F=NO","r2glkyc5ha","1","18","15","20","","","","","","","","","bring","camera1","literal","experimental","j","true","",""
"null","<p style=""font-size: 50px;"">+</p>","null","html-keyboard-response","256","2.1.0","2141229","J=YES, F=NO","r2glkyc5ha","1","18","15","20","","","","","","","","","","","","","","","",""
"null","audio/beep-329314.mp3","null","audio-keyboard-response","257","2.1.0","2142763","J=YES, F=NO","r2glkyc5ha","1","18","15","20","","","","","","","","","","","","","","","",""
"null","audio/winter.wav","null","audio-keyboard-response","258","2.1.0","2143403","J=YES, F=NO","r2glkyc5ha","1","18","15","20","","","","","","","","","","","","","","","",""
"1083","
          <p id=""word"" style=""font-size: 40px;"">straven</p>
          <p style=""font-size: 16px;"">J = YES &nbsp;&nbsp;&nbsp; F = NO</p>
        ","f","html-keyboard-response","259","2.1.0","2144486","J=YES, F=NO","r2glkyc5ha","1","18","15","20","","","","","","","","","straven","winter","pseudoword","pseudoword","f","true","",""
"null","<p style=""font-size: 50px;"">+</p>","null","html-keyboard-response","260","2.1.0","2144798","J=YES, F=NO","r2glkyc5ha","1","18","15","20","","","","","","","","","","","","","","","",""
"null","audio/beep-329314.mp3","null","audio-keyboard-response","261","2.1.0","2146323","J=YES, F=NO","r2glkyc5ha","1","18","15","20","","","","","","","","","","","","","","","",""
"null","audio/gift1.wav","null","audio-keyboard-response","262","2.1.0","2146802","J=YES, F=NO","r2glkyc5ha","1","18","15","20","","","","","","","","","","","","","","","",""
"689","
          <p id=""word"" style=""font-size: 40px;"">give</p>
          <p style=""font-size: 16px;"">J = YES &nbsp;&nbsp;&nbsp; F = NO</p>
        ","j","html-keyboard-response","263","2.1.0","2147492","J=YES, F=NO","r2glkyc5ha","1","18","15","20","","","","","","","","","give","gift1","literal","experimental","j","true","",""
"null","<p style=""font-size: 50px;"">+</p>","null","html-keyboard-response","264","2.1.0","2147802","J=YES, F=NO","r2glkyc5ha","1","18","15","20","","","","","","","","","","","","","","","",""
"null","audio/beep-329314.mp3","null","audio-keyboard-response","265","2.1.0","2149343","J=YES, F=NO","r2glkyc5ha","1","18","15","20","","","","","","","","","","","","","","","",""
"null","audio/cash1.wav","null","audio-keyboard-response","266","2.1.0","2149903","J=YES, F=NO","r2glkyc5ha","1","18","15","20","","","","","","","","","","","","","","","",""
"1017","
          <p id=""word"" style=""font-size: 40px;"">invest</p>
          <p style=""font-size: 16px;"">J = YES &nbsp;&nbsp;&nbsp; F = NO</p>
        ","j","html-keyboard-response","267","2.1.0","2150920","J=YES, F=NO","r2glkyc5ha","1","18","15","20","","","","","","","","","invest","cash1","literal","experimental","j","true","",""
"null","<p style=""font-size: 50px;"">+</p>","null","html-keyboard-response","268","2.1.0","2151227","J=YES, F=NO","r2glkyc5ha","1","18","15","20","","","","","","","","","","","","","","","",""
"null","audio/beep-329314.mp3","null","audio-keyboard-response","269","2.1.0","2152762","J=YES, F=NO","r2glkyc5ha","1","18","15","20","","","","","","","","","","","","","","","",""
"null","audio/devil1.wav","null","audio-keyboard-response","270","2.1.0","2153183","J=YES, F=NO","r2glkyc5ha","1","18","15","20","","","","","","","","","","","","","","","",""
"694","
          <p id=""word"" style=""font-size: 40px;"">carry</p>
          <p style=""font-size: 16px;"">J = YES &nbsp;&nbsp;&nbsp; F = NO</p>
        ","j","html-keyboard-response","271","2.1.0","2153877","J=YES, F=NO","r2glkyc5ha","1","18","15","20","","","","","","","","","carry","devil1","unrelated","experimental","j","true","",""
"null","<p style=""font-size: 50px;"">+</p>","null","html-keyboard-response","272","2.1.0","2154178","J=YES, F=NO","r2glkyc5ha","1","18","15","20","","","","","","","","","","","","","","","",""
"null","audio/beep-329314.mp3","null","audio-keyboard-response","273","2.1.0","2155703","J=YES, F=NO","r2glkyc5ha","1","18","15","20","","","","","","","","","","","","","","","",""
"null","audio/tax1.wav","null","audio-keyboard-response","274","2.1.0","2156383","J=YES, F=NO","r2glkyc5ha","1","18","15","20","","","","","","","","","","","","","","","",""
"1022","
          <p id=""word"" style=""font-size: 40px;"">scrap</p>
          <p style=""font-size: 16px;"">J = YES &nbsp;&nbsp;&nbsp; F = NO</p>
        ","j","html-keyboard-response","275","2.1.0","2157405","J=YES, F=NO","r2glkyc5ha","1","18","15","20","","","","","","","","","scrap","tax1","metaphor","experimental","j","true","",""
"null","<p style=""font-size: 50px;"">+</p>","null","html-keyboard-response","276","2.1.0","2157708","J=YES, F=NO","r2glkyc5ha","1","18","15","20","","","","","","","","","","","","","","","",""
"null","audio/beep-329314.mp3","null","audio-keyboard-response","277","2.1.0","2159243","J=YES, F=NO","r2glkyc5ha","1","18","15","20","","","","","","","","","","","","","","","",""
"null","audio/cinema1.wav","null","audio-keyboard-response","278","2.1.0","2159923","J=YES, F=NO","r2glkyc5ha","1","18","15","20","","","","","","","","","","","","","","","",""
"879","
          <p id=""word"" style=""font-size: 40px;"">murple</p>
          <p style=""font-size: 16px;"">J = YES &nbsp;&nbsp;&nbsp; F = NO</p>
        ","f","html-keyboard-response","279","2.1.0","2160802","J=YES, F=NO","r2glkyc5ha","1","18","15","20","","","","","","","","","murple","cinema1","pseudoword","pseudoword","f","true","",""
"null","<p style=""font-size: 50px;"">+</p>","null","html-keyboard-response","280","2.1.0","2161116","J=YES, F=NO","r2glkyc5ha","1","18","15","20","","","","","","","","","","","","","","","",""
"null","audio/beep-329314.mp3","null","audio-keyboard-response","281","2.1.0","2162643","J=YES, F=NO","r2glkyc5ha","1","18","15","20","","","","","","","","","","","","","","","",""
"null","audio/flaw.wav","null","audio-keyboard-response","282","2.1.0","2163442","J=YES, F=NO","r2glkyc5ha","1","18","15","20","","","","","","","","","","","","","","","",""
"1053","
          <p id=""word"" style=""font-size: 40px;"">hide</p>
          <p style=""font-size: 16px;"">J = YES &nbsp;&nbsp;&nbsp; F = NO</p>
        ","j","html-keyboard-response","283","2.1.0","2164496","J=YES, F=NO","r2glkyc5ha","1","18","15","20","","","","","","","","","hide","flaw","metaphor","experimental","j","true","",""
"null","<p style=""font-size: 50px;"">+</p>","null","html-keyboard-response","284","2.1.0","2164805","J=YES, F=NO","r2glkyc5ha","1","18","15","20","","","","","","","","","","","","","","","",""
"null","audio/beep-329314.mp3","null","audio-keyboard-response","285","2.1.0","2166343","J=YES, F=NO","r2glkyc5ha","1","18","15","20","","","","","","","","","","","","","","","",""
"null","audio/window1.wav","null","audio-keyboard-response","286","2.1.0","2167122","J=YES, F=NO","r2glkyc5ha","1","18","15","20","","","","","","","","","","","","","","","",""
"908","
          <p id=""word"" style=""font-size: 40px;"">break</p>
          <p style=""font-size: 16px;"">J = YES &nbsp;&nbsp;&nbsp; F = NO</p>
        ","j","html-keyboard-response","287","2.1.0","2168031","J=YES, F=NO","r2glkyc5ha","1","18","15","20","","","","","","","","","break","window1","literal","experimental","j","true","",""
"null","<p style=""font-size: 50px;"">+</p>","null","html-keyboard-response","288","2.1.0","2168344","J=YES, F=NO","r2glkyc5ha","1","18","15","20","","","","","","","","","","","","","","","",""
"null","audio/beep-329314.mp3","null","audio-keyboard-response","289","2.1.0","2169883","J=YES, F=NO","r2glkyc5ha","1","18","15","20","","","","","","","","","","","","","","","",""
"null","audio/holiday1.wav","null","audio-keyboard-response","290","2.1.0","2170522","J=YES, F=NO","r2glkyc5ha","1","18","15","20","","","","","","","","","","","","","","","",""
"1105","
          <p id=""word"" style=""font-size: 40px;"">drivets</p>
          <p style=""font-size: 16px;"">J = YES &nbsp;&nbsp;&nbsp; F = NO</p>
        ","f","html-keyboard-response","291","2.1.0","2171628","J=YES, F=NO","r2glkyc5ha","1","18","15","20","","","","","","","","","drivets","holiday1","pseudoword","pseudoword","f","true","",""
"null","<p style=""font-size: 50px;"">+</p>","null","html-keyboard-response","292","2.1.0","2171935","J=YES, F=NO","r2glkyc5ha","1","18","15","20","","","","","","","","","","","","","","","",""
"null","audio/beep-329314.mp3","null","audio-keyboard-response","293","2.1.0","2173462","J=YES, F=NO","r2glkyc5ha","1","18","15","20","","","","","","","","","","","","","","","",""
"null","audio/scar.wav","null","audio-keyboard-response","294","2.1.0","2174143","J=YES, F=NO","r2glkyc5ha","1","18","15","20","","","","","","","","","","","","","","","",""
"null","
          <p id=""word"" style=""font-size: 40px;"">adelineate</p>
          <p style=""font-size: 16px;"">J = YES &nbsp;&nbsp;&nbsp; F = NO</p>
        ","null","html-keyboard-response","295","2.1.0","2175645","J=YES, F=NO","r2glkyc5ha","1","18","15","20","","","","","","","","","adelineate","scar","pseudoword","pseudoword","f","false","",""
"115","<p>Excellent! You have finished block 2 of 8.</p>
                     <p>Feel free to take a 30 second break.</p>
                     <p>Press any key when you're ready to continue.</p>","f","html-keyboard-response","296","2.1.0","2175760","J=YES, F=NO","r2glkyc5ha","1","18","15","20","","","","","","","","","","","","","","","",""
"1213","<p>Starting main block 3 of 8. Press any key to continue.</p>","f","html-keyboard-response","297","2.1.0","2176974","J=YES, F=NO","r2glkyc5ha","1","18","15","20","","","","","","","","","","","","","","","",""
"null","<p style=""font-size: 50px;"">+</p>","null","html-keyboard-response","298","2.1.0","2177280","J=YES, F=NO","r2glkyc5ha","1","18","15","20","","","","","","","","","","","","","","","",""
"null","audio/beep-329314.mp3","null","audio-keyboard-response","299","2.1.0","2178803","J=YES, F=NO","r2glkyc5ha","1","18","15","20","","","","","","","","","","","","","","","",""
"null","audio/foot1.wav","null","audio-keyboard-response","300","2.1.0","2179423","J=YES, F=NO","r2glkyc5ha","1","18","15","20","","","","","","","","","","","","","","","",""
"1299","
          <p id=""word"" style=""font-size: 40px;"">close</p>
          <p style=""font-size: 16px;"">J = YES &nbsp;&nbsp;&nbsp; F = NO</p>
        ","j","html-keyboard-response","301","2.1.0","2180722","J=YES, F=NO","r2glkyc5ha","1","18","15","20","","","","","","","","","close","foot1","unrelated","experimental","j","true","",""
"null","<p style=""font-size: 50px;"">+</p>","null","html-keyboard-response","302","2.1.0","2181033","J=YES, F=NO","r2glkyc5ha","1","18","15","20","","","","","","","","","","","","","","","",""
"null","audio/beep-329314.mp3","null","audio-keyboard-response","303","2.1.0","2182562","J=YES, F=NO","r2glkyc5ha","1","18","15","20","","","","","","","","","","","","","","","",""
"null","audio/fortune1.wav","null","audio-keyboard-response","304","2.1.0","2183522","J=YES, F=NO","r2glkyc5ha","1","18","15","20","","","","","","","","","","","","","","","",""
"929","
          <p id=""word"" style=""font-size: 40px;"">spend</p>
          <p style=""font-size: 16px;"">J = YES &nbsp;&nbsp;&nbsp; F = NO</p>
        ","j","html-keyboard-response","305","2.1.0","2184452","J=YES, F=NO","r2glkyc5ha","1","18","15","20","","","","","","","","","spend","fortune1","literal","experimental","j","true","",""
"null","<p style=""font-size: 50px;"">+</p>","null","html-keyboard-response","306","2.1.0","2184754","J=YES, F=NO","r2glkyc5ha","1","18","15","20","","","","","","","","","","","","","","","",""
"null","audio/beep-329314.mp3","null","audio-keyboard-response","307","2.1.0","2186282","J=YES, F=NO","r2glkyc5ha","1","18","15","20","","","","","","","","","","","","","","","",""
"null","audio/pain1.wav","null","audio-keyboard-response","308","2.1.0","2186743","J=YES, F=NO","r2glkyc5ha","1","18","15","20","","","","","","","","","","","","","","","",""
"null","
          <p id=""word"" style=""font-size: 40px;"">tritted</p>
          <p style=""font-size: 16px;"">J = YES &nbsp;&nbsp;&nbsp; F = NO</p>
        ","null","html-keyboard-response","309","2.1.0","2188254","J=YES, F=NO","r2glkyc5ha","1","18","15","20","","","","","","","","","tritted","pain1","pseudoword","pseudoword","f","false","",""
"null","<p style=""font-size: 50px;"">+</p>","null","html-keyboard-response","310","2.1.0","2188563","J=YES, F=NO","r2glkyc5ha","1","18","15","20","","","","","","","","","","","","","","","",""
"null","audio/beep-329314.mp3","null","audio-keyboard-response","311","2.1.0","2190102","J=YES, F=NO","r2glkyc5ha","1","18","15","20","","","","","","","","","","","","","","","",""
"null","audio/pattern.wav","null","audio-keyboard-response","312","2.1.0","2190682","J=YES, F=NO","r2glkyc5ha","1","18","15","20","","","","","","","","","","","","","","","",""
"903","
          <p id=""word"" style=""font-size: 40px;"">tug</p>
          <p style=""font-size: 16px;"">J = YES &nbsp;&nbsp;&nbsp; F = NO</p>
        ","f","html-keyboard-response","313","2.1.0","2191586","J=YES, F=NO","r2glkyc5ha","1","18","15","20","","","","","","","","","tug","pattern","filler","filler","j","false","",""
"null","<p style=""font-size: 50px;"">+</p>","null","html-keyboard-response","314","2.1.0","2191895","J=YES, F=NO","r2glkyc5ha","1","18","15","20","","","","","","","","","","","","","","","",""
"null","audio/beep-329314.mp3","null","audio-keyboard-response","315","2.1.0","2193423","J=YES, F=NO","r2glkyc5ha","1","18","15","20","","","","","","","","","","","","","","","",""
"null","audio/sand.wav","null","audio-keyboard-response","316","2.1.0","2194283","J=YES, F=NO","r2glkyc5ha","1","18","15","20","","","","","","","","","","","","","","","",""
"944","
          <p id=""word"" style=""font-size: 40px;"">possess</p>
          <p style=""font-size: 16px;"">J = YES &nbsp;&nbsp;&nbsp; F = NO</p>
        ","f","html-keyboard-response","317","2.1.0","2195227","J=YES, F=NO","r2glkyc5ha","1","18","15","20","","","","","","","","","possess","sand","unrelated","experimental","j","false","",""
"null","<p style=""font-size: 50px;"">+</p>","null","html-keyboard-response","318","2.1.0","2195533","J=YES, F=NO","r2glkyc5ha","1","18","15","20","","","","","","","","","","","","","","","",""
"null","audio/beep-329314.mp3","null","audio-keyboard-response","319","2.1.0","2197063","J=YES, F=NO","r2glkyc5ha","1","18","15","20","","","","","","","","","","","","","","","",""
"null","audio/bottle.wav","null","audio-keyboard-response","320","2.1.0","2197583","J=YES, F=NO","r2glkyc5ha","1","18","15","20","","","","","","","","","","","","","","","",""
"1097","
          <p id=""word"" style=""font-size: 40px;"">watch</p>
          <p style=""font-size: 16px;"">J = YES &nbsp;&nbsp;&nbsp; F = NO</p>
        ","j","html-keyboard-response","321","2.1.0","2198681","J=YES, F=NO","r2glkyc5ha","1","18","15","20","","","","","","","","","watch","bottle","filler","filler","j","true","",""
"null","<p style=""font-size: 50px;"">+</p>","null","html-keyboard-response","322","2.1.0","2198991","J=YES, F=NO","r2glkyc5ha","1","18","15","20","","","","","","","","","","","","","","","",""
"null","audio/beep-329314.mp3","null","audio-keyboard-response","323","2.1.0","2200522","J=YES, F=NO","r2glkyc5ha","1","18","15","20","","","","","","","","","","","","","","","",""
"null","audio/church1.wav","null","audio-keyboard-response","324","2.1.0","2201362","J=YES, F=NO","r2glkyc5ha","1","18","15","20","","","","","","","","","","","","","","","",""
"822","
          <p id=""word"" style=""font-size: 40px;"">cover</p>
          <p style=""font-size: 16px;"">J = YES &nbsp;&nbsp;&nbsp; F = NO</p>
        ","j","html-keyboard-response","325","2.1.0","2202185","J=YES, F=NO","r2glkyc5ha","1","18","15","20","","","","","","","","","cover","church1","unrelated","experimental","j","true","",""
"null","<p style=""font-size: 50px;"">+</p>","null","html-keyboard-response","326","2.1.0","2202494","J=YES, F=NO","r2glkyc5ha","1","18","15","20","","","","","","","","","","","","","","","",""
"null","audio/beep-329314.mp3","null","audio-keyboard-response","327","2.1.0","2204023","J=YES, F=NO","r2glkyc5ha","1","18","15","20","","","","","","","","","","","","","","","",""
"null","audio/relief.wav","null","audio-keyboard-response","328","2.1.0","2204683","J=YES, F=NO","r2glkyc5ha","1","18","15","20","","","","","","","","","","","","","","","",""
"1199","
          <p id=""word"" style=""font-size: 40px;"">grigg</p>
          <p style=""font-size: 16px;"">J = YES &nbsp;&nbsp;&nbsp; F = NO</p>
        ","f","html-keyboard-response","329","2.1.0","2205883","J=YES, F=NO","r2glkyc5ha","1","18","15","20","","","","","","","","","grigg","relief","pseudoword","pseudoword","f","true","",""
"null","<p style=""font-size: 50px;"">+</p>","null","html-keyboard-response","330","2.1.0","2206190","J=YES, F=NO","r2glkyc5ha","1","18","15","20","","","","","","","","","","","","","","","",""
"null","audio/beep-329314.mp3","null","audio-keyboard-response","331","2.1.0","2207723","J=YES, F=NO","r2glkyc5ha","1","18","15","20","","","","","","","","","","","","","","","",""
"null","audio/cash1.wav","null","audio-keyboard-response","332","2.1.0","2208282","J=YES, F=NO","r2glkyc5ha","1","18","15","20","","","","","","","","","","","","","","","",""
"null","
          <p id=""word"" style=""font-size: 40px;"">splear</p>
          <p style=""font-size: 16px;"">J = YES &nbsp;&nbsp;&nbsp; F = NO</p>
        ","null","html-keyboard-response","333","2.1.0","2209796","J=YES, F=NO","r2glkyc5ha","1","18","15","20","","","","","","","","","splear","cash1","pseudoword","pseudoword","f","false","",""
"null","<p style=""font-size: 50px;"">+</p>","null","html-keyboard-response","334","2.1.0","2210108","J=YES, F=NO","r2glkyc5ha","1","18","15","20","","","","","","","","","","","","","","","",""
"null","audio/beep-329314.mp3","null","audio-keyboard-response","335","2.1.0","2211643","J=YES, F=NO","r2glkyc5ha","1","18","15","20","","","","","","","","","","","","","","","",""
"null","audio/plot1.wav","null","audio-keyboard-response","336","2.1.0","2212242","J=YES, F=NO","r2glkyc5ha","1","18","15","20","","","","","","","","","","","","","","","",""
"919","
          <p id=""word"" style=""font-size: 40px;"">glenter</p>
          <p style=""font-size: 16px;"">J = YES &nbsp;&nbsp;&nbsp; F = NO</p>
        ","f","html-keyboard-response","337","2.1.0","2213162","J=YES, F=NO","r2glkyc5ha","1","18","15","20","","","","","","","","","glenter","plot1","pseudoword","pseudoword","f","true","",""
"null","<p style=""font-size: 50px;"">+</p>","null","html-keyboard-response","338","2.1.0","2213476","J=YES, F=NO","r2glkyc5ha","1","18","15","20","","","","","","","","","","","","","","","",""
"null","audio/beep-329314.mp3","null","audio-keyboard-response","339","2.1.0","2215003","J=YES, F=NO","r2glkyc5ha","1","18","15","20","","","","","","","","","","","","","","","",""
"null","audio/voice.wav","null","audio-keyboard-response","340","2.1.0","2215683","J=YES, F=NO","r2glkyc5ha","1","18","15","20","","","","","","","","","","","","","","","",""
"1165","
          <p id=""word"" style=""font-size: 40px;"">grintle</p>
          <p style=""font-size: 16px;"">J = YES &nbsp;&nbsp;&nbsp; F = NO</p>
        ","f","html-keyboard-response","341","2.1.0","2216849","J=YES, F=NO","r2glkyc5ha","1","18","15","20","","","","","","","","","grintle","voice","pseudoword","pseudoword","f","true","",""
"null","<p style=""font-size: 50px;"">+</p>","null","html-keyboard-response","342","2.1.0","2217158","J=YES, F=NO","r2glkyc5ha","1","18","15","20","","","","","","","","","","","","","","","",""
"null","audio/beep-329314.mp3","null","audio-keyboard-response","343","2.1.0","2218682","J=YES, F=NO","r2glkyc5ha","1","18","15","20","","","","","","","","","","","","","","","",""
"null","audio/show.wav","null","audio-keyboard-response","344","2.1.0","2219383","J=YES, F=NO","r2glkyc5ha","1","18","15","20","","","","","","","","","","","","","","","",""
"681","
          <p id=""word"" style=""font-size: 40px;"">hold</p>
          <p style=""font-size: 16px;"">J = YES &nbsp;&nbsp;&nbsp; F = NO</p>
        ","j","html-keyboard-response","345","2.1.0","2220064","J=YES, F=NO","r2glkyc5ha","1","18","15","20","","","","","","","","","hold","show","metaphor","experimental","j","true","",""
"null","<p style=""font-size: 50px;"">+</p>","null","html-keyboard-response","346","2.1.0","2220376","J=YES, F=NO","r2glkyc5ha","1","18","15","20","","","","","","","","","","","","","","","",""
"null","audio/beep-329314.mp3","null","audio-keyboard-response","347","2.1.0","2221903","J=YES, F=NO","r2glkyc5ha","1","18","15","20","","","","","","","","","","","","","","","",""
"null","audio/butter1.wav","null","audio-keyboard-response","348","2.1.0","2222423","J=YES, F=NO","r2glkyc5ha","1","18","15","20","","","","","","","","","","","","","","","",""
"693","
          <p id=""word"" style=""font-size: 40px;"">chew</p>
          <p style=""font-size: 16px;"">J = YES &nbsp;&nbsp;&nbsp; F = NO</p>
        ","j","html-keyboard-response","349","2.1.0","2223116","J=YES, F=NO","r2glkyc5ha","1","18","15","20","","","","","","","","","chew","butter1","filler","filler","j","true","",""
"null","<p style=""font-size: 50px;"">+</p>","null","html-keyboard-response","350","2.1.0","2223417","J=YES, F=NO","r2glkyc5ha","1","18","15","20","","","","","","","","","","","","","","","",""
"null","audio/beep-329314.mp3","null","audio-keyboard-response","351","2.1.0","2224942","J=YES, F=NO","r2glkyc5ha","1","18","15","20","","","","","","","","","","","","","","","",""
"null","audio/breath.wav","null","audio-keyboard-response","352","2.1.0","2225502","J=YES, F=NO","r2glkyc5ha","1","18","15","20","","","","","","","","","","","","","","","",""
"713","
          <p id=""word"" style=""font-size: 40px;"">pack</p>
          <p style=""font-size: 16px;"">J = YES &nbsp;&nbsp;&nbsp; F = NO</p>
        ","j","html-keyboard-response","353","2.1.0","2226216","J=YES, F=NO","r2glkyc5ha","1","18","15","20","","","","","","","","","pack","breath","filler","filler","j","true","",""
"null","<p style=""font-size: 50px;"">+</p>","null","html-keyboard-response","354","2.1.0","2226525","J=YES, F=NO","r2glkyc5ha","1","18","15","20","","","","","","","","","","","","","","","",""
"null","audio/beep-329314.mp3","null","audio-keyboard-response","355","2.1.0","2228063","J=YES, F=NO","r2glkyc5ha","1","18","15","20","","","","","","","","","","","","","","","",""
"null","audio/kettle1.wav","null","audio-keyboard-response","356","2.1.0","2228543","J=YES, F=NO","r2glkyc5ha","1","18","15","20","","","","","","","","","","","","","","","",""
"944","
          <p id=""word"" style=""font-size: 40px;"">navigate</p>
          <p style=""font-size: 16px;"">J = YES &nbsp;&nbsp;&nbsp; F = NO</p>
        ","j","html-keyboard-response","357","2.1.0","2229487","J=YES, F=NO","r2glkyc5ha","1","18","15","20","","","","","","","","","navigate","kettle1","unrelated","experimental","j","true","",""
"null","<p style=""font-size: 50px;"">+</p>","null","html-keyboard-response","358","2.1.0","2229791","J=YES, F=NO","r2glkyc5ha","1","18","15","20","","","","","","","","","","","","","","","",""
"null","audio/beep-329314.mp3","null","audio-keyboard-response","359","2.1.0","2231322","J=YES, F=NO","r2glkyc5ha","1","18","15","20","","","","","","","","","","","","","","","",""
"null","audio/belief.wav","null","audio-keyboard-response","360","2.1.0","2231963","J=YES, F=NO","r2glkyc5ha","1","18","15","20","","","","","","","","","","","","","","","",""
"726","
          <p id=""word"" style=""font-size: 40px;"">share</p>
          <p style=""font-size: 16px;"">J = YES &nbsp;&nbsp;&nbsp; F = NO</p>
        ","j","html-keyboard-response","361","2.1.0","2232689","J=YES, F=NO","r2glkyc5ha","1","18","15","20","","","","","","","","","share","belief","metaphor","experimental","j","true","",""
"1540","<p>Excellent! You have finished block 3 of 8.</p>
                     <p>Feel free to take a 30 second break.</p>
                     <p>Press any key when you're ready to continue.</p>","j","html-keyboard-response","362","2.1.0","2234231","J=YES, F=NO","r2glkyc5ha","1","18","15","20","","","","","","","","","","","","","","","",""
"308","<p>Starting main block 4 of 8. Press any key to continue.</p>","j","html-keyboard-response","363","2.1.0","2234539","J=YES, F=NO","r2glkyc5ha","1","18","15","20","","","","","","","","","","","","","","","",""
"null","<p style=""font-size: 50px;"">+</p>","null","html-keyboard-response","364","2.1.0","2234854","J=YES, F=NO","r2glkyc5ha","1","18","15","20","","","","","","","","","","","","","","","",""
"null","audio/beep-329314.mp3","null","audio-keyboard-response","365","2.1.0","2236382","J=YES, F=NO","r2glkyc5ha","1","18","15","20","","","","","","","","","","","","","","","",""
"null","audio/cloud1.wav","null","audio-keyboard-response","366","2.1.0","2237003","J=YES, F=NO","r2glkyc5ha","1","18","15","20","","","","","","","","","","","","","","","",""
"951","
          <p id=""word"" style=""font-size: 40px;"">brotant</p>
          <p style=""font-size: 16px;"">J = YES &nbsp;&nbsp;&nbsp; F = NO</p>
        ","f","html-keyboard-response","367","2.1.0","2237955","J=YES, F=NO","r2glkyc5ha","1","18","15","20","","","","","","","","","brotant","cloud1","pseudoword","pseudoword","f","true","",""
"null","<p style=""font-size: 50px;"">+</p>","null","html-keyboard-response","368","2.1.0","2238265","J=YES, F=NO","r2glkyc5ha","1","18","15","20","","","","","","","","","","","","","","","",""
"null","audio/beep-329314.mp3","null","audio-keyboard-response","369","2.1.0","2239803","J=YES, F=NO","r2glkyc5ha","1","18","15","20","","","","","","","","","","","","","","","",""
"null","audio/gossip1.wav","null","audio-keyboard-response","370","2.1.0","2240442","J=YES, F=NO","r2glkyc5ha","1","18","15","20","","","","","","","","","","","","","","","",""
"884","
          <p id=""word"" style=""font-size: 40px;"">camerish</p>
          <p style=""font-size: 16px;"">J = YES &nbsp;&nbsp;&nbsp; F = NO</p>
        ","f","html-keyboard-response","371","2.1.0","2241327","J=YES, F=NO","r2glkyc5ha","1","18","15","20","","","","","","","","","camerish","gossip1","pseudoword","pseudoword","f","true","",""
"null","<p style=""font-size: 50px;"">+</p>","null","html-keyboard-response","372","2.1.0","2241640","J=YES, F=NO","r2glkyc5ha","1","18","15","20","","","","","","","","","","","","","","","",""
"null","audio/beep-329314.mp3","null","audio-keyboard-response","373","2.1.0","2243163","J=YES, F=NO","r2glkyc5ha","1","18","15","20","","","","","","","","","","","","","","","",""
"null","audio/size1.wav","null","audio-keyboard-response","374","2.1.0","2244082","J=YES, F=NO","r2glkyc5ha","1","18","15","20","","","","","","","","","","","","","","","",""
"704","
          <p id=""word"" style=""font-size: 40px;"">clear</p>
          <p style=""font-size: 16px;"">J = YES &nbsp;&nbsp;&nbsp; F = NO</p>
        ","j","html-keyboard-response","375","2.1.0","2244787","J=YES, F=NO","r2glkyc5ha","1","18","15","20","","","","","","","","","clear","size1","unrelated","experimental","j","true","",""
"null","<p style=""font-size: 50px;"">+</p>","null","html-keyboard-response","376","2.1.0","2245095","J=YES, F=NO","r2glkyc5ha","1","18","15","20","","","","","","","","","","","","","","","",""
"null","audio/beep-329314.mp3","null","audio-keyboard-response","377","2.1.0","2246623","J=YES, F=NO","r2glkyc5ha","1","18","15","20","","","","","","","","","","","","","","","",""
"null","audio/haste1.wav","null","audio-keyboard-response","378","2.1.0","2247243","J=YES, F=NO","r2glkyc5ha","1","18","15","20","","","","","","","","","","","","","","","",""
"1040","
          <p id=""word"" style=""font-size: 40px;"">coraconate</p>
          <p style=""font-size: 16px;"">J = YES &nbsp;&nbsp;&nbsp; F = NO</p>
        ","f","html-keyboard-response","379","2.1.0","2248284","J=YES, F=NO","r2glkyc5ha","1","18","15","20","","","","","","","","","coraconate","haste1","pseudoword","pseudoword","f","true","",""
"null","<p style=""font-size: 50px;"">+</p>","null","html-keyboard-response","380","2.1.0","2248597","J=YES, F=NO","r2glkyc5ha","1","18","15","20","","","","","","","","","","","","","","","",""
"null","audio/beep-329314.mp3","null","audio-keyboard-response","381","2.1.0","2250123","J=YES, F=NO","r2glkyc5ha","1","18","15","20","","","","","","","","","","","","","","","",""
"null","audio/vehicle1.wav","null","audio-keyboard-response","382","2.1.0","2250783","J=YES, F=NO","r2glkyc5ha","1","18","15","20","","","","","","","","","","","","","","","",""
"928","
          <p id=""word"" style=""font-size: 40px;"">approach</p>
          <p style=""font-size: 16px;"">J = YES &nbsp;&nbsp;&nbsp; F = NO</p>
        ","j","html-keyboard-response","383","2.1.0","2251712","J=YES, F=NO","r2glkyc5ha","1","18","15","20","","","","","","","","","approach","vehicle1","literal","experimental","j","true","",""
"null","<p style=""font-size: 50px;"">+</p>","null","html-keyboard-response","384","2.1.0","2252018","J=YES, F=NO","r2glkyc5ha","1","18","15","20","","","","","","","","","","","","","","","",""
"null","audio/beep-329314.mp3","null","audio-keyboard-response","385","2.1.0","2253543","J=YES, F=NO","r2glkyc5ha","1","18","15","20","","","","","","","","","","","","","","","",""
"null","audio/brain.wav","null","audio-keyboard-response","386","2.1.0","2254243","J=YES, F=NO","r2glkyc5ha","1","18","15","20","","","","","","","","","","","","","","","",""
"872","
          <p id=""word"" style=""font-size: 40px;"">throw</p>
          <p style=""font-size: 16px;"">J = YES &nbsp;&nbsp;&nbsp; F = NO</p>
        ","j","html-keyboard-response","387","2.1.0","2255116","J=YES, F=NO","r2glkyc5ha","1","18","15","20","","","","","","","","","throw","brain","filler","filler","j","true","",""
"null","<p style=""font-size: 50px;"">+</p>","null","html-keyboard-response","388","2.1.0","2255425","J=YES, F=NO","r2glkyc5ha","1","18","15","20","","","","","","","","","","","","","","","",""
