"rt","stimulus","response","trial_type","trial_index","plugin_version","time_elapsed","response_mapping","subject_id","list_index","lextale_score","lextale_word_score","lextale_nonword_score","success","timeout","failed_images","failed_audio","failed_video","task","isWord","isDummy","target","prime","prime_type","stimulus_type","correct_response","correct","section","question_order"
"21384","
    <div style=""max-width: 800px; margin: auto; text-align: left;"">
      <h2>STANFORD UNIVERSITY</h2>
      <h3>Research Information Sheet</h3>
      <p><strong>Protocol Director:</strong> Robert Hawkins<br>
      <strong>Protocol Title:</strong> Communication and social cognition in natural audiovisual contexts<br>
      <strong>IRB#:</strong> 77226</p>

      <p><strong>DESCRIPTION:</strong> You are invited to participate in a research study about language and communication. The purpose of the research is to understand how you interact and communicate with other people in naturalistic settings as a fluent English speaker. This research will be conducted through the Prolific platform, including participants from the US, UK, and Canada. If you decide to participate in this research, you will play a communication game in a group with one or more partners.</p>

      <p><strong>TIME INVOLVEMENT:</strong> The task will last the amount of time advertised on Prolific. You are free to withdraw from the study at any time.</p>

      <p><strong>RISKS AND BENEFITS:</strong> You may become frustrated if your partner gets distracted, or experience discomfort if other participants in your group send text that is inappropriate for the task. We ask you to please be respectful of other participants you might be interacting with to mitigate these risks. You may also experience discomfort when being asked to discuss or challenge emotionally salient political beliefs. Study data will be stored securely, in compliance with Stanford University standards, minimizing the risk of confidentiality breach. This study advances our scientific understanding of how people communicate and collaborate in naturalistic settings. This study may lead to further insights about what can go wrong in teamwork, suggest potential interventions to overcome these barriers, and help to develop assistive technologies that collaborate with human partners. We cannot and do not guarantee or promise that you will receive any benefits from this study.</p>

      <p><strong>PAYMENTS:</strong> You will receive payment in the amount advertised on Prolific. If you do not complete this study, you will receive prorated payment based on the time that you have spent. Additionally, you may be eligible for bonus payments as described in the instructions.</p>

      <p><strong>PARTICIPANT’S RIGHTS:</strong> If you have read this form and have decided to participate in this project, please understand your participation is voluntary and you have the right to withdraw your consent or discontinue participation at any time without penalty or loss of benefits to which you are otherwise entitled. The alternative is not to participate. You have the right to refuse to answer particular questions. The results of this research study may be presented at scientific or professional meetings or published in scientific journals. Your individual privacy will be maintained in all published and written data resulting from the study. In accordance with scientific norms, the data from this study may be used or shared with other researchers for future research (after removing personally identifying information) without additional consent from you.</p>

      <p><strong>CONTACT INFORMATION:</strong><br>
      Questions: If you have any questions, concerns or complaints about this research, its procedures, risks and benefits, contact the Protocol Director, Robert Hawkins (<a href=""mailto:rdhawkins@stanford.edu"">rdhawkins@stanford.edu</a>, 217-549-6923).<br>
      Independent Contact: If you are not satisfied with how this study is being conducted, or if you have any concerns, complaints, or general questions about the research or your rights as a participant, please contact the Stanford Institutional Review Board (IRB) to speak to someone independent of the research team at 650-723-2480 or toll free at 1-866-680-2906, or email at <a href=""mailto:irbnon-med@stanford.edu"">irbnon-med@stanford.edu</a>. You can also write to the Stanford IRB, Stanford University, 1705 El Camino Real, Palo Alto, CA 94306.</p>

      <p><strong>Please save or print a copy of this page for your records.</strong></p>
      <p>If you agree to participate in this research, click ""Continue"" below.</p>
    </div>
  ","0","html-button-response","0","2.1.0","21392","F=YES, J=NO","rj0s688dlf","1","64","68","60","","","","","","","","","","","","","","","",""
"12078","
    <div style=""max-width: 800px; margin: auto; text-align: left;"">
      <h2>Welcome!</h2>
      <p>Thank you for participating in this study. The experiment consists of three parts:</p>
      <ol>
        <li>An English vocabulary test</li>
        <li>A main task in which you will hear and see words, and decide whether the written word is a real English word</li>
        <li>A brief survey about your background</li>
      </ol>
      <p>Each part will be introduced before it begins.</p>
      <p>Please make sure you are in a quiet environment and can hear audio clearly for the final task.</p>
      <p style=""margin-top: 2em;"">Press any key to begin.</p>
    </div>
  "," ","html-keyboard-response","1","2.1.0","33473","F=YES, J=NO","rj0s688dlf","1","64","68","60","","","","","","","","","","","","","","","",""
"","","","preload","2","2.1.0","34588","F=YES, J=NO","rj0s688dlf","1","64","68","60","true","false","[]","[]","[]","","","","","","","","","","",""
"5724","
    <div style=""max-width: 800px; margin: auto; text-align: left;"">
      <h2>Part 1: Vocabulary Test</h2>
      <p>You will now complete the first part of the study: a short English vocabulary test.</p>
      <p>This test is called <strong>LexTALE</strong> and helps us get a general sense of your English proficiency.</p>
      <p style=""margin-top: 2em;"">Press any key to continue.</p>
    </div>
  "," ","html-keyboard-response","3","2.1.0","40313","F=YES, J=NO","rj0s688dlf","1","64","68","60","","","","","","","","","","","","","","","",""
"11192","
    <div style=""max-width: 800px; margin: auto; text-align: left;"">
      <h2>LexTALE Vocabulary Test</h2>
      <p>In this test, you will see a series of letter strings—one at a time.</p>
      <p>Your task is to decide whether each string is a real English word.</p>
      <p><strong>Key responses:</strong></p>
      <ul>
        <li><strong>F</strong> = YES (real English word)</li>
        <li><strong>J</strong> = NO (not a real English word)</li>
      </ul>
      <p>There is no time limit, but please try to be accurate.</p>
      <p style=""margin-top: 2em;"">Press any key to begin.</p>
    </div>
  "," ","html-keyboard-response","4","2.1.0","51506","F=YES, J=NO","rj0s688dlf","1","64","68","60","","","","","","","","","","","","","","","",""
"3494","
  <p style=""font-size: 40px;"">platery</p>
  <p style=""font-size: 16px;"">F = YES &nbsp;&nbsp;&nbsp; J = NO</p>
","f","html-keyboard-response","5","2.1.0","55002","F=YES, J=NO","rj0s688dlf","1","64","68","60","","","","","","lextale","false","true","","","","","","","",""
"949","
  <p style=""font-size: 40px;"">denial</p>
  <p style=""font-size: 16px;"">F = YES &nbsp;&nbsp;&nbsp; J = NO</p>
","f","html-keyboard-response","6","2.1.0","55952","F=YES, J=NO","rj0s688dlf","1","64","68","60","","","","","","lextale","true","true","","","","","","","",""
"1393","
  <p style=""font-size: 40px;"">marrit</p>
  <p style=""font-size: 16px;"">F = YES &nbsp;&nbsp;&nbsp; J = NO</p>
","j","html-keyboard-response","7","2.1.0","57346","F=YES, J=NO","rj0s688dlf","1","64","68","60","","","","","","lextale","false","true","","","","","","","",""
"3613","
  <p style=""font-size: 40px;"">bottle</p>
  <p style=""font-size: 16px;"">F = YES &nbsp;&nbsp;&nbsp; J = NO</p>
","f","html-keyboard-response","8","2.1.0","60961","F=YES, J=NO","rj0s688dlf","1","64","68","60","","","","","","lextale","true","false","","","","","","","",""
"1481","
  <p style=""font-size: 40px;"">birst</p>
  <p style=""font-size: 16px;"">F = YES &nbsp;&nbsp;&nbsp; J = NO</p>
","j","html-keyboard-response","9","2.1.0","62443","F=YES, J=NO","rj0s688dlf","1","64","68","60","","","","","","lextale","false","false","","","","","","","",""
"820","
  <p style=""font-size: 40px;"">envy</p>
  <p style=""font-size: 16px;"">F = YES &nbsp;&nbsp;&nbsp; J = NO</p>
","f","html-keyboard-response","10","2.1.0","63264","F=YES, J=NO","rj0s688dlf","1","64","68","60","","","","","","lextale","true","false","","","","","","","",""
"1063","
  <p style=""font-size: 40px;"">brang</p>
  <p style=""font-size: 16px;"">F = YES &nbsp;&nbsp;&nbsp; J = NO</p>
","j","html-keyboard-response","11","2.1.0","64328","F=YES, J=NO","rj0s688dlf","1","64","68","60","","","","","","lextale","false","false","","","","","","","",""
"774","
  <p style=""font-size: 40px;"">huge</p>
  <p style=""font-size: 16px;"">F = YES &nbsp;&nbsp;&nbsp; J = NO</p>
","f","html-keyboard-response","12","2.1.0","65103","F=YES, J=NO","rj0s688dlf","1","64","68","60","","","","","","lextale","true","false","","","","","","","",""
"1304","
  <p style=""font-size: 40px;"">plove</p>
  <p style=""font-size: 16px;"">F = YES &nbsp;&nbsp;&nbsp; J = NO</p>
","j","html-keyboard-response","13","2.1.0","66408","F=YES, J=NO","rj0s688dlf","1","64","68","60","","","","","","lextale","false","false","","","","","","","",""
"768","
  <p style=""font-size: 40px;"">border</p>
  <p style=""font-size: 16px;"">F = YES &nbsp;&nbsp;&nbsp; J = NO</p>
","f","html-keyboard-response","14","2.1.0","67177","F=YES, J=NO","rj0s688dlf","1","64","68","60","","","","","","lextale","true","false","","","","","","","",""
"1183","
  <p style=""font-size: 40px;"">flimsy</p>
  <p style=""font-size: 16px;"">F = YES &nbsp;&nbsp;&nbsp; J = NO</p>
","j","html-keyboard-response","15","2.1.0","68360","F=YES, J=NO","rj0s688dlf","1","64","68","60","","","","","","lextale","true","false","","","","","","","",""
"711","
  <p style=""font-size: 40px;"">drain</p>
  <p style=""font-size: 16px;"">F = YES &nbsp;&nbsp;&nbsp; J = NO</p>
","f","html-keyboard-response","16","2.1.0","69072","F=YES, J=NO","rj0s688dlf","1","64","68","60","","","","","","lextale","true","false","","","","","","","",""
"784","
  <p style=""font-size: 40px;"">twindle</p>
  <p style=""font-size: 16px;"">F = YES &nbsp;&nbsp;&nbsp; J = NO</p>
","f","html-keyboard-response","17","2.1.0","69857","F=YES, J=NO","rj0s688dlf","1","64","68","60","","","","","","lextale","false","false","","","","","","","",""
"613","
  <p style=""font-size: 40px;"">propose</p>
  <p style=""font-size: 16px;"">F = YES &nbsp;&nbsp;&nbsp; J = NO</p>
","f","html-keyboard-response","18","2.1.0","70472","F=YES, J=NO","rj0s688dlf","1","64","68","60","","","","","","lextale","true","false","","","","","","","",""
"4610","
  <p style=""font-size: 40px;"">forlay</p>
  <p style=""font-size: 16px;"">F = YES &nbsp;&nbsp;&nbsp; J = NO</p>
","j","html-keyboard-response","19","2.1.0","75083","F=YES, J=NO","rj0s688dlf","1","64","68","60","","","","","","lextale","false","false","","","","","","","",""
"716","
  <p style=""font-size: 40px;"">tenant</p>
  <p style=""font-size: 16px;"">F = YES &nbsp;&nbsp;&nbsp; J = NO</p>
","f","html-keyboard-response","20","2.1.0","75800","F=YES, J=NO","rj0s688dlf","1","64","68","60","","","","","","lextale","true","false","","","","","","","",""
"487","
  <p style=""font-size: 40px;"">strain</p>
  <p style=""font-size: 16px;"">F = YES &nbsp;&nbsp;&nbsp; J = NO</p>
","f","html-keyboard-response","21","2.1.0","76289","F=YES, J=NO","rj0s688dlf","1","64","68","60","","","","","","lextale","true","false","","","","","","","",""
"2502","
  <p style=""font-size: 40px;"">holster</p>
  <p style=""font-size: 16px;"">F = YES &nbsp;&nbsp;&nbsp; J = NO</p>
","f","html-keyboard-response","22","2.1.0","78792","F=YES, J=NO","rj0s688dlf","1","64","68","60","","","","","","lextale","true","false","","","","","","","",""
"583","
  <p style=""font-size: 40px;"">hinder</p>
  <p style=""font-size: 16px;"">F = YES &nbsp;&nbsp;&nbsp; J = NO</p>
","f","html-keyboard-response","23","2.1.0","79375","F=YES, J=NO","rj0s688dlf","1","64","68","60","","","","","","lextale","true","false","","","","","","","",""
"552","
  <p style=""font-size: 40px;"">swindle</p>
  <p style=""font-size: 16px;"">F = YES &nbsp;&nbsp;&nbsp; J = NO</p>
","f","html-keyboard-response","24","2.1.0","79928","F=YES, J=NO","rj0s688dlf","1","64","68","60","","","","","","lextale","true","false","","","","","","","",""
"614","
  <p style=""font-size: 40px;"">nuder</p>
  <p style=""font-size: 16px;"">F = YES &nbsp;&nbsp;&nbsp; J = NO</p>
","f","html-keyboard-response","25","2.1.0","80543","F=YES, J=NO","rj0s688dlf","1","64","68","60","","","","","","lextale","false","false","","","","","","","",""
"1072","
  <p style=""font-size: 40px;"">pillow</p>
  <p style=""font-size: 16px;"">F = YES &nbsp;&nbsp;&nbsp; J = NO</p>
","j","html-keyboard-response","26","2.1.0","81616","F=YES, J=NO","rj0s688dlf","1","64","68","60","","","","","","lextale","true","false","","","","","","","",""
"4083","
  <p style=""font-size: 40px;"">shumble</p>
  <p style=""font-size: 16px;"">F = YES &nbsp;&nbsp;&nbsp; J = NO</p>
","j","html-keyboard-response","27","2.1.0","85699","F=YES, J=NO","rj0s688dlf","1","64","68","60","","","","","","lextale","false","false","","","","","","","",""
"653","
  <p style=""font-size: 40px;"">thirst</p>
  <p style=""font-size: 16px;"">F = YES &nbsp;&nbsp;&nbsp; J = NO</p>
","f","html-keyboard-response","28","2.1.0","86352","F=YES, J=NO","rj0s688dlf","1","64","68","60","","","","","","lextale","true","false","","","","","","","",""
"2801","
  <p style=""font-size: 40px;"">unsail</p>
  <p style=""font-size: 16px;"">F = YES &nbsp;&nbsp;&nbsp; J = NO</p>
","j","html-keyboard-response","29","2.1.0","89154","F=YES, J=NO","rj0s688dlf","1","64","68","60","","","","","","lextale","false","false","","","","","","","",""
"645","
  <p style=""font-size: 40px;"">rifle</p>
  <p style=""font-size: 16px;"">F = YES &nbsp;&nbsp;&nbsp; J = NO</p>
","f","html-keyboard-response","30","2.1.0","89800","F=YES, J=NO","rj0s688dlf","1","64","68","60","","","","","","lextale","true","false","","","","","","","",""
"1878","
  <p style=""font-size: 40px;"">mush</p>
  <p style=""font-size: 16px;"">F = YES &nbsp;&nbsp;&nbsp; J = NO</p>
","j","html-keyboard-response","31","2.1.0","91679","F=YES, J=NO","rj0s688dlf","1","64","68","60","","","","","","lextale","false","false","","","","","","","",""
"800","
  <p style=""font-size: 40px;"">drench</p>
  <p style=""font-size: 16px;"">F = YES &nbsp;&nbsp;&nbsp; J = NO</p>
","f","html-keyboard-response","32","2.1.0","92480","F=YES, J=NO","rj0s688dlf","1","64","68","60","","","","","","lextale","true","false","","","","","","","",""
"1799","
  <p style=""font-size: 40px;"">snirt</p>
  <p style=""font-size: 16px;"">F = YES &nbsp;&nbsp;&nbsp; J = NO</p>
","j","html-keyboard-response","33","2.1.0","94280","F=YES, J=NO","rj0s688dlf","1","64","68","60","","","","","","lextale","false","false","","","","","","","",""
"631","
  <p style=""font-size: 40px;"">bitter</p>
  <p style=""font-size: 16px;"">F = YES &nbsp;&nbsp;&nbsp; J = NO</p>
","f","html-keyboard-response","34","2.1.0","94912","F=YES, J=NO","rj0s688dlf","1","64","68","60","","","","","","lextale","true","false","","","","","","","",""
"1657","
  <p style=""font-size: 40px;"">pliff</p>
  <p style=""font-size: 16px;"">F = YES &nbsp;&nbsp;&nbsp; J = NO</p>
","j","html-keyboard-response","35","2.1.0","96571","F=YES, J=NO","rj0s688dlf","1","64","68","60","","","","","","lextale","false","false","","","","","","","",""
"2780","
  <p style=""font-size: 40px;"">tablet</p>
  <p style=""font-size: 16px;"">F = YES &nbsp;&nbsp;&nbsp; J = NO</p>
","f","html-keyboard-response","36","2.1.0","99352","F=YES, J=NO","rj0s688dlf","1","64","68","60","","","","","","lextale","true","false","","","","","","","",""
"1182","
  <p style=""font-size: 40px;"">glimmer</p>
  <p style=""font-size: 16px;"">F = YES &nbsp;&nbsp;&nbsp; J = NO</p>
","f","html-keyboard-response","37","2.1.0","100535","F=YES, J=NO","rj0s688dlf","1","64","68","60","","","","","","lextale","true","false","","","","","","","",""
"2471","
  <p style=""font-size: 40px;"">slink</p>
  <p style=""font-size: 16px;"">F = YES &nbsp;&nbsp;&nbsp; J = NO</p>
","j","html-keyboard-response","38","2.1.0","103008","F=YES, J=NO","rj0s688dlf","1","64","68","60","","","","","","lextale","true","false","","","","","","","",""
"623","
  <p style=""font-size: 40px;"">clever</p>
  <p style=""font-size: 16px;"">F = YES &nbsp;&nbsp;&nbsp; J = NO</p>
","f","html-keyboard-response","39","2.1.0","103632","F=YES, J=NO","rj0s688dlf","1","64","68","60","","","","","","lextale","true","false","","","","","","","",""
"1199","
  <p style=""font-size: 40px;"">grum</p>
  <p style=""font-size: 16px;"">F = YES &nbsp;&nbsp;&nbsp; J = NO</p>
","j","html-keyboard-response","40","2.1.0","104832","F=YES, J=NO","rj0s688dlf","1","64","68","60","","","","","","lextale","false","false","","","","","","","",""
"783","
  <p style=""font-size: 40px;"">string</p>
  <p style=""font-size: 16px;"">F = YES &nbsp;&nbsp;&nbsp; J = NO</p>
","f","html-keyboard-response","41","2.1.0","105616","F=YES, J=NO","rj0s688dlf","1","64","68","60","","","","","","lextale","true","false","","","","","","","",""
"1418","
  <p style=""font-size: 40px;"">plim</p>
  <p style=""font-size: 16px;"">F = YES &nbsp;&nbsp;&nbsp; J = NO</p>
","j","html-keyboard-response","42","2.1.0","107035","F=YES, J=NO","rj0s688dlf","1","64","68","60","","","","","","lextale","false","false","","","","","","","",""
"733","
  <p style=""font-size: 40px;"">cable</p>
  <p style=""font-size: 16px;"">F = YES &nbsp;&nbsp;&nbsp; J = NO</p>
","f","html-keyboard-response","43","2.1.0","107768","F=YES, J=NO","rj0s688dlf","1","64","68","60","","","","","","lextale","true","false","","","","","","","",""
"2871","
  <p style=""font-size: 40px;"">shrivel</p>
  <p style=""font-size: 16px;"">F = YES &nbsp;&nbsp;&nbsp; J = NO</p>
","j","html-keyboard-response","44","2.1.0","110640","F=YES, J=NO","rj0s688dlf","1","64","68","60","","","","","","lextale","true","false","","","","","","","",""
"767","
  <p style=""font-size: 40px;"">tarnish</p>
  <p style=""font-size: 16px;"">F = YES &nbsp;&nbsp;&nbsp; J = NO</p>
","f","html-keyboard-response","45","2.1.0","111408","F=YES, J=NO","rj0s688dlf","1","64","68","60","","","","","","lextale","true","false","","","","","","","",""
"1591","
  <p style=""font-size: 40px;"">blim</p>
  <p style=""font-size: 16px;"">F = YES &nbsp;&nbsp;&nbsp; J = NO</p>
","j","html-keyboard-response","46","2.1.0","113001","F=YES, J=NO","rj0s688dlf","1","64","68","60","","","","","","lextale","false","false","","","","","","","",""
"1687","
  <p style=""font-size: 40px;"">stifle</p>
  <p style=""font-size: 16px;"">F = YES &nbsp;&nbsp;&nbsp; J = NO</p>
","j","html-keyboard-response","47","2.1.0","114688","F=YES, J=NO","rj0s688dlf","1","64","68","60","","","","","","lextale","true","false","","","","","","","",""
"1415","
  <p style=""font-size: 40px;"">bint</p>
  <p style=""font-size: 16px;"">F = YES &nbsp;&nbsp;&nbsp; J = NO</p>
","f","html-keyboard-response","48","2.1.0","116104","F=YES, J=NO","rj0s688dlf","1","64","68","60","","","","","","lextale","false","false","","","","","","","",""
"799","
  <p style=""font-size: 40px;"">purple</p>
  <p style=""font-size: 16px;"">F = YES &nbsp;&nbsp;&nbsp; J = NO</p>
","f","html-keyboard-response","49","2.1.0","116905","F=YES, J=NO","rj0s688dlf","1","64","68","60","","","","","","lextale","true","false","","","","","","","",""
"2203","
  <p style=""font-size: 40px;"">wriggle</p>
  <p style=""font-size: 16px;"">F = YES &nbsp;&nbsp;&nbsp; J = NO</p>
","j","html-keyboard-response","50","2.1.0","119108","F=YES, J=NO","rj0s688dlf","1","64","68","60","","","","","","lextale","true","false","","","","","","","",""
"1316","
  <p style=""font-size: 40px;"">mangle</p>
  <p style=""font-size: 16px;"">F = YES &nbsp;&nbsp;&nbsp; J = NO</p>
","j","html-keyboard-response","51","2.1.0","120425","F=YES, J=NO","rj0s688dlf","1","64","68","60","","","","","","lextale","true","false","","","","","","","",""
"693","
  <p style=""font-size: 40px;"">shramp</p>
  <p style=""font-size: 16px;"">F = YES &nbsp;&nbsp;&nbsp; J = NO</p>
","f","html-keyboard-response","52","2.1.0","121120","F=YES, J=NO","rj0s688dlf","1","64","68","60","","","","","","lextale","false","false","","","","","","","",""
"928","
  <p style=""font-size: 40px;"">flirt</p>
  <p style=""font-size: 16px;"">F = YES &nbsp;&nbsp;&nbsp; J = NO</p>
","f","html-keyboard-response","53","2.1.0","122049","F=YES, J=NO","rj0s688dlf","1","64","68","60","","","","","","lextale","true","false","","","","","","","",""
"1806","
  <p style=""font-size: 40px;"">frip</p>
  <p style=""font-size: 16px;"">F = YES &nbsp;&nbsp;&nbsp; J = NO</p>
","f","html-keyboard-response","54","2.1.0","123856","F=YES, J=NO","rj0s688dlf","1","64","68","60","","","","","","lextale","false","false","","","","","","","",""
"655","
  <p style=""font-size: 40px;"">tangle</p>
  <p style=""font-size: 16px;"">F = YES &nbsp;&nbsp;&nbsp; J = NO</p>
","f","html-keyboard-response","55","2.1.0","124512","F=YES, J=NO","rj0s688dlf","1","64","68","60","","","","","","lextale","true","false","","","","","","","",""
"919","
  <p style=""font-size: 40px;"">crumble</p>
  <p style=""font-size: 16px;"">F = YES &nbsp;&nbsp;&nbsp; J = NO</p>
","f","html-keyboard-response","56","2.1.0","125433","F=YES, J=NO","rj0s688dlf","1","64","68","60","","","","","","lextale","true","false","","","","","","","",""
"655","
  <p style=""font-size: 40px;"">wrinkle</p>
  <p style=""font-size: 16px;"">F = YES &nbsp;&nbsp;&nbsp; J = NO</p>
","f","html-keyboard-response","57","2.1.0","126089","F=YES, J=NO","rj0s688dlf","1","64","68","60","","","","","","lextale","true","false","","","","","","","",""
"1230","
  <p style=""font-size: 40px;"">slumb</p>
  <p style=""font-size: 16px;"">F = YES &nbsp;&nbsp;&nbsp; J = NO</p>
","f","html-keyboard-response","58","2.1.0","127320","F=YES, J=NO","rj0s688dlf","1","64","68","60","","","","","","lextale","false","false","","","","","","","",""
"656","
  <p style=""font-size: 40px;"">jungle</p>
  <p style=""font-size: 16px;"">F = YES &nbsp;&nbsp;&nbsp; J = NO</p>
","f","html-keyboard-response","59","2.1.0","127976","F=YES, J=NO","rj0s688dlf","1","64","68","60","","","","","","lextale","true","false","","","","","","","",""
"1342","
  <p style=""font-size: 40px;"">frolick</p>
  <p style=""font-size: 16px;"">F = YES &nbsp;&nbsp;&nbsp; J = NO</p>
","f","html-keyboard-response","60","2.1.0","129319","F=YES, J=NO","rj0s688dlf","1","64","68","60","","","","","","lextale","false","false","","","","","","","",""
"4984","
      <h2>LexTALE Test Completed</h2>
      <p>Your LexTALE vocabulary score is: <strong>64%</strong></p>
      <p>Press any key to continue.</p>
    "," ","html-keyboard-response","61","2.1.0","134304","F=YES, J=NO","rj0s688dlf","1","64","68","60","","","","","","","","","","","","","","","",""
"5706","
    <div style=""max-width: 800px; margin: auto; text-align: left;"">
      <h2>Break Time</h2>
      <p>You have completed the first part of the study.</p>
      <p>You may take a short <strong>30-second break</strong> before continuing.</p>
      <p>When you’re ready, press any key to continue to the final task.</p>
    </div>
  "," ","html-keyboard-response","62","2.1.0","140011","F=YES, J=NO","rj0s688dlf","1","64","68","60","","","","","","","","","","","","","","","",""
"27687","
    <div style=""max-width: 800px; margin: auto; text-align: left;"">
      <h2>Part 2: Lexical Decision Task</h2>
      <p>You will now begin the second part of the study.</p>
      <p>Each trial will follow this sequence:</p>
      <ul>
        <li>A fixation cross (+) appears at the center of the screen.</li>
        <li>You will hear a short beep followed by a spoken word.</li>
        <li>A written word will appear briefly on the screen.</li>
      </ul>
      <p>Your task is to judge whether the <strong>written word</strong> is a real English word.</p>
      <p style=""margin-top: 1em;""><strong>Key responses:</strong></p>
      <ul>
        <li><strong>F</strong> = YES (real English word)</li>
        <li><strong>J</strong> = NO (not a real English word)</li>
      </ul>
      <p>Please respond as quickly and accurately as you can.</p>
      <p style=""margin-top: 2em;"">Press any key to continue.</p>
    </div>
  "," ","html-keyboard-response","63","2.1.0","167699","F=YES, J=NO","rj0s688dlf","1","64","68","60","","","","","","","","","","","","","","","",""
"11279","
    <div style=""max-width: 800px; margin: auto; text-align: left;"">
      <h2>Before You Begin</h2>
      <p>Make sure your sound is turned on.</p>
      <p>You will hear audio during each trial, but your decision should be based only on the <strong>written word</strong> you see on the screen.</p>
      <p><strong>Reminder:</strong></p>
      <ul>
        <li><strong>F</strong> = YES (real English word)</li>
        <li><strong>J</strong> = NO (not a real English word)</li>
      </ul>
      <p style=""margin-top: 2em;"">Press any key when you are ready to begin.</p>
    </div>
  "," ","html-keyboard-response","64","2.1.0","178979","F=YES, J=NO","rj0s688dlf","1","64","68","60","","","","","","","","","","","","","","","",""
"4052","
    <div style=""max-width: 800px; margin: auto; text-align: left;"">
      <h2>Part 2: Practice Trials</h2>
      <p>You will now complete a few <strong>practice trials</strong> to get familiar with the task.</p>
      <p>These trials are <strong>not scored</strong> and are only to help you get used to the format.</p>
      <p style=""margin-top: 2em;"">Press any key to begin.</p>
    </div>
  "," ","html-keyboard-response","65","2.1.0","183031","F=YES, J=NO","rj0s688dlf","1","64","68","60","","","","","","","","","","","","","","","",""
"2391","<p>Starting practice block 1 of 2. Press any key to continue.</p>"," ","html-keyboard-response","66","2.1.0","185424","F=YES, J=NO","rj0s688dlf","1","64","68","60","","","","","","","","","","","","","","","",""
"null","<p style=""font-size: 50px;"">+</p>","null","html-keyboard-response","67","2.1.0","185737","F=YES, J=NO","rj0s688dlf","1","64","68","60","","","","","","","","","","","","","","","",""
"null","audio/beep-329314.mp3","null","audio-keyboard-response","68","2.1.0","187800","F=YES, J=NO","rj0s688dlf","1","64","68","60","","","","","","","","","","","","","","","",""
"null","audio/brain.wav","null","audio-keyboard-response","69","2.1.0","188419","F=YES, J=NO","rj0s688dlf","1","64","68","60","","","","","","","","","","","","","","","",""
"null","
          <p id=""word"" style=""font-size: 40px;"">throw</p>
          <p style=""font-size: 16px;"">F = YES &nbsp;&nbsp;&nbsp; J = NO</p>
        ","null","html-keyboard-response","70","2.1.0","189922","F=YES, J=NO","rj0s688dlf","1","64","68","60","","","","","","","","","throw","brain","filler","filler","f","false","",""
"null","<p style=""font-size: 50px;"">+</p>","null","html-keyboard-response","71","2.1.0","190231","F=YES, J=NO","rj0s688dlf","1","64","68","60","","","","","","","","","","","","","","","",""
"null","audio/beep-329314.mp3","null","audio-keyboard-response","72","2.1.0","191760","F=YES, J=NO","rj0s688dlf","1","64","68","60","","","","","","","","","","","","","","","",""
"null","audio/belief.wav","null","audio-keyboard-response","73","2.1.0","192401","F=YES, J=NO","rj0s688dlf","1","64","68","60","","","","","","","","","","","","","","","",""
"573","
          <p id=""word"" style=""font-size: 40px;"">read</p>
          <p style=""font-size: 16px;"">F = YES &nbsp;&nbsp;&nbsp; J = NO</p>
        ","f","html-keyboard-response","74","2.1.0","192976","F=YES, J=NO","rj0s688dlf","1","64","68","60","","","","","","","","","read","belief","filler","filler","f","true","",""
"null","<p style=""font-size: 50px;"">+</p>","null","html-keyboard-response","75","2.1.0","193281","F=YES, J=NO","rj0s688dlf","1","64","68","60","","","","","","","","","","","","","","","",""
"null","audio/beep-329314.mp3","null","audio-keyboard-response","76","2.1.0","194820","F=YES, J=NO","rj0s688dlf","1","64","68","60","","","","","","","","","","","","","","","",""
"null","audio/arm.wav","null","audio-keyboard-response","77","2.1.0","195519","F=YES, J=NO","rj0s688dlf","1","64","68","60","","","","","","","","","","","","","","","",""
"1024","
          <p id=""word"" style=""font-size: 40px;"">fold</p>
          <p style=""font-size: 16px;"">F = YES &nbsp;&nbsp;&nbsp; J = NO</p>
        ","f","html-keyboard-response","78","2.1.0","196544","F=YES, J=NO","rj0s688dlf","1","64","68","60","","","","","","","","","fold","arm","filler","filler","f","true","",""
"null","<p style=""font-size: 50px;"">+</p>","null","html-keyboard-response","79","2.1.0","196851","F=YES, J=NO","rj0s688dlf","1","64","68","60","","","","","","","","","","","","","","","",""
"null","audio/beep-329314.mp3","null","audio-keyboard-response","80","2.1.0","198380","F=YES, J=NO","rj0s688dlf","1","64","68","60","","","","","","","","","","","","","","","",""
"null","audio/beach1.wav","null","audio-keyboard-response","81","2.1.0","198979","F=YES, J=NO","rj0s688dlf","1","64","68","60","","","","","","","","","","","","","","","",""
"731","
          <p id=""word"" style=""font-size: 40px;"">drive</p>
          <p style=""font-size: 16px;"">F = YES &nbsp;&nbsp;&nbsp; J = NO</p>
        ","f","html-keyboard-response","82","2.1.0","199712","F=YES, J=NO","rj0s688dlf","1","64","68","60","","","","","","","","","drive","beach1","filler","filler","f","true","",""
"null","<p style=""font-size: 50px;"">+</p>","null","html-keyboard-response","83","2.1.0","200023","F=YES, J=NO","rj0s688dlf","1","64","68","60","","","","","","","","","","","","","","","",""
"null","audio/beep-329314.mp3","null","audio-keyboard-response","84","2.1.0","201559","F=YES, J=NO","rj0s688dlf","1","64","68","60","","","","","","","","","","","","","","","",""
"null","audio/client1.wav","null","audio-keyboard-response","85","2.1.0","202280","F=YES, J=NO","rj0s688dlf","1","64","68","60","","","","","","","","","","","","","","","",""
"1122","
          <p id=""word"" style=""font-size: 40px;"">droothe</p>
          <p style=""font-size: 16px;"">F = YES &nbsp;&nbsp;&nbsp; J = NO</p>
        ","j","html-keyboard-response","86","2.1.0","203403","F=YES, J=NO","rj0s688dlf","1","64","68","60","","","","","","","","","droothe","client1","pseudoword","pseudoword","j","true","",""
"null","<p style=""font-size: 50px;"">+</p>","null","html-keyboard-response","87","2.1.0","203716","F=YES, J=NO","rj0s688dlf","1","64","68","60","","","","","","","","","","","","","","","",""
"null","audio/beep-329314.mp3","null","audio-keyboard-response","88","2.1.0","205241","F=YES, J=NO","rj0s688dlf","1","64","68","60","","","","","","","","","","","","","","","",""
"null","audio/mile1.wav","null","audio-keyboard-response","89","2.1.0","205882","F=YES, J=NO","rj0s688dlf","1","64","68","60","","","","","","","","","","","","","","","",""
"null","
          <p id=""word"" style=""font-size: 40px;"">writch</p>
          <p style=""font-size: 16px;"">F = YES &nbsp;&nbsp;&nbsp; J = NO</p>
        ","null","html-keyboard-response","90","2.1.0","207395","F=YES, J=NO","rj0s688dlf","1","64","68","60","","","","","","","","","writch","mile1","pseudoword","pseudoword","j","false","",""
"null","<p style=""font-size: 50px;"">+</p>","null","html-keyboard-response","91","2.1.0","207704","F=YES, J=NO","rj0s688dlf","1","64","68","60","","","","","","","","","","","","","","","",""
"null","audio/beep-329314.mp3","null","audio-keyboard-response","92","2.1.0","209240","F=YES, J=NO","rj0s688dlf","1","64","68","60","","","","","","","","","","","","","","","",""
"null","audio/bomb1.wav","null","audio-keyboard-response","93","2.1.0","209641","F=YES, J=NO","rj0s688dlf","1","64","68","60","","","","","","","","","","","","","","","",""
"599","
          <p id=""word"" style=""font-size: 40px;"">clean</p>
          <p style=""font-size: 16px;"">F = YES &nbsp;&nbsp;&nbsp; J = NO</p>
        ","f","html-keyboard-response","94","2.1.0","210240","F=YES, J=NO","rj0s688dlf","1","64","68","60","","","","","","","","","clean","bomb1","filler","filler","f","true","",""
"null","<p style=""font-size: 50px;"">+</p>","null","html-keyboard-response","95","2.1.0","210543","F=YES, J=NO","rj0s688dlf","1","64","68","60","","","","","","","","","","","","","","","",""
"null","audio/beep-329314.mp3","null","audio-keyboard-response","96","2.1.0","212080","F=YES, J=NO","rj0s688dlf","1","64","68","60","","","","","","","","","","","","","","","",""
"null","audio/bottle.wav","null","audio-keyboard-response","97","2.1.0","212700","F=YES, J=NO","rj0s688dlf","1","64","68","60","","","","","","","","","","","","","","","",""
"619","
          <p id=""word"" style=""font-size: 40px;"">watch</p>
          <p style=""font-size: 16px;"">F = YES &nbsp;&nbsp;&nbsp; J = NO</p>
        ","f","html-keyboard-response","98","2.1.0","213320","F=YES, J=NO","rj0s688dlf","1","64","68","60","","","","","","","","","watch","bottle","filler","filler","f","true","",""
"null","<p style=""font-size: 50px;"">+</p>","null","html-keyboard-response","99","2.1.0","213632","F=YES, J=NO","rj0s688dlf","1","64","68","60","","","","","","","","","","","","","","","",""
"null","audio/beep-329314.mp3","null","audio-keyboard-response","100","2.1.0","215161","F=YES, J=NO","rj0s688dlf","1","64","68","60","","","","","","","","","","","","","","","",""
"null","audio/plot1.wav","null","audio-keyboard-response","101","2.1.0","215742","F=YES, J=NO","rj0s688dlf","1","64","68","60","","","","","","","","","","","","","","","",""
"null","
          <p id=""word"" style=""font-size: 40px;"">glenter</p>
          <p style=""font-size: 16px;"">F = YES &nbsp;&nbsp;&nbsp; J = NO</p>
        ","null","html-keyboard-response","102","2.1.0","217252","F=YES, J=NO","rj0s688dlf","1","64","68","60","","","","","","","","","glenter","plot1","pseudoword","pseudoword","j","false","",""
"null","<p style=""font-size: 50px;"">+</p>","null","html-keyboard-response","103","2.1.0","217562","F=YES, J=NO","rj0s688dlf","1","64","68","60","","","","","","","","","","","","","","","",""
"null","audio/beep-329314.mp3","null","audio-keyboard-response","104","2.1.0","219101","F=YES, J=NO","rj0s688dlf","1","64","68","60","","","","","","","","","","","","","","","",""
"null","audio/tomato.wav","null","audio-keyboard-response","105","2.1.0","219799","F=YES, J=NO","rj0s688dlf","1","64","68","60","","","","","","","","","","","","","","","",""
"1336","
          <p id=""word"" style=""font-size: 40px;"">gladies</p>
          <p style=""font-size: 16px;"">F = YES &nbsp;&nbsp;&nbsp; J = NO</p>
        ","f","html-keyboard-response","106","2.1.0","221136","F=YES, J=NO","rj0s688dlf","1","64","68","60","","","","","","","","","gladies","tomato","pseudoword","pseudoword","j","false","",""
"null","<p style=""font-size: 50px;"">+</p>","null","html-keyboard-response","107","2.1.0","221447","F=YES, J=NO","rj0s688dlf","1","64","68","60","","","","","","","","","","","","","","","",""
"null","audio/beep-329314.mp3","null","audio-keyboard-response","108","2.1.0","222980","F=YES, J=NO","rj0s688dlf","1","64","68","60","","","","","","","","","","","","","","","",""
"null","audio/bush1.wav","null","audio-keyboard-response","109","2.1.0","223481","F=YES, J=NO","rj0s688dlf","1","64","68","60","","","","","","","","","","","","","","","",""
"1061","
          <p id=""word"" style=""font-size: 40px;"">platined</p>
          <p style=""font-size: 16px;"">F = YES &nbsp;&nbsp;&nbsp; J = NO</p>
        ","f","html-keyboard-response","110","2.1.0","224544","F=YES, J=NO","rj0s688dlf","1","64","68","60","","","","","","","","","platined","bush1","pseudoword","pseudoword","j","false","",""
"null","<p style=""font-size: 50px;"">+</p>","null","html-keyboard-response","111","2.1.0","224861","F=YES, J=NO","rj0s688dlf","1","64","68","60","","","","","","","","","","","","","","","",""
"null","audio/beep-329314.mp3","null","audio-keyboard-response","112","2.1.0","226402","F=YES, J=NO","rj0s688dlf","1","64","68","60","","","","","","","","","","","","","","","",""
"null","audio/window1.wav","null","audio-keyboard-response","113","2.1.0","227041","F=YES, J=NO","rj0s688dlf","1","64","68","60","","","","","","","","","","","","","","","",""
"752","
          <p id=""word"" style=""font-size: 40px;"">toss</p>
          <p style=""font-size: 16px;"">F = YES &nbsp;&nbsp;&nbsp; J = NO</p>
        ","f","html-keyboard-response","114","2.1.0","227794","F=YES, J=NO","rj0s688dlf","1","64","68","60","","","","","","","","","toss","window1","filler","filler","f","true","",""
"2205","<p>Starting practice block 2 of 2. Press any key to continue.</p>","f","html-keyboard-response","115","2.1.0","229999","F=YES, J=NO","rj0s688dlf","1","64","68","60","","","","","","","","","","","","","","","",""
"null","<p style=""font-size: 50px;"">+</p>","null","html-keyboard-response","116","2.1.0","230312","F=YES, J=NO","rj0s688dlf","1","64","68","60","","","","","","","","","","","","","","","",""
"null","audio/beep-329314.mp3","null","audio-keyboard-response","117","2.1.0","231841","F=YES, J=NO","rj0s688dlf","1","64","68","60","","","","","","","","","","","","","","","",""
"null","audio/hawk1.wav","null","audio-keyboard-response","118","2.1.0","232460","F=YES, J=NO","rj0s688dlf","1","64","68","60","","","","","","","","","","","","","","","",""
"1149","
          <p id=""word"" style=""font-size: 40px;"">ostach</p>
          <p style=""font-size: 16px;"">F = YES &nbsp;&nbsp;&nbsp; J = NO</p>
        ","j","html-keyboard-response","119","2.1.0","233610","F=YES, J=NO","rj0s688dlf","1","64","68","60","","","","","","","","","ostach","hawk1","pseudoword","pseudoword","j","true","",""
"null","<p style=""font-size: 50px;"">+</p>","null","html-keyboard-response","120","2.1.0","233920","F=YES, J=NO","rj0s688dlf","1","64","68","60","","","","","","","","","","","","","","","",""
"null","audio/beep-329314.mp3","null","audio-keyboard-response","121","2.1.0","235460","F=YES, J=NO","rj0s688dlf","1","64","68","60","","","","","","","","","","","","","","","",""
"null","audio/desire.wav","null","audio-keyboard-response","122","2.1.0","236080","F=YES, J=NO","rj0s688dlf","1","64","68","60","","","","","","","","","","","","","","","",""
"null","
          <p id=""word"" style=""font-size: 40px;"">nophed</p>
          <p style=""font-size: 16px;"">F = YES &nbsp;&nbsp;&nbsp; J = NO</p>
        ","null","html-keyboard-response","123","2.1.0","237585","F=YES, J=NO","rj0s688dlf","1","64","68","60","","","","","","","","","nophed","desire","pseudoword","pseudoword","j","false","",""
"null","<p style=""font-size: 50px;"">+</p>","null","html-keyboard-response","124","2.1.0","237895","F=YES, J=NO","rj0s688dlf","1","64","68","60","","","","","","","","","","","","","","","",""
"null","audio/beep-329314.mp3","null","audio-keyboard-response","125","2.1.0","239421","F=YES, J=NO","rj0s688dlf","1","64","68","60","","","","","","","","","","","","","","","",""
"null","audio/ankle1.wav","null","audio-keyboard-response","126","2.1.0","240101","F=YES, J=NO","rj0s688dlf","1","64","68","60","","","","","","","","","","","","","","","",""
"565","
          <p id=""word"" style=""font-size: 40px;"">kick</p>
          <p style=""font-size: 16px;"">F = YES &nbsp;&nbsp;&nbsp; J = NO</p>
        ","f","html-keyboard-response","127","2.1.0","240667","F=YES, J=NO","rj0s688dlf","1","64","68","60","","","","","","","","","kick","ankle1","filler","filler","f","true","",""
"null","<p style=""font-size: 50px;"">+</p>","null","html-keyboard-response","128","2.1.0","240968","F=YES, J=NO","rj0s688dlf","1","64","68","60","","","","","","","","","","","","","","","",""
"null","audio/beep-329314.mp3","null","audio-keyboard-response","129","2.1.0","242500","F=YES, J=NO","rj0s688dlf","1","64","68","60","","","","","","","","","","","","","","","",""
"null","audio/holiday1.wav","null","audio-keyboard-response","130","2.1.0","243160","F=YES, J=NO","rj0s688dlf","1","64","68","60","","","","","","","","","","","","","","","",""
"870","
          <p id=""word"" style=""font-size: 40px;"">drivets</p>
          <p style=""font-size: 16px;"">F = YES &nbsp;&nbsp;&nbsp; J = NO</p>
        ","f","html-keyboard-response","131","2.1.0","244031","F=YES, J=NO","rj0s688dlf","1","64","68","60","","","","","","","","","drivets","holiday1","pseudoword","pseudoword","j","false","",""
"null","<p style=""font-size: 50px;"">+</p>","null","html-keyboard-response","132","2.1.0","244338","F=YES, J=NO","rj0s688dlf","1","64","68","60","","","","","","","","","","","","","","","",""
"null","audio/beep-329314.mp3","null","audio-keyboard-response","133","2.1.0","245882","F=YES, J=NO","rj0s688dlf","1","64","68","60","","","","","","","","","","","","","","","",""
"null","audio/floor.wav","null","audio-keyboard-response","134","2.1.0","246440","F=YES, J=NO","rj0s688dlf","1","64","68","60","","","","","","","","","","","","","","","",""
"1048","
          <p id=""word"" style=""font-size: 40px;"">mop</p>
          <p style=""font-size: 16px;"">F = YES &nbsp;&nbsp;&nbsp; J = NO</p>
        ","f","html-keyboard-response","135","2.1.0","247489","F=YES, J=NO","rj0s688dlf","1","64","68","60","","","","","","","","","mop","floor","filler","filler","f","true","",""
"null","<p style=""font-size: 50px;"">+</p>","null","html-keyboard-response","136","2.1.0","247799","F=YES, J=NO","rj0s688dlf","1","64","68","60","","","","","","","","","","","","","","","",""
"null","audio/beep-329314.mp3","null","audio-keyboard-response","137","2.1.0","249341","F=YES, J=NO","rj0s688dlf","1","64","68","60","","","","","","","","","","","","","","","",""
"null","audio/cancer1.wav","null","audio-keyboard-response","138","2.1.0","250041","F=YES, J=NO","rj0s688dlf","1","64","68","60","","","","","","","","","","","","","","","",""
"743","
          <p id=""word"" style=""font-size: 40px;"">draw</p>
          <p style=""font-size: 16px;"">F = YES &nbsp;&nbsp;&nbsp; J = NO</p>
        ","f","html-keyboard-response","139","2.1.0","250785","F=YES, J=NO","rj0s688dlf","1","64","68","60","","","","","","","","","draw","cancer1","filler","filler","f","true","",""
"null","<p style=""font-size: 50px;"">+</p>","null","html-keyboard-response","140","2.1.0","251094","F=YES, J=NO","rj0s688dlf","1","64","68","60","","","","","","","","","","","","","","","",""
"null","audio/beep-329314.mp3","null","audio-keyboard-response","141","2.1.0","252622","F=YES, J=NO","rj0s688dlf","1","64","68","60","","","","","","","","","","","","","","","",""
"null","audio/age1.wav","null","audio-keyboard-response","142","2.1.0","253181","F=YES, J=NO","rj0s688dlf","1","64","68","60","","","","","","","","","","","","","","","",""
"601","
          <p id=""word"" style=""font-size: 40px;"">bake</p>
          <p style=""font-size: 16px;"">F = YES &nbsp;&nbsp;&nbsp; J = NO</p>
        ","f","html-keyboard-response","143","2.1.0","253783","F=YES, J=NO","rj0s688dlf","1","64","68","60","","","","","","","","","bake","age1","filler","filler","f","true","",""
"null","<p style=""font-size: 50px;"">+</p>","null","html-keyboard-response","144","2.1.0","254092","F=YES, J=NO","rj0s688dlf","1","64","68","60","","","","","","","","","","","","","","","",""
"null","audio/beep-329314.mp3","null","audio-keyboard-response","145","2.1.0","255619","F=YES, J=NO","rj0s688dlf","1","64","68","60","","","","","","","","","","","","","","","",""
"null","audio/pattern.wav","null","audio-keyboard-response","146","2.1.0","256140","F=YES, J=NO","rj0s688dlf","1","64","68","60","","","","","","","","","","","","","","","",""
"707","
          <p id=""word"" style=""font-size: 40px;"">tug</p>
          <p style=""font-size: 16px;"">F = YES &nbsp;&nbsp;&nbsp; J = NO</p>
        ","f","html-keyboard-response","147","2.1.0","256849","F=YES, J=NO","rj0s688dlf","1","64","68","60","","","","","","","","","tug","pattern","filler","filler","f","true","",""
"null","<p style=""font-size: 50px;"">+</p>","null","html-keyboard-response","148","2.1.0","257163","F=YES, J=NO","rj0s688dlf","1","64","68","60","","","","","","","","","","","","","","","",""
"null","audio/beep-329314.mp3","null","audio-keyboard-response","149","2.1.0","258702","F=YES, J=NO","rj0s688dlf","1","64","68","60","","","","","","","","","","","","","","","",""
"null","audio/breath.wav","null","audio-keyboard-response","150","2.1.0","259282","F=YES, J=NO","rj0s688dlf","1","64","68","60","","","","","","","","","","","","","","","",""
"1020","
          <p id=""word"" style=""font-size: 40px;"">twets</p>
          <p style=""font-size: 16px;"">F = YES &nbsp;&nbsp;&nbsp; J = NO</p>
        ","j","html-keyboard-response","151","2.1.0","260303","F=YES, J=NO","rj0s688dlf","1","64","68","60","","","","","","","","","twets","breath","pseudoword","pseudoword","j","true","",""
"null","<p style=""font-size: 50px;"">+</p>","null","html-keyboard-response","152","2.1.0","260618","F=YES, J=NO","rj0s688dlf","1","64","68","60","","","","","","","","","","","","","","","",""
"null","audio/beep-329314.mp3","null","audio-keyboard-response","153","2.1.0","262161","F=YES, J=NO","rj0s688dlf","1","64","68","60","","","","","","","","","","","","","","","",""
"null","audio/cash1.wav","null","audio-keyboard-response","154","2.1.0","262760","F=YES, J=NO","rj0s688dlf","1","64","68","60","","","","","","","","","","","","","","","",""
"1250","
          <p id=""word"" style=""font-size: 40px;"">splear</p>
          <p style=""font-size: 16px;"">F = YES &nbsp;&nbsp;&nbsp; J = NO</p>
        ","f","html-keyboard-response","155","2.1.0","264011","F=YES, J=NO","rj0s688dlf","1","64","68","60","","","","","","","","","splear","cash1","pseudoword","pseudoword","j","false","",""
"null","<p style=""font-size: 50px;"">+</p>","null","html-keyboard-response","156","2.1.0","264325","F=YES, J=NO","rj0s688dlf","1","64","68","60","","","","","","","","","","","","","","","",""
"null","audio/beep-329314.mp3","null","audio-keyboard-response","157","2.1.0","265860","F=YES, J=NO","rj0s688dlf","1","64","68","60","","","","","","","","","","","","","","","",""
"null","audio/age1.wav","null","audio-keyboard-response","158","2.1.0","266400","F=YES, J=NO","rj0s688dlf","1","64","68","60","","","","","","","","","","","","","","","",""
"887","
          <p id=""word"" style=""font-size: 40px;"">lachry</p>
          <p style=""font-size: 16px;"">F = YES &nbsp;&nbsp;&nbsp; J = NO</p>
        ","j","html-keyboard-response","159","2.1.0","267289","F=YES, J=NO","rj0s688dlf","1","64","68","60","","","","","","","","","lachry","age1","pseudoword","pseudoword","j","true","",""
"null","<p style=""font-size: 50px;"">+</p>","null","html-keyboard-response","160","2.1.0","267599","F=YES, J=NO","rj0s688dlf","1","64","68","60","","","","","","","","","","","","","","","",""
"null","audio/beep-329314.mp3","null","audio-keyboard-response","161","2.1.0","269140","F=YES, J=NO","rj0s688dlf","1","64","68","60","","","","","","","","","","","","","","","",""
"null","audio/noise1.wav","null","audio-keyboard-response","162","2.1.0","269779","F=YES, J=NO","rj0s688dlf","1","64","68","60","","","","","","","","","","","","","","","",""
"796","
          <p id=""word"" style=""font-size: 40px;"">slintered</p>
          <p style=""font-size: 16px;"">F = YES &nbsp;&nbsp;&nbsp; J = NO</p>
        ","f","html-keyboard-response","163","2.1.0","270576","F=YES, J=NO","rj0s688dlf","1","64","68","60","","","","","","","","","slintered","noise1","pseudoword","pseudoword","j","false","",""
"9634","
    <div style=""max-width: 800px; margin: auto; text-align: left;"">
      <h2>Part 2: Main Trials</h2>
      <p>Great job on the practice trials!</p>
      <p>You will now begin the <strong>main set of trials</strong>.</p>
      <p>Remember your key assignments:</p>
      <ul>
        <li><strong>F</strong> = YES (real English word)</li>
        <li><strong>J</strong> = NO (not a real English word)</li>
      </ul>
      <p>Try to respond as <strong>quickly and accurately</strong> as possible.</p>
      <p style=""margin-top: 2em;"">Press any key to begin the main trials.</p>
    </div>
  ","f","html-keyboard-response","164","2.1.0","280211","F=YES, J=NO","rj0s688dlf","1","64","68","60","","","","","","","","","","","","","","","",""
"2020","<p>Starting main block 1 of 8. Press any key to continue.</p>","f","html-keyboard-response","165","2.1.0","282232","F=YES, J=NO","rj0s688dlf","1","64","68","60","","","","","","","","","","","","","","","",""
"null","<p style=""font-size: 50px;"">+</p>","null","html-keyboard-response","166","2.1.0","282541","F=YES, J=NO","rj0s688dlf","1","64","68","60","","","","","","","","","","","","","","","",""
"null","audio/beep-329314.mp3","null","audio-keyboard-response","167","2.1.0","284048","F=YES, J=NO","rj0s688dlf","1","64","68","60","","","","","","","","","","","","","","","",""
"null","audio/planet1.wav","null","audio-keyboard-response","168","2.1.0","284618","F=YES, J=NO","rj0s688dlf","1","64","68","60","","","","","","","","","","","","","","","",""
"821","
          <p id=""word"" style=""font-size: 40px;"">cratched</p>
          <p style=""font-size: 16px;"">F = YES &nbsp;&nbsp;&nbsp; J = NO</p>
        ","f","html-keyboard-response","169","2.1.0","285440","F=YES, J=NO","rj0s688dlf","1","64","68","60","","","","","","","","","cratched","planet1","pseudoword","pseudoword","j","false","",""
"null","<p style=""font-size: 50px;"">+</p>","null","html-keyboard-response","170","2.1.0","285753","F=YES, J=NO","rj0s688dlf","1","64","68","60","","","","","","","","","","","","","","","",""
"null","audio/beep-329314.mp3","null","audio-keyboard-response","171","2.1.0","287288","F=YES, J=NO","rj0s688dlf","1","64","68","60","","","","","","","","","","","","","","","",""
"null","audio/case1.wav","null","audio-keyboard-response","172","2.1.0","287937","F=YES, J=NO","rj0s688dlf","1","64","68","60","","","","","","","","","","","","","","","",""
"519","
          <p id=""word"" style=""font-size: 40px;"">close</p>
          <p style=""font-size: 16px;"">F = YES &nbsp;&nbsp;&nbsp; J = NO</p>
        ","f","html-keyboard-response","173","2.1.0","288456","F=YES, J=NO","rj0s688dlf","1","64","68","60","","","","","","","","","close","case1","metaphor","experimental","f","true","",""
"null","<p style=""font-size: 50px;"">+</p>","null","html-keyboard-response","174","2.1.0","288762","F=YES, J=NO","rj0s688dlf","1","64","68","60","","","","","","","","","","","","","","","",""
"null","audio/beep-329314.mp3","null","audio-keyboard-response","175","2.1.0","290287","F=YES, J=NO","rj0s688dlf","1","64","68","60","","","","","","","","","","","","","","","",""
"null","audio/hotel1.wav","null","audio-keyboard-response","176","2.1.0","290917","F=YES, J=NO","rj0s688dlf","1","64","68","60","","","","","","","","","","","","","","","",""
"814","
          <p id=""word"" style=""font-size: 40px;"">flanter</p>
          <p style=""font-size: 16px;"">F = YES &nbsp;&nbsp;&nbsp; J = NO</p>
        ","f","html-keyboard-response","177","2.1.0","291731","F=YES, J=NO","rj0s688dlf","1","64","68","60","","","","","","","","","flanter","hotel1","pseudoword","pseudoword","j","false","",""
"null","<p style=""font-size: 50px;"">+</p>","null","html-keyboard-response","178","2.1.0","292038","F=YES, J=NO","rj0s688dlf","1","64","68","60","","","","","","","","","","","","","","","",""
"null","audio/beep-329314.mp3","null","audio-keyboard-response","179","2.1.0","293566","F=YES, J=NO","rj0s688dlf","1","64","68","60","","","","","","","","","","","","","","","",""
"null","audio/age1.wav","null","audio-keyboard-response","180","2.1.0","294098","F=YES, J=NO","rj0s688dlf","1","64","68","60","","","","","","","","","","","","","","","",""
"804","
          <p id=""word"" style=""font-size: 40px;"">seize</p>
          <p style=""font-size: 16px;"">F = YES &nbsp;&nbsp;&nbsp; J = NO</p>
        ","f","html-keyboard-response","181","2.1.0","294904","F=YES, J=NO","rj0s688dlf","1","64","68","60","","","","","","","","","seize","age1","unrelated","experimental","f","true","",""
"null","<p style=""font-size: 50px;"">+</p>","null","html-keyboard-response","182","2.1.0","295217","F=YES, J=NO","rj0s688dlf","1","64","68","60","","","","","","","","","","","","","","","",""
"null","audio/beep-329314.mp3","null","audio-keyboard-response","183","2.1.0","296747","F=YES, J=NO","rj0s688dlf","1","64","68","60","","","","","","","","","","","","","","","",""
"null","audio/effort.wav","null","audio-keyboard-response","184","2.1.0","297338","F=YES, J=NO","rj0s688dlf","1","64","68","60","","","","","","","","","","","","","","","",""
"604","
          <p id=""word"" style=""font-size: 40px;"">invest</p>
          <p style=""font-size: 16px;"">F = YES &nbsp;&nbsp;&nbsp; J = NO</p>
        ","f","html-keyboard-response","185","2.1.0","297943","F=YES, J=NO","rj0s688dlf","1","64","68","60","","","","","","","","","invest","effort","metaphor","experimental","f","true","",""
"null","<p style=""font-size: 50px;"">+</p>","null","html-keyboard-response","186","2.1.0","298257","F=YES, J=NO","rj0s688dlf","1","64","68","60","","","","","","","","","","","","","","","",""
"null","audio/beep-329314.mp3","null","audio-keyboard-response","187","2.1.0","299788","F=YES, J=NO","rj0s688dlf","1","64","68","60","","","","","","","","","","","","","","","",""
"null","audio/bishop1.wav","null","audio-keyboard-response","188","2.1.0","300396","F=YES, J=NO","rj0s688dlf","1","64","68","60","","","","","","","","","","","","","","","",""
"490","
          <p id=""word"" style=""font-size: 40px;"">play</p>
          <p style=""font-size: 16px;"">F = YES &nbsp;&nbsp;&nbsp; J = NO</p>
        ","f","html-keyboard-response","189","2.1.0","300888","F=YES, J=NO","rj0s688dlf","1","64","68","60","","","","","","","","","play","bishop1","filler","filler","f","true","",""
"null","<p style=""font-size: 50px;"">+</p>","null","html-keyboard-response","190","2.1.0","301196","F=YES, J=NO","rj0s688dlf","1","64","68","60","","","","","","","","","","","","","","","",""
"null","audio/beep-329314.mp3","null","audio-keyboard-response","191","2.1.0","302726","F=YES, J=NO","rj0s688dlf","1","64","68","60","","","","","","","","","","","","","","","",""
"null","audio/uncle1.wav","null","audio-keyboard-response","192","2.1.0","303197","F=YES, J=NO","rj0s688dlf","1","64","68","60","","","","","","","","","","","","","","","",""
"1163","
          <p id=""word"" style=""font-size: 40px;"">dramble</p>
          <p style=""font-size: 16px;"">F = YES &nbsp;&nbsp;&nbsp; J = NO</p>
        ","f","html-keyboard-response","193","2.1.0","304361","F=YES, J=NO","rj0s688dlf","1","64","68","60","","","","","","","","","dramble","uncle1","pseudoword","pseudoword","j","false","",""
"null","<p style=""font-size: 50px;"">+</p>","null","html-keyboard-response","194","2.1.0","304663","F=YES, J=NO","rj0s688dlf","1","64","68","60","","","","","","","","","","","","","","","",""
"null","audio/beep-329314.mp3","null","audio-keyboard-response","195","2.1.0","306188","F=YES, J=NO","rj0s688dlf","1","64","68","60","","","","","","","","","","","","","","","",""
"null","audio/ship.wav","null","audio-keyboard-response","196","2.1.0","306756","F=YES, J=NO","rj0s688dlf","1","64","68","60","","","","","","","","","","","","","","","",""
"620","
          <p id=""word"" style=""font-size: 40px;"">scrap</p>
          <p style=""font-size: 16px;"">F = YES &nbsp;&nbsp;&nbsp; J = NO</p>
        ","f","html-keyboard-response","197","2.1.0","307377","F=YES, J=NO","rj0s688dlf","1","64","68","60","","","","","","","","","scrap","ship","literal","experimental","f","true","",""
"null","<p style=""font-size: 50px;"">+</p>","null","html-keyboard-response","198","2.1.0","307681","F=YES, J=NO","rj0s688dlf","1","64","68","60","","","","","","","","","","","","","","","",""
"null","audio/beep-329314.mp3","null","audio-keyboard-response","199","2.1.0","309206","F=YES, J=NO","rj0s688dlf","1","64","68","60","","","","","","","","","","","","","","","",""
"null","audio/beach1.wav","null","audio-keyboard-response","200","2.1.0","309778","F=YES, J=NO","rj0s688dlf","1","64","68","60","","","","","","","","","","","","","","","",""
"493","
          <p id=""word"" style=""font-size: 40px;"">cut</p>
          <p style=""font-size: 16px;"">F = YES &nbsp;&nbsp;&nbsp; J = NO</p>
        ","f","html-keyboard-response","201","2.1.0","310272","F=YES, J=NO","rj0s688dlf","1","64","68","60","","","","","","","","","cut","beach1","unrelated","experimental","f","true","",""
"null","<p style=""font-size: 50px;"">+</p>","null","html-keyboard-response","202","2.1.0","310575","F=YES, J=NO","rj0s688dlf","1","64","68","60","","","","","","","","","","","","","","","",""
"null","audio/beep-329314.mp3","null","audio-keyboard-response","203","2.1.0","312106","F=YES, J=NO","rj0s688dlf","1","64","68","60","","","","","","","","","","","","","","","",""
"null","audio/trout1.wav","null","audio-keyboard-response","204","2.1.0","312737","F=YES, J=NO","rj0s688dlf","1","64","68","60","","","","","","","","","","","","","","","",""
"694","
          <p id=""word"" style=""font-size: 40px;"">spimt</p>
          <p style=""font-size: 16px;"">F = YES &nbsp;&nbsp;&nbsp; J = NO</p>
        ","j","html-keyboard-response","205","2.1.0","313431","F=YES, J=NO","rj0s688dlf","1","64","68","60","","","","","","","","","spimt","trout1","pseudoword","pseudoword","j","true","",""
"null","<p style=""font-size: 50px;"">+</p>","null","html-keyboard-response","206","2.1.0","313737","F=YES, J=NO","rj0s688dlf","1","64","68","60","","","","","","","","","","","","","","","",""
"null","audio/beep-329314.mp3","null","audio-keyboard-response","207","2.1.0","315266","F=YES, J=NO","rj0s688dlf","1","64","68","60","","","","","","","","","","","","","","","",""
"null","audio/lion1.wav","null","audio-keyboard-response","208","2.1.0","315978","F=YES, J=NO","rj0s688dlf","1","64","68","60","","","","","","","","","","","","","","","",""
"533","
          <p id=""word"" style=""font-size: 40px;"">wrestle</p>
          <p style=""font-size: 16px;"">F = YES &nbsp;&nbsp;&nbsp; J = NO</p>
        ","f","html-keyboard-response","209","2.1.0","316512","F=YES, J=NO","rj0s688dlf","1","64","68","60","","","","","","","","","wrestle","lion1","literal","experimental","f","true","",""
"null","<p style=""font-size: 50px;"">+</p>","null","html-keyboard-response","210","2.1.0","316828","F=YES, J=NO","rj0s688dlf","1","64","68","60","","","","","","","","","","","","","","","",""
"null","audio/beep-329314.mp3","null","audio-keyboard-response","211","2.1.0","318368","F=YES, J=NO","rj0s688dlf","1","64","68","60","","","","","","","","","","","","","","","",""
"null","audio/ego.wav","null","audio-keyboard-response","212","2.1.0","318937","F=YES, J=NO","rj0s688dlf","1","64","68","60","","","","","","","","","","","","","","","",""
"839","
          <p id=""word"" style=""font-size: 40px;"">bruite</p>
          <p style=""font-size: 16px;"">F = YES &nbsp;&nbsp;&nbsp; J = NO</p>
        ","j","html-keyboard-response","213","2.1.0","319776","F=YES, J=NO","rj0s688dlf","1","64","68","60","","","","","","","","","bruite","ego","pseudoword","pseudoword","j","true","",""
"null","<p style=""font-size: 50px;"">+</p>","null","html-keyboard-response","214","2.1.0","320087","F=YES, J=NO","rj0s688dlf","1","64","68","60","","","","","","","","","","","","","","","",""
"null","audio/beep-329314.mp3","null","audio-keyboard-response","215","2.1.0","321627","F=YES, J=NO","rj0s688dlf","1","64","68","60","","","","","","","","","","","","","","","",""
"null","audio/flaw.wav","null","audio-keyboard-response","216","2.1.0","322396","F=YES, J=NO","rj0s688dlf","1","64","68","60","","","","","","","","","","","","","","","",""
"962","
          <p id=""word"" style=""font-size: 40px;"">thwool</p>
          <p style=""font-size: 16px;"">F = YES &nbsp;&nbsp;&nbsp; J = NO</p>
        ","j","html-keyboard-response","217","2.1.0","323360","F=YES, J=NO","rj0s688dlf","1","64","68","60","","","","","","","","","thwool","flaw","pseudoword","pseudoword","j","true","",""
"null","<p style=""font-size: 50px;"">+</p>","null","html-keyboard-response","218","2.1.0","323665","F=YES, J=NO","rj0s688dlf","1","64","68","60","","","","","","","","","","","","","","","",""
"null","audio/beep-329314.mp3","null","audio-keyboard-response","219","2.1.0","325207","F=YES, J=NO","rj0s688dlf","1","64","68","60","","","","","","","","","","","","","","","",""
"null","audio/mile1.wav","null","audio-keyboard-response","220","2.1.0","325676","F=YES, J=NO","rj0s688dlf","1","64","68","60","","","","","","","","","","","","","","","",""
"530","
          <p id=""word"" style=""font-size: 40px;"">run</p>
          <p style=""font-size: 16px;"">F = YES &nbsp;&nbsp;&nbsp; J = NO</p>
        ","f","html-keyboard-response","221","2.1.0","326208","F=YES, J=NO","rj0s688dlf","1","64","68","60","","","","","","","","","run","mile1","literal","experimental","f","true","",""
"null","<p style=""font-size: 50px;"">+</p>","null","html-keyboard-response","222","2.1.0","326513","F=YES, J=NO","rj0s688dlf","1","64","68","60","","","","","","","","","","","","","","","",""
"null","audio/beep-329314.mp3","null","audio-keyboard-response","223","2.1.0","328046","F=YES, J=NO","rj0s688dlf","1","64","68","60","","","","","","","","","","","","","","","",""
"null","audio/grass.wav","null","audio-keyboard-response","224","2.1.0","328697","F=YES, J=NO","rj0s688dlf","1","64","68","60","","","","","","","","","","","","","","","",""
"1191","
          <p id=""word"" style=""font-size: 40px;"">milames</p>
          <p style=""font-size: 16px;"">F = YES &nbsp;&nbsp;&nbsp; J = NO</p>
        ","j","html-keyboard-response","225","2.1.0","329890","F=YES, J=NO","rj0s688dlf","1","64","68","60","","","","","","","","","milames","grass","pseudoword","pseudoword","j","true","",""
"null","<p style=""font-size: 50px;"">+</p>","null","html-keyboard-response","226","2.1.0","330206","F=YES, J=NO","rj0s688dlf","1","64","68","60","","","","","","","","","","","","","","","",""
"null","audio/beep-329314.mp3","null","audio-keyboard-response","227","2.1.0","331728","F=YES, J=NO","rj0s688dlf","1","64","68","60","","","","","","","","","","","","","","","",""
"null","audio/neck.wav","null","audio-keyboard-response","228","2.1.0","332416","F=YES, J=NO","rj0s688dlf","1","64","68","60","","","","","","","","","","","","","","","",""
"1103","
          <p id=""word"" style=""font-size: 40px;"">werling</p>
          <p style=""font-size: 16px;"">F = YES &nbsp;&nbsp;&nbsp; J = NO</p>
        ","j","html-keyboard-response","229","2.1.0","333520","F=YES, J=NO","rj0s688dlf","1","64","68","60","","","","","","","","","werling","neck","pseudoword","pseudoword","j","true","",""
"3303","<p>Excellent! You have finished block 1 of 8.</p>
                     <p>Feel free to take a 30 second break.</p>
                     <p>Press any key when you're ready to continue.</p>","j","html-keyboard-response","230","2.1.0","336824","F=YES, J=NO","rj0s688dlf","1","64","68","60","","","","","","","","","","","","","","","",""
"1625","<p>Starting main block 2 of 8. Press any key to continue.</p>","j","html-keyboard-response","231","2.1.0","338450","F=YES, J=NO","rj0s688dlf","1","64","68","60","","","","","","","","","","","","","","","",""
"null","<p style=""font-size: 50px;"">+</p>","null","html-keyboard-response","232","2.1.0","338751","F=YES, J=NO","rj0s688dlf","1","64","68","60","","","","","","","","","","","","","","","",""
"null","audio/beep-329314.mp3","null","audio-keyboard-response","233","2.1.0","340286","F=YES, J=NO","rj0s688dlf","1","64","68","60","","","","","","","","","","","","","","","",""
"null","audio/stain.wav","null","audio-keyboard-response","234","2.1.0","340938","F=YES, J=NO","rj0s688dlf","1","64","68","60","","","","","","","","","","","","","","","",""
"760","
          <p id=""word"" style=""font-size: 40px;"">rumpsied</p>
          <p style=""font-size: 16px;"">F = YES &nbsp;&nbsp;&nbsp; J = NO</p>
        ","j","html-keyboard-response","235","2.1.0","341699","F=YES, J=NO","rj0s688dlf","1","64","68","60","","","","","","","","","rumpsied","stain","pseudoword","pseudoword","j","true","",""
"null","<p style=""font-size: 50px;"">+</p>","null","html-keyboard-response","236","2.1.0","342011","F=YES, J=NO","rj0s688dlf","1","64","68","60","","","","","","","","","","","","","","","",""
"null","audio/beep-329314.mp3","null","audio-keyboard-response","237","2.1.0","343548","F=YES, J=NO","rj0s688dlf","1","64","68","60","","","","","","","","","","","","","","","",""
"null","audio/rank1.wav","null","audio-keyboard-response","238","2.1.0","344117","F=YES, J=NO","rj0s688dlf","1","64","68","60","","","","","","","","","","","","","","","",""
"435","
          <p id=""word"" style=""font-size: 40px;"">climb</p>
          <p style=""font-size: 16px;"">F = YES &nbsp;&nbsp;&nbsp; J = NO</p>
        ","f","html-keyboard-response","239","2.1.0","344553","F=YES, J=NO","rj0s688dlf","1","64","68","60","","","","","","","","","climb","rank1","metaphor","experimental","f","true","",""
"null","<p style=""font-size: 50px;"">+</p>","null","html-keyboard-response","240","2.1.0","344863","F=YES, J=NO","rj0s688dlf","1","64","68","60","","","","","","","","","","","","","","","",""
"null","audio/beep-329314.mp3","null","audio-keyboard-response","241","2.1.0","346386","F=YES, J=NO","rj0s688dlf","1","64","68","60","","","","","","","","","","","","","","","",""
"null","audio/train.wav","null","audio-keyboard-response","242","2.1.0","347037","F=YES, J=NO","rj0s688dlf","1","64","68","60","","","","","","","","","","","","","","","",""
"601","
          <p id=""word"" style=""font-size: 40px;"">catch</p>
          <p style=""font-size: 16px;"">F = YES &nbsp;&nbsp;&nbsp; J = NO</p>
        ","f","html-keyboard-response","243","2.1.0","347639","F=YES, J=NO","rj0s688dlf","1","64","68","60","","","","","","","","","catch","train","metaphor","experimental","f","true","",""
"null","<p style=""font-size: 50px;"">+</p>","null","html-keyboard-response","244","2.1.0","347956","F=YES, J=NO","rj0s688dlf","1","64","68","60","","","","","","","","","","","","","","","",""
"null","audio/beep-329314.mp3","null","audio-keyboard-response","245","2.1.0","349487","F=YES, J=NO","rj0s688dlf","1","64","68","60","","","","","","","","","","","","","","","",""
"null","audio/planet1.wav","null","audio-keyboard-response","246","2.1.0","350056","F=YES, J=NO","rj0s688dlf","1","64","68","60","","","","","","","","","","","","","","","",""
"543","
          <p id=""word"" style=""font-size: 40px;"">save</p>
          <p style=""font-size: 16px;"">F = YES &nbsp;&nbsp;&nbsp; J = NO</p>
        ","f","html-keyboard-response","247","2.1.0","350600","F=YES, J=NO","rj0s688dlf","1","64","68","60","","","","","","","","","save","planet1","metaphor","experimental","f","true","",""
"null","<p style=""font-size: 50px;"">+</p>","null","html-keyboard-response","248","2.1.0","350905","F=YES, J=NO","rj0s688dlf","1","64","68","60","","","","","","","","","","","","","","","",""
"null","audio/beep-329314.mp3","null","audio-keyboard-response","249","2.1.0","352426","F=YES, J=NO","rj0s688dlf","1","64","68","60","","","","","","","","","","","","","","","",""
"null","audio/winter.wav","null","audio-keyboard-response","250","2.1.0","353136","F=YES, J=NO","rj0s688dlf","1","64","68","60","","","","","","","","","","","","","","","",""
"890","
          <p id=""word"" style=""font-size: 40px;"">straven</p>
          <p style=""font-size: 16px;"">F = YES &nbsp;&nbsp;&nbsp; J = NO</p>
        ","j","html-keyboard-response","251","2.1.0","354027","F=YES, J=NO","rj0s688dlf","1","64","68","60","","","","","","","","","straven","winter","pseudoword","pseudoword","j","true","",""
"null","<p style=""font-size: 50px;"">+</p>","null","html-keyboard-response","252","2.1.0","354333","F=YES, J=NO","rj0s688dlf","1","64","68","60","","","","","","","","","","","","","","","",""
"null","audio/beep-329314.mp3","null","audio-keyboard-response","253","2.1.0","355867","F=YES, J=NO","rj0s688dlf","1","64","68","60","","","","","","","","","","","","","","","",""
"null","audio/arm.wav","null","audio-keyboard-response","254","2.1.0","356396","F=YES, J=NO","rj0s688dlf","1","64","68","60","","","","","","","","","","","","","","","",""
"844","
          <p id=""word"" style=""font-size: 40px;"">pigne</p>
          <p style=""font-size: 16px;"">F = YES &nbsp;&nbsp;&nbsp; J = NO</p>
        ","j","html-keyboard-response","255","2.1.0","357240","F=YES, J=NO","rj0s688dlf","1","64","68","60","","","","","","","","","pigne","arm","pseudoword","pseudoword","j","true","",""
"null","<p style=""font-size: 50px;"">+</p>","null","html-keyboard-response","256","2.1.0","357551","F=YES, J=NO","rj0s688dlf","1","64","68","60","","","","","","","","","","","","","","","",""
"null","audio/beep-329314.mp3","null","audio-keyboard-response","257","2.1.0","359086","F=YES, J=NO","rj0s688dlf","1","64","68","60","","","","","","","","","","","","","","","",""
"null","audio/butter1.wav","null","audio-keyboard-response","258","2.1.0","359536","F=YES, J=NO","rj0s688dlf","1","64","68","60","","","","","","","","","","","","","","","",""
"719","
          <p id=""word"" style=""font-size: 40px;"">chew</p>
          <p style=""font-size: 16px;"">F = YES &nbsp;&nbsp;&nbsp; J = NO</p>
        ","f","html-keyboard-response","259","2.1.0","360256","F=YES, J=NO","rj0s688dlf","1","64","68","60","","","","","","","","","chew","butter1","filler","filler","f","true","",""
"null","<p style=""font-size: 50px;"">+</p>","null","html-keyboard-response","260","2.1.0","360561","F=YES, J=NO","rj0s688dlf","1","64","68","60","","","","","","","","","","","","","","","",""
"null","audio/beep-329314.mp3","null","audio-keyboard-response","261","2.1.0","362089","F=YES, J=NO","rj0s688dlf","1","64","68","60","","","","","","","","","","","","","","","",""
"null","audio/golf1.wav","null","audio-keyboard-response","262","2.1.0","362795","F=YES, J=NO","rj0s688dlf","1","64","68","60","","","","","","","","","","","","","","","",""
"580","
          <p id=""word"" style=""font-size: 40px;"">drabble</p>
          <p style=""font-size: 16px;"">F = YES &nbsp;&nbsp;&nbsp; J = NO</p>
        ","f","html-keyboard-response","263","2.1.0","363376","F=YES, J=NO","rj0s688dlf","1","64","68","60","","","","","","","","","drabble","golf1","pseudoword","pseudoword","j","false","",""
"null","<p style=""font-size: 50px;"">+</p>","null","html-keyboard-response","264","2.1.0","363687","F=YES, J=NO","rj0s688dlf","1","64","68","60","","","","","","","","","","","","","","","",""
"null","audio/beep-329314.mp3","null","audio-keyboard-response","265","2.1.0","365226","F=YES, J=NO","rj0s688dlf","1","64","68","60","","","","","","","","","","","","","","","",""
"null","audio/hotel1.wav","null","audio-keyboard-response","266","2.1.0","365837","F=YES, J=NO","rj0s688dlf","1","64","68","60","","","","","","","","","","","","","","","",""
"573","
          <p id=""word"" style=""font-size: 40px;"">spread</p>
          <p style=""font-size: 16px;"">F = YES &nbsp;&nbsp;&nbsp; J = NO</p>
        ","f","html-keyboard-response","267","2.1.0","366411","F=YES, J=NO","rj0s688dlf","1","64","68","60","","","","","","","","","spread","hotel1","unrelated","experimental","f","true","",""
"null","<p style=""font-size: 50px;"">+</p>","null","html-keyboard-response","268","2.1.0","366717","F=YES, J=NO","rj0s688dlf","1","64","68","60","","","","","","","","","","","","","","","",""
"null","audio/beep-329314.mp3","null","audio-keyboard-response","269","2.1.0","368247","F=YES, J=NO","rj0s688dlf","1","64","68","60","","","","","","","","","","","","","","","",""
"null","audio/haste1.wav","null","audio-keyboard-response","270","2.1.0","368817","F=YES, J=NO","rj0s688dlf","1","64","68","60","","","","","","","","","","","","","","","",""
"1231","
          <p id=""word"" style=""font-size: 40px;"">coraconate</p>
          <p style=""font-size: 16px;"">F = YES &nbsp;&nbsp;&nbsp; J = NO</p>
        ","f","html-keyboard-response","271","2.1.0","370048","F=YES, J=NO","rj0s688dlf","1","64","68","60","","","","","","","","","coraconate","haste1","pseudoword","pseudoword","j","false","",""
"null","<p style=""font-size: 50px;"">+</p>","null","html-keyboard-response","272","2.1.0","370357","F=YES, J=NO","rj0s688dlf","1","64","68","60","","","","","","","","","","","","","","","",""
"null","audio/beep-329314.mp3","null","audio-keyboard-response","273","2.1.0","371887","F=YES, J=NO","rj0s688dlf","1","64","68","60","","","","","","","","","","","","","","","",""
"null","audio/theory1.wav","null","audio-keyboard-response","274","2.1.0","372518","F=YES, J=NO","rj0s688dlf","1","64","68","60","","","","","","","","","","","","","","","",""
"601","
          <p id=""word"" style=""font-size: 40px;"">construct</p>
          <p style=""font-size: 16px;"">F = YES &nbsp;&nbsp;&nbsp; J = NO</p>
        ","f","html-keyboard-response","275","2.1.0","373120","F=YES, J=NO","rj0s688dlf","1","64","68","60","","","","","","","","","construct","theory1","metaphor","experimental","f","true","",""
"null","<p style=""font-size: 50px;"">+</p>","null","html-keyboard-response","276","2.1.0","373435","F=YES, J=NO","rj0s688dlf","1","64","68","60","","","","","","","","","","","","","","","",""
"null","audio/beep-329314.mp3","null","audio-keyboard-response","277","2.1.0","374969","F=YES, J=NO","rj0s688dlf","1","64","68","60","","","","","","","","","","","","","","","",""
"null","audio/novel.wav","null","audio-keyboard-response","278","2.1.0","375596","F=YES, J=NO","rj0s688dlf","1","64","68","60","","","","","","","","","","","","","","","",""
"531","
          <p id=""word"" style=""font-size: 40px;"">type</p>
          <p style=""font-size: 16px;"">F = YES &nbsp;&nbsp;&nbsp; J = NO</p>
        ","f","html-keyboard-response","279","2.1.0","376128","F=YES, J=NO","rj0s688dlf","1","64","68","60","","","","","","","","","type","novel","filler","filler","f","true","",""
"null","<p style=""font-size: 50px;"">+</p>","null","html-keyboard-response","280","2.1.0","376445","F=YES, J=NO","rj0s688dlf","1","64","68","60","","","","","","","","","","","","","","","",""
"null","audio/beep-329314.mp3","null","audio-keyboard-response","281","2.1.0","377986","F=YES, J=NO","rj0s688dlf","1","64","68","60","","","","","","","","","","","","","","","",""
"null","audio/cinema1.wav","null","audio-keyboard-response","282","2.1.0","378736","F=YES, J=NO","rj0s688dlf","1","64","68","60","","","","","","","","","","","","","","","",""
"1017","
          <p id=""word"" style=""font-size: 40px;"">murple</p>
          <p style=""font-size: 16px;"">F = YES &nbsp;&nbsp;&nbsp; J = NO</p>
        ","j","html-keyboard-response","283","2.1.0","379754","F=YES, J=NO","rj0s688dlf","1","64","68","60","","","","","","","","","murple","cinema1","pseudoword","pseudoword","j","true","",""
"null","<p style=""font-size: 50px;"">+</p>","null","html-keyboard-response","284","2.1.0","380056","F=YES, J=NO","rj0s688dlf","1","64","68","60","","","","","","","","","","","","","","","",""
"null","audio/beep-329314.mp3","null","audio-keyboard-response","285","2.1.0","381586","F=YES, J=NO","rj0s688dlf","1","64","68","60","","","","","","","","","","","","","","","",""
"null","audio/effort.wav","null","audio-keyboard-response","286","2.1.0","382157","F=YES, J=NO","rj0s688dlf","1","64","68","60","","","","","","","","","","","","","","","",""
"1178","
          <p id=""word"" style=""font-size: 40px;"">whonk</p>
          <p style=""font-size: 16px;"">F = YES &nbsp;&nbsp;&nbsp; J = NO</p>
        ","f","html-keyboard-response","287","2.1.0","383336","F=YES, J=NO","rj0s688dlf","1","64","68","60","","","","","","","","","whonk","effort","pseudoword","pseudoword","j","false","",""
"null","<p style=""font-size: 50px;"">+</p>","null","html-keyboard-response","288","2.1.0","383640","F=YES, J=NO","rj0s688dlf","1","64","68","60","","","","","","","","","","","","","","","",""
"null","audio/beep-329314.mp3","null","audio-keyboard-response","289","2.1.0","385168","F=YES, J=NO","rj0s688dlf","1","64","68","60","","","","","","","","","","","","","","","",""
"null","audio/menu.wav","null","audio-keyboard-response","290","2.1.0","385757","F=YES, J=NO","rj0s688dlf","1","64","68","60","","","","","","","","","","","","","","","",""
"659","
          <p id=""word"" style=""font-size: 40px;"">slice</p>
          <p style=""font-size: 16px;"">F = YES &nbsp;&nbsp;&nbsp; J = NO</p>
        ","f","html-keyboard-response","291","2.1.0","386416","F=YES, J=NO","rj0s688dlf","1","64","68","60","","","","","","","","","slice","menu","filler","filler","f","true","",""
"null","<p style=""font-size: 50px;"">+</p>","null","html-keyboard-response","292","2.1.0","386725","F=YES, J=NO","rj0s688dlf","1","64","68","60","","","","","","","","","","","","","","","",""
"null","audio/beep-329314.mp3","null","audio-keyboard-response","293","2.1.0","388246","F=YES, J=NO","rj0s688dlf","1","64","68","60","","","","","","","","","","","","","","","",""
"null","audio/terrain.wav","null","audio-keyboard-response","294","2.1.0","388858","F=YES, J=NO","rj0s688dlf","1","64","68","60","","","","","","","","","","","","","","","",""
"678","
          <p id=""word"" style=""font-size: 40px;"">navigate</p>
          <p style=""font-size: 16px;"">F = YES &nbsp;&nbsp;&nbsp; J = NO</p>
        ","f","html-keyboard-response","295","2.1.0","389537","F=YES, J=NO","rj0s688dlf","1","64","68","60","","","","","","","","","navigate","terrain","literal","experimental","f","true","",""
"2969","<p>Excellent! You have finished block 2 of 8.</p>
                     <p>Feel free to take a 30 second break.</p>
                     <p>Press any key when you're ready to continue.</p>","f","html-keyboard-response","296","2.1.0","392506","F=YES, J=NO","rj0s688dlf","1","64","68","60","","","","","","","","","","","","","","","",""
"1669","<p>Starting main block 3 of 8. Press any key to continue.</p>","f","html-keyboard-response","297","2.1.0","394176","F=YES, J=NO","rj0s688dlf","1","64","68","60","","","","","","","","","","","","","","","",""
"null","<p style=""font-size: 50px;"">+</p>","null","html-keyboard-response","298","2.1.0","394478","F=YES, J=NO","rj0s688dlf","1","64","68","60","","","","","","","","","","","","","","","",""
"null","audio/beep-329314.mp3","null","audio-keyboard-response","299","2.1.0","396008","F=YES, J=NO","rj0s688dlf","1","64","68","60","","","","","","","","","","","","","","","",""
"null","audio/camera1.wav","null","audio-keyboard-response","300","2.1.0","396498","F=YES, J=NO","rj0s688dlf","1","64","68","60","","","","","","","","","","","","","","","",""
"461","
          <p id=""word"" style=""font-size: 40px;"">stir</p>
          <p style=""font-size: 16px;"">F = YES &nbsp;&nbsp;&nbsp; J = NO</p>
        ","f","html-keyboard-response","301","2.1.0","396960","F=YES, J=NO","rj0s688dlf","1","64","68","60","","","","","","","","","stir","camera1","filler","filler","f","true","",""
"null","<p style=""font-size: 50px;"">+</p>","null","html-keyboard-response","302","2.1.0","397271","F=YES, J=NO","rj0s688dlf","1","64","68","60","","","","","","","","","","","","","","","",""
"null","audio/beep-329314.mp3","null","audio-keyboard-response","303","2.1.0","398807","F=YES, J=NO","rj0s688dlf","1","64","68","60","","","","","","","","","","","","","","","",""
"null","audio/budget1.wav","null","audio-keyboard-response","304","2.1.0","399438","F=YES, J=NO","rj0s688dlf","1","64","68","60","","","","","","","","","","","","","","","",""
"409","
          <p id=""word"" style=""font-size: 40px;"">sulist</p>
          <p style=""font-size: 16px;"">F = YES &nbsp;&nbsp;&nbsp; J = NO</p>
        ","f","html-keyboard-response","305","2.1.0","399848","F=YES, J=NO","rj0s688dlf","1","64","68","60","","","","","","","","","sulist","budget1","pseudoword","pseudoword","j","false","",""
"null","<p style=""font-size: 50px;"">+</p>","null","html-keyboard-response","306","2.1.0","400157","F=YES, J=NO","rj0s688dlf","1","64","68","60","","","","","","","","","","","","","","","",""
"null","audio/beep-329314.mp3","null","audio-keyboard-response","307","2.1.0","401686","F=YES, J=NO","rj0s688dlf","1","64","68","60","","","","","","","","","","","","","","","",""
"null","audio/survey1.wav","null","audio-keyboard-response","308","2.1.0","402558","F=YES, J=NO","rj0s688dlf","1","64","68","60","","","","","","","","","","","","","","","",""
"820","
          <p id=""word"" style=""font-size: 40px;"">imploth</p>
          <p style=""font-size: 16px;"">F = YES &nbsp;&nbsp;&nbsp; J = NO</p>
        ","j","html-keyboard-response","309","2.1.0","403379","F=YES, J=NO","rj0s688dlf","1","64","68","60","","","","","","","","","imploth","survey1","pseudoword","pseudoword","j","true","",""
"null","<p style=""font-size: 50px;"">+</p>","null","html-keyboard-response","310","2.1.0","403693","F=YES, J=NO","rj0s688dlf","1","64","68","60","","","","","","","","","","","","","","","",""
"null","audio/beep-329314.mp3","null","audio-keyboard-response","311","2.1.0","405226","F=YES, J=NO","rj0s688dlf","1","64","68","60","","","","","","","","","","","","","","","",""
"null","audio/tunnel.wav","null","audio-keyboard-response","312","2.1.0","405656","F=YES, J=NO","rj0s688dlf","1","64","68","60","","","","","","","","","","","","","","","",""
"1095","
          <p id=""word"" style=""font-size: 40px;"">gred</p>
          <p style=""font-size: 16px;"">F = YES &nbsp;&nbsp;&nbsp; J = NO</p>
        ","j","html-keyboard-response","313","2.1.0","406752","F=YES, J=NO","rj0s688dlf","1","64","68","60","","","","","","","","","gred","tunnel","pseudoword","pseudoword","j","true","",""
"null","<p style=""font-size: 50px;"">+</p>","null","html-keyboard-response","314","2.1.0","407070","F=YES, J=NO","rj0s688dlf","1","64","68","60","","","","","","","","","","","","","","","",""
"null","audio/beep-329314.mp3","null","audio-keyboard-response","315","2.1.0","408608","F=YES, J=NO","rj0s688dlf","1","64","68","60","","","","","","","","","","","","","","","",""
"null","audio/smirk1.wav","null","audio-keyboard-response","316","2.1.0","409338","F=YES, J=NO","rj0s688dlf","1","64","68","60","","","","","","","","","","","","","","","",""
"790","
          <p id=""word"" style=""font-size: 40px;"">snopt</p>
          <p style=""font-size: 16px;"">F = YES &nbsp;&nbsp;&nbsp; J = NO</p>
        ","j","html-keyboard-response","317","2.1.0","410129","F=YES, J=NO","rj0s688dlf","1","64","68","60","","","","","","","","","snopt","smirk1","pseudoword","pseudoword","j","true","",""
"null","<p style=""font-size: 50px;"">+</p>","null","html-keyboard-response","318","2.1.0","410431","F=YES, J=NO","rj0s688dlf","1","64","68","60","","","","","","","","","","","","","","","",""
"null","audio/beep-329314.mp3","null","audio-keyboard-response","319","2.1.0","411966","F=YES, J=NO","rj0s688dlf","1","64","68","60","","","","","","","","","","","","","","","",""
"null","audio/theory1.wav","null","audio-keyboard-response","320","2.1.0","412579","F=YES, J=NO","rj0s688dlf","1","64","68","60","","","","","","","","","","","","","","","",""
"815","
          <p id=""word"" style=""font-size: 40px;"">scolve</p>
          <p style=""font-size: 16px;"">F = YES &nbsp;&nbsp;&nbsp; J = NO</p>
        ","f","html-keyboard-response","321","2.1.0","413394","F=YES, J=NO","rj0s688dlf","1","64","68","60","","","","","","","","","scolve","theory1","pseudoword","pseudoword","j","false","",""
"null","<p style=""font-size: 50px;"">+</p>","null","html-keyboard-response","322","2.1.0","413707","F=YES, J=NO","rj0s688dlf","1","64","68","60","","","","","","","","","","","","","","","",""
"null","audio/beep-329314.mp3","null","audio-keyboard-response","323","2.1.0","415228","F=YES, J=NO","rj0s688dlf","1","64","68","60","","","","","","","","","","","","","","","",""
"null","audio/scar.wav","null","audio-keyboard-response","324","2.1.0","415957","F=YES, J=NO","rj0s688dlf","1","64","68","60","","","","","","","","","","","","","","","",""
"1106","
          <p id=""word"" style=""font-size: 40px;"">adelineate</p>
          <p style=""font-size: 16px;"">F = YES &nbsp;&nbsp;&nbsp; J = NO</p>
        ","f","html-keyboard-response","325","2.1.0","417064","F=YES, J=NO","rj0s688dlf","1","64","68","60","","","","","","","","","adelineate","scar","pseudoword","pseudoword","j","false","",""
"null","<p style=""font-size: 50px;"">+</p>","null","html-keyboard-response","326","2.1.0","417371","F=YES, J=NO","rj0s688dlf","1","64","68","60","","","","","","","","","","","","","","","",""
"null","audio/beep-329314.mp3","null","audio-keyboard-response","327","2.1.0","418907","F=YES, J=NO","rj0s688dlf","1","64","68","60","","","","","","","","","","","","","","","",""
"null","audio/golf1.wav","null","audio-keyboard-response","328","2.1.0","419456","F=YES, J=NO","rj0s688dlf","1","64","68","60","","","","","","","","","","","","","","","",""
"615","
          <p id=""word"" style=""font-size: 40px;"">bury</p>
          <p style=""font-size: 16px;"">F = YES &nbsp;&nbsp;&nbsp; J = NO</p>
        ","f","html-keyboard-response","329","2.1.0","420072","F=YES, J=NO","rj0s688dlf","1","64","68","60","","","","","","","","","bury","golf1","unrelated","experimental","f","true","",""
"null","<p style=""font-size: 50px;"">+</p>","null","html-keyboard-response","330","2.1.0","420386","F=YES, J=NO","rj0s688dlf","1","64","68","60","","","","","","","","","","","","","","","",""
"null","audio/beep-329314.mp3","null","audio-keyboard-response","331","2.1.0","421928","F=YES, J=NO","rj0s688dlf","1","64","68","60","","","","","","","","","","","","","","","",""
"null","audio/fence.wav","null","audio-keyboard-response","332","2.1.0","422718","F=YES, J=NO","rj0s688dlf","1","64","68","60","","","","","","","","","","","","","","","",""
"593","
          <p id=""word"" style=""font-size: 40px;"">trim</p>
          <p style=""font-size: 16px;"">F = YES &nbsp;&nbsp;&nbsp; J = NO</p>
        ","f","html-keyboard-response","333","2.1.0","423312","F=YES, J=NO","rj0s688dlf","1","64","68","60","","","","","","","","","trim","fence","filler","filler","f","true","",""
"null","<p style=""font-size: 50px;"">+</p>","null","html-keyboard-response","334","2.1.0","423613","F=YES, J=NO","rj0s688dlf","1","64","68","60","","","","","","","","","","","","","","","",""
"null","audio/beep-329314.mp3","null","audio-keyboard-response","335","2.1.0","425148","F=YES, J=NO","rj0s688dlf","1","64","68","60","","","","","","","","","","","","","","","",""
"null","audio/desire.wav","null","audio-keyboard-response","336","2.1.0","425738","F=YES, J=NO","rj0s688dlf","1","64","68","60","","","","","","","","","","","","","","","",""
"543","
          <p id=""word"" style=""font-size: 40px;"">open</p>
          <p style=""font-size: 16px;"">F = YES &nbsp;&nbsp;&nbsp; J = NO</p>
        ","f","html-keyboard-response","337","2.1.0","426282","F=YES, J=NO","rj0s688dlf","1","64","68","60","","","","","","","","","open","desire","unrelated","experimental","f","true","",""
"null","<p style=""font-size: 50px;"">+</p>","null","html-keyboard-response","338","2.1.0","426596","F=YES, J=NO","rj0s688dlf","1","64","68","60","","","","","","","","","","","","","","","",""
"null","audio/beep-329314.mp3","null","audio-keyboard-response","339","2.1.0","428126","F=YES, J=NO","rj0s688dlf","1","64","68","60","","","","","","","","","","","","","","","",""
"null","audio/ankle1.wav","null","audio-keyboard-response","340","2.1.0","428636","F=YES, J=NO","rj0s688dlf","1","64","68","60","","","","","","","","","","","","","","","",""
"835","
          <p id=""word"" style=""font-size: 40px;"">switm</p>
          <p style=""font-size: 16px;"">F = YES &nbsp;&nbsp;&nbsp; J = NO</p>
        ","j","html-keyboard-response","341","2.1.0","429472","F=YES, J=NO","rj0s688dlf","1","64","68","60","","","","","","","","","switm","ankle1","pseudoword","pseudoword","j","true","",""
"null","<p style=""font-size: 50px;"">+</p>","null","html-keyboard-response","342","2.1.0","429780","F=YES, J=NO","rj0s688dlf","1","64","68","60","","","","","","","","","","","","","","","",""
"null","audio/beep-329314.mp3","null","audio-keyboard-response","343","2.1.0","431309","F=YES, J=NO","rj0s688dlf","1","64","68","60","","","","","","","","","","","","","","","",""
"null","audio/pine.wav","null","audio-keyboard-response","344","2.1.0","431798","F=YES, J=NO","rj0s688dlf","1","64","68","60","","","","","","","","","","","","","","","",""
"914","
          <p id=""word"" style=""font-size: 40px;"">crebble</p>
          <p style=""font-size: 16px;"">F = YES &nbsp;&nbsp;&nbsp; J = NO</p>
        ","f","html-keyboard-response","345","2.1.0","432712","F=YES, J=NO","rj0s688dlf","1","64","68","60","","","","","","","","","crebble","pine","pseudoword","pseudoword","j","false","",""
"null","<p style=""font-size: 50px;"">+</p>","null","html-keyboard-response","346","2.1.0","433022","F=YES, J=NO","rj0s688dlf","1","64","68","60","","","","","","","","","","","","","","","",""
"null","audio/beep-329314.mp3","null","audio-keyboard-response","347","2.1.0","434567","F=YES, J=NO","rj0s688dlf","1","64","68","60","","","","","","","","","","","","","","","",""
"null","audio/death1.wav","null","audio-keyboard-response","348","2.1.0","435057","F=YES, J=NO","rj0s688dlf","1","64","68","60","","","","","","","","","","","","","","","",""
"759","
          <p id=""word"" style=""font-size: 40px;"">conquer</p>
          <p style=""font-size: 16px;"">F = YES &nbsp;&nbsp;&nbsp; J = NO</p>
        ","f","html-keyboard-response","349","2.1.0","435816","F=YES, J=NO","rj0s688dlf","1","64","68","60","","","","","","","","","conquer","death1","metaphor","experimental","f","true","",""
"null","<p style=""font-size: 50px;"">+</p>","null","html-keyboard-response","350","2.1.0","436128","F=YES, J=NO","rj0s688dlf","1","64","68","60","","","","","","","","","","","","","","","",""
"null","audio/beep-329314.mp3","null","audio-keyboard-response","351","2.1.0","437668","F=YES, J=NO","rj0s688dlf","1","64","68","60","","","","","","","","","","","","","","","",""
"null","audio/news.wav","null","audio-keyboard-response","352","2.1.0","438457","F=YES, J=NO","rj0s688dlf","1","64","68","60","","","","","","","","","","","","","","","",""
"664","
          <p id=""word"" style=""font-size: 40px;"">digest</p>
          <p style=""font-size: 16px;"">F = YES &nbsp;&nbsp;&nbsp; J = NO</p>
        ","f","html-keyboard-response","353","2.1.0","439122","F=YES, J=NO","rj0s688dlf","1","64","68","60","","","","","","","","","digest","news","metaphor","experimental","f","true","",""
"null","<p style=""font-size: 50px;"">+</p>","null","html-keyboard-response","354","2.1.0","439425","F=YES, J=NO","rj0s688dlf","1","64","68","60","","","","","","","","","","","","","","","",""
"null","audio/beep-329314.mp3","null","audio-keyboard-response","355","2.1.0","440966","F=YES, J=NO","rj0s688dlf","1","64","68","60","","","","","","","","","","","","","","","",""
"null","audio/skin1.wav","null","audio-keyboard-response","356","2.1.0","441536","F=YES, J=NO","rj0s688dlf","1","64","68","60","","","","","","","","","","","","","","","",""
"446","
          <p id=""word"" style=""font-size: 40px;"">expose</p>
          <p style=""font-size: 16px;"">F = YES &nbsp;&nbsp;&nbsp; J = NO</p>
        ","f","html-keyboard-response","357","2.1.0","441983","F=YES, J=NO","rj0s688dlf","1","64","68","60","","","","","","","","","expose","skin1","literal","experimental","f","true","",""
"null","<p style=""font-size: 50px;"">+</p>","null","html-keyboard-response","358","2.1.0","442298","F=YES, J=NO","rj0s688dlf","1","64","68","60","","","","","","","","","","","","","","","",""
"null","audio/beep-329314.mp3","null","audio-keyboard-response","359","2.1.0","443827","F=YES, J=NO","rj0s688dlf","1","64","68","60","","","","","","","","","","","","","","","",""
"null","audio/handle.wav","null","audio-keyboard-response","360","2.1.0","444457","F=YES, J=NO","rj0s688dlf","1","64","68","60","","","","","","","","","","","","","","","",""
"782","
          <p id=""word"" style=""font-size: 40px;"">moutes</p>
          <p style=""font-size: 16px;"">F = YES &nbsp;&nbsp;&nbsp; J = NO</p>
        ","j","html-keyboard-response","361","2.1.0","445240","F=YES, J=NO","rj0s688dlf","1","64","68","60","","","","","","","","","moutes","handle","pseudoword","pseudoword","j","true","",""
"2327","<p>Excellent! You have finished block 3 of 8.</p>
                     <p>Feel free to take a 30 second break.</p>
                     <p>Press any key when you're ready to continue.</p>","j","html-keyboard-response","362","2.1.0","447568","F=YES, J=NO","rj0s688dlf","1","64","68","60","","","","","","","","","","","","","","","",""
"1690","<p>Starting main block 4 of 8. Press any key to continue.</p>","j","html-keyboard-response","363","2.1.0","449258","F=YES, J=NO","rj0s688dlf","1","64","68","60","","","","","","","","","","","","","","","",""
"null","<p style=""font-size: 50px;"">+</p>","null","html-keyboard-response","364","2.1.0","449566","F=YES, J=NO","rj0s688dlf","1","64","68","60","","","","","","","","","","","","","","","",""
"null","audio/beep-329314.mp3","null","audio-keyboard-response","365","2.1.0","451107","F=YES, J=NO","rj0s688dlf","1","64","68","60","","","","","","","","","","","","","","","",""
"null","audio/pride1.wav","null","audio-keyboard-response","366","2.1.0","451797","F=YES, J=NO","rj0s688dlf","1","64","68","60","","","","","","","","","","","","","","","",""
"395","
          <p id=""word"" style=""font-size: 40px;"">hurt</p>
          <p style=""font-size: 16px;"">F = YES &nbsp;&nbsp;&nbsp; J = NO</p>
        ","f","html-keyboard-response","367","2.1.0","452192","F=YES, J=NO","rj0s688dlf","1","64","68","60","","","","","","","","","hurt","pride1","metaphor","experimental","f","true","",""
"null","<p style=""font-size: 50px;"">+</p>","null","html-keyboard-response","368","2.1.0","452502","F=YES, J=NO","rj0s688dlf","1","64","68","60","","","","","","","","","","","","","","","",""
"null","audio/beep-329314.mp3","null","audio-keyboard-response","369","2.1.0","454027","F=YES, J=NO","rj0s688dlf","1","64","68","60","","","","","","","","","","","","","","","",""
"null","audio/baby.wav","null","audio-keyboard-response","370","2.1.0","454498","F=YES, J=NO","rj0s688dlf","1","64","68","60","","","","","","","","","","","","","","","",""
"413","
          <p id=""word"" style=""font-size: 40px;"">lift</p>
          <p style=""font-size: 16px;"">F = YES &nbsp;&nbsp;&nbsp; J = NO</p>
        ","f","html-keyboard-response","371","2.1.0","454912","F=YES, J=NO","rj0s688dlf","1","64","68","60","","","","","","","","","lift","baby","filler","filler","f","true","",""
"null","<p style=""font-size: 50px;"">+</p>","null","html-keyboard-response","372","2.1.0","455223","F=YES, J=NO","rj0s688dlf","1","64","68","60","","","","","","","","","","","","","","","",""
"null","audio/beep-329314.mp3","null","audio-keyboard-response","373","2.1.0","456766","F=YES, J=NO","rj0s688dlf","1","64","68","60","","","","","","","","","","","","","","","",""
"null","audio/prisoner.wav","null","audio-keyboard-response","374","2.1.0","457277","F=YES, J=NO","rj0s688dlf","1","64","68","60","","","","","","","","","","","","","","","",""
"858","
          <p id=""word"" style=""font-size: 40px;"">egotian</p>
          <p style=""font-size: 16px;"">F = YES &nbsp;&nbsp;&nbsp; J = NO</p>
        ","j","html-keyboard-response","375","2.1.0","458136","F=YES, J=NO","rj0s688dlf","1","64","68","60","","","","","","","","","egotian","prisoner","pseudoword","pseudoword","j","true","",""
"null","<p style=""font-size: 50px;"">+</p>","null","html-keyboard-response","376","2.1.0","458438","F=YES, J=NO","rj0s688dlf","1","64","68","60","","","","","","","","","","","","","","","",""
"null","audio/beep-329314.mp3","null","audio-keyboard-response","377","2.1.0","459966","F=YES, J=NO","rj0s688dlf","1","64","68","60","","","","","","","","","","","","","","","",""
"null","audio/breath.wav","null","audio-keyboard-response","378","2.1.0","460517","F=YES, J=NO","rj0s688dlf","1","64","68","60","","","","","","","","","","","","","","","",""
"484","
          <p id=""word"" style=""font-size: 40px;"">pack</p>
          <p style=""font-size: 16px;"">F = YES &nbsp;&nbsp;&nbsp; J = NO</p>
        ","f","html-keyboard-response","379","2.1.0","461002","F=YES, J=NO","rj0s688dlf","1","64","68","60","","","","","","","","","pack","breath","filler","filler","f","true","",""
"null","<p style=""font-size: 50px;"">+</p>","null","html-keyboard-response","380","2.1.0","461303","F=YES, J=NO","rj0s688dlf","1","64","68","60","","","","","","","","","","","","","","","",""
"null","audio/beep-329314.mp3","null","audio-keyboard-response","381","2.1.0","462827","F=YES, J=NO","rj0s688dlf","1","64","68","60","","","","","","","","","","","","","","","",""
"null","audio/scar.wav","null","audio-keyboard-response","382","2.1.0","463398","F=YES, J=NO","rj0s688dlf","1","64","68","60","","","","","","","","","","","","","","","",""
"465","
          <p id=""word"" style=""font-size: 40px;"">hide</p>
          <p style=""font-size: 16px;"">F = YES &nbsp;&nbsp;&nbsp; J = NO</p>
        ","f","html-keyboard-response","383","2.1.0","463864","F=YES, J=NO","rj0s688dlf","1","64","68","60","","","","","","","","","hide","scar","literal","experimental","f","true","",""
"null","<p style=""font-size: 50px;"">+</p>","null","html-keyboard-response","384","2.1.0","464173","F=YES, J=NO","rj0s688dlf","1","64","68","60","","","","","","","","","","","","","","","",""
"null","audio/beep-329314.mp3","null","audio-keyboard-response","385","2.1.0","465706","F=YES, J=NO","rj0s688dlf","1","64","68","60","","","","","","","","","","","","","","","",""
"null","audio/dollar.wav","null","audio-keyboard-response","386","2.1.0","466096","F=YES, J=NO","rj0s688dlf","1","64","68","60","","","","","","","","","","","","","","","",""
"727","
          <p id=""word"" style=""font-size: 40px;"">gliptism</p>
          <p style=""font-size: 16px;"">F = YES &nbsp;&nbsp;&nbsp; J = NO</p>
        ","j","html-keyboard-response","387","2.1.0","466824","F=YES, J=NO","rj0s688dlf","1","64","68","60","","","","","","","","","gliptism","dollar","pseudoword","pseudoword","j","true","",""
"null","<p style=""font-size: 50px;"">+</p>","null","html-keyboard-response","388","2.1.0","467138","F=YES, J=NO","rj0s688dlf","1","64","68","60","","","","","","","","","","","","","","","",""
"null","audio/beep-329314.mp3","null","audio-keyboard-response","389","2.1.0","468667","F=YES, J=NO","rj0s688dlf","1","64","68","60","","","","","","","","","","","","","","","",""
"null","audio/vehicle1.wav","null","audio-keyboard-response","390","2.1.0","469317","F=YES, J=NO","rj0s688dlf","1","64","68","60","","","","","","","","","","","","","","","",""
"778","
          <p id=""word"" style=""font-size: 40px;"">dropt</p>
          <p style=""font-size: 16px;"">F = YES &nbsp;&nbsp;&nbsp; J = NO</p>
        ","j","html-keyboard-response","391","2.1.0","470096","F=YES, J=NO","rj0s688dlf","1","64","68","60","","","","","","","","","dropt","vehicle1","pseudoword","pseudoword","j","true","",""
