"rt","stimulus","response","trial_type","trial_index","plugin_version","time_elapsed","response_mapping","subject_id","list_index","lextale_score","lextale_word_score","lextale_nonword_score","success","timeout","failed_images","failed_audio","failed_video","task","isWord","isDummy","target","prime","prime_type","stimulus_type","correct_response","correct","section","question_order"
"8006","
    <div style=""max-width: 800px; margin: auto; text-align: left;"">
      <h2>STANFORD UNIVERSITY</h2>
      <h3>Research Information Sheet</h3>
      <p><strong>Protocol Director:</strong> Robert Hawkins<br>
      <strong>Protocol Title:</strong> Communication and social cognition in natural audiovisual contexts<br>
      <strong>IRB#:</strong> 77226</p>

      <p><strong>DESCRIPTION:</strong> You are invited to participate in a research study about language and communication. The purpose of the research is to understand how you interact and communicate with other people in naturalistic settings as a fluent English speaker. This research will be conducted through the Prolific platform, including participants from the US, UK, and Canada. If you decide to participate in this research, you will play a communication game in a group with one or more partners.</p>

      <p><strong>TIME INVOLVEMENT:</strong> The task will last the amount of time advertised on Prolific. You are free to withdraw from the study at any time.</p>

      <p><strong>RISKS AND BENEFITS:</strong> You may become frustrated if your partner gets distracted, or experience discomfort if other participants in your group send text that is inappropriate for the task. We ask you to please be respectful of other participants you might be interacting with to mitigate these risks. You may also experience discomfort when being asked to discuss or challenge emotionally salient political beliefs. Study data will be stored securely, in compliance with Stanford University standards, minimizing the risk of confidentiality breach. This study advances our scientific understanding of how people communicate and collaborate in naturalistic settings. This study may lead to further insights about what can go wrong in teamwork, suggest potential interventions to overcome these barriers, and help to develop assistive technologies that collaborate with human partners. We cannot and do not guarantee or promise that you will receive any benefits from this study.</p>

      <p><strong>PAYMENTS:</strong> You will receive payment in the amount advertised on Prolific. If you do not complete this study, you will receive prorated payment based on the time that you have spent. Additionally, you may be eligible for bonus payments as described in the instructions.</p>

      <p><strong>PARTICIPANT’S RIGHTS:</strong> If you have read this form and have decided to participate in this project, please understand your participation is voluntary and you have the right to withdraw your consent or discontinue participation at any time without penalty or loss of benefits to which you are otherwise entitled. The alternative is not to participate. You have the right to refuse to answer particular questions. The results of this research study may be presented at scientific or professional meetings or published in scientific journals. Your individual privacy will be maintained in all published and written data resulting from the study. In accordance with scientific norms, the data from this study may be used or shared with other researchers for future research (after removing personally identifying information) without additional consent from you.</p>

      <p><strong>CONTACT INFORMATION:</strong><br>
      Questions: If you have any questions, concerns or complaints about this research, its procedures, risks and benefits, contact the Protocol Director, Robert Hawkins (<a href=""mailto:rdhawkins@stanford.edu"">rdhawkins@stanford.edu</a>, 217-549-6923).<br>
      Independent Contact: If you are not satisfied with how this study is being conducted, or if you have any concerns, complaints, or general questions about the research or your rights as a participant, please contact the Stanford Institutional Review Board (IRB) to speak to someone independent of the research team at 650-723-2480 or toll free at 1-866-680-2906, or email at <a href=""mailto:irbnon-med@stanford.edu"">irbnon-med@stanford.edu</a>. You can also write to the Stanford IRB, Stanford University, 1705 El Camino Real, Palo Alto, CA 94306.</p>

      <p><strong>Please save or print a copy of this page for your records.</strong></p>
      <p>If you agree to participate in this research, click ""Continue"" below.</p>
    </div>
  ","0","html-button-response","0","2.1.0","8009","J=YES, F=NO","rls1289b3h","2","84","83","85","","","","","","","","","","","","","","","",""
"14844","
    <div style=""max-width: 800px; margin: auto; text-align: left;"">
      <h2>Welcome!</h2>
      <p>Thank you for participating in this study. The experiment consists of three parts:</p>
      <ol>
        <li>An English vocabulary test</li>
        <li>A main task in which you will hear and see words, and decide whether the written word is a real English word</li>
        <li>A brief survey about your background</li>
      </ol>
      <p>Each part will be introduced before it begins.</p>
      <p>Please make sure you are in a quiet environment and can hear audio clearly for the final task.</p>
      <p style=""margin-top: 2em;"">Press any key to begin.</p>
    </div>
  ","ArrowRight","html-keyboard-response","1","2.1.0","22854","J=YES, F=NO","rls1289b3h","2","84","83","85","","","","","","","","","","","","","","","",""
"","","","preload","2","2.1.0","46411","J=YES, F=NO","rls1289b3h","2","84","83","85","true","false","[]","[]","[]","","","","","","","","","","",""
"7542","
    <div style=""max-width: 800px; margin: auto; text-align: left;"">
      <h2>Part 1: Vocabulary Test</h2>
      <p>You will now complete the first part of the study: a short English vocabulary test.</p>
      <p>This test is called <strong>LexTALE</strong> and helps us get a general sense of your English proficiency.</p>
      <p style=""margin-top: 2em;"">Press any key to continue.</p>
    </div>
  ","ArrowRight","html-keyboard-response","3","2.1.0","53954","J=YES, F=NO","rls1289b3h","2","84","83","85","","","","","","","","","","","","","","","",""
"18645","
    <div style=""max-width: 800px; margin: auto; text-align: left;"">
      <h2>LexTALE Vocabulary Test</h2>
      <p>In this test, you will see a series of letter strings—one at a time.</p>
      <p>Your task is to decide whether each string is a real English word.</p>
      <p><strong>Key responses:</strong></p>
      <ul>
        <li><strong>J</strong> = YES (real English word)</li>
        <li><strong>F</strong> = NO (not a real English word)</li>
      </ul>
      <p>There is no time limit, but please try to be accurate.</p>
      <p style=""margin-top: 2em;"">Press any key to begin.</p>
    </div>
  "," ","html-keyboard-response","4","2.1.0","72599","J=YES, F=NO","rls1289b3h","2","84","83","85","","","","","","","","","","","","","","","",""
"7240","
  <p style=""font-size: 40px;"">platery</p>
  <p style=""font-size: 16px;"">J = YES &nbsp;&nbsp;&nbsp; F = NO</p>
","j","html-keyboard-response","5","2.1.0","79840","J=YES, F=NO","rls1289b3h","2","84","83","85","","","","","","lextale","false","true","","","","","","","",""
"1277","
  <p style=""font-size: 40px;"">denial</p>
  <p style=""font-size: 16px;"">J = YES &nbsp;&nbsp;&nbsp; F = NO</p>
","j","html-keyboard-response","6","2.1.0","81117","J=YES, F=NO","rls1289b3h","2","84","83","85","","","","","","lextale","true","true","","","","","","","",""
"2834","
  <p style=""font-size: 40px;"">marrit</p>
  <p style=""font-size: 16px;"">J = YES &nbsp;&nbsp;&nbsp; F = NO</p>
","f","html-keyboard-response","7","2.1.0","83952","J=YES, F=NO","rls1289b3h","2","84","83","85","","","","","","lextale","false","true","","","","","","","",""
"1143","
  <p style=""font-size: 40px;"">bottle</p>
  <p style=""font-size: 16px;"">J = YES &nbsp;&nbsp;&nbsp; F = NO</p>
","j","html-keyboard-response","8","2.1.0","85095","J=YES, F=NO","rls1289b3h","2","84","83","85","","","","","","lextale","true","false","","","","","","","",""
"2644","
  <p style=""font-size: 40px;"">birst</p>
  <p style=""font-size: 16px;"">J = YES &nbsp;&nbsp;&nbsp; F = NO</p>
","f","html-keyboard-response","9","2.1.0","87739","J=YES, F=NO","rls1289b3h","2","84","83","85","","","","","","lextale","false","false","","","","","","","",""
"1117","
  <p style=""font-size: 40px;"">envy</p>
  <p style=""font-size: 16px;"">J = YES &nbsp;&nbsp;&nbsp; F = NO</p>
","j","html-keyboard-response","10","2.1.0","88857","J=YES, F=NO","rls1289b3h","2","84","83","85","","","","","","lextale","true","false","","","","","","","",""
"1681","
  <p style=""font-size: 40px;"">brang</p>
  <p style=""font-size: 16px;"">J = YES &nbsp;&nbsp;&nbsp; F = NO</p>
","f","html-keyboard-response","11","2.1.0","90538","J=YES, F=NO","rls1289b3h","2","84","83","85","","","","","","lextale","false","false","","","","","","","",""
"898","
  <p style=""font-size: 40px;"">huge</p>
  <p style=""font-size: 16px;"">J = YES &nbsp;&nbsp;&nbsp; F = NO</p>
","j","html-keyboard-response","12","2.1.0","91436","J=YES, F=NO","rls1289b3h","2","84","83","85","","","","","","lextale","true","false","","","","","","","",""
"1434","
  <p style=""font-size: 40px;"">plove</p>
  <p style=""font-size: 16px;"">J = YES &nbsp;&nbsp;&nbsp; F = NO</p>
","f","html-keyboard-response","13","2.1.0","92871","J=YES, F=NO","rls1289b3h","2","84","83","85","","","","","","lextale","false","false","","","","","","","",""
"1026","
  <p style=""font-size: 40px;"">border</p>
  <p style=""font-size: 16px;"">J = YES &nbsp;&nbsp;&nbsp; F = NO</p>
","j","html-keyboard-response","14","2.1.0","93897","J=YES, F=NO","rls1289b3h","2","84","83","85","","","","","","lextale","true","false","","","","","","","",""
"1922","
  <p style=""font-size: 40px;"">flimsy</p>
  <p style=""font-size: 16px;"">J = YES &nbsp;&nbsp;&nbsp; F = NO</p>
","j","html-keyboard-response","15","2.1.0","95819","J=YES, F=NO","rls1289b3h","2","84","83","85","","","","","","lextale","true","false","","","","","","","",""
"892","
  <p style=""font-size: 40px;"">drain</p>
  <p style=""font-size: 16px;"">J = YES &nbsp;&nbsp;&nbsp; F = NO</p>
","j","html-keyboard-response","16","2.1.0","96711","J=YES, F=NO","rls1289b3h","2","84","83","85","","","","","","lextale","true","false","","","","","","","",""
"2049","
  <p style=""font-size: 40px;"">twindle</p>
  <p style=""font-size: 16px;"">J = YES &nbsp;&nbsp;&nbsp; F = NO</p>
","f","html-keyboard-response","17","2.1.0","98760","J=YES, F=NO","rls1289b3h","2","84","83","85","","","","","","lextale","false","false","","","","","","","",""
"3022","
  <p style=""font-size: 40px;"">propose</p>
  <p style=""font-size: 16px;"">J = YES &nbsp;&nbsp;&nbsp; F = NO</p>
","j","html-keyboard-response","18","2.1.0","101783","J=YES, F=NO","rls1289b3h","2","84","83","85","","","","","","lextale","true","false","","","","","","","",""
"2027","
  <p style=""font-size: 40px;"">forlay</p>
  <p style=""font-size: 16px;"">J = YES &nbsp;&nbsp;&nbsp; F = NO</p>
","f","html-keyboard-response","19","2.1.0","103811","J=YES, F=NO","rls1289b3h","2","84","83","85","","","","","","lextale","false","false","","","","","","","",""
"3819","
  <p style=""font-size: 40px;"">tenant</p>
  <p style=""font-size: 16px;"">J = YES &nbsp;&nbsp;&nbsp; F = NO</p>
","j","html-keyboard-response","20","2.1.0","107630","J=YES, F=NO","rls1289b3h","2","84","83","85","","","","","","lextale","true","false","","","","","","","",""
"1118","
  <p style=""font-size: 40px;"">strain</p>
  <p style=""font-size: 16px;"">J = YES &nbsp;&nbsp;&nbsp; F = NO</p>
","j","html-keyboard-response","21","2.1.0","108749","J=YES, F=NO","rls1289b3h","2","84","83","85","","","","","","lextale","true","false","","","","","","","",""
"1406","
  <p style=""font-size: 40px;"">holster</p>
  <p style=""font-size: 16px;"">J = YES &nbsp;&nbsp;&nbsp; F = NO</p>
","j","html-keyboard-response","22","2.1.0","110155","J=YES, F=NO","rls1289b3h","2","84","83","85","","","","","","lextale","true","false","","","","","","","",""
"1307","
  <p style=""font-size: 40px;"">hinder</p>
  <p style=""font-size: 16px;"">J = YES &nbsp;&nbsp;&nbsp; F = NO</p>
","j","html-keyboard-response","23","2.1.0","111462","J=YES, F=NO","rls1289b3h","2","84","83","85","","","","","","lextale","true","false","","","","","","","",""
"1242","
  <p style=""font-size: 40px;"">swindle</p>
  <p style=""font-size: 16px;"">J = YES &nbsp;&nbsp;&nbsp; F = NO</p>
","j","html-keyboard-response","24","2.1.0","112704","J=YES, F=NO","rls1289b3h","2","84","83","85","","","","","","lextale","true","false","","","","","","","",""
"1084","
  <p style=""font-size: 40px;"">nuder</p>
  <p style=""font-size: 16px;"">J = YES &nbsp;&nbsp;&nbsp; F = NO</p>
","f","html-keyboard-response","25","2.1.0","113788","J=YES, F=NO","rls1289b3h","2","84","83","85","","","","","","lextale","false","false","","","","","","","",""
"867","
  <p style=""font-size: 40px;"">pillow</p>
  <p style=""font-size: 16px;"">J = YES &nbsp;&nbsp;&nbsp; F = NO</p>
","j","html-keyboard-response","26","2.1.0","114655","J=YES, F=NO","rls1289b3h","2","84","83","85","","","","","","lextale","true","false","","","","","","","",""
"4751","
  <p style=""font-size: 40px;"">shumble</p>
  <p style=""font-size: 16px;"">J = YES &nbsp;&nbsp;&nbsp; F = NO</p>
","f","html-keyboard-response","27","2.1.0","119406","J=YES, F=NO","rls1289b3h","2","84","83","85","","","","","","lextale","false","false","","","","","","","",""
"1260","
  <p style=""font-size: 40px;"">thirst</p>
  <p style=""font-size: 16px;"">J = YES &nbsp;&nbsp;&nbsp; F = NO</p>
","j","html-keyboard-response","28","2.1.0","120666","J=YES, F=NO","rls1289b3h","2","84","83","85","","","","","","lextale","true","false","","","","","","","",""
"3756","
  <p style=""font-size: 40px;"">unsail</p>
  <p style=""font-size: 16px;"">J = YES &nbsp;&nbsp;&nbsp; F = NO</p>
","f","html-keyboard-response","29","2.1.0","124422","J=YES, F=NO","rls1289b3h","2","84","83","85","","","","","","lextale","false","false","","","","","","","",""
"5998","
  <p style=""font-size: 40px;"">rifle</p>
  <p style=""font-size: 16px;"">J = YES &nbsp;&nbsp;&nbsp; F = NO</p>
","j","html-keyboard-response","30","2.1.0","130420","J=YES, F=NO","rls1289b3h","2","84","83","85","","","","","","lextale","true","false","","","","","","","",""
"2249","
  <p style=""font-size: 40px;"">mush</p>
  <p style=""font-size: 16px;"">J = YES &nbsp;&nbsp;&nbsp; F = NO</p>
","j","html-keyboard-response","31","2.1.0","132669","J=YES, F=NO","rls1289b3h","2","84","83","85","","","","","","lextale","false","false","","","","","","","",""
"4202","
  <p style=""font-size: 40px;"">drench</p>
  <p style=""font-size: 16px;"">J = YES &nbsp;&nbsp;&nbsp; F = NO</p>
","j","html-keyboard-response","32","2.1.0","136872","J=YES, F=NO","rls1289b3h","2","84","83","85","","","","","","lextale","true","false","","","","","","","",""
"930","
  <p style=""font-size: 40px;"">snirt</p>
  <p style=""font-size: 16px;"">J = YES &nbsp;&nbsp;&nbsp; F = NO</p>
","f","html-keyboard-response","33","2.1.0","137802","J=YES, F=NO","rls1289b3h","2","84","83","85","","","","","","lextale","false","false","","","","","","","",""
"1096","
  <p style=""font-size: 40px;"">bitter</p>
  <p style=""font-size: 16px;"">J = YES &nbsp;&nbsp;&nbsp; F = NO</p>
","j","html-keyboard-response","34","2.1.0","138898","J=YES, F=NO","rls1289b3h","2","84","83","85","","","","","","lextale","true","false","","","","","","","",""
"1346","
  <p style=""font-size: 40px;"">pliff</p>
  <p style=""font-size: 16px;"">J = YES &nbsp;&nbsp;&nbsp; F = NO</p>
","f","html-keyboard-response","35","2.1.0","140244","J=YES, F=NO","rls1289b3h","2","84","83","85","","","","","","lextale","false","false","","","","","","","",""
"1431","
  <p style=""font-size: 40px;"">tablet</p>
  <p style=""font-size: 16px;"">J = YES &nbsp;&nbsp;&nbsp; F = NO</p>
","j","html-keyboard-response","36","2.1.0","141675","J=YES, F=NO","rls1289b3h","2","84","83","85","","","","","","lextale","true","false","","","","","","","",""
"1219","
  <p style=""font-size: 40px;"">glimmer</p>
  <p style=""font-size: 16px;"">J = YES &nbsp;&nbsp;&nbsp; F = NO</p>
","j","html-keyboard-response","37","2.1.0","142894","J=YES, F=NO","rls1289b3h","2","84","83","85","","","","","","lextale","true","false","","","","","","","",""
"2174","
  <p style=""font-size: 40px;"">slink</p>
  <p style=""font-size: 16px;"">J = YES &nbsp;&nbsp;&nbsp; F = NO</p>
","j","html-keyboard-response","38","2.1.0","145068","J=YES, F=NO","rls1289b3h","2","84","83","85","","","","","","lextale","true","false","","","","","","","",""
"1068","
  <p style=""font-size: 40px;"">clever</p>
  <p style=""font-size: 16px;"">J = YES &nbsp;&nbsp;&nbsp; F = NO</p>
","j","html-keyboard-response","39","2.1.0","146136","J=YES, F=NO","rls1289b3h","2","84","83","85","","","","","","lextale","true","false","","","","","","","",""
"2196","
  <p style=""font-size: 40px;"">grum</p>
  <p style=""font-size: 16px;"">J = YES &nbsp;&nbsp;&nbsp; F = NO</p>
","f","html-keyboard-response","40","2.1.0","148332","J=YES, F=NO","rls1289b3h","2","84","83","85","","","","","","lextale","false","false","","","","","","","",""
"1210","
  <p style=""font-size: 40px;"">string</p>
  <p style=""font-size: 16px;"">J = YES &nbsp;&nbsp;&nbsp; F = NO</p>
","j","html-keyboard-response","41","2.1.0","149542","J=YES, F=NO","rls1289b3h","2","84","83","85","","","","","","lextale","true","false","","","","","","","",""
"1585","
  <p style=""font-size: 40px;"">plim</p>
  <p style=""font-size: 16px;"">J = YES &nbsp;&nbsp;&nbsp; F = NO</p>
","f","html-keyboard-response","42","2.1.0","151128","J=YES, F=NO","rls1289b3h","2","84","83","85","","","","","","lextale","false","false","","","","","","","",""
"1494","
  <p style=""font-size: 40px;"">cable</p>
  <p style=""font-size: 16px;"">J = YES &nbsp;&nbsp;&nbsp; F = NO</p>
","j","html-keyboard-response","43","2.1.0","152622","J=YES, F=NO","rls1289b3h","2","84","83","85","","","","","","lextale","true","false","","","","","","","",""
"1403","
  <p style=""font-size: 40px;"">shrivel</p>
  <p style=""font-size: 16px;"">J = YES &nbsp;&nbsp;&nbsp; F = NO</p>
","j","html-keyboard-response","44","2.1.0","154025","J=YES, F=NO","rls1289b3h","2","84","83","85","","","","","","lextale","true","false","","","","","","","",""
"1395","
  <p style=""font-size: 40px;"">tarnish</p>
  <p style=""font-size: 16px;"">J = YES &nbsp;&nbsp;&nbsp; F = NO</p>
","j","html-keyboard-response","45","2.1.0","155420","J=YES, F=NO","rls1289b3h","2","84","83","85","","","","","","lextale","true","false","","","","","","","",""
"1269","
  <p style=""font-size: 40px;"">blim</p>
  <p style=""font-size: 16px;"">J = YES &nbsp;&nbsp;&nbsp; F = NO</p>
","f","html-keyboard-response","46","2.1.0","156689","J=YES, F=NO","rls1289b3h","2","84","83","85","","","","","","lextale","false","false","","","","","","","",""
"5941","
  <p style=""font-size: 40px;"">stifle</p>
  <p style=""font-size: 16px;"">J = YES &nbsp;&nbsp;&nbsp; F = NO</p>
","f","html-keyboard-response","47","2.1.0","162631","J=YES, F=NO","rls1289b3h","2","84","83","85","","","","","","lextale","true","false","","","","","","","",""
"1719","
  <p style=""font-size: 40px;"">bint</p>
  <p style=""font-size: 16px;"">J = YES &nbsp;&nbsp;&nbsp; F = NO</p>
","f","html-keyboard-response","48","2.1.0","164349","J=YES, F=NO","rls1289b3h","2","84","83","85","","","","","","lextale","false","false","","","","","","","",""
"1169","
  <p style=""font-size: 40px;"">purple</p>
  <p style=""font-size: 16px;"">J = YES &nbsp;&nbsp;&nbsp; F = NO</p>
","j","html-keyboard-response","49","2.1.0","165518","J=YES, F=NO","rls1289b3h","2","84","83","85","","","","","","lextale","true","false","","","","","","","",""
"7405","
  <p style=""font-size: 40px;"">wriggle</p>
  <p style=""font-size: 16px;"">J = YES &nbsp;&nbsp;&nbsp; F = NO</p>
","j","html-keyboard-response","50","2.1.0","172924","J=YES, F=NO","rls1289b3h","2","84","83","85","","","","","","lextale","true","false","","","","","","","",""
"2008","
  <p style=""font-size: 40px;"">mangle</p>
  <p style=""font-size: 16px;"">J = YES &nbsp;&nbsp;&nbsp; F = NO</p>
","j","html-keyboard-response","51","2.1.0","174933","J=YES, F=NO","rls1289b3h","2","84","83","85","","","","","","lextale","true","false","","","","","","","",""
"1281","
  <p style=""font-size: 40px;"">shramp</p>
  <p style=""font-size: 16px;"">J = YES &nbsp;&nbsp;&nbsp; F = NO</p>
","f","html-keyboard-response","52","2.1.0","176214","J=YES, F=NO","rls1289b3h","2","84","83","85","","","","","","lextale","false","false","","","","","","","",""
"1682","
  <p style=""font-size: 40px;"">flirt</p>
  <p style=""font-size: 16px;"">J = YES &nbsp;&nbsp;&nbsp; F = NO</p>
","j","html-keyboard-response","53","2.1.0","177896","J=YES, F=NO","rls1289b3h","2","84","83","85","","","","","","lextale","true","false","","","","","","","",""
"1373","
  <p style=""font-size: 40px;"">frip</p>
  <p style=""font-size: 16px;"">J = YES &nbsp;&nbsp;&nbsp; F = NO</p>
","f","html-keyboard-response","54","2.1.0","179269","J=YES, F=NO","rls1289b3h","2","84","83","85","","","","","","lextale","false","false","","","","","","","",""
"2184","
  <p style=""font-size: 40px;"">tangle</p>
  <p style=""font-size: 16px;"">J = YES &nbsp;&nbsp;&nbsp; F = NO</p>
","j","html-keyboard-response","55","2.1.0","181453","J=YES, F=NO","rls1289b3h","2","84","83","85","","","","","","lextale","true","false","","","","","","","",""
"1093","
  <p style=""font-size: 40px;"">crumble</p>
  <p style=""font-size: 16px;"">J = YES &nbsp;&nbsp;&nbsp; F = NO</p>
","j","html-keyboard-response","56","2.1.0","182546","J=YES, F=NO","rls1289b3h","2","84","83","85","","","","","","lextale","true","false","","","","","","","",""
"1785","
  <p style=""font-size: 40px;"">wrinkle</p>
  <p style=""font-size: 16px;"">J = YES &nbsp;&nbsp;&nbsp; F = NO</p>
","j","html-keyboard-response","57","2.1.0","184332","J=YES, F=NO","rls1289b3h","2","84","83","85","","","","","","lextale","true","false","","","","","","","",""
"5554","
  <p style=""font-size: 40px;"">slumb</p>
  <p style=""font-size: 16px;"">J = YES &nbsp;&nbsp;&nbsp; F = NO</p>
","f","html-keyboard-response","58","2.1.0","189886","J=YES, F=NO","rls1289b3h","2","84","83","85","","","","","","lextale","false","false","","","","","","","",""
"1442","
  <p style=""font-size: 40px;"">jungle</p>
  <p style=""font-size: 16px;"">J = YES &nbsp;&nbsp;&nbsp; F = NO</p>
","j","html-keyboard-response","59","2.1.0","191328","J=YES, F=NO","rls1289b3h","2","84","83","85","","","","","","lextale","true","false","","","","","","","",""
"2739","
  <p style=""font-size: 40px;"">frolick</p>
  <p style=""font-size: 16px;"">J = YES &nbsp;&nbsp;&nbsp; F = NO</p>
","j","html-keyboard-response","60","2.1.0","194067","J=YES, F=NO","rls1289b3h","2","84","83","85","","","","","","lextale","false","false","","","","","","","",""
"8131","
      <h2>LexTALE Test Completed</h2>
      <p>Your LexTALE vocabulary score is: <strong>84%</strong></p>
      <p>Press any key to continue.</p>
    ","j","html-keyboard-response","61","2.1.0","202199","J=YES, F=NO","rls1289b3h","2","84","83","85","","","","","","","","","","","","","","","",""
"13276","
    <div style=""max-width: 800px; margin: auto; text-align: left;"">
      <h2>Break Time</h2>
      <p>You have completed the first part of the study.</p>
      <p>You may take a short <strong>30-second break</strong> before continuing.</p>
      <p>When you’re ready, press any key to continue to the final task.</p>
    </div>
  ","k","html-keyboard-response","62","2.1.0","215476","J=YES, F=NO","rls1289b3h","2","84","83","85","","","","","","","","","","","","","","","",""
"32737","
    <div style=""max-width: 800px; margin: auto; text-align: left;"">
      <h2>Part 2: Lexical Decision Task</h2>
      <p>You will now begin the second part of the study.</p>
      <p>Each trial will follow this sequence:</p>
      <ul>
        <li>A fixation cross (+) appears at the center of the screen.</li>
        <li>You will hear a short beep followed by a spoken word.</li>
        <li>A written word will appear briefly on the screen.</li>
      </ul>
      <p>Your task is to judge whether the <strong>written word</strong> is a real English word.</p>
      <p style=""margin-top: 1em;""><strong>Key responses:</strong></p>
      <ul>
        <li><strong>J</strong> = YES (real English word)</li>
        <li><strong>F</strong> = NO (not a real English word)</li>
      </ul>
      <p>Please respond as quickly and accurately as you can.</p>
      <p style=""margin-top: 2em;"">Press any key to continue.</p>
    </div>
  "," ","html-keyboard-response","63","2.1.0","248213","J=YES, F=NO","rls1289b3h","2","84","83","85","","","","","","","","","","","","","","","",""
"12201","
    <div style=""max-width: 800px; margin: auto; text-align: left;"">
      <h2>Before You Begin</h2>
      <p>Make sure your sound is turned on.</p>
      <p>You will hear audio during each trial, but your decision should be based only on the <strong>written word</strong> you see on the screen.</p>
      <p><strong>Reminder:</strong></p>
      <ul>
        <li><strong>J</strong> = YES (real English word)</li>
        <li><strong>F</strong> = NO (not a real English word)</li>
      </ul>
      <p style=""margin-top: 2em;"">Press any key when you are ready to begin.</p>
    </div>
  "," ","html-keyboard-response","64","2.1.0","260415","J=YES, F=NO","rls1289b3h","2","84","83","85","","","","","","","","","","","","","","","",""
"4550","
    <div style=""max-width: 800px; margin: auto; text-align: left;"">
      <h2>Part 2: Practice Trials</h2>
      <p>You will now complete a few <strong>practice trials</strong> to get familiar with the task.</p>
      <p>These trials are <strong>not scored</strong> and are only to help you get used to the format.</p>
      <p style=""margin-top: 2em;"">Press any key to begin.</p>
    </div>
  "," ","html-keyboard-response","65","2.1.0","264965","J=YES, F=NO","rls1289b3h","2","84","83","85","","","","","","","","","","","","","","","",""
"2451","<p>Starting practice block 1 of 2. Press any key to continue.</p>"," ","html-keyboard-response","66","2.1.0","267417","J=YES, F=NO","rls1289b3h","2","84","83","85","","","","","","","","","","","","","","","",""
"null","<p style=""font-size: 50px;"">+</p>","null","html-keyboard-response","67","2.1.0","267718","J=YES, F=NO","rls1289b3h","2","84","83","85","","","","","","","","","","","","","","","",""
"null","audio/beep-329314.mp3","null","audio-keyboard-response","68","2.1.0","269489","J=YES, F=NO","rls1289b3h","2","84","83","85","","","","","","","","","","","","","","","",""
"null","audio/breath.wav","null","audio-keyboard-response","69","2.1.0","270029","J=YES, F=NO","rls1289b3h","2","84","83","85","","","","","","","","","","","","","","","",""
"null","
          <p id=""word"" style=""font-size: 40px;"">pack</p>
          <p style=""font-size: 16px;"">J = YES &nbsp;&nbsp;&nbsp; F = NO</p>
        ","null","html-keyboard-response","70","2.1.0","271530","J=YES, F=NO","rls1289b3h","2","84","83","85","","","","","","","","","pack","breath","filler","filler","j","false","",""
"null","<p style=""font-size: 50px;"">+</p>","null","html-keyboard-response","71","2.1.0","271836","J=YES, F=NO","rls1289b3h","2","84","83","85","","","","","","","","","","","","","","","",""
"null","audio/beep-329314.mp3","null","audio-keyboard-response","72","2.1.0","273369","J=YES, F=NO","rls1289b3h","2","84","83","85","","","","","","","","","","","","","","","",""
"null","audio/bottle.wav","null","audio-keyboard-response","73","2.1.0","274049","J=YES, F=NO","rls1289b3h","2","84","83","85","","","","","","","","","","","","","","","",""
"559","
          <p id=""word"" style=""font-size: 40px;"">watch</p>
          <p style=""font-size: 16px;"">J = YES &nbsp;&nbsp;&nbsp; F = NO</p>
        ","j","html-keyboard-response","74","2.1.0","274609","J=YES, F=NO","rls1289b3h","2","84","83","85","","","","","","","","","watch","bottle","filler","filler","j","true","",""
"null","<p style=""font-size: 50px;"">+</p>","null","html-keyboard-response","75","2.1.0","274912","J=YES, F=NO","rls1289b3h","2","84","83","85","","","","","","","","","","","","","","","",""
"null","audio/beep-329314.mp3","null","audio-keyboard-response","76","2.1.0","276449","J=YES, F=NO","rls1289b3h","2","84","83","85","","","","","","","","","","","","","","","",""
"null","audio/cloud1.wav","null","audio-keyboard-response","77","2.1.0","277149","J=YES, F=NO","rls1289b3h","2","84","83","85","","","","","","","","","","","","","","","",""
"387","
          <p id=""word"" style=""font-size: 40px;"">brotant</p>
          <p style=""font-size: 16px;"">J = YES &nbsp;&nbsp;&nbsp; F = NO</p>
        ","j","html-keyboard-response","78","2.1.0","277536","J=YES, F=NO","rls1289b3h","2","84","83","85","","","","","","","","","brotant","cloud1","pseudoword","pseudoword","f","false","",""
"null","<p style=""font-size: 50px;"">+</p>","null","html-keyboard-response","79","2.1.0","277837","J=YES, F=NO","rls1289b3h","2","84","83","85","","","","","","","","","","","","","","","",""
"null","audio/beep-329314.mp3","null","audio-keyboard-response","80","2.1.0","279369","J=YES, F=NO","rls1289b3h","2","84","83","85","","","","","","","","","","","","","","","",""
"null","audio/grass.wav","null","audio-keyboard-response","81","2.1.0","280229","J=YES, F=NO","rls1289b3h","2","84","83","85","","","","","","","","","","","","","","","",""
"831","
          <p id=""word"" style=""font-size: 40px;"">milames</p>
          <p style=""font-size: 16px;"">J = YES &nbsp;&nbsp;&nbsp; F = NO</p>
        ","f","html-keyboard-response","82","2.1.0","281060","J=YES, F=NO","rls1289b3h","2","84","83","85","","","","","","","","","milames","grass","pseudoword","pseudoword","f","true","",""
"null","<p style=""font-size: 50px;"">+</p>","null","html-keyboard-response","83","2.1.0","281362","J=YES, F=NO","rls1289b3h","2","84","83","85","","","","","","","","","","","","","","","",""
"null","audio/beep-329314.mp3","null","audio-keyboard-response","84","2.1.0","282889","J=YES, F=NO","rls1289b3h","2","84","83","85","","","","","","","","","","","","","","","",""
"null","audio/window1.wav","null","audio-keyboard-response","85","2.1.0","283489","J=YES, F=NO","rls1289b3h","2","84","83","85","","","","","","","","","","","","","","","",""
"732","
          <p id=""word"" style=""font-size: 40px;"">toss</p>
          <p style=""font-size: 16px;"">J = YES &nbsp;&nbsp;&nbsp; F = NO</p>
        ","j","html-keyboard-response","86","2.1.0","284221","J=YES, F=NO","rls1289b3h","2","84","83","85","","","","","","","","","toss","window1","filler","filler","j","true","",""
"null","<p style=""font-size: 50px;"">+</p>","null","html-keyboard-response","87","2.1.0","284522","J=YES, F=NO","rls1289b3h","2","84","83","85","","","","","","","","","","","","","","","",""
"null","audio/beep-329314.mp3","null","audio-keyboard-response","88","2.1.0","286049","J=YES, F=NO","rls1289b3h","2","84","83","85","","","","","","","","","","","","","","","",""
"null","audio/radio1.wav","null","audio-keyboard-response","89","2.1.0","286829","J=YES, F=NO","rls1289b3h","2","84","83","85","","","","","","","","","","","","","","","",""
"763","
          <p id=""word"" style=""font-size: 40px;"">blanter</p>
          <p style=""font-size: 16px;"">J = YES &nbsp;&nbsp;&nbsp; F = NO</p>
        ","f","html-keyboard-response","90","2.1.0","287593","J=YES, F=NO","rls1289b3h","2","84","83","85","","","","","","","","","blanter","radio1","pseudoword","pseudoword","f","true","",""
"null","<p style=""font-size: 50px;"">+</p>","null","html-keyboard-response","91","2.1.0","287895","J=YES, F=NO","rls1289b3h","2","84","83","85","","","","","","","","","","","","","","","",""
"null","audio/beep-329314.mp3","null","audio-keyboard-response","92","2.1.0","289429","J=YES, F=NO","rls1289b3h","2","84","83","85","","","","","","","","","","","","","","","",""
"null","audio/budget1.wav","null","audio-keyboard-response","93","2.1.0","290189","J=YES, F=NO","rls1289b3h","2","84","83","85","","","","","","","","","","","","","","","",""
"854","
          <p id=""word"" style=""font-size: 40px;"">sulist</p>
          <p style=""font-size: 16px;"">J = YES &nbsp;&nbsp;&nbsp; F = NO</p>
        ","f","html-keyboard-response","94","2.1.0","291043","J=YES, F=NO","rls1289b3h","2","84","83","85","","","","","","","","","sulist","budget1","pseudoword","pseudoword","f","true","",""
"null","<p style=""font-size: 50px;"">+</p>","null","html-keyboard-response","95","2.1.0","291347","J=YES, F=NO","rls1289b3h","2","84","83","85","","","","","","","","","","","","","","","",""
"null","audio/beep-329314.mp3","null","audio-keyboard-response","96","2.1.0","292869","J=YES, F=NO","rls1289b3h","2","84","83","85","","","","","","","","","","","","","","","",""
"null","audio/brain.wav","null","audio-keyboard-response","97","2.1.0","293649","J=YES, F=NO","rls1289b3h","2","84","83","85","","","","","","","","","","","","","","","",""
"739","
          <p id=""word"" style=""font-size: 40px;"">throw</p>
          <p style=""font-size: 16px;"">J = YES &nbsp;&nbsp;&nbsp; F = NO</p>
        ","j","html-keyboard-response","98","2.1.0","294389","J=YES, F=NO","rls1289b3h","2","84","83","85","","","","","","","","","throw","brain","filler","filler","j","true","",""
"null","<p style=""font-size: 50px;"">+</p>","null","html-keyboard-response","99","2.1.0","294689","J=YES, F=NO","rls1289b3h","2","84","83","85","","","","","","","","","","","","","","","",""
"null","audio/beep-329314.mp3","null","audio-keyboard-response","100","2.1.0","296229","J=YES, F=NO","rls1289b3h","2","84","83","85","","","","","","","","","","","","","","","",""
"null","audio/terrain.wav","null","audio-keyboard-response","101","2.1.0","297069","J=YES, F=NO","rls1289b3h","2","84","83","85","","","","","","","","","","","","","","","",""
"695","
          <p id=""word"" style=""font-size: 40px;"">twist</p>
          <p style=""font-size: 16px;"">J = YES &nbsp;&nbsp;&nbsp; F = NO</p>
        ","j","html-keyboard-response","102","2.1.0","297765","J=YES, F=NO","rls1289b3h","2","84","83","85","","","","","","","","","twist","terrain","filler","filler","j","true","",""
"null","<p style=""font-size: 50px;"">+</p>","null","html-keyboard-response","103","2.1.0","298068","J=YES, F=NO","rls1289b3h","2","84","83","85","","","","","","","","","","","","","","","",""
"null","audio/beep-329314.mp3","null","audio-keyboard-response","104","2.1.0","299589","J=YES, F=NO","rls1289b3h","2","84","83","85","","","","","","","","","","","","","","","",""
"null","audio/bridge.wav","null","audio-keyboard-response","105","2.1.0","300289","J=YES, F=NO","rls1289b3h","2","84","83","85","","","","","","","","","","","","","","","",""
"644","
          <p id=""word"" style=""font-size: 40px;"">crack</p>
          <p style=""font-size: 16px;"">J = YES &nbsp;&nbsp;&nbsp; F = NO</p>
        ","j","html-keyboard-response","106","2.1.0","300934","J=YES, F=NO","rls1289b3h","2","84","83","85","","","","","","","","","crack","bridge","filler","filler","j","true","",""
"null","<p style=""font-size: 50px;"">+</p>","null","html-keyboard-response","107","2.1.0","301236","J=YES, F=NO","rls1289b3h","2","84","83","85","","","","","","","","","","","","","","","",""
"null","audio/beep-329314.mp3","null","audio-keyboard-response","108","2.1.0","302769","J=YES, F=NO","rls1289b3h","2","84","83","85","","","","","","","","","","","","","","","",""
"null","audio/foe1.wav","null","audio-keyboard-response","109","2.1.0","303389","J=YES, F=NO","rls1289b3h","2","84","83","85","","","","","","","","","","","","","","","",""
"697","
          <p id=""word"" style=""font-size: 40px;"">creth</p>
          <p style=""font-size: 16px;"">J = YES &nbsp;&nbsp;&nbsp; F = NO</p>
        ","f","html-keyboard-response","110","2.1.0","304086","J=YES, F=NO","rls1289b3h","2","84","83","85","","","","","","","","","creth","foe1","pseudoword","pseudoword","f","true","",""
"null","<p style=""font-size: 50px;"">+</p>","null","html-keyboard-response","111","2.1.0","304387","J=YES, F=NO","rls1289b3h","2","84","83","85","","","","","","","","","","","","","","","",""
"null","audio/beep-329314.mp3","null","audio-keyboard-response","112","2.1.0","305909","J=YES, F=NO","rls1289b3h","2","84","83","85","","","","","","","","","","","","","","","",""
"null","audio/cancer1.wav","null","audio-keyboard-response","113","2.1.0","306589","J=YES, F=NO","rls1289b3h","2","84","83","85","","","","","","","","","","","","","","","",""
"581","
          <p id=""word"" style=""font-size: 40px;"">draw</p>
          <p style=""font-size: 16px;"">J = YES &nbsp;&nbsp;&nbsp; F = NO</p>
        ","f","html-keyboard-response","114","2.1.0","307171","J=YES, F=NO","rls1289b3h","2","84","83","85","","","","","","","","","draw","cancer1","filler","filler","j","false","",""
"1412","<p>Starting practice block 2 of 2. Press any key to continue.</p>"," ","html-keyboard-response","115","2.1.0","308584","J=YES, F=NO","rls1289b3h","2","84","83","85","","","","","","","","","","","","","","","",""
"null","<p style=""font-size: 50px;"">+</p>","null","html-keyboard-response","116","2.1.0","308887","J=YES, F=NO","rls1289b3h","2","84","83","85","","","","","","","","","","","","","","","",""
"null","audio/beep-329314.mp3","null","audio-keyboard-response","117","2.1.0","310410","J=YES, F=NO","rls1289b3h","2","84","83","85","","","","","","","","","","","","","","","",""
"null","audio/age1.wav","null","audio-keyboard-response","118","2.1.0","311109","J=YES, F=NO","rls1289b3h","2","84","83","85","","","","","","","","","","","","","","","",""
"661","
          <p id=""word"" style=""font-size: 40px;"">bake</p>
          <p style=""font-size: 16px;"">J = YES &nbsp;&nbsp;&nbsp; F = NO</p>
        ","j","html-keyboard-response","119","2.1.0","311771","J=YES, F=NO","rls1289b3h","2","84","83","85","","","","","","","","","bake","age1","filler","filler","j","true","",""
"null","<p style=""font-size: 50px;"">+</p>","null","html-keyboard-response","120","2.1.0","312076","J=YES, F=NO","rls1289b3h","2","84","83","85","","","","","","","","","","","","","","","",""
"null","audio/beep-329314.mp3","null","audio-keyboard-response","121","2.1.0","313610","J=YES, F=NO","rls1289b3h","2","84","83","85","","","","","","","","","","","","","","","",""
"null","audio/arm.wav","null","audio-keyboard-response","122","2.1.0","314189","J=YES, F=NO","rls1289b3h","2","84","83","85","","","","","","","","","","","","","","","",""
"607","
          <p id=""word"" style=""font-size: 40px;"">pigne</p>
          <p style=""font-size: 16px;"">J = YES &nbsp;&nbsp;&nbsp; F = NO</p>
        ","f","html-keyboard-response","123","2.1.0","314797","J=YES, F=NO","rls1289b3h","2","84","83","85","","","","","","","","","pigne","arm","pseudoword","pseudoword","f","true","",""
"null","<p style=""font-size: 50px;"">+</p>","null","html-keyboard-response","124","2.1.0","315097","J=YES, F=NO","rls1289b3h","2","84","83","85","","","","","","","","","","","","","","","",""
"null","audio/beep-329314.mp3","null","audio-keyboard-response","125","2.1.0","316630","J=YES, F=NO","rls1289b3h","2","84","83","85","","","","","","","","","","","","","","","",""
"null","audio/tax1.wav","null","audio-keyboard-response","126","2.1.0","317369","J=YES, F=NO","rls1289b3h","2","84","83","85","","","","","","","","","","","","","","","",""
"695","
          <p id=""word"" style=""font-size: 40px;"">snate</p>
          <p style=""font-size: 16px;"">J = YES &nbsp;&nbsp;&nbsp; F = NO</p>
        ","f","html-keyboard-response","127","2.1.0","318065","J=YES, F=NO","rls1289b3h","2","84","83","85","","","","","","","","","snate","tax1","pseudoword","pseudoword","f","true","",""
"null","<p style=""font-size: 50px;"">+</p>","null","html-keyboard-response","128","2.1.0","318368","J=YES, F=NO","rls1289b3h","2","84","83","85","","","","","","","","","","","","","","","",""
"null","audio/beep-329314.mp3","null","audio-keyboard-response","129","2.1.0","319890","J=YES, F=NO","rls1289b3h","2","84","83","85","","","","","","","","","","","","","","","",""
"null","audio/holiday1.wav","null","audio-keyboard-response","130","2.1.0","320750","J=YES, F=NO","rls1289b3h","2","84","83","85","","","","","","","","","","","","","","","",""
"814","
          <p id=""word"" style=""font-size: 40px;"">drivets</p>
          <p style=""font-size: 16px;"">J = YES &nbsp;&nbsp;&nbsp; F = NO</p>
        ","f","html-keyboard-response","131","2.1.0","321564","J=YES, F=NO","rls1289b3h","2","84","83","85","","","","","","","","","drivets","holiday1","pseudoword","pseudoword","f","true","",""
"null","<p style=""font-size: 50px;"">+</p>","null","html-keyboard-response","132","2.1.0","321868","J=YES, F=NO","rls1289b3h","2","84","83","85","","","","","","","","","","","","","","","",""
"null","audio/beep-329314.mp3","null","audio-keyboard-response","133","2.1.0","323390","J=YES, F=NO","rls1289b3h","2","84","83","85","","","","","","","","","","","","","","","",""
"null","audio/camera1.wav","null","audio-keyboard-response","134","2.1.0","323870","J=YES, F=NO","rls1289b3h","2","84","83","85","","","","","","","","","","","","","","","",""
"664","
          <p id=""word"" style=""font-size: 40px;"">stir</p>
          <p style=""font-size: 16px;"">J = YES &nbsp;&nbsp;&nbsp; F = NO</p>
        ","j","html-keyboard-response","135","2.1.0","324534","J=YES, F=NO","rls1289b3h","2","84","83","85","","","","","","","","","stir","camera1","filler","filler","j","true","",""
"null","<p style=""font-size: 50px;"">+</p>","null","html-keyboard-response","136","2.1.0","324835","J=YES, F=NO","rls1289b3h","2","84","83","85","","","","","","","","","","","","","","","",""
"null","audio/beep-329314.mp3","null","audio-keyboard-response","137","2.1.0","326370","J=YES, F=NO","rls1289b3h","2","84","83","85","","","","","","","","","","","","","","","",""
"null","audio/mouth1.wav","null","audio-keyboard-response","138","2.1.0","327170","J=YES, F=NO","rls1289b3h","2","84","83","85","","","","","","","","","","","","","","","",""
"840","
          <p id=""word"" style=""font-size: 40px;"">spolial</p>
          <p style=""font-size: 16px;"">J = YES &nbsp;&nbsp;&nbsp; F = NO</p>
        ","f","html-keyboard-response","139","2.1.0","328010","J=YES, F=NO","rls1289b3h","2","84","83","85","","","","","","","","","spolial","mouth1","pseudoword","pseudoword","f","true","",""
"null","<p style=""font-size: 50px;"">+</p>","null","html-keyboard-response","140","2.1.0","328311","J=YES, F=NO","rls1289b3h","2","84","83","85","","","","","","","","","","","","","","","",""
"null","audio/beep-329314.mp3","null","audio-keyboard-response","141","2.1.0","329850","J=YES, F=NO","rls1289b3h","2","84","83","85","","","","","","","","","","","","","","","",""
"null","audio/arm.wav","null","audio-keyboard-response","142","2.1.0","330390","J=YES, F=NO","rls1289b3h","2","84","83","85","","","","","","","","","","","","","","","",""
"682","
          <p id=""word"" style=""font-size: 40px;"">fold</p>
          <p style=""font-size: 16px;"">J = YES &nbsp;&nbsp;&nbsp; F = NO</p>
        ","j","html-keyboard-response","143","2.1.0","331072","J=YES, F=NO","rls1289b3h","2","84","83","85","","","","","","","","","fold","arm","filler","filler","j","true","",""
"null","<p style=""font-size: 50px;"">+</p>","null","html-keyboard-response","144","2.1.0","331376","J=YES, F=NO","rls1289b3h","2","84","83","85","","","","","","","","","","","","","","","",""
"null","audio/beep-329314.mp3","null","audio-keyboard-response","145","2.1.0","332910","J=YES, F=NO","rls1289b3h","2","84","83","85","","","","","","","","","","","","","","","",""
"null","audio/voice.wav","null","audio-keyboard-response","146","2.1.0","333610","J=YES, F=NO","rls1289b3h","2","84","83","85","","","","","","","","","","","","","","","",""
"686","
          <p id=""word"" style=""font-size: 40px;"">grintle</p>
          <p style=""font-size: 16px;"">J = YES &nbsp;&nbsp;&nbsp; F = NO</p>
        ","f","html-keyboard-response","147","2.1.0","334296","J=YES, F=NO","rls1289b3h","2","84","83","85","","","","","","","","","grintle","voice","pseudoword","pseudoword","f","true","",""
"null","<p style=""font-size: 50px;"">+</p>","null","html-keyboard-response","148","2.1.0","334596","J=YES, F=NO","rls1289b3h","2","84","83","85","","","","","","","","","","","","","","","",""
"null","audio/beep-329314.mp3","null","audio-keyboard-response","149","2.1.0","336130","J=YES, F=NO","rls1289b3h","2","84","83","85","","","","","","","","","","","","","","","",""
"null","audio/meal.wav","null","audio-keyboard-response","150","2.1.0","336770","J=YES, F=NO","rls1289b3h","2","84","83","85","","","","","","","","","","","","","","","",""
"726","
          <p id=""word"" style=""font-size: 40px;"">gallite</p>
          <p style=""font-size: 16px;"">J = YES &nbsp;&nbsp;&nbsp; F = NO</p>
        ","j","html-keyboard-response","151","2.1.0","337496","J=YES, F=NO","rls1289b3h","2","84","83","85","","","","","","","","","gallite","meal","pseudoword","pseudoword","f","false","",""
"null","<p style=""font-size: 50px;"">+</p>","null","html-keyboard-response","152","2.1.0","337800","J=YES, F=NO","rls1289b3h","2","84","83","85","","","","","","","","","","","","","","","",""
"null","audio/beep-329314.mp3","null","audio-keyboard-response","153","2.1.0","339330","J=YES, F=NO","rls1289b3h","2","84","83","85","","","","","","","","","","","","","","","",""
"null","audio/gossip1.wav","null","audio-keyboard-response","154","2.1.0","340070","J=YES, F=NO","rls1289b3h","2","84","83","85","","","","","","","","","","","","","","","",""
"841","
          <p id=""word"" style=""font-size: 40px;"">camerish</p>
          <p style=""font-size: 16px;"">J = YES &nbsp;&nbsp;&nbsp; F = NO</p>
        ","f","html-keyboard-response","155","2.1.0","340911","J=YES, F=NO","rls1289b3h","2","84","83","85","","","","","","","","","camerish","gossip1","pseudoword","pseudoword","f","true","",""
"null","<p style=""font-size: 50px;"">+</p>","null","html-keyboard-response","156","2.1.0","341215","J=YES, F=NO","rls1289b3h","2","84","83","85","","","","","","","","","","","","","","","",""
"null","audio/beep-329314.mp3","null","audio-keyboard-response","157","2.1.0","342750","J=YES, F=NO","rls1289b3h","2","84","83","85","","","","","","","","","","","","","","","",""
"null","audio/menu.wav","null","audio-keyboard-response","158","2.1.0","343410","J=YES, F=NO","rls1289b3h","2","84","83","85","","","","","","","","","","","","","","","",""
"957","
          <p id=""word"" style=""font-size: 40px;"">slice</p>
          <p style=""font-size: 16px;"">J = YES &nbsp;&nbsp;&nbsp; F = NO</p>
        ","j","html-keyboard-response","159","2.1.0","344367","J=YES, F=NO","rls1289b3h","2","84","83","85","","","","","","","","","slice","menu","filler","filler","j","true","",""
"null","<p style=""font-size: 50px;"">+</p>","null","html-keyboard-response","160","2.1.0","344672","J=YES, F=NO","rls1289b3h","2","84","83","85","","","","","","","","","","","","","","","",""
"null","audio/beep-329314.mp3","null","audio-keyboard-response","161","2.1.0","346210","J=YES, F=NO","rls1289b3h","2","84","83","85","","","","","","","","","","","","","","","",""
"null","audio/ankle1.wav","null","audio-keyboard-response","162","2.1.0","346770","J=YES, F=NO","rls1289b3h","2","84","83","85","","","","","","","","","","","","","","","",""
"882","
          <p id=""word"" style=""font-size: 40px;"">kick</p>
          <p style=""font-size: 16px;"">J = YES &nbsp;&nbsp;&nbsp; F = NO</p>
        ","j","html-keyboard-response","163","2.1.0","347652","J=YES, F=NO","rls1289b3h","2","84","83","85","","","","","","","","","kick","ankle1","filler","filler","j","true","",""
"5861","
    <div style=""max-width: 800px; margin: auto; text-align: left;"">
      <h2>Part 2: Main Trials</h2>
      <p>Great job on the practice trials!</p>
      <p>You will now begin the <strong>main set of trials</strong>.</p>
      <p>Remember your key assignments:</p>
      <ul>
        <li><strong>J</strong> = YES (real English word)</li>
        <li><strong>F</strong> = NO (not a real English word)</li>
      </ul>
      <p>Try to respond as <strong>quickly and accurately</strong> as possible.</p>
      <p style=""margin-top: 2em;"">Press any key to begin the main trials.</p>
    </div>
  "," ","html-keyboard-response","164","2.1.0","353513","J=YES, F=NO","rls1289b3h","2","84","83","85","","","","","","","","","","","","","","","",""
"1759","<p>Starting main block 1 of 8. Press any key to continue.</p>"," ","html-keyboard-response","165","2.1.0","355272","J=YES, F=NO","rls1289b3h","2","84","83","85","","","","","","","","","","","","","","","",""
"null","<p style=""font-size: 50px;"">+</p>","null","html-keyboard-response","166","2.1.0","355573","J=YES, F=NO","rls1289b3h","2","84","83","85","","","","","","","","","","","","","","","",""
"null","audio/beep-329314.mp3","null","audio-keyboard-response","167","2.1.0","357110","J=YES, F=NO","rls1289b3h","2","84","83","85","","","","","","","","","","","","","","","",""
"null","audio/theory1.wav","null","audio-keyboard-response","168","2.1.0","357720","J=YES, F=NO","rls1289b3h","2","84","83","85","","","","","","","","","","","","","","","",""
"541","
          <p id=""word"" style=""font-size: 40px;"">construct</p>
          <p style=""font-size: 16px;"">J = YES &nbsp;&nbsp;&nbsp; F = NO</p>
        ","j","html-keyboard-response","169","2.1.0","358261","J=YES, F=NO","rls1289b3h","2","84","83","85","","","","","","","","","construct","theory1","metaphor","experimental","j","true","",""
"null","<p style=""font-size: 50px;"">+</p>","null","html-keyboard-response","170","2.1.0","358565","J=YES, F=NO","rls1289b3h","2","84","83","85","","","","","","","","","","","","","","","",""
"null","audio/beep-329314.mp3","null","audio-keyboard-response","171","2.1.0","360090","J=YES, F=NO","rls1289b3h","2","84","83","85","","","","","","","","","","","","","","","",""
"null","audio/bridge.wav","null","audio-keyboard-response","172","2.1.0","360620","J=YES, F=NO","rls1289b3h","2","84","83","85","","","","","","","","","","","","","","","",""
"601","
          <p id=""word"" style=""font-size: 40px;"">build</p>
          <p style=""font-size: 16px;"">J = YES &nbsp;&nbsp;&nbsp; F = NO</p>
        ","j","html-keyboard-response","173","2.1.0","361221","J=YES, F=NO","rls1289b3h","2","84","83","85","","","","","","","","","build","bridge","literal","experimental","j","true","",""
"null","<p style=""font-size: 50px;"">+</p>","null","html-keyboard-response","174","2.1.0","361522","J=YES, F=NO","rls1289b3h","2","84","83","85","","","","","","","","","","","","","","","",""
"null","audio/beep-329314.mp3","null","audio-keyboard-response","175","2.1.0","363050","J=YES, F=NO","rls1289b3h","2","84","83","85","","","","","","","","","","","","","","","",""
"null","audio/desire.wav","null","audio-keyboard-response","176","2.1.0","363820","J=YES, F=NO","rls1289b3h","2","84","83","85","","","","","","","","","","","","","","","",""
"656","
          <p id=""word"" style=""font-size: 40px;"">nophed</p>
          <p style=""font-size: 16px;"">J = YES &nbsp;&nbsp;&nbsp; F = NO</p>
        ","f","html-keyboard-response","177","2.1.0","364476","J=YES, F=NO","rls1289b3h","2","84","83","85","","","","","","","","","nophed","desire","pseudoword","pseudoword","f","true","",""
"null","<p style=""font-size: 50px;"">+</p>","null","html-keyboard-response","178","2.1.0","364777","J=YES, F=NO","rls1289b3h","2","84","83","85","","","","","","","","","","","","","","","",""
"null","audio/beep-329314.mp3","null","audio-keyboard-response","179","2.1.0","366310","J=YES, F=NO","rls1289b3h","2","84","83","85","","","","","","","","","","","","","","","",""
"null","audio/battle1.wav","null","audio-keyboard-response","180","2.1.0","366760","J=YES, F=NO","rls1289b3h","2","84","83","85","","","","","","","","","","","","","","","",""
"740","
          <p id=""word"" style=""font-size: 40px;"">boil</p>
          <p style=""font-size: 16px;"">J = YES &nbsp;&nbsp;&nbsp; F = NO</p>
        ","j","html-keyboard-response","181","2.1.0","367500","J=YES, F=NO","rls1289b3h","2","84","83","85","","","","","","","","","boil","battle1","filler","filler","j","true","",""
"null","<p style=""font-size: 50px;"">+</p>","null","html-keyboard-response","182","2.1.0","367802","J=YES, F=NO","rls1289b3h","2","84","83","85","","","","","","","","","","","","","","","",""
"null","audio/beep-329314.mp3","null","audio-keyboard-response","183","2.1.0","369330","J=YES, F=NO","rls1289b3h","2","84","83","85","","","","","","","","","","","","","","","",""
"null","audio/truth1.wav","null","audio-keyboard-response","184","2.1.0","369860","J=YES, F=NO","rls1289b3h","2","84","83","85","","","","","","","","","","","","","","","",""
"728","
          <p id=""word"" style=""font-size: 40px;"">calitom</p>
          <p style=""font-size: 16px;"">J = YES &nbsp;&nbsp;&nbsp; F = NO</p>
        ","f","html-keyboard-response","185","2.1.0","370588","J=YES, F=NO","rls1289b3h","2","84","83","85","","","","","","","","","calitom","truth1","pseudoword","pseudoword","f","true","",""
"null","<p style=""font-size: 50px;"">+</p>","null","html-keyboard-response","186","2.1.0","370889","J=YES, F=NO","rls1289b3h","2","84","83","85","","","","","","","","","","","","","","","",""
"null","audio/beep-329314.mp3","null","audio-keyboard-response","187","2.1.0","372410","J=YES, F=NO","rls1289b3h","2","84","83","85","","","","","","","","","","","","","","","",""
"null","audio/corpse1.wav","null","audio-keyboard-response","188","2.1.0","373200","J=YES, F=NO","rls1289b3h","2","84","83","85","","","","","","","","","","","","","","","",""
"720","
          <p id=""word"" style=""font-size: 40px;"">glonet</p>
          <p style=""font-size: 16px;"">J = YES &nbsp;&nbsp;&nbsp; F = NO</p>
        ","f","html-keyboard-response","189","2.1.0","373920","J=YES, F=NO","rls1289b3h","2","84","83","85","","","","","","","","","glonet","corpse1","pseudoword","pseudoword","f","true","",""
"null","<p style=""font-size: 50px;"">+</p>","null","html-keyboard-response","190","2.1.0","374223","J=YES, F=NO","rls1289b3h","2","84","83","85","","","","","","","","","","","","","","","",""
"null","audio/beep-329314.mp3","null","audio-keyboard-response","191","2.1.0","375750","J=YES, F=NO","rls1289b3h","2","84","83","85","","","","","","","","","","","","","","","",""
"null","audio/account1.wav","null","audio-keyboard-response","192","2.1.0","376580","J=YES, F=NO","rls1289b3h","2","84","83","85","","","","","","","","","","","","","","","",""
"737","
          <p id=""word"" style=""font-size: 40px;"">open</p>
          <p style=""font-size: 16px;"">J = YES &nbsp;&nbsp;&nbsp; F = NO</p>
        ","j","html-keyboard-response","193","2.1.0","377317","J=YES, F=NO","rls1289b3h","2","84","83","85","","","","","","","","","open","account1","metaphor","experimental","j","true","",""
"null","<p style=""font-size: 50px;"">+</p>","null","html-keyboard-response","194","2.1.0","377621","J=YES, F=NO","rls1289b3h","2","84","83","85","","","","","","","","","","","","","","","",""
"null","audio/beep-329314.mp3","null","audio-keyboard-response","195","2.1.0","379150","J=YES, F=NO","rls1289b3h","2","84","83","85","","","","","","","","","","","","","","","",""
"null","audio/golf1.wav","null","audio-keyboard-response","196","2.1.0","379760","J=YES, F=NO","rls1289b3h","2","84","83","85","","","","","","","","","","","","","","","",""
"844","
          <p id=""word"" style=""font-size: 40px;"">drabble</p>
          <p style=""font-size: 16px;"">J = YES &nbsp;&nbsp;&nbsp; F = NO</p>
        ","f","html-keyboard-response","197","2.1.0","380605","J=YES, F=NO","rls1289b3h","2","84","83","85","","","","","","","","","drabble","golf1","pseudoword","pseudoword","f","true","",""
"null","<p style=""font-size: 50px;"">+</p>","null","html-keyboard-response","198","2.1.0","380909","J=YES, F=NO","rls1289b3h","2","84","83","85","","","","","","","","","","","","","","","",""
"null","audio/beep-329314.mp3","null","audio-keyboard-response","199","2.1.0","382430","J=YES, F=NO","rls1289b3h","2","84","83","85","","","","","","","","","","","","","","","",""
"null","audio/pig.wav","null","audio-keyboard-response","200","2.1.0","382800","J=YES, F=NO","rls1289b3h","2","84","83","85","","","","","","","","","","","","","","","",""
"808","
          <p id=""word"" style=""font-size: 40px;"">tirlike</p>
          <p style=""font-size: 16px;"">J = YES &nbsp;&nbsp;&nbsp; F = NO</p>
        ","f","html-keyboard-response","201","2.1.0","383608","J=YES, F=NO","rls1289b3h","2","84","83","85","","","","","","","","","tirlike","pig","pseudoword","pseudoword","f","true","",""
"null","<p style=""font-size: 50px;"">+</p>","null","html-keyboard-response","202","2.1.0","383913","J=YES, F=NO","rls1289b3h","2","84","83","85","","","","","","","","","","","","","","","",""
"null","audio/beep-329314.mp3","null","audio-keyboard-response","203","2.1.0","385450","J=YES, F=NO","rls1289b3h","2","84","83","85","","","","","","","","","","","","","","","",""
"null","audio/burden.wav","null","audio-keyboard-response","204","2.1.0","386100","J=YES, F=NO","rls1289b3h","2","84","83","85","","","","","","","","","","","","","","","",""
"727","
          <p id=""word"" style=""font-size: 40px;"">whotth</p>
          <p style=""font-size: 16px;"">J = YES &nbsp;&nbsp;&nbsp; F = NO</p>
        ","f","html-keyboard-response","205","2.1.0","386828","J=YES, F=NO","rls1289b3h","2","84","83","85","","","","","","","","","whotth","burden","pseudoword","pseudoword","f","true","",""
"null","<p style=""font-size: 50px;"">+</p>","null","html-keyboard-response","206","2.1.0","387132","J=YES, F=NO","rls1289b3h","2","84","83","85","","","","","","","","","","","","","","","",""
"null","audio/beep-329314.mp3","null","audio-keyboard-response","207","2.1.0","388670","J=YES, F=NO","rls1289b3h","2","84","83","85","","","","","","","","","","","","","","","",""
"null","audio/emotion.wav","null","audio-keyboard-response","208","2.1.0","389480","J=YES, F=NO","rls1289b3h","2","84","83","85","","","","","","","","","","","","","","","",""
"804","
          <p id=""word"" style=""font-size: 40px;"">devering</p>
          <p style=""font-size: 16px;"">J = YES &nbsp;&nbsp;&nbsp; F = NO</p>
        ","f","html-keyboard-response","209","2.1.0","390284","J=YES, F=NO","rls1289b3h","2","84","83","85","","","","","","","","","devering","emotion","pseudoword","pseudoword","f","true","",""
"null","<p style=""font-size: 50px;"">+</p>","null","html-keyboard-response","210","2.1.0","390585","J=YES, F=NO","rls1289b3h","2","84","83","85","","","","","","","","","","","","","","","",""
"null","audio/beep-329314.mp3","null","audio-keyboard-response","211","2.1.0","392110","J=YES, F=NO","rls1289b3h","2","84","83","85","","","","","","","","","","","","","","","",""
"null","audio/case1.wav","null","audio-keyboard-response","212","2.1.0","392660","J=YES, F=NO","rls1289b3h","2","84","83","85","","","","","","","","","","","","","","","",""
"473","
          <p id=""word"" style=""font-size: 40px;"">close</p>
          <p style=""font-size: 16px;"">J = YES &nbsp;&nbsp;&nbsp; F = NO</p>
        ","j","html-keyboard-response","213","2.1.0","393134","J=YES, F=NO","rls1289b3h","2","84","83","85","","","","","","","","","close","case1","metaphor","experimental","j","true","",""
"null","<p style=""font-size: 50px;"">+</p>","null","html-keyboard-response","214","2.1.0","393437","J=YES, F=NO","rls1289b3h","2","84","83","85","","","","","","","","","","","","","","","",""
"null","audio/beep-329314.mp3","null","audio-keyboard-response","215","2.1.0","394970","J=YES, F=NO","rls1289b3h","2","84","83","85","","","","","","","","","","","","","","","",""
"null","audio/butter1.wav","null","audio-keyboard-response","216","2.1.0","395400","J=YES, F=NO","rls1289b3h","2","84","83","85","","","","","","","","","","","","","","","",""
"663","
          <p id=""word"" style=""font-size: 40px;"">chew</p>
          <p style=""font-size: 16px;"">J = YES &nbsp;&nbsp;&nbsp; F = NO</p>
        ","j","html-keyboard-response","217","2.1.0","396063","J=YES, F=NO","rls1289b3h","2","84","83","85","","","","","","","","","chew","butter1","filler","filler","j","true","",""
"null","<p style=""font-size: 50px;"">+</p>","null","html-keyboard-response","218","2.1.0","396367","J=YES, F=NO","rls1289b3h","2","84","83","85","","","","","","","","","","","","","","","",""
"null","audio/beep-329314.mp3","null","audio-keyboard-response","219","2.1.0","397890","J=YES, F=NO","rls1289b3h","2","84","83","85","","","","","","","","","","","","","","","",""
"null","audio/arm.wav","null","audio-keyboard-response","220","2.1.0","398420","J=YES, F=NO","rls1289b3h","2","84","83","85","","","","","","","","","","","","","","","",""
"538","
          <p id=""word"" style=""font-size: 40px;"">seize</p>
          <p style=""font-size: 16px;"">J = YES &nbsp;&nbsp;&nbsp; F = NO</p>
        ","j","html-keyboard-response","221","2.1.0","398959","J=YES, F=NO","rls1289b3h","2","84","83","85","","","","","","","","","seize","arm","literal","experimental","j","true","",""
"null","<p style=""font-size: 50px;"">+</p>","null","html-keyboard-response","222","2.1.0","399261","J=YES, F=NO","rls1289b3h","2","84","83","85","","","","","","","","","","","","","","","",""
"null","audio/beep-329314.mp3","null","audio-keyboard-response","223","2.1.0","400790","J=YES, F=NO","rls1289b3h","2","84","83","85","","","","","","","","","","","","","","","",""
"null","audio/foot1.wav","null","audio-keyboard-response","224","2.1.0","401320","J=YES, F=NO","rls1289b3h","2","84","83","85","","","","","","","","","","","","","","","",""
"742","
          <p id=""word"" style=""font-size: 40px;"">thrutt</p>
          <p style=""font-size: 16px;"">J = YES &nbsp;&nbsp;&nbsp; F = NO</p>
        ","f","html-keyboard-response","225","2.1.0","402062","J=YES, F=NO","rls1289b3h","2","84","83","85","","","","","","","","","thrutt","foot1","pseudoword","pseudoword","f","true","",""
"null","<p style=""font-size: 50px;"">+</p>","null","html-keyboard-response","226","2.1.0","402365","J=YES, F=NO","rls1289b3h","2","84","83","85","","","","","","","","","","","","","","","",""
"null","audio/beep-329314.mp3","null","audio-keyboard-response","227","2.1.0","403890","J=YES, F=NO","rls1289b3h","2","84","83","85","","","","","","","","","","","","","","","",""
"null","audio/belief.wav","null","audio-keyboard-response","228","2.1.0","404500","J=YES, F=NO","rls1289b3h","2","84","83","85","","","","","","","","","","","","","","","",""
"598","
          <p id=""word"" style=""font-size: 40px;"">read</p>
          <p style=""font-size: 16px;"">J = YES &nbsp;&nbsp;&nbsp; F = NO</p>
        ","j","html-keyboard-response","229","2.1.0","405099","J=YES, F=NO","rls1289b3h","2","84","83","85","","","","","","","","","read","belief","filler","filler","j","true","",""
"3844","<p>Excellent! You have finished block 1 of 8.</p>
                     <p>Feel free to take a 30 second break.</p>
                     <p>Press any key when you're ready to continue.</p>"," ","html-keyboard-response","230","2.1.0","408943","J=YES, F=NO","rls1289b3h","2","84","83","85","","","","","","","","","","","","","","","",""
"7136","<p>Starting main block 2 of 8. Press any key to continue.</p>"," ","html-keyboard-response","231","2.1.0","416079","J=YES, F=NO","rls1289b3h","2","84","83","85","","","","","","","","","","","","","","","",""
"null","<p style=""font-size: 50px;"">+</p>","null","html-keyboard-response","232","2.1.0","416384","J=YES, F=NO","rls1289b3h","2","84","83","85","","","","","","","","","","","","","","","",""
"null","audio/beep-329314.mp3","null","audio-keyboard-response","233","2.1.0","417881","J=YES, F=NO","rls1289b3h","2","84","83","85","","","","","","","","","","","","","","","",""
"null","audio/train.wav","null","audio-keyboard-response","234","2.1.0","418400","J=YES, F=NO","rls1289b3h","2","84","83","85","","","","","","","","","","","","","","","",""
"736","
          <p id=""word"" style=""font-size: 40px;"">catch</p>
          <p style=""font-size: 16px;"">J = YES &nbsp;&nbsp;&nbsp; F = NO</p>
        ","j","html-keyboard-response","235","2.1.0","419137","J=YES, F=NO","rls1289b3h","2","84","83","85","","","","","","","","","catch","train","metaphor","experimental","j","true","",""
"null","<p style=""font-size: 50px;"">+</p>","null","html-keyboard-response","236","2.1.0","419439","J=YES, F=NO","rls1289b3h","2","84","83","85","","","","","","","","","","","","","","","",""
"null","audio/beep-329314.mp3","null","audio-keyboard-response","237","2.1.0","420961","J=YES, F=NO","rls1289b3h","2","84","83","85","","","","","","","","","","","","","","","",""
"null","audio/pain1.wav","null","audio-keyboard-response","238","2.1.0","421401","J=YES, F=NO","rls1289b3h","2","84","83","85","","","","","","","","","","","","","","","",""
"744","
          <p id=""word"" style=""font-size: 40px;"">tritted</p>
          <p style=""font-size: 16px;"">J = YES &nbsp;&nbsp;&nbsp; F = NO</p>
        ","f","html-keyboard-response","239","2.1.0","422145","J=YES, F=NO","rls1289b3h","2","84","83","85","","","","","","","","","tritted","pain1","pseudoword","pseudoword","f","true","",""
"null","<p style=""font-size: 50px;"">+</p>","null","html-keyboard-response","240","2.1.0","422448","J=YES, F=NO","rls1289b3h","2","84","83","85","","","","","","","","","","","","","","","",""
"null","audio/beep-329314.mp3","null","audio-keyboard-response","241","2.1.0","423981","J=YES, F=NO","rls1289b3h","2","84","83","85","","","","","","","","","","","","","","","",""
"null","audio/alarm1.wav","null","audio-keyboard-response","242","2.1.0","424720","J=YES, F=NO","rls1289b3h","2","84","83","85","","","","","","","","","","","","","","","",""
"488","
          <p id=""word"" style=""font-size: 40px;"">save</p>
          <p style=""font-size: 16px;"">J = YES &nbsp;&nbsp;&nbsp; F = NO</p>
        ","j","html-keyboard-response","243","2.1.0","425209","J=YES, F=NO","rls1289b3h","2","84","83","85","","","","","","","","","save","alarm1","unrelated","experimental","j","true","",""
"null","<p style=""font-size: 50px;"">+</p>","null","html-keyboard-response","244","2.1.0","425512","J=YES, F=NO","rls1289b3h","2","84","83","85","","","","","","","","","","","","","","","",""
"null","audio/beep-329314.mp3","null","audio-keyboard-response","245","2.1.0","427041","J=YES, F=NO","rls1289b3h","2","84","83","85","","","","","","","","","","","","","","","",""
"null","audio/revenue1.wav","null","audio-keyboard-response","246","2.1.0","427701","J=YES, F=NO","rls1289b3h","2","84","83","85","","","","","","","","","","","","","","","",""
"520","
          <p id=""word"" style=""font-size: 40px;"">grow</p>
          <p style=""font-size: 16px;"">J = YES &nbsp;&nbsp;&nbsp; F = NO</p>
        ","j","html-keyboard-response","247","2.1.0","428221","J=YES, F=NO","rls1289b3h","2","84","83","85","","","","","","","","","grow","revenue1","metaphor","experimental","j","true","",""
"null","<p style=""font-size: 50px;"">+</p>","null","html-keyboard-response","248","2.1.0","428526","J=YES, F=NO","rls1289b3h","2","84","83","85","","","","","","","","","","","","","","","",""
"null","audio/beep-329314.mp3","null","audio-keyboard-response","249","2.1.0","430061","J=YES, F=NO","rls1289b3h","2","84","83","85","","","","","","","","","","","","","","","",""
"null","audio/strength.wav","null","audio-keyboard-response","250","2.1.0","430781","J=YES, F=NO","rls1289b3h","2","84","83","85","","","","","","","","","","","","","","","",""
"684","
          <p id=""word"" style=""font-size: 40px;"">possess</p>
          <p style=""font-size: 16px;"">J = YES &nbsp;&nbsp;&nbsp; F = NO</p>
        ","j","html-keyboard-response","251","2.1.0","431465","J=YES, F=NO","rls1289b3h","2","84","83","85","","","","","","","","","possess","strength","metaphor","experimental","j","true","",""
"null","<p style=""font-size: 50px;"">+</p>","null","html-keyboard-response","252","2.1.0","431766","J=YES, F=NO","rls1289b3h","2","84","83","85","","","","","","","","","","","","","","","",""
"null","audio/beep-329314.mp3","null","audio-keyboard-response","253","2.1.0","433301","J=YES, F=NO","rls1289b3h","2","84","83","85","","","","","","","","","","","","","","","",""
"null","audio/mile1.wav","null","audio-keyboard-response","254","2.1.0","433821","J=YES, F=NO","rls1289b3h","2","84","83","85","","","","","","","","","","","","","","","",""
"675","
          <p id=""word"" style=""font-size: 40px;"">writch</p>
          <p style=""font-size: 16px;"">J = YES &nbsp;&nbsp;&nbsp; F = NO</p>
        ","f","html-keyboard-response","255","2.1.0","434496","J=YES, F=NO","rls1289b3h","2","84","83","85","","","","","","","","","writch","mile1","pseudoword","pseudoword","f","true","",""
"null","<p style=""font-size: 50px;"">+</p>","null","html-keyboard-response","256","2.1.0","434799","J=YES, F=NO","rls1289b3h","2","84","83","85","","","","","","","","","","","","","","","",""
"null","audio/beep-329314.mp3","null","audio-keyboard-response","257","2.1.0","436321","J=YES, F=NO","rls1289b3h","2","84","83","85","","","","","","","","","","","","","","","",""
"null","audio/kettle1.wav","null","audio-keyboard-response","258","2.1.0","436941","J=YES, F=NO","rls1289b3h","2","84","83","85","","","","","","","","","","","","","","","",""
"559","
          <p id=""word"" style=""font-size: 40px;"">wrap</p>
          <p style=""font-size: 16px;"">J = YES &nbsp;&nbsp;&nbsp; F = NO</p>
        ","j","html-keyboard-response","259","2.1.0","437500","J=YES, F=NO","rls1289b3h","2","84","83","85","","","","","","","","","wrap","kettle1","filler","filler","j","true","",""
"null","<p style=""font-size: 50px;"">+</p>","null","html-keyboard-response","260","2.1.0","437803","J=YES, F=NO","rls1289b3h","2","84","83","85","","","","","","","","","","","","","","","",""
"null","audio/beep-329314.mp3","null","audio-keyboard-response","261","2.1.0","439341","J=YES, F=NO","rls1289b3h","2","84","83","85","","","","","","","","","","","","","","","",""
"null","audio/key1.wav","null","audio-keyboard-response","262","2.1.0","439701","J=YES, F=NO","rls1289b3h","2","84","83","85","","","","","","","","","","","","","","","",""
"767","
          <p id=""word"" style=""font-size: 40px;"">sminsh</p>
          <p style=""font-size: 16px;"">J = YES &nbsp;&nbsp;&nbsp; F = NO</p>
        ","f","html-keyboard-response","263","2.1.0","440468","J=YES, F=NO","rls1289b3h","2","84","83","85","","","","","","","","","sminsh","key1","pseudoword","pseudoword","f","true","",""
"null","<p style=""font-size: 50px;"">+</p>","null","html-keyboard-response","264","2.1.0","440768","J=YES, F=NO","rls1289b3h","2","84","83","85","","","","","","","","","","","","","","","",""
"null","audio/beep-329314.mp3","null","audio-keyboard-response","265","2.1.0","442301","J=YES, F=NO","rls1289b3h","2","84","83","85","","","","","","","","","","","","","","","",""
"null","audio/cloud1.wav","null","audio-keyboard-response","266","2.1.0","442841","J=YES, F=NO","rls1289b3h","2","84","83","85","","","","","","","","","","","","","","","",""
"797","
          <p id=""word"" style=""font-size: 40px;"">scrap</p>
          <p style=""font-size: 16px;"">J = YES &nbsp;&nbsp;&nbsp; F = NO</p>
        ","j","html-keyboard-response","267","2.1.0","443638","J=YES, F=NO","rls1289b3h","2","84","83","85","","","","","","","","","scrap","cloud1","unrelated","experimental","j","true","",""
"null","<p style=""font-size: 50px;"">+</p>","null","html-keyboard-response","268","2.1.0","443941","J=YES, F=NO","rls1289b3h","2","84","83","85","","","","","","","","","","","","","","","",""
"null","audio/beep-329314.mp3","null","audio-keyboard-response","269","2.1.0","445481","J=YES, F=NO","rls1289b3h","2","84","83","85","","","","","","","","","","","","","","","",""
"null","audio/stain.wav","null","audio-keyboard-response","270","2.1.0","446281","J=YES, F=NO","rls1289b3h","2","84","83","85","","","","","","","","","","","","","","","",""
"679","
          <p id=""word"" style=""font-size: 40px;"">rumpsied</p>
          <p style=""font-size: 16px;"">J = YES &nbsp;&nbsp;&nbsp; F = NO</p>
        ","f","html-keyboard-response","271","2.1.0","446960","J=YES, F=NO","rls1289b3h","2","84","83","85","","","","","","","","","rumpsied","stain","pseudoword","pseudoword","f","true","",""
"null","<p style=""font-size: 50px;"">+</p>","null","html-keyboard-response","272","2.1.0","447266","J=YES, F=NO","rls1289b3h","2","84","83","85","","","","","","","","","","","","","","","",""
"null","audio/beep-329314.mp3","null","audio-keyboard-response","273","2.1.0","448801","J=YES, F=NO","rls1289b3h","2","84","83","85","","","","","","","","","","","","","","","",""
"null","audio/trust.wav","null","audio-keyboard-response","274","2.1.0","449421","J=YES, F=NO","rls1289b3h","2","84","83","85","","","","","","","","","","","","","","","",""
"589","
          <p id=""word"" style=""font-size: 40px;"">swint</p>
          <p style=""font-size: 16px;"">J = YES &nbsp;&nbsp;&nbsp; F = NO</p>
        ","f","html-keyboard-response","275","2.1.0","450010","J=YES, F=NO","rls1289b3h","2","84","83","85","","","","","","","","","swint","trust","pseudoword","pseudoword","f","true","",""
"null","<p style=""font-size: 50px;"">+</p>","null","html-keyboard-response","276","2.1.0","450312","J=YES, F=NO","rls1289b3h","2","84","83","85","","","","","","","","","","","","","","","",""
"null","audio/beep-329314.mp3","null","audio-keyboard-response","277","2.1.0","451841","J=YES, F=NO","rls1289b3h","2","84","83","85","","","","","","","","","","","","","","","",""
"null","audio/window1.wav","null","audio-keyboard-response","278","2.1.0","452441","J=YES, F=NO","rls1289b3h","2","84","83","85","","","","","","","","","","","","","","","",""
"493","
          <p id=""word"" style=""font-size: 40px;"">break</p>
          <p style=""font-size: 16px;"">J = YES &nbsp;&nbsp;&nbsp; F = NO</p>
        ","j","html-keyboard-response","279","2.1.0","452934","J=YES, F=NO","rls1289b3h","2","84","83","85","","","","","","","","","break","window1","literal","experimental","j","true","",""
"null","<p style=""font-size: 50px;"">+</p>","null","html-keyboard-response","280","2.1.0","453236","J=YES, F=NO","rls1289b3h","2","84","83","85","","","","","","","","","","","","","","","",""
"null","audio/beep-329314.mp3","null","audio-keyboard-response","281","2.1.0","454761","J=YES, F=NO","rls1289b3h","2","84","83","85","","","","","","","","","","","","","","","",""
"null","audio/sand.wav","null","audio-keyboard-response","282","2.1.0","455561","J=YES, F=NO","rls1289b3h","2","84","83","85","","","","","","","","","","","","","","","",""
"792","
          <p id=""word"" style=""font-size: 40px;"">proted</p>
          <p style=""font-size: 16px;"">J = YES &nbsp;&nbsp;&nbsp; F = NO</p>
        ","f","html-keyboard-response","283","2.1.0","456353","J=YES, F=NO","rls1289b3h","2","84","83","85","","","","","","","","","proted","sand","pseudoword","pseudoword","f","true","",""
"null","<p style=""font-size: 50px;"">+</p>","null","html-keyboard-response","284","2.1.0","456657","J=YES, F=NO","rls1289b3h","2","84","83","85","","","","","","","","","","","","","","","",""
"null","audio/beep-329314.mp3","null","audio-keyboard-response","285","2.1.0","458181","J=YES, F=NO","rls1289b3h","2","84","83","85","","","","","","","","","","","","","","","",""
"null","audio/bomb1.wav","null","audio-keyboard-response","286","2.1.0","458561","J=YES, F=NO","rls1289b3h","2","84","83","85","","","","","","","","","","","","","","","",""
"485","
          <p id=""word"" style=""font-size: 40px;"">clean</p>
          <p style=""font-size: 16px;"">J = YES &nbsp;&nbsp;&nbsp; F = NO</p>
        ","j","html-keyboard-response","287","2.1.0","459046","J=YES, F=NO","rls1289b3h","2","84","83","85","","","","","","","","","clean","bomb1","filler","filler","j","true","",""
"null","<p style=""font-size: 50px;"">+</p>","null","html-keyboard-response","288","2.1.0","459351","J=YES, F=NO","rls1289b3h","2","84","83","85","","","","","","","","","","","","","","","",""
"null","audio/beep-329314.mp3","null","audio-keyboard-response","289","2.1.0","460881","J=YES, F=NO","rls1289b3h","2","84","83","85","","","","","","","","","","","","","","","",""
"null","audio/budget1.wav","null","audio-keyboard-response","290","2.1.0","461481","J=YES, F=NO","rls1289b3h","2","84","83","85","","","","","","","","","","","","","","","",""
"526","
          <p id=""word"" style=""font-size: 40px;"">cut</p>
          <p style=""font-size: 16px;"">J = YES &nbsp;&nbsp;&nbsp; F = NO</p>
        ","j","html-keyboard-response","291","2.1.0","462007","J=YES, F=NO","rls1289b3h","2","84","83","85","","","","","","","","","cut","budget1","metaphor","experimental","j","true","",""
"null","<p style=""font-size: 50px;"">+</p>","null","html-keyboard-response","292","2.1.0","462312","J=YES, F=NO","rls1289b3h","2","84","83","85","","","","","","","","","","","","","","","",""
"null","audio/beep-329314.mp3","null","audio-keyboard-response","293","2.1.0","463841","J=YES, F=NO","rls1289b3h","2","84","83","85","","","","","","","","","","","","","","","",""
"null","audio/pattern.wav","null","audio-keyboard-response","294","2.1.0","464501","J=YES, F=NO","rls1289b3h","2","84","83","85","","","","","","","","","","","","","","","",""
"536","
          <p id=""word"" style=""font-size: 40px;"">defeat</p>
          <p style=""font-size: 16px;"">J = YES &nbsp;&nbsp;&nbsp; F = NO</p>
        ","j","html-keyboard-response","295","2.1.0","465037","J=YES, F=NO","rls1289b3h","2","84","83","85","","","","","","","","","defeat","pattern","unrelated","experimental","j","true","",""
"2582","<p>Excellent! You have finished block 2 of 8.</p>
                     <p>Feel free to take a 30 second break.</p>
                     <p>Press any key when you're ready to continue.</p>"," ","html-keyboard-response","296","2.1.0","467619","J=YES, F=NO","rls1289b3h","2","84","83","85","","","","","","","","","","","","","","","",""
"951","<p>Starting main block 3 of 8. Press any key to continue.</p>"," ","html-keyboard-response","297","2.1.0","468570","J=YES, F=NO","rls1289b3h","2","84","83","85","","","","","","","","","","","","","","","",""
"null","<p style=""font-size: 50px;"">+</p>","null","html-keyboard-response","298","2.1.0","468875","J=YES, F=NO","rls1289b3h","2","84","83","85","","","","","","","","","","","","","","","",""
"null","audio/beep-329314.mp3","null","audio-keyboard-response","299","2.1.0","470401","J=YES, F=NO","rls1289b3h","2","84","83","85","","","","","","","","","","","","","","","",""
"null","audio/purpose.wav","null","audio-keyboard-response","300","2.1.0","471061","J=YES, F=NO","rls1289b3h","2","84","83","85","","","","","","","","","","","","","","","",""
"558","
          <p id=""word"" style=""font-size: 40px;"">whigm</p>
          <p style=""font-size: 16px;"">J = YES &nbsp;&nbsp;&nbsp; F = NO</p>
        ","f","html-keyboard-response","301","2.1.0","471619","J=YES, F=NO","rls1289b3h","2","84","83","85","","","","","","","","","whigm","purpose","pseudoword","pseudoword","f","true","",""
"null","<p style=""font-size: 50px;"">+</p>","null","html-keyboard-response","302","2.1.0","471921","J=YES, F=NO","rls1289b3h","2","84","83","85","","","","","","","","","","","","","","","",""
"null","audio/beep-329314.mp3","null","audio-keyboard-response","303","2.1.0","473461","J=YES, F=NO","rls1289b3h","2","84","83","85","","","","","","","","","","","","","","","",""
"null","audio/hawk1.wav","null","audio-keyboard-response","304","2.1.0","474201","J=YES, F=NO","rls1289b3h","2","84","83","85","","","","","","","","","","","","","","","",""
"596","
          <p id=""word"" style=""font-size: 40px;"">wipe</p>
          <p style=""font-size: 16px;"">J = YES &nbsp;&nbsp;&nbsp; F = NO</p>
        ","j","html-keyboard-response","305","2.1.0","474798","J=YES, F=NO","rls1289b3h","2","84","83","85","","","","","","","","","wipe","hawk1","unrelated","experimental","j","true","",""
"null","<p style=""font-size: 50px;"">+</p>","null","html-keyboard-response","306","2.1.0","475100","J=YES, F=NO","rls1289b3h","2","84","83","85","","","","","","","","","","","","","","","",""
"null","audio/beep-329314.mp3","null","audio-keyboard-response","307","2.1.0","476621","J=YES, F=NO","rls1289b3h","2","84","83","85","","","","","","","","","","","","","","","",""
"null","audio/flaw.wav","null","audio-keyboard-response","308","2.1.0","477281","J=YES, F=NO","rls1289b3h","2","84","83","85","","","","","","","","","","","","","","","",""
"896","
          <p id=""word"" style=""font-size: 40px;"">thwool</p>
          <p style=""font-size: 16px;"">J = YES &nbsp;&nbsp;&nbsp; F = NO</p>
        ","f","html-keyboard-response","309","2.1.0","478178","J=YES, F=NO","rls1289b3h","2","84","83","85","","","","","","","","","thwool","flaw","pseudoword","pseudoword","f","true","",""
"null","<p style=""font-size: 50px;"">+</p>","null","html-keyboard-response","310","2.1.0","478480","J=YES, F=NO","rls1289b3h","2","84","83","85","","","","","","","","","","","","","","","",""
"null","audio/beep-329314.mp3","null","audio-keyboard-response","311","2.1.0","480001","J=YES, F=NO","rls1289b3h","2","84","83","85","","","","","","","","","","","","","","","",""
"null","audio/plot1.wav","null","audio-keyboard-response","312","2.1.0","480541","J=YES, F=NO","rls1289b3h","2","84","83","85","","","","","","","","","","","","","","","",""
"1069","
          <p id=""word"" style=""font-size: 40px;"">glenter</p>
          <p style=""font-size: 16px;"">J = YES &nbsp;&nbsp;&nbsp; F = NO</p>
        ","j","html-keyboard-response","313","2.1.0","481611","J=YES, F=NO","rls1289b3h","2","84","83","85","","","","","","","","","glenter","plot1","pseudoword","pseudoword","f","false","",""
"null","<p style=""font-size: 50px;"">+</p>","null","html-keyboard-response","314","2.1.0","481912","J=YES, F=NO","rls1289b3h","2","84","83","85","","","","","","","","","","","","","","","",""
"null","audio/beep-329314.mp3","null","audio-keyboard-response","315","2.1.0","483441","J=YES, F=NO","rls1289b3h","2","84","83","85","","","","","","","","","","","","","","","",""
"null","audio/trout1.wav","null","audio-keyboard-response","316","2.1.0","484061","J=YES, F=NO","rls1289b3h","2","84","83","85","","","","","","","","","","","","","","","",""
"678","
          <p id=""word"" style=""font-size: 40px;"">spimt</p>
          <p style=""font-size: 16px;"">J = YES &nbsp;&nbsp;&nbsp; F = NO</p>
        ","f","html-keyboard-response","317","2.1.0","484739","J=YES, F=NO","rls1289b3h","2","84","83","85","","","","","","","","","spimt","trout1","pseudoword","pseudoword","f","true","",""
"null","<p style=""font-size: 50px;"">+</p>","null","html-keyboard-response","318","2.1.0","485043","J=YES, F=NO","rls1289b3h","2","84","83","85","","","","","","","","","","","","","","","",""
"null","audio/beep-329314.mp3","null","audio-keyboard-response","319","2.1.0","486581","J=YES, F=NO","rls1289b3h","2","84","83","85","","","","","","","","","","","","","","","",""
"null","audio/sugar1.wav","null","audio-keyboard-response","320","2.1.0","487061","J=YES, F=NO","rls1289b3h","2","84","83","85","","","","","","","","","","","","","","","",""
"686","
          <p id=""word"" style=""font-size: 40px;"">approach</p>
          <p style=""font-size: 16px;"">J = YES &nbsp;&nbsp;&nbsp; F = NO</p>
        ","j","html-keyboard-response","321","2.1.0","487748","J=YES, F=NO","rls1289b3h","2","84","83","85","","","","","","","","","approach","sugar1","unrelated","experimental","j","true","",""
"null","<p style=""font-size: 50px;"">+</p>","null","html-keyboard-response","322","2.1.0","488052","J=YES, F=NO","rls1289b3h","2","84","83","85","","","","","","","","","","","","","","","",""
"null","audio/beep-329314.mp3","null","audio-keyboard-response","323","2.1.0","489581","J=YES, F=NO","rls1289b3h","2","84","83","85","","","","","","","","","","","","","","","",""
"null","audio/topic.wav","null","audio-keyboard-response","324","2.1.0","490141","J=YES, F=NO","rls1289b3h","2","84","83","85","","","","","","","","","","","","","","","",""
"1065","
          <p id=""word"" style=""font-size: 40px;"">infortuitist</p>
          <p style=""font-size: 16px;"">J = YES &nbsp;&nbsp;&nbsp; F = NO</p>
        ","f","html-keyboard-response","325","2.1.0","491207","J=YES, F=NO","rls1289b3h","2","84","83","85","","","","","","","","","infortuitist","topic","pseudoword","pseudoword","f","true","",""
"null","<p style=""font-size: 50px;"">+</p>","null","html-keyboard-response","326","2.1.0","491509","J=YES, F=NO","rls1289b3h","2","84","83","85","","","","","","","","","","","","","","","",""
"null","audio/beep-329314.mp3","null","audio-keyboard-response","327","2.1.0","493041","J=YES, F=NO","rls1289b3h","2","84","83","85","","","","","","","","","","","","","","","",""
"null","audio/heart1.wav","null","audio-keyboard-response","328","2.1.0","493701","J=YES, F=NO","rls1289b3h","2","84","83","85","","","","","","","","","","","","","","","",""
"734","
          <p id=""word"" style=""font-size: 40px;"">dralm</p>
          <p style=""font-size: 16px;"">J = YES &nbsp;&nbsp;&nbsp; F = NO</p>
        ","f","html-keyboard-response","329","2.1.0","494436","J=YES, F=NO","rls1289b3h","2","84","83","85","","","","","","","","","dralm","heart1","pseudoword","pseudoword","f","true","",""
"null","<p style=""font-size: 50px;"">+</p>","null","html-keyboard-response","330","2.1.0","494737","J=YES, F=NO","rls1289b3h","2","84","83","85","","","","","","","","","","","","","","","",""
"null","audio/beep-329314.mp3","null","audio-keyboard-response","331","2.1.0","496261","J=YES, F=NO","rls1289b3h","2","84","83","85","","","","","","","","","","","","","","","",""
"null","audio/bush1.wav","null","audio-keyboard-response","332","2.1.0","496721","J=YES, F=NO","rls1289b3h","2","84","83","85","","","","","","","","","","","","","","","",""
"881","
          <p id=""word"" style=""font-size: 40px;"">platined</p>
          <p style=""font-size: 16px;"">J = YES &nbsp;&nbsp;&nbsp; F = NO</p>
        ","j","html-keyboard-response","333","2.1.0","497602","J=YES, F=NO","rls1289b3h","2","84","83","85","","","","","","","","","platined","bush1","pseudoword","pseudoword","f","false","",""
"null","<p style=""font-size: 50px;"">+</p>","null","html-keyboard-response","334","2.1.0","497904","J=YES, F=NO","rls1289b3h","2","84","83","85","","","","","","","","","","","","","","","",""
"null","audio/beep-329314.mp3","null","audio-keyboard-response","335","2.1.0","499441","J=YES, F=NO","rls1289b3h","2","84","83","85","","","","","","","","","","","","","","","",""
"null","audio/wool1.wav","null","audio-keyboard-response","336","2.1.0","499801","J=YES, F=NO","rls1289b3h","2","84","83","85","","","","","","","","","","","","","","","",""
"747","
          <p id=""word"" style=""font-size: 40px;"">weave</p>
          <p style=""font-size: 16px;"">J = YES &nbsp;&nbsp;&nbsp; F = NO</p>
        ","j","html-keyboard-response","337","2.1.0","500549","J=YES, F=NO","rls1289b3h","2","84","83","85","","","","","","","","","weave","wool1","literal","experimental","j","true","",""
"null","<p style=""font-size: 50px;"">+</p>","null","html-keyboard-response","338","2.1.0","500852","J=YES, F=NO","rls1289b3h","2","84","83","85","","","","","","","","","","","","","","","",""
"null","audio/beep-329314.mp3","null","audio-keyboard-response","339","2.1.0","502381","J=YES, F=NO","rls1289b3h","2","84","83","85","","","","","","","","","","","","","","","",""
"null","audio/theory1.wav","null","audio-keyboard-response","340","2.1.0","503021","J=YES, F=NO","rls1289b3h","2","84","83","85","","","","","","","","","","","","","","","",""
"1090","
          <p id=""word"" style=""font-size: 40px;"">scolve</p>
          <p style=""font-size: 16px;"">J = YES &nbsp;&nbsp;&nbsp; F = NO</p>
        ","f","html-keyboard-response","341","2.1.0","504112","J=YES, F=NO","rls1289b3h","2","84","83","85","","","","","","","","","scolve","theory1","pseudoword","pseudoword","f","true","",""
"null","<p style=""font-size: 50px;"">+</p>","null","html-keyboard-response","342","2.1.0","504413","J=YES, F=NO","rls1289b3h","2","84","83","85","","","","","","","","","","","","","","","",""
"null","audio/beep-329314.mp3","null","audio-keyboard-response","343","2.1.0","505941","J=YES, F=NO","rls1289b3h","2","84","83","85","","","","","","","","","","","","","","","",""
"null","audio/noise1.wav","null","audio-keyboard-response","344","2.1.0","506541","J=YES, F=NO","rls1289b3h","2","84","83","85","","","","","","","","","","","","","","","",""
"1089","
          <p id=""word"" style=""font-size: 40px;"">slintered</p>
          <p style=""font-size: 16px;"">J = YES &nbsp;&nbsp;&nbsp; F = NO</p>
        ","f","html-keyboard-response","345","2.1.0","507631","J=YES, F=NO","rls1289b3h","2","84","83","85","","","","","","","","","slintered","noise1","pseudoword","pseudoword","f","true","",""
"null","<p style=""font-size: 50px;"">+</p>","null","html-keyboard-response","346","2.1.0","507932","J=YES, F=NO","rls1289b3h","2","84","83","85","","","","","","","","","","","","","","","",""
"null","audio/beep-329314.mp3","null","audio-keyboard-response","347","2.1.0","509461","J=YES, F=NO","rls1289b3h","2","84","83","85","","","","","","","","","","","","","","","",""
"null","audio/smirk1.wav","null","audio-keyboard-response","348","2.1.0","510181","J=YES, F=NO","rls1289b3h","2","84","83","85","","","","","","","","","","","","","","","",""
"788","
          <p id=""word"" style=""font-size: 40px;"">snopt</p>
          <p style=""font-size: 16px;"">J = YES &nbsp;&nbsp;&nbsp; F = NO</p>
        ","f","html-keyboard-response","349","2.1.0","510970","J=YES, F=NO","rls1289b3h","2","84","83","85","","","","","","","","","snopt","smirk1","pseudoword","pseudoword","f","true","",""
"null","<p style=""font-size: 50px;"">+</p>","null","html-keyboard-response","350","2.1.0","511275","J=YES, F=NO","rls1289b3h","2","84","83","85","","","","","","","","","","","","","","","",""
"null","audio/beep-329314.mp3","null","audio-keyboard-response","351","2.1.0","512802","J=YES, F=NO","rls1289b3h","2","84","83","85","","","","","","","","","","","","","","","",""
"null","audio/winter.wav","null","audio-keyboard-response","352","2.1.0","513401","J=YES, F=NO","rls1289b3h","2","84","83","85","","","","","","","","","","","","","","","",""
"822","
          <p id=""word"" style=""font-size: 40px;"">straven</p>
          <p style=""font-size: 16px;"">J = YES &nbsp;&nbsp;&nbsp; F = NO</p>
        ","f","html-keyboard-response","353","2.1.0","514224","J=YES, F=NO","rls1289b3h","2","84","83","85","","","","","","","","","straven","winter","pseudoword","pseudoword","f","true","",""
"null","<p style=""font-size: 50px;"">+</p>","null","html-keyboard-response","354","2.1.0","514526","J=YES, F=NO","rls1289b3h","2","84","83","85","","","","","","","","","","","","","","","",""
"null","audio/beep-329314.mp3","null","audio-keyboard-response","355","2.1.0","516062","J=YES, F=NO","rls1289b3h","2","84","83","85","","","","","","","","","","","","","","","",""
"null","audio/planet1.wav","null","audio-keyboard-response","356","2.1.0","516641","J=YES, F=NO","rls1289b3h","2","84","83","85","","","","","","","","","","","","","","","",""
"935","
          <p id=""word"" style=""font-size: 40px;"">cratched</p>
          <p style=""font-size: 16px;"">J = YES &nbsp;&nbsp;&nbsp; F = NO</p>
        ","j","html-keyboard-response","357","2.1.0","517577","J=YES, F=NO","rls1289b3h","2","84","83","85","","","","","","","","","cratched","planet1","pseudoword","pseudoword","f","false","",""
"null","<p style=""font-size: 50px;"">+</p>","null","html-keyboard-response","358","2.1.0","517880","J=YES, F=NO","rls1289b3h","2","84","83","85","","","","","","","","","","","","","","","",""
"null","audio/beep-329314.mp3","null","audio-keyboard-response","359","2.1.0","519402","J=YES, F=NO","rls1289b3h","2","84","83","85","","","","","","","","","","","","","","","",""
"null","audio/client1.wav","null","audio-keyboard-response","360","2.1.0","520082","J=YES, F=NO","rls1289b3h","2","84","83","85","","","","","","","","","","","","","","","",""
"706","
          <p id=""word"" style=""font-size: 40px;"">land</p>
          <p style=""font-size: 16px;"">J = YES &nbsp;&nbsp;&nbsp; F = NO</p>
        ","j","html-keyboard-response","361","2.1.0","520788","J=YES, F=NO","rls1289b3h","2","84","83","85","","","","","","","","","land","client1","metaphor","experimental","j","true","",""
"4464","<p>Excellent! You have finished block 3 of 8.</p>
                     <p>Feel free to take a 30 second break.</p>
                     <p>Press any key when you're ready to continue.</p>"," ","html-keyboard-response","362","2.1.0","525252","J=YES, F=NO","rls1289b3h","2","84","83","85","","","","","","","","","","","","","","","",""
"539","<p>Starting main block 4 of 8. Press any key to continue.</p>"," ","html-keyboard-response","363","2.1.0","525791","J=YES, F=NO","rls1289b3h","2","84","83","85","","","","","","","","","","","","","","","",""
"null","<p style=""font-size: 50px;"">+</p>","null","html-keyboard-response","364","2.1.0","526095","J=YES, F=NO","rls1289b3h","2","84","83","85","","","","","","","","","","","","","","","",""
"null","audio/beep-329314.mp3","null","audio-keyboard-response","365","2.1.0","527622","J=YES, F=NO","rls1289b3h","2","84","83","85","","","","","","","","","","","","","","","",""
"null","audio/prisoner.wav","null","audio-keyboard-response","366","2.1.0","528282","J=YES, F=NO","rls1289b3h","2","84","83","85","","","","","","","","","","","","","","","",""
"740","
          <p id=""word"" style=""font-size: 40px;"">egotian</p>
          <p style=""font-size: 16px;"">J = YES &nbsp;&nbsp;&nbsp; F = NO</p>
        ","f","html-keyboard-response","367","2.1.0","529022","J=YES, F=NO","rls1289b3h","2","84","83","85","","","","","","","","","egotian","prisoner","pseudoword","pseudoword","f","true","",""
"null","<p style=""font-size: 50px;"">+</p>","null","html-keyboard-response","368","2.1.0","529323","J=YES, F=NO","rls1289b3h","2","84","83","85","","","","","","","","","","","","","","","",""
"null","audio/beep-329314.mp3","null","audio-keyboard-response","369","2.1.0","530862","J=YES, F=NO","rls1289b3h","2","84","83","85","","","","","","","","","","","","","","","",""
"null","audio/dome.wav","null","audio-keyboard-response","370","2.1.0","531282","J=YES, F=NO","rls1289b3h","2","84","83","85","","","","","","","","","","","","","","","",""
"876","
          <p id=""word"" style=""font-size: 40px;"">scrupliness</p>
          <p style=""font-size: 16px;"">J = YES &nbsp;&nbsp;&nbsp; F = NO</p>
        ","j","html-keyboard-response","371","2.1.0","532158","J=YES, F=NO","rls1289b3h","2","84","83","85","","","","","","","","","scrupliness","dome","pseudoword","pseudoword","f","false","",""
"null","<p style=""font-size: 50px;"">+</p>","null","html-keyboard-response","372","2.1.0","532460","J=YES, F=NO","rls1289b3h","2","84","83","85","","","","","","","","","","","","","","","",""
"null","audio/beep-329314.mp3","null","audio-keyboard-response","373","2.1.0","533982","J=YES, F=NO","rls1289b3h","2","84","83","85","","","","","","","","","","","","","","","",""
"null","audio/corpse1.wav","null","audio-keyboard-response","374","2.1.0","534602","J=YES, F=NO","rls1289b3h","2","84","83","85","","","","","","","","","","","","","","","",""
"538","
          <p id=""word"" style=""font-size: 40px;"">bury</p>
          <p style=""font-size: 16px;"">J = YES &nbsp;&nbsp;&nbsp; F = NO</p>
        ","j","html-keyboard-response","375","2.1.0","535140","J=YES, F=NO","rls1289b3h","2","84","83","85","","","","","","","","","bury","corpse1","literal","experimental","j","true","",""
"null","<p style=""font-size: 50px;"">+</p>","null","html-keyboard-response","376","2.1.0","535442","J=YES, F=NO","rls1289b3h","2","84","83","85","","","","","","","","","","","","","","","",""
"null","audio/beep-329314.mp3","null","audio-keyboard-response","377","2.1.0","536982","J=YES, F=NO","rls1289b3h","2","84","83","85","","","","","","","","","","","","","","","",""
"null","audio/kettle1.wav","null","audio-keyboard-response","378","2.1.0","537442","J=YES, F=NO","rls1289b3h","2","84","83","85","","","","","","","","","","","","","","","",""
"608","
          <p id=""word"" style=""font-size: 40px;"">navigate</p>
          <p style=""font-size: 16px;"">J = YES &nbsp;&nbsp;&nbsp; F = NO</p>
        ","j","html-keyboard-response","379","2.1.0","538050","J=YES, F=NO","rls1289b3h","2","84","83","85","","","","","","","","","navigate","kettle1","unrelated","experimental","j","true","",""
"null","<p style=""font-size: 50px;"">+</p>","null","html-keyboard-response","380","2.1.0","538351","J=YES, F=NO","rls1289b3h","2","84","83","85","","","","","","","","","","","","","","","",""
"null","audio/beep-329314.mp3","null","audio-keyboard-response","381","2.1.0","539882","J=YES, F=NO","rls1289b3h","2","84","83","85","","","","","","","","","","","","","","","",""
"null","audio/empire.wav","null","audio-keyboard-response","382","2.1.0","540502","J=YES, F=NO","rls1289b3h","2","84","83","85","","","","","","","","","","","","","","","",""
"679","
          <p id=""word"" style=""font-size: 40px;"">slorby</p>
          <p style=""font-size: 16px;"">J = YES &nbsp;&nbsp;&nbsp; F = NO</p>
        ","f","html-keyboard-response","383","2.1.0","541181","J=YES, F=NO","rls1289b3h","2","84","83","85","","","","","","","","","slorby","empire","pseudoword","pseudoword","f","true","",""
"null","<p style=""font-size: 50px;"">+</p>","null","html-keyboard-response","384","2.1.0","541485","J=YES, F=NO","rls1289b3h","2","84","83","85","","","","","","","","","","","","","","","",""
"null","audio/beep-329314.mp3","null","audio-keyboard-response","385","2.1.0","543022","J=YES, F=NO","rls1289b3h","2","84","83","85","","","","","","","","","","","","","","","",""
"null","audio/seat.wav","null","audio-keyboard-response","386","2.1.0","543842","J=YES, F=NO","rls1289b3h","2","84","83","85","","","","","","","","","","","","","","","",""
"750","
          <p id=""word"" style=""font-size: 40px;"">digest</p>
          <p style=""font-size: 16px;"">J = YES &nbsp;&nbsp;&nbsp; F = NO</p>
        ","j","html-keyboard-response","387","2.1.0","544592","J=YES, F=NO","rls1289b3h","2","84","83","85","","","","","","","","","digest","seat","unrelated","experimental","j","true","",""
"null","<p style=""font-size: 50px;"">+</p>","null","html-keyboard-response","388","2.1.0","544896","J=YES, F=NO","rls1289b3h","2","84","83","85","","","","","","","","","","","","","","","",""
"null","audio/beep-329314.mp3","null","audio-keyboard-response","389","2.1.0","546422","J=YES, F=NO","rls1289b3h","2","84","83","85","","","","","","","","","","","","","","","",""
"null","audio/client1.wav","null","audio-keyboard-response","390","2.1.0","547102","J=YES, F=NO","rls1289b3h","2","84","83","85","","","","","","","","","","","","","","","",""
"685","
          <p id=""word"" style=""font-size: 40px;"">droothe</p>
          <p style=""font-size: 16px;"">J = YES &nbsp;&nbsp;&nbsp; F = NO</p>
