"rt","stimulus","response","trial_type","trial_index","plugin_version","time_elapsed","response_mapping","subject_id","list_index","lextale_score","lextale_word_score","lextale_nonword_score","success","timeout","failed_images","failed_audio","failed_video","task","isWord","isDummy","target","prime","prime_type","stimulus_type","correct_response","correct","section","question_order"
"5541","
    <div style=""max-width: 800px; margin: auto; text-align: left;"">
      <h2>STANFORD UNIVERSITY</h2>
      <h3>Research Information Sheet</h3>
      <p><strong>Protocol Director:</strong> Robert Hawkins<br>
      <strong>Protocol Title:</strong> Communication and social cognition in natural audiovisual contexts<br>
      <strong>IRB#:</strong> 77226</p>

      <p><strong>DESCRIPTION:</strong> You are invited to participate in a research study about language and communication. The purpose of the research is to understand how you interact and communicate with other people in naturalistic settings as a fluent English speaker. This research will be conducted through the Prolific platform, including participants from the US, UK, and Canada. If you decide to participate in this research, you will play a communication game in a group with one or more partners.</p>

      <p><strong>TIME INVOLVEMENT:</strong> The task will last the amount of time advertised on Prolific. You are free to withdraw from the study at any time.</p>

      <p><strong>RISKS AND BENEFITS:</strong> You may become frustrated if your partner gets distracted, or experience discomfort if other participants in your group send text that is inappropriate for the task. We ask you to please be respectful of other participants you might be interacting with to mitigate these risks. You may also experience discomfort when being asked to discuss or challenge emotionally salient political beliefs. Study data will be stored securely, in compliance with Stanford University standards, minimizing the risk of confidentiality breach. This study advances our scientific understanding of how people communicate and collaborate in naturalistic settings. This study may lead to further insights about what can go wrong in teamwork, suggest potential interventions to overcome these barriers, and help to develop assistive technologies that collaborate with human partners. We cannot and do not guarantee or promise that you will receive any benefits from this study.</p>

      <p><strong>PAYMENTS:</strong> You will receive payment in the amount advertised on Prolific. If you do not complete this study, you will receive prorated payment based on the time that you have spent. Additionally, you may be eligible for bonus payments as described in the instructions.</p>

      <p><strong>PARTICIPANT’S RIGHTS:</strong> If you have read this form and have decided to participate in this project, please understand your participation is voluntary and you have the right to withdraw your consent or discontinue participation at any time without penalty or loss of benefits to which you are otherwise entitled. The alternative is not to participate. You have the right to refuse to answer particular questions. The results of this research study may be presented at scientific or professional meetings or published in scientific journals. Your individual privacy will be maintained in all published and written data resulting from the study. In accordance with scientific norms, the data from this study may be used or shared with other researchers for future research (after removing personally identifying information) without additional consent from you.</p>

      <p><strong>CONTACT INFORMATION:</strong><br>
      Questions: If you have any questions, concerns or complaints about this research, its procedures, risks and benefits, contact the Protocol Director, Robert Hawkins (<a href=""mailto:rdhawkins@stanford.edu"">rdhawkins@stanford.edu</a>, 217-549-6923).<br>
      Independent Contact: If you are not satisfied with how this study is being conducted, or if you have any concerns, complaints, or general questions about the research or your rights as a participant, please contact the Stanford Institutional Review Board (IRB) to speak to someone independent of the research team at 650-723-2480 or toll free at 1-866-680-2906, or email at <a href=""mailto:irbnon-med@stanford.edu"">irbnon-med@stanford.edu</a>. You can also write to the Stanford IRB, Stanford University, 1705 El Camino Real, Palo Alto, CA 94306.</p>

      <p><strong>Please save or print a copy of this page for your records.</strong></p>
      <p>If you agree to participate in this research, click ""Continue"" below.</p>
    </div>
  ","0","html-button-response","0","2.1.0","5560","J=YES, F=NO","rr15n1utq4","2","71","68","75","","","","","","","","","","","","","","","",""
"6201","
    <div style=""max-width: 800px; margin: auto; text-align: left;"">
      <h2>Welcome!</h2>
      <p>Thank you for participating in this study. The experiment consists of three parts:</p>
      <ol>
        <li>An English vocabulary test</li>
        <li>A main task in which you will hear and see words, and decide whether the written word is a real English word</li>
        <li>A brief survey about your background</li>
      </ol>
      <p>Each part will be introduced before it begins.</p>
      <p>Please make sure you are in a quiet environment and can hear audio clearly for the final task.</p>
      <p style=""margin-top: 2em;"">Press any key to begin.</p>
    </div>
  "," ","html-keyboard-response","1","2.1.0","11767","J=YES, F=NO","rr15n1utq4","2","71","68","75","","","","","","","","","","","","","","","",""
"","","","preload","2","2.1.0","12606","J=YES, F=NO","rr15n1utq4","2","71","68","75","true","false","[]","[]","[]","","","","","","","","","","",""
"8419","
    <div style=""max-width: 800px; margin: auto; text-align: left;"">
      <h2>Part 1: Vocabulary Test</h2>
      <p>You will now complete the first part of the study: a short English vocabulary test.</p>
      <p>This test is called <strong>LexTALE</strong> and helps us get a general sense of your English proficiency.</p>
      <p style=""margin-top: 2em;"">Press any key to continue.</p>
    </div>
  "," ","html-keyboard-response","3","2.1.0","21029","J=YES, F=NO","rr15n1utq4","2","71","68","75","","","","","","","","","","","","","","","",""
"15286","
    <div style=""max-width: 800px; margin: auto; text-align: left;"">
      <h2>LexTALE Vocabulary Test</h2>
      <p>In this test, you will see a series of letter strings—one at a time.</p>
      <p>Your task is to decide whether each string is a real English word.</p>
      <p><strong>Key responses:</strong></p>
      <ul>
        <li><strong>J</strong> = YES (real English word)</li>
        <li><strong>F</strong> = NO (not a real English word)</li>
      </ul>
      <p>There is no time limit, but please try to be accurate.</p>
      <p style=""margin-top: 2em;"">Press any key to begin.</p>
    </div>
  "," ","html-keyboard-response","4","2.1.0","36317","J=YES, F=NO","rr15n1utq4","2","71","68","75","","","","","","","","","","","","","","","",""
"3721","
  <p style=""font-size: 40px;"">platery</p>
  <p style=""font-size: 16px;"">J = YES &nbsp;&nbsp;&nbsp; F = NO</p>
","j","html-keyboard-response","5","2.1.0","40043","J=YES, F=NO","rr15n1utq4","2","71","68","75","","","","","","lextale","false","true","","","","","","","",""
"2103","
  <p style=""font-size: 40px;"">denial</p>
  <p style=""font-size: 16px;"">J = YES &nbsp;&nbsp;&nbsp; F = NO</p>
","j","html-keyboard-response","6","2.1.0","42148","J=YES, F=NO","rr15n1utq4","2","71","68","75","","","","","","lextale","true","true","","","","","","","",""
"2443","
  <p style=""font-size: 40px;"">marrit</p>
  <p style=""font-size: 16px;"">J = YES &nbsp;&nbsp;&nbsp; F = NO</p>
","f","html-keyboard-response","7","2.1.0","44594","J=YES, F=NO","rr15n1utq4","2","71","68","75","","","","","","lextale","false","true","","","","","","","",""
"3813","
  <p style=""font-size: 40px;"">bottle</p>
  <p style=""font-size: 16px;"">J = YES &nbsp;&nbsp;&nbsp; F = NO</p>
","j","html-keyboard-response","8","2.1.0","48408","J=YES, F=NO","rr15n1utq4","2","71","68","75","","","","","","lextale","true","false","","","","","","","",""
"2086","
  <p style=""font-size: 40px;"">birst</p>
  <p style=""font-size: 16px;"">J = YES &nbsp;&nbsp;&nbsp; F = NO</p>
","f","html-keyboard-response","9","2.1.0","50498","J=YES, F=NO","rr15n1utq4","2","71","68","75","","","","","","lextale","false","false","","","","","","","",""
"1223","
  <p style=""font-size: 40px;"">envy</p>
  <p style=""font-size: 16px;"">J = YES &nbsp;&nbsp;&nbsp; F = NO</p>
","j","html-keyboard-response","10","2.1.0","51722","J=YES, F=NO","rr15n1utq4","2","71","68","75","","","","","","lextale","true","false","","","","","","","",""
"2844","
  <p style=""font-size: 40px;"">brang</p>
  <p style=""font-size: 16px;"">J = YES &nbsp;&nbsp;&nbsp; F = NO</p>
","f","html-keyboard-response","11","2.1.0","54569","J=YES, F=NO","rr15n1utq4","2","71","68","75","","","","","","lextale","false","false","","","","","","","",""
"959","
  <p style=""font-size: 40px;"">huge</p>
  <p style=""font-size: 16px;"">J = YES &nbsp;&nbsp;&nbsp; F = NO</p>
","j","html-keyboard-response","12","2.1.0","55530","J=YES, F=NO","rr15n1utq4","2","71","68","75","","","","","","lextale","true","false","","","","","","","",""
"1807","
  <p style=""font-size: 40px;"">plove</p>
  <p style=""font-size: 16px;"">J = YES &nbsp;&nbsp;&nbsp; F = NO</p>
","f","html-keyboard-response","13","2.1.0","57337","J=YES, F=NO","rr15n1utq4","2","71","68","75","","","","","","lextale","false","false","","","","","","","",""
"877","
  <p style=""font-size: 40px;"">border</p>
  <p style=""font-size: 16px;"">J = YES &nbsp;&nbsp;&nbsp; F = NO</p>
","j","html-keyboard-response","14","2.1.0","58217","J=YES, F=NO","rr15n1utq4","2","71","68","75","","","","","","lextale","true","false","","","","","","","",""
"1799","
  <p style=""font-size: 40px;"">flimsy</p>
  <p style=""font-size: 16px;"">J = YES &nbsp;&nbsp;&nbsp; F = NO</p>
","f","html-keyboard-response","15","2.1.0","60017","J=YES, F=NO","rr15n1utq4","2","71","68","75","","","","","","lextale","true","false","","","","","","","",""
"742","
  <p style=""font-size: 40px;"">drain</p>
  <p style=""font-size: 16px;"">J = YES &nbsp;&nbsp;&nbsp; F = NO</p>
","j","html-keyboard-response","16","2.1.0","60761","J=YES, F=NO","rr15n1utq4","2","71","68","75","","","","","","lextale","true","false","","","","","","","",""
"1442","
  <p style=""font-size: 40px;"">twindle</p>
  <p style=""font-size: 16px;"">J = YES &nbsp;&nbsp;&nbsp; F = NO</p>
","f","html-keyboard-response","17","2.1.0","62205","J=YES, F=NO","rr15n1utq4","2","71","68","75","","","","","","lextale","false","false","","","","","","","",""
"818","
  <p style=""font-size: 40px;"">propose</p>
  <p style=""font-size: 16px;"">J = YES &nbsp;&nbsp;&nbsp; F = NO</p>
","j","html-keyboard-response","18","2.1.0","63026","J=YES, F=NO","rr15n1utq4","2","71","68","75","","","","","","lextale","true","false","","","","","","","",""
"1665","
  <p style=""font-size: 40px;"">forlay</p>
  <p style=""font-size: 16px;"">J = YES &nbsp;&nbsp;&nbsp; F = NO</p>
","f","html-keyboard-response","19","2.1.0","64691","J=YES, F=NO","rr15n1utq4","2","71","68","75","","","","","","lextale","false","false","","","","","","","",""
"1173","
  <p style=""font-size: 40px;"">tenant</p>
  <p style=""font-size: 16px;"">J = YES &nbsp;&nbsp;&nbsp; F = NO</p>
","j","html-keyboard-response","20","2.1.0","65866","J=YES, F=NO","rr15n1utq4","2","71","68","75","","","","","","lextale","true","false","","","","","","","",""
"855","
  <p style=""font-size: 40px;"">strain</p>
  <p style=""font-size: 16px;"">J = YES &nbsp;&nbsp;&nbsp; F = NO</p>
","j","html-keyboard-response","21","2.1.0","66722","J=YES, F=NO","rr15n1utq4","2","71","68","75","","","","","","lextale","true","false","","","","","","","",""
"3244","
  <p style=""font-size: 40px;"">holster</p>
  <p style=""font-size: 16px;"">J = YES &nbsp;&nbsp;&nbsp; F = NO</p>
","f","html-keyboard-response","22","2.1.0","69968","J=YES, F=NO","rr15n1utq4","2","71","68","75","","","","","","lextale","true","false","","","","","","","",""
"1327","
  <p style=""font-size: 40px;"">hinder</p>
  <p style=""font-size: 16px;"">J = YES &nbsp;&nbsp;&nbsp; F = NO</p>
","j","html-keyboard-response","23","2.1.0","71297","J=YES, F=NO","rr15n1utq4","2","71","68","75","","","","","","lextale","true","false","","","","","","","",""
"1367","
  <p style=""font-size: 40px;"">swindle</p>
  <p style=""font-size: 16px;"">J = YES &nbsp;&nbsp;&nbsp; F = NO</p>
","f","html-keyboard-response","24","2.1.0","72668","J=YES, F=NO","rr15n1utq4","2","71","68","75","","","","","","lextale","true","false","","","","","","","",""
"2089","
  <p style=""font-size: 40px;"">nuder</p>
  <p style=""font-size: 16px;"">J = YES &nbsp;&nbsp;&nbsp; F = NO</p>
","j","html-keyboard-response","25","2.1.0","74761","J=YES, F=NO","rr15n1utq4","2","71","68","75","","","","","","lextale","false","false","","","","","","","",""
"677","
  <p style=""font-size: 40px;"">pillow</p>
  <p style=""font-size: 16px;"">J = YES &nbsp;&nbsp;&nbsp; F = NO</p>
","j","html-keyboard-response","26","2.1.0","75442","J=YES, F=NO","rr15n1utq4","2","71","68","75","","","","","","lextale","true","false","","","","","","","",""
"1554","
  <p style=""font-size: 40px;"">shumble</p>
  <p style=""font-size: 16px;"">J = YES &nbsp;&nbsp;&nbsp; F = NO</p>
","f","html-keyboard-response","27","2.1.0","77000","J=YES, F=NO","rr15n1utq4","2","71","68","75","","","","","","lextale","false","false","","","","","","","",""
"911","
  <p style=""font-size: 40px;"">thirst</p>
  <p style=""font-size: 16px;"">J = YES &nbsp;&nbsp;&nbsp; F = NO</p>
","j","html-keyboard-response","28","2.1.0","77913","J=YES, F=NO","rr15n1utq4","2","71","68","75","","","","","","lextale","true","false","","","","","","","",""
"3123","
  <p style=""font-size: 40px;"">unsail</p>
  <p style=""font-size: 16px;"">J = YES &nbsp;&nbsp;&nbsp; F = NO</p>
","j","html-keyboard-response","29","2.1.0","81039","J=YES, F=NO","rr15n1utq4","2","71","68","75","","","","","","lextale","false","false","","","","","","","",""
"1302","
  <p style=""font-size: 40px;"">rifle</p>
  <p style=""font-size: 16px;"">J = YES &nbsp;&nbsp;&nbsp; F = NO</p>
","f","html-keyboard-response","30","2.1.0","82343","J=YES, F=NO","rr15n1utq4","2","71","68","75","","","","","","lextale","true","false","","","","","","","",""
"2415","
  <p style=""font-size: 40px;"">mush</p>
  <p style=""font-size: 16px;"">J = YES &nbsp;&nbsp;&nbsp; F = NO</p>
","j","html-keyboard-response","31","2.1.0","84759","J=YES, F=NO","rr15n1utq4","2","71","68","75","","","","","","lextale","false","false","","","","","","","",""
"1678","
  <p style=""font-size: 40px;"">drench</p>
  <p style=""font-size: 16px;"">J = YES &nbsp;&nbsp;&nbsp; F = NO</p>
","j","html-keyboard-response","32","2.1.0","86438","J=YES, F=NO","rr15n1utq4","2","71","68","75","","","","","","lextale","true","false","","","","","","","",""
"861","
  <p style=""font-size: 40px;"">snirt</p>
  <p style=""font-size: 16px;"">J = YES &nbsp;&nbsp;&nbsp; F = NO</p>
","f","html-keyboard-response","33","2.1.0","87301","J=YES, F=NO","rr15n1utq4","2","71","68","75","","","","","","lextale","false","false","","","","","","","",""
"1037","
  <p style=""font-size: 40px;"">bitter</p>
  <p style=""font-size: 16px;"">J = YES &nbsp;&nbsp;&nbsp; F = NO</p>
","j","html-keyboard-response","34","2.1.0","88341","J=YES, F=NO","rr15n1utq4","2","71","68","75","","","","","","lextale","true","false","","","","","","","",""
"1521","
  <p style=""font-size: 40px;"">pliff</p>
  <p style=""font-size: 16px;"">J = YES &nbsp;&nbsp;&nbsp; F = NO</p>
","f","html-keyboard-response","35","2.1.0","89862","J=YES, F=NO","rr15n1utq4","2","71","68","75","","","","","","lextale","false","false","","","","","","","",""
"590","
  <p style=""font-size: 40px;"">tablet</p>
  <p style=""font-size: 16px;"">J = YES &nbsp;&nbsp;&nbsp; F = NO</p>
","j","html-keyboard-response","36","2.1.0","90455","J=YES, F=NO","rr15n1utq4","2","71","68","75","","","","","","lextale","true","false","","","","","","","",""
"825","
  <p style=""font-size: 40px;"">glimmer</p>
  <p style=""font-size: 16px;"">J = YES &nbsp;&nbsp;&nbsp; F = NO</p>
","j","html-keyboard-response","37","2.1.0","91281","J=YES, F=NO","rr15n1utq4","2","71","68","75","","","","","","lextale","true","false","","","","","","","",""
"1421","
  <p style=""font-size: 40px;"">slink</p>
  <p style=""font-size: 16px;"">J = YES &nbsp;&nbsp;&nbsp; F = NO</p>
","j","html-keyboard-response","38","2.1.0","92704","J=YES, F=NO","rr15n1utq4","2","71","68","75","","","","","","lextale","true","false","","","","","","","",""
"733","
  <p style=""font-size: 40px;"">clever</p>
  <p style=""font-size: 16px;"">J = YES &nbsp;&nbsp;&nbsp; F = NO</p>
","j","html-keyboard-response","39","2.1.0","93438","J=YES, F=NO","rr15n1utq4","2","71","68","75","","","","","","lextale","true","false","","","","","","","",""
"1370","
  <p style=""font-size: 40px;"">grum</p>
  <p style=""font-size: 16px;"">J = YES &nbsp;&nbsp;&nbsp; F = NO</p>
","f","html-keyboard-response","40","2.1.0","94810","J=YES, F=NO","rr15n1utq4","2","71","68","75","","","","","","lextale","false","false","","","","","","","",""
"1145","
  <p style=""font-size: 40px;"">string</p>
  <p style=""font-size: 16px;"">J = YES &nbsp;&nbsp;&nbsp; F = NO</p>
","j","html-keyboard-response","41","2.1.0","95957","J=YES, F=NO","rr15n1utq4","2","71","68","75","","","","","","lextale","true","false","","","","","","","",""
"1269","
  <p style=""font-size: 40px;"">plim</p>
  <p style=""font-size: 16px;"">J = YES &nbsp;&nbsp;&nbsp; F = NO</p>
","f","html-keyboard-response","42","2.1.0","97229","J=YES, F=NO","rr15n1utq4","2","71","68","75","","","","","","lextale","false","false","","","","","","","",""
"811","
  <p style=""font-size: 40px;"">cable</p>
  <p style=""font-size: 16px;"">J = YES &nbsp;&nbsp;&nbsp; F = NO</p>
","j","html-keyboard-response","43","2.1.0","98041","J=YES, F=NO","rr15n1utq4","2","71","68","75","","","","","","lextale","true","false","","","","","","","",""
"2527","
  <p style=""font-size: 40px;"">shrivel</p>
  <p style=""font-size: 16px;"">J = YES &nbsp;&nbsp;&nbsp; F = NO</p>
","j","html-keyboard-response","44","2.1.0","100569","J=YES, F=NO","rr15n1utq4","2","71","68","75","","","","","","lextale","true","false","","","","","","","",""
"1439","
  <p style=""font-size: 40px;"">tarnish</p>
  <p style=""font-size: 16px;"">J = YES &nbsp;&nbsp;&nbsp; F = NO</p>
","f","html-keyboard-response","45","2.1.0","102010","J=YES, F=NO","rr15n1utq4","2","71","68","75","","","","","","lextale","true","false","","","","","","","",""
"1145","
  <p style=""font-size: 40px;"">blim</p>
  <p style=""font-size: 16px;"">J = YES &nbsp;&nbsp;&nbsp; F = NO</p>
","f","html-keyboard-response","46","2.1.0","103157","J=YES, F=NO","rr15n1utq4","2","71","68","75","","","","","","lextale","false","false","","","","","","","",""
"1784","
  <p style=""font-size: 40px;"">stifle</p>
  <p style=""font-size: 16px;"">J = YES &nbsp;&nbsp;&nbsp; F = NO</p>
","f","html-keyboard-response","47","2.1.0","104943","J=YES, F=NO","rr15n1utq4","2","71","68","75","","","","","","lextale","true","false","","","","","","","",""
"909","
  <p style=""font-size: 40px;"">bint</p>
  <p style=""font-size: 16px;"">J = YES &nbsp;&nbsp;&nbsp; F = NO</p>
","f","html-keyboard-response","48","2.1.0","105854","J=YES, F=NO","rr15n1utq4","2","71","68","75","","","","","","lextale","false","false","","","","","","","",""
"702","
  <p style=""font-size: 40px;"">purple</p>
  <p style=""font-size: 16px;"">J = YES &nbsp;&nbsp;&nbsp; F = NO</p>
","j","html-keyboard-response","49","2.1.0","106558","J=YES, F=NO","rr15n1utq4","2","71","68","75","","","","","","lextale","true","false","","","","","","","",""
"1300","
  <p style=""font-size: 40px;"">wriggle</p>
  <p style=""font-size: 16px;"">J = YES &nbsp;&nbsp;&nbsp; F = NO</p>
","f","html-keyboard-response","50","2.1.0","107860","J=YES, F=NO","rr15n1utq4","2","71","68","75","","","","","","lextale","true","false","","","","","","","",""
"1445","
  <p style=""font-size: 40px;"">mangle</p>
  <p style=""font-size: 16px;"">J = YES &nbsp;&nbsp;&nbsp; F = NO</p>
","j","html-keyboard-response","51","2.1.0","109305","J=YES, F=NO","rr15n1utq4","2","71","68","75","","","","","","lextale","true","false","","","","","","","",""
"1287","
  <p style=""font-size: 40px;"">shramp</p>
  <p style=""font-size: 16px;"">J = YES &nbsp;&nbsp;&nbsp; F = NO</p>
","j","html-keyboard-response","52","2.1.0","110592","J=YES, F=NO","rr15n1utq4","2","71","68","75","","","","","","lextale","false","false","","","","","","","",""
"919","
  <p style=""font-size: 40px;"">flirt</p>
  <p style=""font-size: 16px;"">J = YES &nbsp;&nbsp;&nbsp; F = NO</p>
","j","html-keyboard-response","53","2.1.0","111511","J=YES, F=NO","rr15n1utq4","2","71","68","75","","","","","","lextale","true","false","","","","","","","",""
"1083","
  <p style=""font-size: 40px;"">frip</p>
  <p style=""font-size: 16px;"">J = YES &nbsp;&nbsp;&nbsp; F = NO</p>
","f","html-keyboard-response","54","2.1.0","112595","J=YES, F=NO","rr15n1utq4","2","71","68","75","","","","","","lextale","false","false","","","","","","","",""
"1687","
  <p style=""font-size: 40px;"">tangle</p>
  <p style=""font-size: 16px;"">J = YES &nbsp;&nbsp;&nbsp; F = NO</p>
","j","html-keyboard-response","55","2.1.0","114284","J=YES, F=NO","rr15n1utq4","2","71","68","75","","","","","","lextale","true","false","","","","","","","",""
"951","
  <p style=""font-size: 40px;"">crumble</p>
  <p style=""font-size: 16px;"">J = YES &nbsp;&nbsp;&nbsp; F = NO</p>
","j","html-keyboard-response","56","2.1.0","115238","J=YES, F=NO","rr15n1utq4","2","71","68","75","","","","","","lextale","true","false","","","","","","","",""
"810","
  <p style=""font-size: 40px;"">wrinkle</p>
  <p style=""font-size: 16px;"">J = YES &nbsp;&nbsp;&nbsp; F = NO</p>
","j","html-keyboard-response","57","2.1.0","116049","J=YES, F=NO","rr15n1utq4","2","71","68","75","","","","","","lextale","true","false","","","","","","","",""
"1046","
  <p style=""font-size: 40px;"">slumb</p>
  <p style=""font-size: 16px;"">J = YES &nbsp;&nbsp;&nbsp; F = NO</p>
","f","html-keyboard-response","58","2.1.0","117099","J=YES, F=NO","rr15n1utq4","2","71","68","75","","","","","","lextale","false","false","","","","","","","",""
"1074","
  <p style=""font-size: 40px;"">jungle</p>
  <p style=""font-size: 16px;"">J = YES &nbsp;&nbsp;&nbsp; F = NO</p>
","j","html-keyboard-response","59","2.1.0","118175","J=YES, F=NO","rr15n1utq4","2","71","68","75","","","","","","lextale","true","false","","","","","","","",""
"2261","
  <p style=""font-size: 40px;"">frolick</p>
  <p style=""font-size: 16px;"">J = YES &nbsp;&nbsp;&nbsp; F = NO</p>
","f","html-keyboard-response","60","2.1.0","120439","J=YES, F=NO","rr15n1utq4","2","71","68","75","","","","","","lextale","false","false","","","","","","","",""
"2616","
      <h2>LexTALE Test Completed</h2>
      <p>Your LexTALE vocabulary score is: <strong>71%</strong></p>
      <p>Press any key to continue.</p>
    "," ","html-keyboard-response","61","2.1.0","123058","J=YES, F=NO","rr15n1utq4","2","71","68","75","","","","","","","","","","","","","","","",""
"5273","
    <div style=""max-width: 800px; margin: auto; text-align: left;"">
      <h2>Break Time</h2>
      <p>You have completed the first part of the study.</p>
      <p>You may take a short <strong>30-second break</strong> before continuing.</p>
      <p>When you’re ready, press any key to continue to the final task.</p>
    </div>
  "," ","html-keyboard-response","62","2.1.0","128332","J=YES, F=NO","rr15n1utq4","2","71","68","75","","","","","","","","","","","","","","","",""
"18517","
    <div style=""max-width: 800px; margin: auto; text-align: left;"">
      <h2>Part 2: Lexical Decision Task</h2>
      <p>You will now begin the second part of the study.</p>
      <p>Each trial will follow this sequence:</p>
      <ul>
        <li>A fixation cross (+) appears at the center of the screen.</li>
        <li>You will hear a short beep followed by a spoken word.</li>
        <li>A written word will appear briefly on the screen.</li>
      </ul>
      <p>Your task is to judge whether the <strong>written word</strong> is a real English word.</p>
      <p style=""margin-top: 1em;""><strong>Key responses:</strong></p>
      <ul>
        <li><strong>J</strong> = YES (real English word)</li>
        <li><strong>F</strong> = NO (not a real English word)</li>
      </ul>
      <p>Please respond as quickly and accurately as you can.</p>
      <p style=""margin-top: 2em;"">Press any key to continue.</p>
    </div>
  "," ","html-keyboard-response","63","2.1.0","146852","J=YES, F=NO","rr15n1utq4","2","71","68","75","","","","","","","","","","","","","","","",""
"8483","
    <div style=""max-width: 800px; margin: auto; text-align: left;"">
      <h2>Before You Begin</h2>
      <p>Make sure your sound is turned on.</p>
      <p>You will hear audio during each trial, but your decision should be based only on the <strong>written word</strong> you see on the screen.</p>
      <p><strong>Reminder:</strong></p>
      <ul>
        <li><strong>J</strong> = YES (real English word)</li>
        <li><strong>F</strong> = NO (not a real English word)</li>
      </ul>
      <p style=""margin-top: 2em;"">Press any key when you are ready to begin.</p>
    </div>
  "," ","html-keyboard-response","64","2.1.0","155337","J=YES, F=NO","rr15n1utq4","2","71","68","75","","","","","","","","","","","","","","","",""
"3442","
    <div style=""max-width: 800px; margin: auto; text-align: left;"">
      <h2>Part 2: Practice Trials</h2>
      <p>You will now complete a few <strong>practice trials</strong> to get familiar with the task.</p>
      <p>These trials are <strong>not scored</strong> and are only to help you get used to the format.</p>
      <p style=""margin-top: 2em;"">Press any key to begin.</p>
    </div>
  "," ","html-keyboard-response","65","2.1.0","158780","J=YES, F=NO","rr15n1utq4","2","71","68","75","","","","","","","","","","","","","","","",""
"1865","<p>Starting practice block 1 of 2. Press any key to continue.</p>"," ","html-keyboard-response","66","2.1.0","160646","J=YES, F=NO","rr15n1utq4","2","71","68","75","","","","","","","","","","","","","","","",""
"null","<p style=""font-size: 50px;"">+</p>","null","html-keyboard-response","67","2.1.0","160962","J=YES, F=NO","rr15n1utq4","2","71","68","75","","","","","","","","","","","","","","","",""
"null","audio/beep-329314.mp3","null","audio-keyboard-response","68","2.1.0","163977","J=YES, F=NO","rr15n1utq4","2","71","68","75","","","","","","","","","","","","","","","",""
"null","audio/tomato.wav","null","audio-keyboard-response","69","2.1.0","165100","J=YES, F=NO","rr15n1utq4","2","71","68","75","","","","","","","","","","","","","","","",""
"null","
          <p id=""word"" style=""font-size: 40px;"">gladies</p>
          <p style=""font-size: 16px;"">J = YES &nbsp;&nbsp;&nbsp; F = NO</p>
        ","null","html-keyboard-response","70","2.1.0","166615","J=YES, F=NO","rr15n1utq4","2","71","68","75","","","","","","","","","gladies","tomato","pseudoword","pseudoword","f","false","",""
"null","<p style=""font-size: 50px;"">+</p>","null","html-keyboard-response","71","2.1.0","166922","J=YES, F=NO","rr15n1utq4","2","71","68","75","","","","","","","","","","","","","","","",""
"null","audio/beep-329314.mp3","null","audio-keyboard-response","72","2.1.0","168703","J=YES, F=NO","rr15n1utq4","2","71","68","75","","","","","","","","","","","","","","","",""
"null","audio/floor.wav","null","audio-keyboard-response","73","2.1.0","169498","J=YES, F=NO","rr15n1utq4","2","71","68","75","","","","","","","","","","","","","","","",""
"930","
          <p id=""word"" style=""font-size: 40px;"">mop</p>
          <p style=""font-size: 16px;"">J = YES &nbsp;&nbsp;&nbsp; F = NO</p>
        ","f","html-keyboard-response","74","2.1.0","170430","J=YES, F=NO","rr15n1utq4","2","71","68","75","","","","","","","","","mop","floor","filler","filler","j","false","",""
"null","<p style=""font-size: 50px;"">+</p>","null","html-keyboard-response","75","2.1.0","170740","J=YES, F=NO","rr15n1utq4","2","71","68","75","","","","","","","","","","","","","","","",""
"null","audio/beep-329314.mp3","null","audio-keyboard-response","76","2.1.0","172545","J=YES, F=NO","rr15n1utq4","2","71","68","75","","","","","","","","","","","","","","","",""
"null","audio/fence.wav","null","audio-keyboard-response","77","2.1.0","173699","J=YES, F=NO","rr15n1utq4","2","71","68","75","","","","","","","","","","","","","","","",""
"394","
          <p id=""word"" style=""font-size: 40px;"">trim</p>
          <p style=""font-size: 16px;"">J = YES &nbsp;&nbsp;&nbsp; F = NO</p>
        ","j","html-keyboard-response","78","2.1.0","174094","J=YES, F=NO","rr15n1utq4","2","71","68","75","","","","","","","","","trim","fence","filler","filler","j","true","",""
"null","<p style=""font-size: 50px;"">+</p>","null","html-keyboard-response","79","2.1.0","174405","J=YES, F=NO","rr15n1utq4","2","71","68","75","","","","","","","","","","","","","","","",""
"null","audio/beep-329314.mp3","null","audio-keyboard-response","80","2.1.0","176175","J=YES, F=NO","rr15n1utq4","2","71","68","75","","","","","","","","","","","","","","","",""
"null","audio/handle.wav","null","audio-keyboard-response","81","2.1.0","177304","J=YES, F=NO","rr15n1utq4","2","71","68","75","","","","","","","","","","","","","","","",""
"777","
          <p id=""word"" style=""font-size: 40px;"">moutes</p>
          <p style=""font-size: 16px;"">J = YES &nbsp;&nbsp;&nbsp; F = NO</p>
        ","f","html-keyboard-response","82","2.1.0","178083","J=YES, F=NO","rr15n1utq4","2","71","68","75","","","","","","","","","moutes","handle","pseudoword","pseudoword","f","true","",""
"null","<p style=""font-size: 50px;"">+</p>","null","html-keyboard-response","83","2.1.0","178397","J=YES, F=NO","rr15n1utq4","2","71","68","75","","","","","","","","","","","","","","","",""
"null","audio/beep-329314.mp3","null","audio-keyboard-response","84","2.1.0","180201","J=YES, F=NO","rr15n1utq4","2","71","68","75","","","","","","","","","","","","","","","",""
"null","audio/haste1.wav","null","audio-keyboard-response","85","2.1.0","181255","J=YES, F=NO","rr15n1utq4","2","71","68","75","","","","","","","","","","","","","","","",""
"758","
          <p id=""word"" style=""font-size: 40px;"">coraconate</p>
          <p style=""font-size: 16px;"">J = YES &nbsp;&nbsp;&nbsp; F = NO</p>
        ","f","html-keyboard-response","86","2.1.0","182014","J=YES, F=NO","rr15n1utq4","2","71","68","75","","","","","","","","","coraconate","haste1","pseudoword","pseudoword","f","true","",""
"null","<p style=""font-size: 50px;"">+</p>","null","html-keyboard-response","87","2.1.0","182321","J=YES, F=NO","rr15n1utq4","2","71","68","75","","","","","","","","","","","","","","","",""
"null","audio/beep-329314.mp3","null","audio-keyboard-response","88","2.1.0","184108","J=YES, F=NO","rr15n1utq4","2","71","68","75","","","","","","","","","","","","","","","",""
"null","audio/pine.wav","null","audio-keyboard-response","89","2.1.0","184836","J=YES, F=NO","rr15n1utq4","2","71","68","75","","","","","","","","","","","","","","","",""
"920","
          <p id=""word"" style=""font-size: 40px;"">crebble</p>
          <p style=""font-size: 16px;"">J = YES &nbsp;&nbsp;&nbsp; F = NO</p>
        ","j","html-keyboard-response","90","2.1.0","185758","J=YES, F=NO","rr15n1utq4","2","71","68","75","","","","","","","","","crebble","pine","pseudoword","pseudoword","f","false","",""
"null","<p style=""font-size: 50px;"">+</p>","null","html-keyboard-response","91","2.1.0","186074","J=YES, F=NO","rr15n1utq4","2","71","68","75","","","","","","","","","","","","","","","",""
"null","audio/beep-329314.mp3","null","audio-keyboard-response","92","2.1.0","187858","J=YES, F=NO","rr15n1utq4","2","71","68","75","","","","","","","","","","","","","","","",""
"null","audio/gossip1.wav","null","audio-keyboard-response","93","2.1.0","188948","J=YES, F=NO","rr15n1utq4","2","71","68","75","","","","","","","","","","","","","","","",""
"1098","
          <p id=""word"" style=""font-size: 40px;"">camerish</p>
          <p style=""font-size: 16px;"">J = YES &nbsp;&nbsp;&nbsp; F = NO</p>
        ","f","html-keyboard-response","94","2.1.0","190046","J=YES, F=NO","rr15n1utq4","2","71","68","75","","","","","","","","","camerish","gossip1","pseudoword","pseudoword","f","true","",""
"null","<p style=""font-size: 50px;"">+</p>","null","html-keyboard-response","95","2.1.0","190352","J=YES, F=NO","rr15n1utq4","2","71","68","75","","","","","","","","","","","","","","","",""
"null","audio/beep-329314.mp3","null","audio-keyboard-response","96","2.1.0","192147","J=YES, F=NO","rr15n1utq4","2","71","68","75","","","","","","","","","","","","","","","",""
"null","audio/truth1.wav","null","audio-keyboard-response","97","2.1.0","193172","J=YES, F=NO","rr15n1utq4","2","71","68","75","","","","","","","","","","","","","","","",""
"1147","
          <p id=""word"" style=""font-size: 40px;"">calitom</p>
          <p style=""font-size: 16px;"">J = YES &nbsp;&nbsp;&nbsp; F = NO</p>
        ","f","html-keyboard-response","98","2.1.0","194319","J=YES, F=NO","rr15n1utq4","2","71","68","75","","","","","","","","","calitom","truth1","pseudoword","pseudoword","f","true","",""
"null","<p style=""font-size: 50px;"">+</p>","null","html-keyboard-response","99","2.1.0","194635","J=YES, F=NO","rr15n1utq4","2","71","68","75","","","","","","","","","","","","","","","",""
"null","audio/beep-329314.mp3","null","audio-keyboard-response","100","2.1.0","196439","J=YES, F=NO","rr15n1utq4","2","71","68","75","","","","","","","","","","","","","","","",""
"null","audio/golf1.wav","null","audio-keyboard-response","101","2.1.0","197474","J=YES, F=NO","rr15n1utq4","2","71","68","75","","","","","","","","","","","","","","","",""
"900","
          <p id=""word"" style=""font-size: 40px;"">drabble</p>
          <p style=""font-size: 16px;"">J = YES &nbsp;&nbsp;&nbsp; F = NO</p>
        ","j","html-keyboard-response","102","2.1.0","198376","J=YES, F=NO","rr15n1utq4","2","71","68","75","","","","","","","","","drabble","golf1","pseudoword","pseudoword","f","false","",""
"null","<p style=""font-size: 50px;"">+</p>","null","html-keyboard-response","103","2.1.0","198696","J=YES, F=NO","rr15n1utq4","2","71","68","75","","","","","","","","","","","","","","","",""
"null","audio/beep-329314.mp3","null","audio-keyboard-response","104","2.1.0","200485","J=YES, F=NO","rr15n1utq4","2","71","68","75","","","","","","","","","","","","","","","",""
"null","audio/bush1.wav","null","audio-keyboard-response","105","2.1.0","201410","J=YES, F=NO","rr15n1utq4","2","71","68","75","","","","","","","","","","","","","","","",""
"702","
          <p id=""word"" style=""font-size: 40px;"">platined</p>
          <p style=""font-size: 16px;"">J = YES &nbsp;&nbsp;&nbsp; F = NO</p>
        ","j","html-keyboard-response","106","2.1.0","202113","J=YES, F=NO","rr15n1utq4","2","71","68","75","","","","","","","","","platined","bush1","pseudoword","pseudoword","f","false","",""
"null","<p style=""font-size: 50px;"">+</p>","null","html-keyboard-response","107","2.1.0","202420","J=YES, F=NO","rr15n1utq4","2","71","68","75","","","","","","","","","","","","","","","",""
"null","audio/beep-329314.mp3","null","audio-keyboard-response","108","2.1.0","204209","J=YES, F=NO","rr15n1utq4","2","71","68","75","","","","","","","","","","","","","","","",""
"null","audio/beach1.wav","null","audio-keyboard-response","109","2.1.0","205079","J=YES, F=NO","rr15n1utq4","2","71","68","75","","","","","","","","","","","","","","","",""
"711","
          <p id=""word"" style=""font-size: 40px;"">drive</p>
          <p style=""font-size: 16px;"">J = YES &nbsp;&nbsp;&nbsp; F = NO</p>
        ","j","html-keyboard-response","110","2.1.0","205791","J=YES, F=NO","rr15n1utq4","2","71","68","75","","","","","","","","","drive","beach1","filler","filler","j","true","",""
"null","<p style=""font-size: 50px;"">+</p>","null","html-keyboard-response","111","2.1.0","206102","J=YES, F=NO","rr15n1utq4","2","71","68","75","","","","","","","","","","","","","","","",""
"null","audio/beep-329314.mp3","null","audio-keyboard-response","112","2.1.0","207902","J=YES, F=NO","rr15n1utq4","2","71","68","75","","","","","","","","","","","","","","","",""
"null","audio/cinema1.wav","null","audio-keyboard-response","113","2.1.0","208950","J=YES, F=NO","rr15n1utq4","2","71","68","75","","","","","","","","","","","","","","","",""
"769","
          <p id=""word"" style=""font-size: 40px;"">murple</p>
          <p style=""font-size: 16px;"">J = YES &nbsp;&nbsp;&nbsp; F = NO</p>
        ","f","html-keyboard-response","114","2.1.0","209719","J=YES, F=NO","rr15n1utq4","2","71","68","75","","","","","","","","","murple","cinema1","pseudoword","pseudoword","f","true","",""
"1965","<p>Starting practice block 2 of 2. Press any key to continue.</p>"," ","html-keyboard-response","115","2.1.0","211685","J=YES, F=NO","rr15n1utq4","2","71","68","75","","","","","","","","","","","","","","","",""
"null","<p style=""font-size: 50px;"">+</p>","null","html-keyboard-response","116","2.1.0","211988","J=YES, F=NO","rr15n1utq4","2","71","68","75","","","","","","","","","","","","","","","",""
"null","audio/beep-329314.mp3","null","audio-keyboard-response","117","2.1.0","213802","J=YES, F=NO","rr15n1utq4","2","71","68","75","","","","","","","","","","","","","","","",""
"null","audio/kettle1.wav","null","audio-keyboard-response","118","2.1.0","214715","J=YES, F=NO","rr15n1utq4","2","71","68","75","","","","","","","","","","","","","","","",""
"956","
          <p id=""word"" style=""font-size: 40px;"">wrap</p>
          <p style=""font-size: 16px;"">J = YES &nbsp;&nbsp;&nbsp; F = NO</p>
        ","j","html-keyboard-response","119","2.1.0","215672","J=YES, F=NO","rr15n1utq4","2","71","68","75","","","","","","","","","wrap","kettle1","filler","filler","j","true","",""
"null","<p style=""font-size: 50px;"">+</p>","null","html-keyboard-response","120","2.1.0","215983","J=YES, F=NO","rr15n1utq4","2","71","68","75","","","","","","","","","","","","","","","",""
"null","audio/beep-329314.mp3","null","audio-keyboard-response","121","2.1.0","217753","J=YES, F=NO","rr15n1utq4","2","71","68","75","","","","","","","","","","","","","","","",""
"null","audio/battle1.wav","null","audio-keyboard-response","122","2.1.0","218545","J=YES, F=NO","rr15n1utq4","2","71","68","75","","","","","","","","","","","","","","","",""
"557","
          <p id=""word"" style=""font-size: 40px;"">boil</p>
          <p style=""font-size: 16px;"">J = YES &nbsp;&nbsp;&nbsp; F = NO</p>
        ","j","html-keyboard-response","123","2.1.0","219104","J=YES, F=NO","rr15n1utq4","2","71","68","75","","","","","","","","","boil","battle1","filler","filler","j","true","",""
"null","<p style=""font-size: 50px;"">+</p>","null","html-keyboard-response","124","2.1.0","219412","J=YES, F=NO","rr15n1utq4","2","71","68","75","","","","","","","","","","","","","","","",""
"null","audio/beep-329314.mp3","null","audio-keyboard-response","125","2.1.0","221201","J=YES, F=NO","rr15n1utq4","2","71","68","75","","","","","","","","","","","","","","","",""
"null","audio/bishop1.wav","null","audio-keyboard-response","126","2.1.0","222020","J=YES, F=NO","rr15n1utq4","2","71","68","75","","","","","","","","","","","","","","","",""
"515","
          <p id=""word"" style=""font-size: 40px;"">play</p>
          <p style=""font-size: 16px;"">J = YES &nbsp;&nbsp;&nbsp; F = NO</p>
        ","j","html-keyboard-response","127","2.1.0","222536","J=YES, F=NO","rr15n1utq4","2","71","68","75","","","","","","","","","play","bishop1","filler","filler","j","true","",""
"null","<p style=""font-size: 50px;"">+</p>","null","html-keyboard-response","128","2.1.0","222850","J=YES, F=NO","rr15n1utq4","2","71","68","75","","","","","","","","","","","","","","","",""
"null","audio/beep-329314.mp3","null","audio-keyboard-response","129","2.1.0","224610","J=YES, F=NO","rr15n1utq4","2","71","68","75","","","","","","","","","","","","","","","",""
"null","audio/birth1.wav","null","audio-keyboard-response","130","2.1.0","225643","J=YES, F=NO","rr15n1utq4","2","71","68","75","","","","","","","","","","","","","","","",""
"572","
          <p id=""word"" style=""font-size: 40px;"">peel</p>
          <p style=""font-size: 16px;"">J = YES &nbsp;&nbsp;&nbsp; F = NO</p>
        ","f","html-keyboard-response","131","2.1.0","226218","J=YES, F=NO","rr15n1utq4","2","71","68","75","","","","","","","","","peel","birth1","filler","filler","j","false","",""
"null","<p style=""font-size: 50px;"">+</p>","null","html-keyboard-response","132","2.1.0","226527","J=YES, F=NO","rr15n1utq4","2","71","68","75","","","","","","","","","","","","","","","",""
"null","audio/beep-329314.mp3","null","audio-keyboard-response","133","2.1.0","228320","J=YES, F=NO","rr15n1utq4","2","71","68","75","","","","","","","","","","","","","","","",""
"null","audio/bottle.wav","null","audio-keyboard-response","134","2.1.0","229237","J=YES, F=NO","rr15n1utq4","2","71","68","75","","","","","","","","","","","","","","","",""
"622","
          <p id=""word"" style=""font-size: 40px;"">watch</p>
          <p style=""font-size: 16px;"">J = YES &nbsp;&nbsp;&nbsp; F = NO</p>
        ","j","html-keyboard-response","135","2.1.0","229860","J=YES, F=NO","rr15n1utq4","2","71","68","75","","","","","","","","","watch","bottle","filler","filler","j","true","",""
"null","<p style=""font-size: 50px;"">+</p>","null","html-keyboard-response","136","2.1.0","230167","J=YES, F=NO","rr15n1utq4","2","71","68","75","","","","","","","","","","","","","","","",""
"null","audio/beep-329314.mp3","null","audio-keyboard-response","137","2.1.0","231932","J=YES, F=NO","rr15n1utq4","2","71","68","75","","","","","","","","","","","","","","","",""
"null","audio/alarm1.wav","null","audio-keyboard-response","138","2.1.0","232761","J=YES, F=NO","rr15n1utq4","2","71","68","75","","","","","","","","","","","","","","","",""
"610","
          <p id=""word"" style=""font-size: 40px;"">lock</p>
          <p style=""font-size: 16px;"">J = YES &nbsp;&nbsp;&nbsp; F = NO</p>
        ","j","html-keyboard-response","139","2.1.0","233373","J=YES, F=NO","rr15n1utq4","2","71","68","75","","","","","","","","","lock","alarm1","filler","filler","j","true","",""
"null","<p style=""font-size: 50px;"">+</p>","null","html-keyboard-response","140","2.1.0","233678","J=YES, F=NO","rr15n1utq4","2","71","68","75","","","","","","","","","","","","","","","",""
"null","audio/beep-329314.mp3","null","audio-keyboard-response","141","2.1.0","235482","J=YES, F=NO","rr15n1utq4","2","71","68","75","","","","","","","","","","","","","","","",""
"null","audio/trout1.wav","null","audio-keyboard-response","142","2.1.0","236315","J=YES, F=NO","rr15n1utq4","2","71","68","75","","","","","","","","","","","","","","","",""
"625","
          <p id=""word"" style=""font-size: 40px;"">spimt</p>
          <p style=""font-size: 16px;"">J = YES &nbsp;&nbsp;&nbsp; F = NO</p>
        ","f","html-keyboard-response","143","2.1.0","236941","J=YES, F=NO","rr15n1utq4","2","71","68","75","","","","","","","","","spimt","trout1","pseudoword","pseudoword","f","true","",""
"null","<p style=""font-size: 50px;"">+</p>","null","html-keyboard-response","144","2.1.0","237246","J=YES, F=NO","rr15n1utq4","2","71","68","75","","","","","","","","","","","","","","","",""
"null","audio/beep-329314.mp3","null","audio-keyboard-response","145","2.1.0","239041","J=YES, F=NO","rr15n1utq4","2","71","68","75","","","","","","","","","","","","","","","",""
"null","audio/grass.wav","null","audio-keyboard-response","146","2.1.0","240168","J=YES, F=NO","rr15n1utq4","2","71","68","75","","","","","","","","","","","","","","","",""
"763","
          <p id=""word"" style=""font-size: 40px;"">milames</p>
          <p style=""font-size: 16px;"">J = YES &nbsp;&nbsp;&nbsp; F = NO</p>
        ","f","html-keyboard-response","147","2.1.0","240934","J=YES, F=NO","rr15n1utq4","2","71","68","75","","","","","","","","","milames","grass","pseudoword","pseudoword","f","true","",""
"null","<p style=""font-size: 50px;"">+</p>","null","html-keyboard-response","148","2.1.0","241251","J=YES, F=NO","rr15n1utq4","2","71","68","75","","","","","","","","","","","","","","","",""
"null","audio/beep-329314.mp3","null","audio-keyboard-response","149","2.1.0","243051","J=YES, F=NO","rr15n1utq4","2","71","68","75","","","","","","","","","","","","","","","",""
"null","audio/novel.wav","null","audio-keyboard-response","150","2.1.0","244012","J=YES, F=NO","rr15n1utq4","2","71","68","75","","","","","","","","","","","","","","","",""
"497","
          <p id=""word"" style=""font-size: 40px;"">type</p>
          <p style=""font-size: 16px;"">J = YES &nbsp;&nbsp;&nbsp; F = NO</p>
        ","j","html-keyboard-response","151","2.1.0","244511","J=YES, F=NO","rr15n1utq4","2","71","68","75","","","","","","","","","type","novel","filler","filler","j","true","",""
"null","<p style=""font-size: 50px;"">+</p>","null","html-keyboard-response","152","2.1.0","244819","J=YES, F=NO","rr15n1utq4","2","71","68","75","","","","","","","","","","","","","","","",""
"null","audio/beep-329314.mp3","null","audio-keyboard-response","153","2.1.0","246602","J=YES, F=NO","rr15n1utq4","2","71","68","75","","","","","","","","","","","","","","","",""
"null","audio/age1.wav","null","audio-keyboard-response","154","2.1.0","247400","J=YES, F=NO","rr15n1utq4","2","71","68","75","","","","","","","","","","","","","","","",""
"713","
          <p id=""word"" style=""font-size: 40px;"">bake</p>
          <p style=""font-size: 16px;"">J = YES &nbsp;&nbsp;&nbsp; F = NO</p>
        ","f","html-keyboard-response","155","2.1.0","248115","J=YES, F=NO","rr15n1utq4","2","71","68","75","","","","","","","","","bake","age1","filler","filler","j","false","",""
"null","<p style=""font-size: 50px;"">+</p>","null","html-keyboard-response","156","2.1.0","248421","J=YES, F=NO","rr15n1utq4","2","71","68","75","","","","","","","","","","","","","","","",""
"null","audio/beep-329314.mp3","null","audio-keyboard-response","157","2.1.0","250239","J=YES, F=NO","rr15n1utq4","2","71","68","75","","","","","","","","","","","","","","","",""
"null","audio/belief.wav","null","audio-keyboard-response","158","2.1.0","251384","J=YES, F=NO","rr15n1utq4","2","71","68","75","","","","","","","","","","","","","","","",""
"474","
          <p id=""word"" style=""font-size: 40px;"">read</p>
          <p style=""font-size: 16px;"">J = YES &nbsp;&nbsp;&nbsp; F = NO</p>
        ","j","html-keyboard-response","159","2.1.0","251859","J=YES, F=NO","rr15n1utq4","2","71","68","75","","","","","","","","","read","belief","filler","filler","j","true","",""
"null","<p style=""font-size: 50px;"">+</p>","null","html-keyboard-response","160","2.1.0","252171","J=YES, F=NO","rr15n1utq4","2","71","68","75","","","","","","","","","","","","","","","",""
"null","audio/beep-329314.mp3","null","audio-keyboard-response","161","2.1.0","253966","J=YES, F=NO","rr15n1utq4","2","71","68","75","","","","","","","","","","","","","","","",""
"null","audio/dollar.wav","null","audio-keyboard-response","162","2.1.0","254940","J=YES, F=NO","rr15n1utq4","2","71","68","75","","","","","","","","","","","","","","","",""
"560","
          <p id=""word"" style=""font-size: 40px;"">gliptism</p>
          <p style=""font-size: 16px;"">J = YES &nbsp;&nbsp;&nbsp; F = NO</p>
        ","f","html-keyboard-response","163","2.1.0","255502","J=YES, F=NO","rr15n1utq4","2","71","68","75","","","","","","","","","gliptism","dollar","pseudoword","pseudoword","f","true","",""
"10535","
    <div style=""max-width: 800px; margin: auto; text-align: left;"">
      <h2>Part 2: Main Trials</h2>
      <p>Great job on the practice trials!</p>
      <p>You will now begin the <strong>main set of trials</strong>.</p>
      <p>Remember your key assignments:</p>
      <ul>
        <li><strong>J</strong> = YES (real English word)</li>
        <li><strong>F</strong> = NO (not a real English word)</li>
      </ul>
      <p>Try to respond as <strong>quickly and accurately</strong> as possible.</p>
      <p style=""margin-top: 2em;"">Press any key to begin the main trials.</p>
    </div>
  "," ","html-keyboard-response","164","2.1.0","266039","J=YES, F=NO","rr15n1utq4","2","71","68","75","","","","","","","","","","","","","","","",""
"1553","<p>Starting main block 1 of 8. Press any key to continue.</p>"," ","html-keyboard-response","165","2.1.0","267593","J=YES, F=NO","rr15n1utq4","2","71","68","75","","","","","","","","","","","","","","","",""
"null","<p style=""font-size: 50px;"">+</p>","null","html-keyboard-response","166","2.1.0","267907","J=YES, F=NO","rr15n1utq4","2","71","68","75","","","","","","","","","","","","","","","",""
"null","audio/beep-329314.mp3","null","audio-keyboard-response","167","2.1.0","269724","J=YES, F=NO","rr15n1utq4","2","71","68","75","","","","","","","","","","","","","","","",""
"null","audio/survey1.wav","null","audio-keyboard-response","168","2.1.0","270705","J=YES, F=NO","rr15n1utq4","2","71","68","75","","","","","","","","","","","","","","","",""
"722","
          <p id=""word"" style=""font-size: 40px;"">imploth</p>
          <p style=""font-size: 16px;"">J = YES &nbsp;&nbsp;&nbsp; F = NO</p>
        ","f","html-keyboard-response","169","2.1.0","271430","J=YES, F=NO","rr15n1utq4","2","71","68","75","","","","","","","","","imploth","survey1","pseudoword","pseudoword","f","true","",""
"null","<p style=""font-size: 50px;"">+</p>","null","html-keyboard-response","170","2.1.0","271733","J=YES, F=NO","rr15n1utq4","2","71","68","75","","","","","","","","","","","","","","","",""
"null","audio/beep-329314.mp3","null","audio-keyboard-response","171","2.1.0","273526","J=YES, F=NO","rr15n1utq4","2","71","68","75","","","","","","","","","","","","","","","",""
"null","audio/road.wav","null","audio-keyboard-response","172","2.1.0","274209","J=YES, F=NO","rr15n1utq4","2","71","68","75","","","","","","","","","","","","","","","",""
"767","
          <p id=""word"" style=""font-size: 40px;"">wappings</p>
          <p style=""font-size: 16px;"">J = YES &nbsp;&nbsp;&nbsp; F = NO</p>
        ","f","html-keyboard-response","173","2.1.0","274978","J=YES, F=NO","rr15n1utq4","2","71","68","75","","","","","","","","","wappings","road","pseudoword","pseudoword","f","true","",""
"null","<p style=""font-size: 50px;"">+</p>","null","html-keyboard-response","174","2.1.0","275291","J=YES, F=NO","rr15n1utq4","2","71","68","75","","","","","","","","","","","","","","","",""
"null","audio/beep-329314.mp3","null","audio-keyboard-response","175","2.1.0","277106","J=YES, F=NO","rr15n1utq4","2","71","68","75","","","","","","","","","","","","","","","",""
"null","audio/camera1.wav","null","audio-keyboard-response","176","2.1.0","277843","J=YES, F=NO","rr15n1utq4","2","71","68","75","","","","","","","","","","","","","","","",""
"543","
          <p id=""word"" style=""font-size: 40px;"">stir</p>
          <p style=""font-size: 16px;"">J = YES &nbsp;&nbsp;&nbsp; F = NO</p>
        ","j","html-keyboard-response","177","2.1.0","278388","J=YES, F=NO","rr15n1utq4","2","71","68","75","","","","","","","","","stir","camera1","filler","filler","j","true","",""
"null","<p style=""font-size: 50px;"">+</p>","null","html-keyboard-response","178","2.1.0","278691","J=YES, F=NO","rr15n1utq4","2","71","68","75","","","","","","","","","","","","","","","",""
"null","audio/beep-329314.mp3","null","audio-keyboard-response","179","2.1.0","280485","J=YES, F=NO","rr15n1utq4","2","71","68","75","","","","","","","","","","","","","","","",""
"null","audio/account1.wav","null","audio-keyboard-response","180","2.1.0","281403","J=YES, F=NO","rr15n1utq4","2","71","68","75","","","","","","","","","","","","","","","",""
"453","
          <p id=""word"" style=""font-size: 40px;"">open</p>
          <p style=""font-size: 16px;"">J = YES &nbsp;&nbsp;&nbsp; F = NO</p>
        ","j","html-keyboard-response","181","2.1.0","281857","J=YES, F=NO","rr15n1utq4","2","71","68","75","","","","","","","","","open","account1","metaphor","experimental","j","true","",""
"null","<p style=""font-size: 50px;"">+</p>","null","html-keyboard-response","182","2.1.0","282166","J=YES, F=NO","rr15n1utq4","2","71","68","75","","","","","","","","","","","","","","","",""
"null","audio/beep-329314.mp3","null","audio-keyboard-response","183","2.1.0","283967","J=YES, F=NO","rr15n1utq4","2","71","68","75","","","","","","","","","","","","","","","",""
"null","audio/seat.wav","null","audio-keyboard-response","184","2.1.0","284861","J=YES, F=NO","rr15n1utq4","2","71","68","75","","","","","","","","","","","","","","","",""
"715","
          <p id=""word"" style=""font-size: 40px;"">digest</p>
          <p style=""font-size: 16px;"">J = YES &nbsp;&nbsp;&nbsp; F = NO</p>
        ","f","html-keyboard-response","185","2.1.0","285578","J=YES, F=NO","rr15n1utq4","2","71","68","75","","","","","","","","","digest","seat","unrelated","experimental","j","false","",""
"null","<p style=""font-size: 50px;"">+</p>","null","html-keyboard-response","186","2.1.0","285893","J=YES, F=NO","rr15n1utq4","2","71","68","75","","","","","","","","","","","","","","","",""
"null","audio/beep-329314.mp3","null","audio-keyboard-response","187","2.1.0","287685","J=YES, F=NO","rr15n1utq4","2","71","68","75","","","","","","","","","","","","","","","",""
"null","audio/tax1.wav","null","audio-keyboard-response","188","2.1.0","288535","J=YES, F=NO","rr15n1utq4","2","71","68","75","","","","","","","","","","","","","","","",""
"863","
          <p id=""word"" style=""font-size: 40px;"">snate</p>
          <p style=""font-size: 16px;"">J = YES &nbsp;&nbsp;&nbsp; F = NO</p>
        ","f","html-keyboard-response","189","2.1.0","289400","J=YES, F=NO","rr15n1utq4","2","71","68","75","","","","","","","","","snate","tax1","pseudoword","pseudoword","f","true","",""
"null","<p style=""font-size: 50px;"">+</p>","null","html-keyboard-response","190","2.1.0","289705","J=YES, F=NO","rr15n1utq4","2","71","68","75","","","","","","","","","","","","","","","",""
"null","audio/beep-329314.mp3","null","audio-keyboard-response","191","2.1.0","291491","J=YES, F=NO","rr15n1utq4","2","71","68","75","","","","","","","","","","","","","","","",""
"null","audio/ego.wav","null","audio-keyboard-response","192","2.1.0","292290","J=YES, F=NO","rr15n1utq4","2","71","68","75","","","","","","","","","","","","","","","",""
"528","
          <p id=""word"" style=""font-size: 40px;"">feed</p>
          <p style=""font-size: 16px;"">J = YES &nbsp;&nbsp;&nbsp; F = NO</p>
        ","j","html-keyboard-response","193","2.1.0","292818","J=YES, F=NO","rr15n1utq4","2","71","68","75","","","","","","","","","feed","ego","metaphor","experimental","j","true","",""
"null","<p style=""font-size: 50px;"">+</p>","null","html-keyboard-response","194","2.1.0","293131","J=YES, F=NO","rr15n1utq4","2","71","68","75","","","","","","","","","","","","","","","",""
"null","audio/beep-329314.mp3","null","audio-keyboard-response","195","2.1.0","294926","J=YES, F=NO","rr15n1utq4","2","71","68","75","","","","","","","","","","","","","","","",""
"null","audio/butter1.wav","null","audio-keyboard-response","196","2.1.0","295610","J=YES, F=NO","rr15n1utq4","2","71","68","75","","","","","","","","","","","","","","","",""
"863","
          <p id=""word"" style=""font-size: 40px;"">chew</p>
          <p style=""font-size: 16px;"">J = YES &nbsp;&nbsp;&nbsp; F = NO</p>
        ","j","html-keyboard-response","197","2.1.0","296473","J=YES, F=NO","rr15n1utq4","2","71","68","75","","","","","","","","","chew","butter1","filler","filler","j","true","",""
"null","<p style=""font-size: 50px;"">+</p>","null","html-keyboard-response","198","2.1.0","296774","J=YES, F=NO","rr15n1utq4","2","71","68","75","","","","","","","","","","","","","","","",""
"null","audio/beep-329314.mp3","null","audio-keyboard-response","199","2.1.0","298574","J=YES, F=NO","rr15n1utq4","2","71","68","75","","","","","","","","","","","","","","","",""
"null","audio/floor.wav","null","audio-keyboard-response","200","2.1.0","299391","J=YES, F=NO","rr15n1utq4","2","71","68","75","","","","","","","","","","","","","","","",""
"537","
          <p id=""word"" style=""font-size: 40px;"">cover</p>
          <p style=""font-size: 16px;"">J = YES &nbsp;&nbsp;&nbsp; F = NO</p>
        ","j","html-keyboard-response","201","2.1.0","299929","J=YES, F=NO","rr15n1utq4","2","71","68","75","","","","","","","","","cover","floor","literal","experimental","j","true","",""
"null","<p style=""font-size: 50px;"">+</p>","null","html-keyboard-response","202","2.1.0","300238","J=YES, F=NO","rr15n1utq4","2","71","68","75","","","","","","","","","","","","","","","",""
"null","audio/beep-329314.mp3","null","audio-keyboard-response","203","2.1.0","302036","J=YES, F=NO","rr15n1utq4","2","71","68","75","","","","","","","","","","","","","","","",""
"null","audio/cloud1.wav","null","audio-keyboard-response","204","2.1.0","302845","J=YES, F=NO","rr15n1utq4","2","71","68","75","","","","","","","","","","","","","","","",""
"733","
          <p id=""word"" style=""font-size: 40px;"">brotant</p>
          <p style=""font-size: 16px;"">J = YES &nbsp;&nbsp;&nbsp; F = NO</p>
        ","f","html-keyboard-response","205","2.1.0","303579","J=YES, F=NO","rr15n1utq4","2","71","68","75","","","","","","","","","brotant","cloud1","pseudoword","pseudoword","f","true","",""
"null","<p style=""font-size: 50px;"">+</p>","null","html-keyboard-response","206","2.1.0","303892","J=YES, F=NO","rr15n1utq4","2","71","68","75","","","","","","","","","","","","","","","",""
"null","audio/beep-329314.mp3","null","audio-keyboard-response","207","2.1.0","305690","J=YES, F=NO","rr15n1utq4","2","71","68","75","","","","","","","","","","","","","","","",""
"null","audio/prisoner.wav","null","audio-keyboard-response","208","2.1.0","306440","J=YES, F=NO","rr15n1utq4","2","71","68","75","","","","","","","","","","","","","","","",""
"622","
          <p id=""word"" style=""font-size: 40px;"">egotian</p>
          <p style=""font-size: 16px;"">J = YES &nbsp;&nbsp;&nbsp; F = NO</p>
        ","j","html-keyboard-response","209","2.1.0","307063","J=YES, F=NO","rr15n1utq4","2","71","68","75","","","","","","","","","egotian","prisoner","pseudoword","pseudoword","f","false","",""
"null","<p style=""font-size: 50px;"">+</p>","null","html-keyboard-response","210","2.1.0","307371","J=YES, F=NO","rr15n1utq4","2","71","68","75","","","","","","","","","","","","","","","",""
"null","audio/beep-329314.mp3","null","audio-keyboard-response","211","2.1.0","309150","J=YES, F=NO","rr15n1utq4","2","71","68","75","","","","","","","","","","","","","","","",""
"null","audio/tunnel.wav","null","audio-keyboard-response","212","2.1.0","309842","J=YES, F=NO","rr15n1utq4","2","71","68","75","","","","","","","","","","","","","","","",""
"700","
          <p id=""word"" style=""font-size: 40px;"">gred</p>
          <p style=""font-size: 16px;"">J = YES &nbsp;&nbsp;&nbsp; F = NO</p>
        ","j","html-keyboard-response","213","2.1.0","310543","J=YES, F=NO","rr15n1utq4","2","71","68","75","","","","","","","","","gred","tunnel","pseudoword","pseudoword","f","false","",""
"null","<p style=""font-size: 50px;"">+</p>","null","html-keyboard-response","214","2.1.0","310846","J=YES, F=NO","rr15n1utq4","2","71","68","75","","","","","","","","","","","","","","","",""
"null","audio/beep-329314.mp3","null","audio-keyboard-response","215","2.1.0","312639","J=YES, F=NO","rr15n1utq4","2","71","68","75","","","","","","","","","","","","","","","",""
"null","audio/cancer1.wav","null","audio-keyboard-response","216","2.1.0","313435","J=YES, F=NO","rr15n1utq4","2","71","68","75","","","","","","","","","","","","","","","",""
"561","
          <p id=""word"" style=""font-size: 40px;"">draw</p>
          <p style=""font-size: 16px;"">J = YES &nbsp;&nbsp;&nbsp; F = NO</p>
        ","j","html-keyboard-response","217","2.1.0","313997","J=YES, F=NO","rr15n1utq4","2","71","68","75","","","","","","","","","draw","cancer1","filler","filler","j","true","",""
"null","<p style=""font-size: 50px;"">+</p>","null","html-keyboard-response","218","2.1.0","314307","J=YES, F=NO","rr15n1utq4","2","71","68","75","","","","","","","","","","","","","","","",""
"null","audio/beep-329314.mp3","null","audio-keyboard-response","219","2.1.0","316123","J=YES, F=NO","rr15n1utq4","2","71","68","75","","","","","","","","","","","","","","","",""
"null","audio/show.wav","null","audio-keyboard-response","220","2.1.0","316894","J=YES, F=NO","rr15n1utq4","2","71","68","75","","","","","","","","","","","","","","","",""
"448","
          <p id=""word"" style=""font-size: 40px;"">smark</p>
          <p style=""font-size: 16px;"">J = YES &nbsp;&nbsp;&nbsp; F = NO</p>
        ","j","html-keyboard-response","221","2.1.0","317343","J=YES, F=NO","rr15n1utq4","2","71","68","75","","","","","","","","","smark","show","pseudoword","pseudoword","f","false","",""
"null","<p style=""font-size: 50px;"">+</p>","null","html-keyboard-response","222","2.1.0","317653","J=YES, F=NO","rr15n1utq4","2","71","68","75","","","","","","","","","","","","","","","",""
"null","audio/beep-329314.mp3","null","audio-keyboard-response","223","2.1.0","319434","J=YES, F=NO","rr15n1utq4","2","71","68","75","","","","","","","","","","","","","","","",""
"null","audio/pattern.wav","null","audio-keyboard-response","224","2.1.0","320205","J=YES, F=NO","rr15n1utq4","2","71","68","75","","","","","","","","","","","","","","","",""
"720","
          <p id=""word"" style=""font-size: 40px;"">tug</p>
          <p style=""font-size: 16px;"">J = YES &nbsp;&nbsp;&nbsp; F = NO</p>
        ","f","html-keyboard-response","225","2.1.0","320927","J=YES, F=NO","rr15n1utq4","2","71","68","75","","","","","","","","","tug","pattern","filler","filler","j","false","",""
"null","<p style=""font-size: 50px;"">+</p>","null","html-keyboard-response","226","2.1.0","321236","J=YES, F=NO","rr15n1utq4","2","71","68","75","","","","","","","","","","","","","","","",""
"null","audio/beep-329314.mp3","null","audio-keyboard-response","227","2.1.0","323042","J=YES, F=NO","rr15n1utq4","2","71","68","75","","","","","","","","","","","","","","","",""
"null","audio/ego.wav","null","audio-keyboard-response","228","2.1.0","323846","J=YES, F=NO","rr15n1utq4","2","71","68","75","","","","","","","","","","","","","","","",""
"564","
          <p id=""word"" style=""font-size: 40px;"">bruite</p>
          <p style=""font-size: 16px;"">J = YES &nbsp;&nbsp;&nbsp; F = NO</p>
        ","j","html-keyboard-response","229","2.1.0","324412","J=YES, F=NO","rr15n1utq4","2","71","68","75","","","","","","","","","bruite","ego","pseudoword","pseudoword","f","false","",""
"4789","<p>Excellent! You have finished block 1 of 8.</p>
                     <p>Feel free to take a 30 second break.</p>
                     <p>Press any key when you're ready to continue.</p>"," ","html-keyboard-response","230","2.1.0","329203","J=YES, F=NO","rr15n1utq4","2","71","68","75","","","","","","","","","","","","","","","",""
"1061","<p>Starting main block 2 of 8. Press any key to continue.</p>"," ","html-keyboard-response","231","2.1.0","330266","J=YES, F=NO","rr15n1utq4","2","71","68","75","","","","","","","","","","","","","","","",""
"null","<p style=""font-size: 50px;"">+</p>","null","html-keyboard-response","232","2.1.0","330573","J=YES, F=NO","rr15n1utq4","2","71","68","75","","","","","","","","","","","","","","","",""
"null","audio/beep-329314.mp3","null","audio-keyboard-response","233","2.1.0","332393","J=YES, F=NO","rr15n1utq4","2","71","68","75","","","","","","","","","","","","","","","",""
"null","audio/butter1.wav","null","audio-keyboard-response","234","2.1.0","333091","J=YES, F=NO","rr15n1utq4","2","71","68","75","","","","","","","","","","","","","","","",""
"566","
          <p id=""word"" style=""font-size: 40px;"">spread</p>
          <p style=""font-size: 16px;"">J = YES &nbsp;&nbsp;&nbsp; F = NO</p>
        ","j","html-keyboard-response","235","2.1.0","333659","J=YES, F=NO","rr15n1utq4","2","71","68","75","","","","","","","","","spread","butter1","literal","experimental","j","true","",""
"null","<p style=""font-size: 50px;"">+</p>","null","html-keyboard-response","236","2.1.0","333964","J=YES, F=NO","rr15n1utq4","2","71","68","75","","","","","","","","","","","","","","","",""
"null","audio/beep-329314.mp3","null","audio-keyboard-response","237","2.1.0","335765","J=YES, F=NO","rr15n1utq4","2","71","68","75","","","","","","","","","","","","","","","",""
"null","audio/holiday1.wav","null","audio-keyboard-response","238","2.1.0","336641","J=YES, F=NO","rr15n1utq4","2","71","68","75","","","","","","","","","","","","","","","",""
"560","
          <p id=""word"" style=""font-size: 40px;"">drivets</p>
          <p style=""font-size: 16px;"">J = YES &nbsp;&nbsp;&nbsp; F = NO</p>
        ","j","html-keyboard-response","239","2.1.0","337202","J=YES, F=NO","rr15n1utq4","2","71","68","75","","","","","","","","","drivets","holiday1","pseudoword","pseudoword","f","false","",""
"null","<p style=""font-size: 50px;"">+</p>","null","html-keyboard-response","240","2.1.0","337509","J=YES, F=NO","rr15n1utq4","2","71","68","75","","","","","","","","","","","","","","","",""
"null","audio/beep-329314.mp3","null","audio-keyboard-response","241","2.1.0","339280","J=YES, F=NO","rr15n1utq4","2","71","68","75","","","","","","","","","","","","","","","",""
"null","audio/weight1.wav","null","audio-keyboard-response","242","2.1.0","340034","J=YES, F=NO","rr15n1utq4","2","71","68","75","","","","","","","","","","","","","","","",""
"584","
          <p id=""word"" style=""font-size: 40px;"">crimsh</p>
          <p style=""font-size: 16px;"">J = YES &nbsp;&nbsp;&nbsp; F = NO</p>
        ","f","html-keyboard-response","243","2.1.0","340619","J=YES, F=NO","rr15n1utq4","2","71","68","75","","","","","","","","","crimsh","weight1","pseudoword","pseudoword","f","true","",""
"null","<p style=""font-size: 50px;"">+</p>","null","html-keyboard-response","244","2.1.0","340932","J=YES, F=NO","rr15n1utq4","2","71","68","75","","","","","","","","","","","","","","","",""
"null","audio/beep-329314.mp3","null","audio-keyboard-response","245","2.1.0","342706","J=YES, F=NO","rr15n1utq4","2","71","68","75","","","","","","","","","","","","","","","",""
"null","audio/plane1.wav","null","audio-keyboard-response","246","2.1.0","343366","J=YES, F=NO","rr15n1utq4","2","71","68","75","","","","","","","","","","","","","","","",""
"684","
          <p id=""word"" style=""font-size: 40px;"">land</p>
          <p style=""font-size: 16px;"">J = YES &nbsp;&nbsp;&nbsp; F = NO</p>
        ","j","html-keyboard-response","247","2.1.0","344051","J=YES, F=NO","rr15n1utq4","2","71","68","75","","","","","","","","","land","plane1","literal","experimental","j","true","",""
"null","<p style=""font-size: 50px;"">+</p>","null","html-keyboard-response","248","2.1.0","344360","J=YES, F=NO","rr15n1utq4","2","71","68","75","","","","","","","","","","","","","","","",""
"null","audio/beep-329314.mp3","null","audio-keyboard-response","249","2.1.0","346195","J=YES, F=NO","rr15n1utq4","2","71","68","75","","","","","","","","","","","","","","","",""
"null","audio/trout1.wav","null","audio-keyboard-response","250","2.1.0","347067","J=YES, F=NO","rr15n1utq4","2","71","68","75","","","","","","","","","","","","","","","",""
"340","
          <p id=""word"" style=""font-size: 40px;"">catch</p>
          <p style=""font-size: 16px;"">J = YES &nbsp;&nbsp;&nbsp; F = NO</p>
        ","f","html-keyboard-response","251","2.1.0","347407","J=YES, F=NO","rr15n1utq4","2","71","68","75","","","","","","","","","catch","trout1","literal","experimental","j","false","",""
"null","<p style=""font-size: 50px;"">+</p>","null","html-keyboard-response","252","2.1.0","347715","J=YES, F=NO","rr15n1utq4","2","71","68","75","","","","","","","","","","","","","","","",""
"null","audio/beep-329314.mp3","null","audio-keyboard-response","253","2.1.0","349521","J=YES, F=NO","rr15n1utq4","2","71","68","75","","","","","","","","","","","","","","","",""
"null","audio/age1.wav","null","audio-keyboard-response","254","2.1.0","350295","J=YES, F=NO","rr15n1utq4","2","71","68","75","","","","","","","","","","","","","","","",""
"532","
          <p id=""word"" style=""font-size: 40px;"">lachry</p>
          <p style=""font-size: 16px;"">J = YES &nbsp;&nbsp;&nbsp; F = NO</p>
        ","j","html-keyboard-response","255","2.1.0","350827","J=YES, F=NO","rr15n1utq4","2","71","68","75","","","","","","","","","lachry","age1","pseudoword","pseudoword","f","false","",""
"null","<p style=""font-size: 50px;"">+</p>","null","html-keyboard-response","256","2.1.0","351140","J=YES, F=NO","rr15n1utq4","2","71","68","75","","","","","","","","","","","","","","","",""
"null","audio/beep-329314.mp3","null","audio-keyboard-response","257","2.1.0","352916","J=YES, F=NO","rr15n1utq4","2","71","68","75","","","","","","","","","","","","","","","",""
"null","audio/heart1.wav","null","audio-keyboard-response","258","2.1.0","353782","J=YES, F=NO","rr15n1utq4","2","71","68","75","","","","","","","","","","","","","","","",""
"554","
          <p id=""word"" style=""font-size: 40px;"">dralm</p>
          <p style=""font-size: 16px;"">J = YES &nbsp;&nbsp;&nbsp; F = NO</p>
        ","f","html-keyboard-response","259","2.1.0","354336","J=YES, F=NO","rr15n1utq4","2","71","68","75","","","","","","","","","dralm","heart1","pseudoword","pseudoword","f","true","",""
"null","<p style=""font-size: 50px;"">+</p>","null","html-keyboard-response","260","2.1.0","354648","J=YES, F=NO","rr15n1utq4","2","71","68","75","","","","","","","","","","","","","","","",""
"null","audio/beep-329314.mp3","null","audio-keyboard-response","261","2.1.0","356460","J=YES, F=NO","rr15n1utq4","2","71","68","75","","","","","","","","","","","","","","","",""
"null","audio/desire.wav","null","audio-keyboard-response","262","2.1.0","357311","J=YES, F=NO","rr15n1utq4","2","71","68","75","","","","","","","","","","","","","","","",""
"595","
          <p id=""word"" style=""font-size: 40px;"">nophed</p>
          <p style=""font-size: 16px;"">J = YES &nbsp;&nbsp;&nbsp; F = NO</p>
        ","f","html-keyboard-response","263","2.1.0","357908","J=YES, F=NO","rr15n1utq4","2","71","68","75","","","","","","","","","nophed","desire","pseudoword","pseudoword","f","true","",""
"null","<p style=""font-size: 50px;"">+</p>","null","html-keyboard-response","264","2.1.0","358218","J=YES, F=NO","rr15n1utq4","2","71","68","75","","","","","","","","","","","","","","","",""
"null","audio/beep-329314.mp3","null","audio-keyboard-response","265","2.1.0","359997","J=YES, F=NO","rr15n1utq4","2","71","68","75","","","","","","","","","","","","","","","",""
"null","audio/brain.wav","null","audio-keyboard-response","266","2.1.0","360709","J=YES, F=NO","rr15n1utq4","2","71","68","75","","","","","","","","","","","","","","","",""
"425","
          <p id=""word"" style=""font-size: 40px;"">throw</p>
          <p style=""font-size: 16px;"">J = YES &nbsp;&nbsp;&nbsp; F = NO</p>
        ","j","html-keyboard-response","267","2.1.0","361136","J=YES, F=NO","rr15n1utq4","2","71","68","75","","","","","","","","","throw","brain","filler","filler","j","true","",""
"null","<p style=""font-size: 50px;"">+</p>","null","html-keyboard-response","268","2.1.0","361449","J=YES, F=NO","rr15n1utq4","2","71","68","75","","","","","","","","","","","","","","","",""
"null","audio/beep-329314.mp3","null","audio-keyboard-response","269","2.1.0","363250","J=YES, F=NO","rr15n1utq4","2","71","68","75","","","","","","","","","","","","","","","",""
"null","audio/life1.wav","null","audio-keyboard-response","270","2.1.0","364059","J=YES, F=NO","rr15n1utq4","2","71","68","75","","","","","","","","","","","","","","","",""
"626","
          <p id=""word"" style=""font-size: 40px;"">flimch</p>
          <p style=""font-size: 16px;"">J = YES &nbsp;&nbsp;&nbsp; F = NO</p>
        ","f","html-keyboard-response","271","2.1.0","364686","J=YES, F=NO","rr15n1utq4","2","71","68","75","","","","","","","","","flimch","life1","pseudoword","pseudoword","f","true","",""
"null","<p style=""font-size: 50px;"">+</p>","null","html-keyboard-response","272","2.1.0","364992","J=YES, F=NO","rr15n1utq4","2","71","68","75","","","","","","","","","","","","","","","",""
"null","audio/beep-329314.mp3","null","audio-keyboard-response","273","2.1.0","366802","J=YES, F=NO","rr15n1utq4","2","71","68","75","","","","","","","","","","","","","","","",""
"null","audio/price.wav","null","audio-keyboard-response","274","2.1.0","367652","J=YES, F=NO","rr15n1utq4","2","71","68","75","","","","","","","","","","","","","","","",""
"534","
          <p id=""word"" style=""font-size: 40px;"">drop</p>
          <p style=""font-size: 16px;"">J = YES &nbsp;&nbsp;&nbsp; F = NO</p>
        ","j","html-keyboard-response","275","2.1.0","368186","J=YES, F=NO","rr15n1utq4","2","71","68","75","","","","","","","","","drop","price","metaphor","experimental","j","true","",""
"null","<p style=""font-size: 50px;"">+</p>","null","html-keyboard-response","276","2.1.0","368490","J=YES, F=NO","rr15n1utq4","2","71","68","75","","","","","","","","","","","","","","","",""
"null","audio/beep-329314.mp3","null","audio-keyboard-response","277","2.1.0","370312","J=YES, F=NO","rr15n1utq4","2","71","68","75","","","","","","","","","","","","","","","",""
"null","audio/test1.wav","null","audio-keyboard-response","278","2.1.0","371128","J=YES, F=NO","rr15n1utq4","2","71","68","75","","","","","","","","","","","","","","","",""
"649","
          <p id=""word"" style=""font-size: 40px;"">twopch</p>
          <p style=""font-size: 16px;"">J = YES &nbsp;&nbsp;&nbsp; F = NO</p>
        ","f","html-keyboard-response","279","2.1.0","371779","J=YES, F=NO","rr15n1utq4","2","71","68","75","","","","","","","","","twopch","test1","pseudoword","pseudoword","f","true","",""
"null","<p style=""font-size: 50px;"">+</p>","null","html-keyboard-response","280","2.1.0","372083","J=YES, F=NO","rr15n1utq4","2","71","68","75","","","","","","","","","","","","","","","",""
"null","audio/beep-329314.mp3","null","audio-keyboard-response","281","2.1.0","373880","J=YES, F=NO","rr15n1utq4","2","71","68","75","","","","","","","","","","","","","","","",""
"null","audio/prisoner.wav","null","audio-keyboard-response","282","2.1.0","374632","J=YES, F=NO","rr15n1utq4","2","71","68","75","","","","","","","","","","","","","","","",""
"492","
          <p id=""word"" style=""font-size: 40px;"">release</p>
          <p style=""font-size: 16px;"">J = YES &nbsp;&nbsp;&nbsp; F = NO</p>
        ","j","html-keyboard-response","283","2.1.0","375125","J=YES, F=NO","rr15n1utq4","2","71","68","75","","","","","","","","","release","prisoner","literal","experimental","j","true","",""
"null","<p style=""font-size: 50px;"">+</p>","null","html-keyboard-response","284","2.1.0","375435","J=YES, F=NO","rr15n1utq4","2","71","68","75","","","","","","","","","","","","","","","",""
"null","audio/beep-329314.mp3","null","audio-keyboard-response","285","2.1.0","377258","J=YES, F=NO","rr15n1utq4","2","71","68","75","","","","","","","","","","","","","","","",""
"null","audio/relief.wav","null","audio-keyboard-response","286","2.1.0","378147","J=YES, F=NO","rr15n1utq4","2","71","68","75","","","","","","","","","","","","","","","",""
"565","
          <p id=""word"" style=""font-size: 40px;"">bring</p>
          <p style=""font-size: 16px;"">J = YES &nbsp;&nbsp;&nbsp; F = NO</p>
        ","j","html-keyboard-response","287","2.1.0","378713","J=YES, F=NO","rr15n1utq4","2","71","68","75","","","","","","","","","bring","relief","metaphor","experimental","j","true","",""
"null","<p style=""font-size: 50px;"">+</p>","null","html-keyboard-response","288","2.1.0","379020","J=YES, F=NO","rr15n1utq4","2","71","68","75","","","","","","","","","","","","","","","",""
"null","audio/beep-329314.mp3","null","audio-keyboard-response","289","2.1.0","380847","J=YES, F=NO","rr15n1utq4","2","71","68","75","","","","","","","","","","","","","","","",""
"null","audio/scar.wav","null","audio-keyboard-response","290","2.1.0","381711","J=YES, F=NO","rr15n1utq4","2","71","68","75","","","","","","","","","","","","","","","",""
"599","
          <p id=""word"" style=""font-size: 40px;"">adelineate</p>
          <p style=""font-size: 16px;"">J = YES &nbsp;&nbsp;&nbsp; F = NO</p>
        ","f","html-keyboard-response","291","2.1.0","382312","J=YES, F=NO","rr15n1utq4","2","71","68","75","","","","","","","","","adelineate","scar","pseudoword","pseudoword","f","true","",""
"null","<p style=""font-size: 50px;"">+</p>","null","html-keyboard-response","292","2.1.0","382616","J=YES, F=NO","rr15n1utq4","2","71","68","75","","","","","","","","","","","","","","","",""
"null","audio/beep-329314.mp3","null","audio-keyboard-response","293","2.1.0","384426","J=YES, F=NO","rr15n1utq4","2","71","68","75","","","","","","","","","","","","","","","",""
"null","audio/roof1.wav","null","audio-keyboard-response","294","2.1.0","385214","J=YES, F=NO","rr15n1utq4","2","71","68","75","","","","","","","","","","","","","","","",""
"553","
          <p id=""word"" style=""font-size: 40px;"">construct</p>
          <p style=""font-size: 16px;"">J = YES &nbsp;&nbsp;&nbsp; F = NO</p>
        ","j","html-keyboard-response","295","2.1.0","385769","J=YES, F=NO","rr15n1utq4","2","71","68","75","","","","","","","","","construct","roof1","literal","experimental","j","true","",""
"4636","<p>Excellent! You have finished block 2 of 8.</p>
                     <p>Feel free to take a 30 second break.</p>
                     <p>Press any key when you're ready to continue.</p>"," ","html-keyboard-response","296","2.1.0","390407","J=YES, F=NO","rr15n1utq4","2","71","68","75","","","","","","","","","","","","","","","",""
"635","<p>Starting main block 3 of 8. Press any key to continue.</p>"," ","html-keyboard-response","297","2.1.0","391042","J=YES, F=NO","rr15n1utq4","2","71","68","75","","","","","","","","","","","","","","","",""
"null","<p style=""font-size: 50px;"">+</p>","null","html-keyboard-response","298","2.1.0","391352","J=YES, F=NO","rr15n1utq4","2","71","68","75","","","","","","","","","","","","","","","",""
"null","audio/beep-329314.mp3","null","audio-keyboard-response","299","2.1.0","393159","J=YES, F=NO","rr15n1utq4","2","71","68","75","","","","","","","","","","","","","","","",""
"null","audio/flaw.wav","null","audio-keyboard-response","300","2.1.0","394035","J=YES, F=NO","rr15n1utq4","2","71","68","75","","","","","","","","","","","","","","","",""
"611","
          <p id=""word"" style=""font-size: 40px;"">thwool</p>
          <p style=""font-size: 16px;"">J = YES &nbsp;&nbsp;&nbsp; F = NO</p>
        ","f","html-keyboard-response","301","2.1.0","394649","J=YES, F=NO","rr15n1utq4","2","71","68","75","","","","","","","","","thwool","flaw","pseudoword","pseudoword","f","true","",""
"null","<p style=""font-size: 50px;"">+</p>","null","html-keyboard-response","302","2.1.0","394951","J=YES, F=NO","rr15n1utq4","2","71","68","75","","","","","","","","","","","","","","","",""
"null","audio/beep-329314.mp3","null","audio-keyboard-response","303","2.1.0","396749","J=YES, F=NO","rr15n1utq4","2","71","68","75","","","","","","","","","","","","","","","",""
"null","audio/lion1.wav","null","audio-keyboard-response","304","2.1.0","397544","J=YES, F=NO","rr15n1utq4","2","71","68","75","","","","","","","","","","","","","","","",""
"438","
          <p id=""word"" style=""font-size: 40px;"">wrestle</p>
          <p style=""font-size: 16px;"">J = YES &nbsp;&nbsp;&nbsp; F = NO</p>
        ","j","html-keyboard-response","305","2.1.0","397984","J=YES, F=NO","rr15n1utq4","2","71","68","75","","","","","","","","","wrestle","lion1","literal","experimental","j","true","",""
"null","<p style=""font-size: 50px;"">+</p>","null","html-keyboard-response","306","2.1.0","398297","J=YES, F=NO","rr15n1utq4","2","71","68","75","","","","","","","","","","","","","","","",""
"null","audio/beep-329314.mp3","null","audio-keyboard-response","307","2.1.0","400081","J=YES, F=NO","rr15n1utq4","2","71","68","75","","","","","","","","","","","","","","","",""
"null","audio/neck.wav","null","audio-keyboard-response","308","2.1.0","400892","J=YES, F=NO","rr15n1utq4","2","71","68","75","","","","","","","","","","","","","","","",""
"548","
          <p id=""word"" style=""font-size: 40px;"">werling</p>
          <p style=""font-size: 16px;"">J = YES &nbsp;&nbsp;&nbsp; F = NO</p>
        ","f","html-keyboard-response","309","2.1.0","401441","J=YES, F=NO","rr15n1utq4","2","71","68","75","","","","","","","","","werling","neck","pseudoword","pseudoword","f","true","",""
"null","<p style=""font-size: 50px;"">+</p>","null","html-keyboard-response","310","2.1.0","401756","J=YES, F=NO","rr15n1utq4","2","71","68","75","","","","","","","","","","","","","","","",""
"null","audio/beep-329314.mp3","null","audio-keyboard-response","311","2.1.0","403536","J=YES, F=NO","rr15n1utq4","2","71","68","75","","","","","","","","","","","","","","","",""
"null","audio/table1.wav","null","audio-keyboard-response","312","2.1.0","404269","J=YES, F=NO","rr15n1utq4","2","71","68","75","","","","","","","","","","","","","","","",""
"418","
          <p id=""word"" style=""font-size: 40px;"">clear</p>
          <p style=""font-size: 16px;"">J = YES &nbsp;&nbsp;&nbsp; F = NO</p>
        ","j","html-keyboard-response","313","2.1.0","404689","J=YES, F=NO","rr15n1utq4","2","71","68","75","","","","","","","","","clear","table1","literal","experimental","j","true","",""
"null","<p style=""font-size: 50px;"">+</p>","null","html-keyboard-response","314","2.1.0","404993","J=YES, F=NO","rr15n1utq4","2","71","68","75","","","","","","","","","","","","","","","",""
"null","audio/beep-329314.mp3","null","audio-keyboard-response","315","2.1.0","406750","J=YES, F=NO","rr15n1utq4","2","71","68","75","","","","","","","","","","","","","","","",""
"null","audio/burden.wav","null","audio-keyboard-response","316","2.1.0","407474","J=YES, F=NO","rr15n1utq4","2","71","68","75","","","","","","","","","","","","","","","",""
"581","
          <p id=""word"" style=""font-size: 40px;"">whotth</p>
          <p style=""font-size: 16px;"">J = YES &nbsp;&nbsp;&nbsp; F = NO</p>
        ","j","html-keyboard-response","317","2.1.0","408056","J=YES, F=NO","rr15n1utq4","2","71","68","75","","","","","","","","","whotth","burden","pseudoword","pseudoword","f","false","",""
"null","<p style=""font-size: 50px;"">+</p>","null","html-keyboard-response","318","2.1.0","408362","J=YES, F=NO","rr15n1utq4","2","71","68","75","","","","","","","","","","","","","","","",""
"null","audio/beep-329314.mp3","null","audio-keyboard-response","319","2.1.0","410123","J=YES, F=NO","rr15n1utq4","2","71","68","75","","","","","","","","","","","","","","","",""
"null","audio/fox.wav","null","audio-keyboard-response","320","2.1.0","411141","J=YES, F=NO","rr15n1utq4","2","71","68","75","","","","","","","","","","","","","","","",""
"560","
          <p id=""word"" style=""font-size: 40px;"">conquer</p>
          <p style=""font-size: 16px;"">J = YES &nbsp;&nbsp;&nbsp; F = NO</p>
        ","f","html-keyboard-response","321","2.1.0","411704","J=YES, F=NO","rr15n1utq4","2","71","68","75","","","","","","","","","conquer","fox","unrelated","experimental","j","false","",""
"null","<p style=""font-size: 50px;"">+</p>","null","html-keyboard-response","322","2.1.0","412013","J=YES, F=NO","rr15n1utq4","2","71","68","75","","","","","","","","","","","","","","","",""
"null","audio/beep-329314.mp3","null","audio-keyboard-response","323","2.1.0","413788","J=YES, F=NO","rr15n1utq4","2","71","68","75","","","","","","","","","","","","","","","",""
"null","audio/camp.wav","null","audio-keyboard-response","324","2.1.0","414575","J=YES, F=NO","rr15n1utq4","2","71","68","75","","","","","","","","","","","","","","","",""
"545","
          <p id=""word"" style=""font-size: 40px;"">touch</p>
          <p style=""font-size: 16px;"">J = YES &nbsp;&nbsp;&nbsp; F = NO</p>
        ","j","html-keyboard-response","325","2.1.0","415121","J=YES, F=NO","rr15n1utq4","2","71","68","75","","","","","","","","","touch","camp","unrelated","experimental","j","true","",""
"null","<p style=""font-size: 50px;"">+</p>","null","html-keyboard-response","326","2.1.0","415430","J=YES, F=NO","rr15n1utq4","2","71","68","75","","","","","","","","","","","","","","","",""
"null","audio/beep-329314.mp3","null","audio-keyboard-response","327","2.1.0","417238","J=YES, F=NO","rr15n1utq4","2","71","68","75","","","","","","","","","","","","","","","",""
"null","audio/arm.wav","null","audio-keyboard-response","328","2.1.0","418056","J=YES, F=NO","rr15n1utq4","2","71","68","75","","","","","","","","","","","","","","","",""
"423","
          <p id=""word"" style=""font-size: 40px;"">pigne</p>
          <p style=""font-size: 16px;"">J = YES &nbsp;&nbsp;&nbsp; F = NO</p>
        ","j","html-keyboard-response","329","2.1.0","418480","J=YES, F=NO","rr15n1utq4","2","71","68","75","","","","","","","","","pigne","arm","pseudoword","pseudoword","f","false","",""
"null","<p style=""font-size: 50px;"">+</p>","null","html-keyboard-response","330","2.1.0","418805","J=YES, F=NO","rr15n1utq4","2","71","68","75","","","","","","","","","","","","","","","",""
"null","audio/beep-329314.mp3","null","audio-keyboard-response","331","2.1.0","420622","J=YES, F=NO","rr15n1utq4","2","71","68","75","","","","","","","","","","","","","","","",""
"null","audio/garden1.wav","null","audio-keyboard-response","332","2.1.0","421402","J=YES, F=NO","rr15n1utq4","2","71","68","75","","","","","","","","","","","","","","","",""
"598","
          <p id=""word"" style=""font-size: 40px;"">invest</p>
          <p style=""font-size: 16px;"">J = YES &nbsp;&nbsp;&nbsp; F = NO</p>
        ","j","html-keyboard-response","333","2.1.0","422001","J=YES, F=NO","rr15n1utq4","2","71","68","75","","","","","","","","","invest","garden1","unrelated","experimental","j","true","",""
"null","<p style=""font-size: 50px;"">+</p>","null","html-keyboard-response","334","2.1.0","422303","J=YES, F=NO","rr15n1utq4","2","71","68","75","","","","","","","","","","","","","","","",""
"null","audio/beep-329314.mp3","null","audio-keyboard-response","335","2.1.0","424112","J=YES, F=NO","rr15n1utq4","2","71","68","75","","","","","","","","","","","","","","","",""
"null","audio/effort.wav","null","audio-keyboard-response","336","2.1.0","424949","J=YES, F=NO","rr15n1utq4","2","71","68","75","","","","","","","","","","","","","","","",""
"760","
          <p id=""word"" style=""font-size: 40px;"">whonk</p>
          <p style=""font-size: 16px;"">J = YES &nbsp;&nbsp;&nbsp; F = NO</p>
        ","f","html-keyboard-response","337","2.1.0","425709","J=YES, F=NO","rr15n1utq4","2","71","68","75","","","","","","","","","whonk","effort","pseudoword","pseudoword","f","true","",""
"null","<p style=""font-size: 50px;"">+</p>","null","html-keyboard-response","338","2.1.0","426017","J=YES, F=NO","rr15n1utq4","2","71","68","75","","","","","","","","","","","","","","","",""
"null","audio/beep-329314.mp3","null","audio-keyboard-response","339","2.1.0","427810","J=YES, F=NO","rr15n1utq4","2","71","68","75","","","","","","","","","","","","","","","",""
"null","audio/pain1.wav","null","audio-keyboard-response","340","2.1.0","428500","J=YES, F=NO","rr15n1utq4","2","71","68","75","","","","","","","","","","","","","","","",""
"638","
          <p id=""word"" style=""font-size: 40px;"">sell</p>
          <p style=""font-size: 16px;"">J = YES &nbsp;&nbsp;&nbsp; F = NO</p>
        ","j","html-keyboard-response","341","2.1.0","429140","J=YES, F=NO","rr15n1utq4","2","71","68","75","","","","","","","","","sell","pain1","unrelated","experimental","j","true","",""
"null","<p style=""font-size: 50px;"">+</p>","null","html-keyboard-response","342","2.1.0","429446","J=YES, F=NO","rr15n1utq4","2","71","68","75","","","","","","","","","","","","","","","",""
"null","audio/beep-329314.mp3","null","audio-keyboard-response","343","2.1.0","431229","J=YES, F=NO","rr15n1utq4","2","71","68","75","","","","","","","","","","","","","","","",""
"null","audio/window1.wav","null","audio-keyboard-response","344","2.1.0","432103","J=YES, F=NO","rr15n1utq4","2","71","68","75","","","","","","","","","","","","","","","",""
"766","
          <p id=""word"" style=""font-size: 40px;"">toss</p>
          <p style=""font-size: 16px;"">J = YES &nbsp;&nbsp;&nbsp; F = NO</p>
        ","f","html-keyboard-response","345","2.1.0","432871","J=YES, F=NO","rr15n1utq4","2","71","68","75","","","","","","","","","toss","window1","filler","filler","j","false","",""
"null","<p style=""font-size: 50px;"">+</p>","null","html-keyboard-response","346","2.1.0","433182","J=YES, F=NO","rr15n1utq4","2","71","68","75","","","","","","","","","","","","","","","",""
"null","audio/beep-329314.mp3","null","audio-keyboard-response","347","2.1.0","434998","J=YES, F=NO","rr15n1utq4","2","71","68","75","","","","","","","","","","","","","","","",""
"null","audio/test1.wav","null","audio-keyboard-response","348","2.1.0","435821","J=YES, F=NO","rr15n1utq4","2","71","68","75","","","","","","","","","","","","","","","",""
"434","
          <p id=""word"" style=""font-size: 40px;"">run</p>
          <p style=""font-size: 16px;"">J = YES &nbsp;&nbsp;&nbsp; F = NO</p>
        ","j","html-keyboard-response","349","2.1.0","436256","J=YES, F=NO","rr15n1utq4","2","71","68","75","","","","","","","","","run","test1","metaphor","experimental","j","true","",""
"null","<p style=""font-size: 50px;"">+</p>","null","html-keyboard-response","350","2.1.0","436558","J=YES, F=NO","rr15n1utq4","2","71","68","75","","","","","","","","","","","","","","","",""
"null","audio/beep-329314.mp3","null","audio-keyboard-response","351","2.1.0","438335","J=YES, F=NO","rr15n1utq4","2","71","68","75","","","","","","","","","","","","","","","",""
"null","audio/baby.wav","null","audio-keyboard-response","352","2.1.0","439019","J=YES, F=NO","rr15n1utq4","2","71","68","75","","","","","","","","","","","","","","","",""
"569","
          <p id=""word"" style=""font-size: 40px;"">lift</p>
          <p style=""font-size: 16px;"">J = YES &nbsp;&nbsp;&nbsp; F = NO</p>
        ","j","html-keyboard-response","353","2.1.0","439589","J=YES, F=NO","rr15n1utq4","2","71","68","75","","","","","","","","","lift","baby","filler","filler","j","true","",""
"null","<p style=""font-size: 50px;"">+</p>","null","html-keyboard-response","354","2.1.0","439892","J=YES, F=NO","rr15n1utq4","2","71","68","75","","","","","","","","","","","","","","","",""
"null","audio/beep-329314.mp3","null","audio-keyboard-response","355","2.1.0","441676","J=YES, F=NO","rr15n1utq4","2","71","68","75","","","","","","","","","","","","","","","",""
"null","audio/show.wav","null","audio-keyboard-response","356","2.1.0","442468","J=YES, F=NO","rr15n1utq4","2","71","68","75","","","","","","","","","","","","","","","",""
"621","
          <p id=""word"" style=""font-size: 40px;"">hold</p>
          <p style=""font-size: 16px;"">J = YES &nbsp;&nbsp;&nbsp; F = NO</p>
        ","j","html-keyboard-response","357","2.1.0","443089","J=YES, F=NO","rr15n1utq4","2","71","68","75","","","","","","","","","hold","show","metaphor","experimental","j","true","",""
"null","<p style=""font-size: 50px;"">+</p>","null","html-keyboard-response","358","2.1.0","443405","J=YES, F=NO","rr15n1utq4","2","71","68","75","","","","","","","","","","","","","","","",""
"null","audio/beep-329314.mp3","null","audio-keyboard-response","359","2.1.0","445187","J=YES, F=NO","rr15n1utq4","2","71","68","75","","","","","","","","","","","","","","","",""
"null","audio/mile1.wav","null","audio-keyboard-response","360","2.1.0","445909","J=YES, F=NO","rr15n1utq4","2","71","68","75","","","","","","","","","","","","","","","",""
"667","
          <p id=""word"" style=""font-size: 40px;"">writch</p>
          <p style=""font-size: 16px;"">J = YES &nbsp;&nbsp;&nbsp; F = NO</p>
        ","j","html-keyboard-response","361","2.1.0","446578","J=YES, F=NO","rr15n1utq4","2","71","68","75","","","","","","","","","writch","mile1","pseudoword","pseudoword","f","false","",""
"9330","<p>Excellent! You have finished block 3 of 8.</p>
                     <p>Feel free to take a 30 second break.</p>
                     <p>Press any key when you're ready to continue.</p>"," ","html-keyboard-response","362","2.1.0","455909","J=YES, F=NO","rr15n1utq4","2","71","68","75","","","","","","","","","","","","","","","",""
"1040","<p>Starting main block 4 of 8. Press any key to continue.</p>"," ","html-keyboard-response","363","2.1.0","456950","J=YES, F=NO","rr15n1utq4","2","71","68","75","","","","","","","","","","","","","","","",""
"null","<p style=""font-size: 50px;"">+</p>","null","html-keyboard-response","364","2.1.0","457262","J=YES, F=NO","rr15n1utq4","2","71","68","75","","","","","","","","","","","","","","","",""
"null","audio/beep-329314.mp3","null","audio-keyboard-response","365","2.1.0","459084","J=YES, F=NO","rr15n1utq4","2","71","68","75","","","","","","","","","","","","","","","",""
"null","audio/van1.wav","null","audio-keyboard-response","366","2.1.0","459840","J=YES, F=NO","rr15n1utq4","2","71","68","75","","","","","","","","","","","","","","","",""
"563","
          <p id=""word"" style=""font-size: 40px;"">push</p>
          <p style=""font-size: 16px;"">J = YES &nbsp;&nbsp;&nbsp; F = NO</p>
        ","j","html-keyboard-response","367","2.1.0","460406","J=YES, F=NO","rr15n1utq4","2","71","68","75","","","","","","","","","push","van1","filler","filler","j","true","",""
"null","<p style=""font-size: 50px;"">+</p>","null","html-keyboard-response","368","2.1.0","460715","J=YES, F=NO","rr15n1utq4","2","71","68","75","","","","","","","","","","","","","","","",""
"null","audio/beep-329314.mp3","null","audio-keyboard-response","369","2.1.0","462510","J=YES, F=NO","rr15n1utq4","2","71","68","75","","","","","","","","","","","","","","","",""
"null","audio/skin1.wav","null","audio-keyboard-response","370","2.1.0","463330","J=YES, F=NO","rr15n1utq4","2","71","68","75","","","","","","","","","","","","","","","",""
"651","
          <p id=""word"" style=""font-size: 40px;"">expose</p>
          <p style=""font-size: 16px;"">J = YES &nbsp;&nbsp;&nbsp; F = NO</p>
        ","j","html-keyboard-response","371","2.1.0","463982","J=YES, F=NO","rr15n1utq4","2","71","68","75","","","","","","","","","expose","skin1","literal","experimental","j","true","",""
"null","<p style=""font-size: 50px;"">+</p>","null","html-keyboard-response","372","2.1.0","464288","J=YES, F=NO","rr15n1utq4","2","71","68","75","","","","","","","","","","","","","","","",""
"null","audio/beep-329314.mp3","null","audio-keyboard-response","373","2.1.0","466090","J=YES, F=NO","rr15n1utq4","2","71","68","75","","","","","","","","","","","","","","","",""
"null","audio/roof1.wav","null","audio-keyboard-response","374","2.1.0","466840","J=YES, F=NO","rr15n1utq4","2","71","68","75","","","","","","","","","","","","","","","",""
"592","
          <p id=""word"" style=""font-size: 40px;"">wronb</p>
          <p style=""font-size: 16px;"">J = YES &nbsp;&nbsp;&nbsp; F = NO</p>
        ","f","html-keyboard-response","375","2.1.0","467433","J=YES, F=NO","rr15n1utq4","2","71","68","75","","","","","","","","","wronb","roof1","pseudoword","pseudoword","f","true","",""
"null","<p style=""font-size: 50px;"">+</p>","null","html-keyboard-response","376","2.1.0","467735","J=YES, F=NO","rr15n1utq4","2","71","68","75","","","","","","","","","","","","","","","",""
"null","audio/beep-329314.mp3","null","audio-keyboard-response","377","2.1.0","469528","J=YES, F=NO","rr15n1utq4","2","71","68","75","","","","","","","","","","","","","","","",""
"null","audio/smirk1.wav","null","audio-keyboard-response","378","2.1.0","470461","J=YES, F=NO","rr15n1utq4","2","71","68","75","","","","","","","","","","","","","","","",""
"709","
          <p id=""word"" style=""font-size: 40px;"">snopt</p>
          <p style=""font-size: 16px;"">J = YES &nbsp;&nbsp;&nbsp; F = NO</p>
        ","f","html-keyboard-response","379","2.1.0","471171","J=YES, F=NO","rr15n1utq4","2","71","68","75","","","","","","","","","snopt","smirk1","pseudoword","pseudoword","f","true","",""
"null","<p style=""font-size: 50px;"">+</p>","null","html-keyboard-response","380","2.1.0","471483","J=YES, F=NO","rr15n1utq4","2","71","68","75","","","","","","","","","","","","","","","",""
"null","audio/beep-329314.mp3","null","audio-keyboard-response","381","2.1.0","473383","J=YES, F=NO","rr15n1utq4","2","71","68","75","","","","","","","","","","","","","","","",""
"null","audio/ankle1.wav","null","audio-keyboard-response","382","2.1.0","474148","J=YES, F=NO","rr15n1utq4","2","71","68","75","","","","","","","","","","","","","","","",""
"548","
          <p id=""word"" style=""font-size: 40px;"">kick</p>
          <p style=""font-size: 16px;"">J = YES &nbsp;&nbsp;&nbsp; F = NO</p>
        ","j","html-keyboard-response","383","2.1.0","474696","J=YES, F=NO","rr15n1utq4","2","71","68","75","","","","","","","","","kick","ankle1","filler","filler","j","true","",""
"null","<p style=""font-size: 50px;"">+</p>","null","html-keyboard-response","384","2.1.0","475002","J=YES, F=NO","rr15n1utq4","2","71","68","75","","","","","","","","","","","","","","","",""
"null","audio/beep-329314.mp3","null","audio-keyboard-response","385","2.1.0","476848","J=YES, F=NO","rr15n1utq4","2","71","68","75","","","","","","","","","","","","","","","",""
"null","audio/battle1.wav","null","audio-keyboard-response","386","2.1.0","477556","J=YES, F=NO","rr15n1utq4","2","71","68","75","","","","","","","","","","","","","","","",""
"599","
          <p id=""word"" style=""font-size: 40px;"">fight</p>
          <p style=""font-size: 16px;"">J = YES &nbsp;&nbsp;&nbsp; F = NO</p>
        ","j","html-keyboard-response","387","2.1.0","478156","J=YES, F=NO","rr15n1utq4","2","71","68","75","","","","","","","","","fight","battle1","literal","experimental","j","true","",""
"null","<p style=""font-size: 50px;"">+</p>","null","html-keyboard-response","388","2.1.0","478471","J=YES, F=NO","rr15n1utq4","2","71","68","75","","","","","","","","","","","","","","","",""
"null","audio/beep-329314.mp3","null","audio-keyboard-response","389","2.1.0","480283","J=YES, F=NO","rr15n1utq4","2","71","68","75","","","","","","","","","","","","","","","",""
"null","audio/pine.wav","null","audio-keyboard-response","390","2.1.0","481026","J=YES, F=NO","rr15n1utq4","2","71","68","75","","","","","","","","","","","","","","","",""
"563","
          <p id=""word"" style=""font-size: 40px;"">weave</p>
          <p style=""font-size: 16px;"">J = YES &nbsp;&nbsp;&nbsp; F = NO</p>
        ","f","html-keyboard-response","391","2.1.0","481589","J=YES, F=NO","rr15n1utq4","2","71","68","75","","","","","","","","","weave","pine","unrelated","experimental","j","false","",""
