"rt","stimulus","response","trial_type","trial_index","plugin_version","time_elapsed","response_mapping","subject_id","list_index","lextale_score","lextale_word_score","lextale_nonword_score","success","timeout","failed_images","failed_audio","failed_video","task","isWord","isDummy","target","prime","prime_type","stimulus_type","correct_response","correct","section","question_order"
"307458","
    <div style=""max-width: 800px; margin: auto; text-align: left;"">
      <h2>STANFORD UNIVERSITY</h2>
      <h3>Research Information Sheet</h3>
      <p><strong>Protocol Director:</strong> Robert Hawkins<br>
      <strong>Protocol Title:</strong> Communication and social cognition in natural audiovisual contexts<br>
      <strong>IRB#:</strong> 77226</p>

      <p><strong>DESCRIPTION:</strong> You are invited to participate in a research study about language and communication. The purpose of the research is to understand how you interact and communicate with other people in naturalistic settings as a fluent English speaker. This research will be conducted through the Prolific platform, including participants from the US, UK, and Canada. If you decide to participate in this research, you will play a communication game in a group with one or more partners.</p>

      <p><strong>TIME INVOLVEMENT:</strong> The task will last the amount of time advertised on Prolific. You are free to withdraw from the study at any time.</p>

      <p><strong>RISKS AND BENEFITS:</strong> You may become frustrated if your partner gets distracted, or experience discomfort if other participants in your group send text that is inappropriate for the task. We ask you to please be respectful of other participants you might be interacting with to mitigate these risks. You may also experience discomfort when being asked to discuss or challenge emotionally salient political beliefs. Study data will be stored securely, in compliance with Stanford University standards, minimizing the risk of confidentiality breach. This study advances our scientific understanding of how people communicate and collaborate in naturalistic settings. This study may lead to further insights about what can go wrong in teamwork, suggest potential interventions to overcome these barriers, and help to develop assistive technologies that collaborate with human partners. We cannot and do not guarantee or promise that you will receive any benefits from this study.</p>

      <p><strong>PAYMENTS:</strong> You will receive payment in the amount advertised on Prolific. If you do not complete this study, you will receive prorated payment based on the time that you have spent. Additionally, you may be eligible for bonus payments as described in the instructions.</p>

      <p><strong>PARTICIPANT’S RIGHTS:</strong> If you have read this form and have decided to participate in this project, please understand your participation is voluntary and you have the right to withdraw your consent or discontinue participation at any time without penalty or loss of benefits to which you are otherwise entitled. The alternative is not to participate. You have the right to refuse to answer particular questions. The results of this research study may be presented at scientific or professional meetings or published in scientific journals. Your individual privacy will be maintained in all published and written data resulting from the study. In accordance with scientific norms, the data from this study may be used or shared with other researchers for future research (after removing personally identifying information) without additional consent from you.</p>

      <p><strong>CONTACT INFORMATION:</strong><br>
      Questions: If you have any questions, concerns or complaints about this research, its procedures, risks and benefits, contact the Protocol Director, Robert Hawkins (<a href=""mailto:rdhawkins@stanford.edu"">rdhawkins@stanford.edu</a>, 217-549-6923).<br>
      Independent Contact: If you are not satisfied with how this study is being conducted, or if you have any concerns, complaints, or general questions about the research or your rights as a participant, please contact the Stanford Institutional Review Board (IRB) to speak to someone independent of the research team at 650-723-2480 or toll free at 1-866-680-2906, or email at <a href=""mailto:irbnon-med@stanford.edu"">irbnon-med@stanford.edu</a>. You can also write to the Stanford IRB, Stanford University, 1705 El Camino Real, Palo Alto, CA 94306.</p>

      <p><strong>Please save or print a copy of this page for your records.</strong></p>
      <p>If you agree to participate in this research, click ""Continue"" below.</p>
    </div>
  ","0","html-button-response","0","2.1.0","307472","F=YES, J=NO","son6fv03tq","1","66","63","70","","","","","","","","","","","","","","","",""
"31261","
    <div style=""max-width: 800px; margin: auto; text-align: left;"">
      <h2>Welcome!</h2>
      <p>Thank you for participating in this study. The experiment consists of three parts:</p>
      <ol>
        <li>An English vocabulary test</li>
        <li>A main task in which you will hear and see words, and decide whether the written word is a real English word</li>
        <li>A brief survey about your background</li>
      </ol>
      <p>Each part will be introduced before it begins.</p>
      <p>Please make sure you are in a quiet environment and can hear audio clearly for the final task.</p>
      <p style=""margin-top: 2em;"">Press any key to begin.</p>
    </div>
  "," ","html-keyboard-response","1","2.1.0","338737","F=YES, J=NO","son6fv03tq","1","66","63","70","","","","","","","","","","","","","","","",""
"","","","preload","2","2.1.0","339646","F=YES, J=NO","son6fv03tq","1","66","63","70","true","false","[]","[]","[]","","","","","","","","","","",""
"17601","
    <div style=""max-width: 800px; margin: auto; text-align: left;"">
      <h2>Part 1: Vocabulary Test</h2>
      <p>You will now complete the first part of the study: a short English vocabulary test.</p>
      <p>This test is called <strong>LexTALE</strong> and helps us get a general sense of your English proficiency.</p>
      <p style=""margin-top: 2em;"">Press any key to continue.</p>
    </div>
  "," ","html-keyboard-response","3","2.1.0","357248","F=YES, J=NO","son6fv03tq","1","66","63","70","","","","","","","","","","","","","","","",""
"32610","
    <div style=""max-width: 800px; margin: auto; text-align: left;"">
      <h2>LexTALE Vocabulary Test</h2>
      <p>In this test, you will see a series of letter strings—one at a time.</p>
      <p>Your task is to decide whether each string is a real English word.</p>
      <p><strong>Key responses:</strong></p>
      <ul>
        <li><strong>F</strong> = YES (real English word)</li>
        <li><strong>J</strong> = NO (not a real English word)</li>
      </ul>
      <p>There is no time limit, but please try to be accurate.</p>
      <p style=""margin-top: 2em;"">Press any key to begin.</p>
    </div>
  "," ","html-keyboard-response","4","2.1.0","389860","F=YES, J=NO","son6fv03tq","1","66","63","70","","","","","","","","","","","","","","","",""
"2021","
  <p style=""font-size: 40px;"">platery</p>
  <p style=""font-size: 16px;"">F = YES &nbsp;&nbsp;&nbsp; J = NO</p>
","f","html-keyboard-response","5","2.1.0","391883","F=YES, J=NO","son6fv03tq","1","66","63","70","","","","","","lextale","false","true","","","","","","","",""
"1696","
  <p style=""font-size: 40px;"">denial</p>
  <p style=""font-size: 16px;"">F = YES &nbsp;&nbsp;&nbsp; J = NO</p>
","f","html-keyboard-response","6","2.1.0","393581","F=YES, J=NO","son6fv03tq","1","66","63","70","","","","","","lextale","true","true","","","","","","","",""
"2050","
  <p style=""font-size: 40px;"">marrit</p>
  <p style=""font-size: 16px;"">F = YES &nbsp;&nbsp;&nbsp; J = NO</p>
","j","html-keyboard-response","7","2.1.0","395633","F=YES, J=NO","son6fv03tq","1","66","63","70","","","","","","lextale","false","true","","","","","","","",""
"1931","
  <p style=""font-size: 40px;"">bottle</p>
  <p style=""font-size: 16px;"">F = YES &nbsp;&nbsp;&nbsp; J = NO</p>
","f","html-keyboard-response","8","2.1.0","397567","F=YES, J=NO","son6fv03tq","1","66","63","70","","","","","","lextale","true","false","","","","","","","",""
"2011","
  <p style=""font-size: 40px;"">birst</p>
  <p style=""font-size: 16px;"">F = YES &nbsp;&nbsp;&nbsp; J = NO</p>
","j","html-keyboard-response","9","2.1.0","399579","F=YES, J=NO","son6fv03tq","1","66","63","70","","","","","","lextale","false","false","","","","","","","",""
"1185","
  <p style=""font-size: 40px;"">envy</p>
  <p style=""font-size: 16px;"">F = YES &nbsp;&nbsp;&nbsp; J = NO</p>
","f","html-keyboard-response","10","2.1.0","400766","F=YES, J=NO","son6fv03tq","1","66","63","70","","","","","","lextale","true","false","","","","","","","",""
"2970","
  <p style=""font-size: 40px;"">brang</p>
  <p style=""font-size: 16px;"">F = YES &nbsp;&nbsp;&nbsp; J = NO</p>
","j","html-keyboard-response","11","2.1.0","403738","F=YES, J=NO","son6fv03tq","1","66","63","70","","","","","","lextale","false","false","","","","","","","",""
"827","
  <p style=""font-size: 40px;"">huge</p>
  <p style=""font-size: 16px;"">F = YES &nbsp;&nbsp;&nbsp; J = NO</p>
","f","html-keyboard-response","12","2.1.0","404566","F=YES, J=NO","son6fv03tq","1","66","63","70","","","","","","lextale","true","false","","","","","","","",""
"3011","
  <p style=""font-size: 40px;"">plove</p>
  <p style=""font-size: 16px;"">F = YES &nbsp;&nbsp;&nbsp; J = NO</p>
","j","html-keyboard-response","13","2.1.0","407578","F=YES, J=NO","son6fv03tq","1","66","63","70","","","","","","lextale","false","false","","","","","","","",""
"754","
  <p style=""font-size: 40px;"">border</p>
  <p style=""font-size: 16px;"">F = YES &nbsp;&nbsp;&nbsp; J = NO</p>
","f","html-keyboard-response","14","2.1.0","408334","F=YES, J=NO","son6fv03tq","1","66","63","70","","","","","","lextale","true","false","","","","","","","",""
"1367","
  <p style=""font-size: 40px;"">flimsy</p>
  <p style=""font-size: 16px;"">F = YES &nbsp;&nbsp;&nbsp; J = NO</p>
","j","html-keyboard-response","15","2.1.0","409703","F=YES, J=NO","son6fv03tq","1","66","63","70","","","","","","lextale","true","false","","","","","","","",""
"870","
  <p style=""font-size: 40px;"">drain</p>
  <p style=""font-size: 16px;"">F = YES &nbsp;&nbsp;&nbsp; J = NO</p>
","f","html-keyboard-response","16","2.1.0","410575","F=YES, J=NO","son6fv03tq","1","66","63","70","","","","","","lextale","true","false","","","","","","","",""
"1056","
  <p style=""font-size: 40px;"">twindle</p>
  <p style=""font-size: 16px;"">F = YES &nbsp;&nbsp;&nbsp; J = NO</p>
","f","html-keyboard-response","17","2.1.0","411632","F=YES, J=NO","son6fv03tq","1","66","63","70","","","","","","lextale","false","false","","","","","","","",""
"1469","
  <p style=""font-size: 40px;"">propose</p>
  <p style=""font-size: 16px;"">F = YES &nbsp;&nbsp;&nbsp; J = NO</p>
","f","html-keyboard-response","18","2.1.0","413102","F=YES, J=NO","son6fv03tq","1","66","63","70","","","","","","lextale","true","false","","","","","","","",""
"3061","
  <p style=""font-size: 40px;"">forlay</p>
  <p style=""font-size: 16px;"">F = YES &nbsp;&nbsp;&nbsp; J = NO</p>
","f","html-keyboard-response","19","2.1.0","416165","F=YES, J=NO","son6fv03tq","1","66","63","70","","","","","","lextale","false","false","","","","","","","",""
"3019","
  <p style=""font-size: 40px;"">tenant</p>
  <p style=""font-size: 16px;"">F = YES &nbsp;&nbsp;&nbsp; J = NO</p>
","j","html-keyboard-response","20","2.1.0","419185","F=YES, J=NO","son6fv03tq","1","66","63","70","","","","","","lextale","true","false","","","","","","","",""
"1071","
  <p style=""font-size: 40px;"">strain</p>
  <p style=""font-size: 16px;"">F = YES &nbsp;&nbsp;&nbsp; J = NO</p>
","f","html-keyboard-response","21","2.1.0","420257","F=YES, J=NO","son6fv03tq","1","66","63","70","","","","","","lextale","true","false","","","","","","","",""
"997","
  <p style=""font-size: 40px;"">holster</p>
  <p style=""font-size: 16px;"">F = YES &nbsp;&nbsp;&nbsp; J = NO</p>
","f","html-keyboard-response","22","2.1.0","421255","F=YES, J=NO","son6fv03tq","1","66","63","70","","","","","","lextale","true","false","","","","","","","",""
"2825","
  <p style=""font-size: 40px;"">hinder</p>
  <p style=""font-size: 16px;"">F = YES &nbsp;&nbsp;&nbsp; J = NO</p>
","f","html-keyboard-response","23","2.1.0","424082","F=YES, J=NO","son6fv03tq","1","66","63","70","","","","","","lextale","true","false","","","","","","","",""
"932","
  <p style=""font-size: 40px;"">swindle</p>
  <p style=""font-size: 16px;"">F = YES &nbsp;&nbsp;&nbsp; J = NO</p>
","f","html-keyboard-response","24","2.1.0","425015","F=YES, J=NO","son6fv03tq","1","66","63","70","","","","","","lextale","true","false","","","","","","","",""
"4229","
  <p style=""font-size: 40px;"">nuder</p>
  <p style=""font-size: 16px;"">F = YES &nbsp;&nbsp;&nbsp; J = NO</p>
","j","html-keyboard-response","25","2.1.0","429245","F=YES, J=NO","son6fv03tq","1","66","63","70","","","","","","lextale","false","false","","","","","","","",""
"1269","
  <p style=""font-size: 40px;"">pillow</p>
  <p style=""font-size: 16px;"">F = YES &nbsp;&nbsp;&nbsp; J = NO</p>
","f","html-keyboard-response","26","2.1.0","430516","F=YES, J=NO","son6fv03tq","1","66","63","70","","","","","","lextale","true","false","","","","","","","",""
"889","
  <p style=""font-size: 40px;"">shumble</p>
  <p style=""font-size: 16px;"">F = YES &nbsp;&nbsp;&nbsp; J = NO</p>
","f","html-keyboard-response","27","2.1.0","431406","F=YES, J=NO","son6fv03tq","1","66","63","70","","","","","","lextale","false","false","","","","","","","",""
"900","
  <p style=""font-size: 40px;"">thirst</p>
  <p style=""font-size: 16px;"">F = YES &nbsp;&nbsp;&nbsp; J = NO</p>
","f","html-keyboard-response","28","2.1.0","432307","F=YES, J=NO","son6fv03tq","1","66","63","70","","","","","","lextale","true","false","","","","","","","",""
"1632","
  <p style=""font-size: 40px;"">unsail</p>
  <p style=""font-size: 16px;"">F = YES &nbsp;&nbsp;&nbsp; J = NO</p>
","f","html-keyboard-response","29","2.1.0","433940","F=YES, J=NO","son6fv03tq","1","66","63","70","","","","","","lextale","false","false","","","","","","","",""
"2610","
  <p style=""font-size: 40px;"">rifle</p>
  <p style=""font-size: 16px;"">F = YES &nbsp;&nbsp;&nbsp; J = NO</p>
","f","html-keyboard-response","30","2.1.0","436552","F=YES, J=NO","son6fv03tq","1","66","63","70","","","","","","lextale","true","false","","","","","","","",""
"887","
  <p style=""font-size: 40px;"">mush</p>
  <p style=""font-size: 16px;"">F = YES &nbsp;&nbsp;&nbsp; J = NO</p>
","f","html-keyboard-response","31","2.1.0","437439","F=YES, J=NO","son6fv03tq","1","66","63","70","","","","","","lextale","false","false","","","","","","","",""
"1351","
  <p style=""font-size: 40px;"">drench</p>
  <p style=""font-size: 16px;"">F = YES &nbsp;&nbsp;&nbsp; J = NO</p>
","j","html-keyboard-response","32","2.1.0","438792","F=YES, J=NO","son6fv03tq","1","66","63","70","","","","","","lextale","true","false","","","","","","","",""
"1826","
  <p style=""font-size: 40px;"">snirt</p>
  <p style=""font-size: 16px;"">F = YES &nbsp;&nbsp;&nbsp; J = NO</p>
","j","html-keyboard-response","33","2.1.0","440619","F=YES, J=NO","son6fv03tq","1","66","63","70","","","","","","lextale","false","false","","","","","","","",""
"739","
  <p style=""font-size: 40px;"">bitter</p>
  <p style=""font-size: 16px;"">F = YES &nbsp;&nbsp;&nbsp; J = NO</p>
","f","html-keyboard-response","34","2.1.0","441359","F=YES, J=NO","son6fv03tq","1","66","63","70","","","","","","lextale","true","false","","","","","","","",""
"2220","
  <p style=""font-size: 40px;"">pliff</p>
  <p style=""font-size: 16px;"">F = YES &nbsp;&nbsp;&nbsp; J = NO</p>
","j","html-keyboard-response","35","2.1.0","443580","F=YES, J=NO","son6fv03tq","1","66","63","70","","","","","","lextale","false","false","","","","","","","",""
"682","
  <p style=""font-size: 40px;"">tablet</p>
  <p style=""font-size: 16px;"">F = YES &nbsp;&nbsp;&nbsp; J = NO</p>
","f","html-keyboard-response","36","2.1.0","444264","F=YES, J=NO","son6fv03tq","1","66","63","70","","","","","","lextale","true","false","","","","","","","",""
"949","
  <p style=""font-size: 40px;"">glimmer</p>
  <p style=""font-size: 16px;"">F = YES &nbsp;&nbsp;&nbsp; J = NO</p>
","f","html-keyboard-response","37","2.1.0","445214","F=YES, J=NO","son6fv03tq","1","66","63","70","","","","","","lextale","true","false","","","","","","","",""
"2488","
  <p style=""font-size: 40px;"">slink</p>
  <p style=""font-size: 16px;"">F = YES &nbsp;&nbsp;&nbsp; J = NO</p>
","j","html-keyboard-response","38","2.1.0","447703","F=YES, J=NO","son6fv03tq","1","66","63","70","","","","","","lextale","true","false","","","","","","","",""
"732","
  <p style=""font-size: 40px;"">clever</p>
  <p style=""font-size: 16px;"">F = YES &nbsp;&nbsp;&nbsp; J = NO</p>
","f","html-keyboard-response","39","2.1.0","448436","F=YES, J=NO","son6fv03tq","1","66","63","70","","","","","","lextale","true","false","","","","","","","",""
"1778","
  <p style=""font-size: 40px;"">grum</p>
  <p style=""font-size: 16px;"">F = YES &nbsp;&nbsp;&nbsp; J = NO</p>
","j","html-keyboard-response","40","2.1.0","450215","F=YES, J=NO","son6fv03tq","1","66","63","70","","","","","","lextale","false","false","","","","","","","",""
"648","
  <p style=""font-size: 40px;"">string</p>
  <p style=""font-size: 16px;"">F = YES &nbsp;&nbsp;&nbsp; J = NO</p>
","f","html-keyboard-response","41","2.1.0","450865","F=YES, J=NO","son6fv03tq","1","66","63","70","","","","","","lextale","true","false","","","","","","","",""
"1347","
  <p style=""font-size: 40px;"">plim</p>
  <p style=""font-size: 16px;"">F = YES &nbsp;&nbsp;&nbsp; J = NO</p>
","j","html-keyboard-response","42","2.1.0","452212","F=YES, J=NO","son6fv03tq","1","66","63","70","","","","","","lextale","false","false","","","","","","","",""
"852","
  <p style=""font-size: 40px;"">cable</p>
  <p style=""font-size: 16px;"">F = YES &nbsp;&nbsp;&nbsp; J = NO</p>
","f","html-keyboard-response","43","2.1.0","453065","F=YES, J=NO","son6fv03tq","1","66","63","70","","","","","","lextale","true","false","","","","","","","",""
"2678","
  <p style=""font-size: 40px;"">shrivel</p>
  <p style=""font-size: 16px;"">F = YES &nbsp;&nbsp;&nbsp; J = NO</p>
","f","html-keyboard-response","44","2.1.0","455745","F=YES, J=NO","son6fv03tq","1","66","63","70","","","","","","lextale","true","false","","","","","","","",""
"1293","
  <p style=""font-size: 40px;"">tarnish</p>
  <p style=""font-size: 16px;"">F = YES &nbsp;&nbsp;&nbsp; J = NO</p>
","j","html-keyboard-response","45","2.1.0","457040","F=YES, J=NO","son6fv03tq","1","66","63","70","","","","","","lextale","true","false","","","","","","","",""
"1717","
  <p style=""font-size: 40px;"">blim</p>
  <p style=""font-size: 16px;"">F = YES &nbsp;&nbsp;&nbsp; J = NO</p>
","j","html-keyboard-response","46","2.1.0","458758","F=YES, J=NO","son6fv03tq","1","66","63","70","","","","","","lextale","false","false","","","","","","","",""
"1066","
  <p style=""font-size: 40px;"">stifle</p>
  <p style=""font-size: 16px;"">F = YES &nbsp;&nbsp;&nbsp; J = NO</p>
","f","html-keyboard-response","47","2.1.0","459825","F=YES, J=NO","son6fv03tq","1","66","63","70","","","","","","lextale","true","false","","","","","","","",""
"2194","
  <p style=""font-size: 40px;"">bint</p>
  <p style=""font-size: 16px;"">F = YES &nbsp;&nbsp;&nbsp; J = NO</p>
","j","html-keyboard-response","48","2.1.0","462021","F=YES, J=NO","son6fv03tq","1","66","63","70","","","","","","lextale","false","false","","","","","","","",""
"949","
  <p style=""font-size: 40px;"">purple</p>
  <p style=""font-size: 16px;"">F = YES &nbsp;&nbsp;&nbsp; J = NO</p>
","f","html-keyboard-response","49","2.1.0","462972","F=YES, J=NO","son6fv03tq","1","66","63","70","","","","","","lextale","true","false","","","","","","","",""
"1669","
  <p style=""font-size: 40px;"">wriggle</p>
  <p style=""font-size: 16px;"">F = YES &nbsp;&nbsp;&nbsp; J = NO</p>
","j","html-keyboard-response","50","2.1.0","464642","F=YES, J=NO","son6fv03tq","1","66","63","70","","","","","","lextale","true","false","","","","","","","",""
"940","
  <p style=""font-size: 40px;"">mangle</p>
  <p style=""font-size: 16px;"">F = YES &nbsp;&nbsp;&nbsp; J = NO</p>
","j","html-keyboard-response","51","2.1.0","465584","F=YES, J=NO","son6fv03tq","1","66","63","70","","","","","","lextale","true","false","","","","","","","",""
"1509","
  <p style=""font-size: 40px;"">shramp</p>
  <p style=""font-size: 16px;"">F = YES &nbsp;&nbsp;&nbsp; J = NO</p>
","j","html-keyboard-response","52","2.1.0","467095","F=YES, J=NO","son6fv03tq","1","66","63","70","","","","","","lextale","false","false","","","","","","","",""
"763","
  <p style=""font-size: 40px;"">flirt</p>
  <p style=""font-size: 16px;"">F = YES &nbsp;&nbsp;&nbsp; J = NO</p>
","f","html-keyboard-response","53","2.1.0","467859","F=YES, J=NO","son6fv03tq","1","66","63","70","","","","","","lextale","true","false","","","","","","","",""
"2391","
  <p style=""font-size: 40px;"">frip</p>
  <p style=""font-size: 16px;"">F = YES &nbsp;&nbsp;&nbsp; J = NO</p>
","j","html-keyboard-response","54","2.1.0","470251","F=YES, J=NO","son6fv03tq","1","66","63","70","","","","","","lextale","false","false","","","","","","","",""
"1542","
  <p style=""font-size: 40px;"">tangle</p>
  <p style=""font-size: 16px;"">F = YES &nbsp;&nbsp;&nbsp; J = NO</p>
","j","html-keyboard-response","55","2.1.0","471794","F=YES, J=NO","son6fv03tq","1","66","63","70","","","","","","lextale","true","false","","","","","","","",""
"1110","
  <p style=""font-size: 40px;"">crumble</p>
  <p style=""font-size: 16px;"">F = YES &nbsp;&nbsp;&nbsp; J = NO</p>
","f","html-keyboard-response","56","2.1.0","472905","F=YES, J=NO","son6fv03tq","1","66","63","70","","","","","","lextale","true","false","","","","","","","",""
"1105","
  <p style=""font-size: 40px;"">wrinkle</p>
  <p style=""font-size: 16px;"">F = YES &nbsp;&nbsp;&nbsp; J = NO</p>
","j","html-keyboard-response","57","2.1.0","474012","F=YES, J=NO","son6fv03tq","1","66","63","70","","","","","","lextale","true","false","","","","","","","",""
"1243","
  <p style=""font-size: 40px;"">slumb</p>
  <p style=""font-size: 16px;"">F = YES &nbsp;&nbsp;&nbsp; J = NO</p>
","j","html-keyboard-response","58","2.1.0","475256","F=YES, J=NO","son6fv03tq","1","66","63","70","","","","","","lextale","false","false","","","","","","","",""
"663","
  <p style=""font-size: 40px;"">jungle</p>
  <p style=""font-size: 16px;"">F = YES &nbsp;&nbsp;&nbsp; J = NO</p>
","f","html-keyboard-response","59","2.1.0","475920","F=YES, J=NO","son6fv03tq","1","66","63","70","","","","","","lextale","true","false","","","","","","","",""
"985","
  <p style=""font-size: 40px;"">frolick</p>
  <p style=""font-size: 16px;"">F = YES &nbsp;&nbsp;&nbsp; J = NO</p>
","j","html-keyboard-response","60","2.1.0","476906","F=YES, J=NO","son6fv03tq","1","66","63","70","","","","","","lextale","false","false","","","","","","","",""
"2808","
      <h2>LexTALE Test Completed</h2>
      <p>Your LexTALE vocabulary score is: <strong>66%</strong></p>
      <p>Press any key to continue.</p>
    "," ","html-keyboard-response","61","2.1.0","479718","F=YES, J=NO","son6fv03tq","1","66","63","70","","","","","","","","","","","","","","","",""
"51735","
    <div style=""max-width: 800px; margin: auto; text-align: left;"">
      <h2>Break Time</h2>
      <p>You have completed the first part of the study.</p>
      <p>You may take a short <strong>30-second break</strong> before continuing.</p>
      <p>When you’re ready, press any key to continue to the final task.</p>
    </div>
  "," ","html-keyboard-response","62","2.1.0","531454","F=YES, J=NO","son6fv03tq","1","66","63","70","","","","","","","","","","","","","","","",""
"33152","
    <div style=""max-width: 800px; margin: auto; text-align: left;"">
      <h2>Part 2: Lexical Decision Task</h2>
      <p>You will now begin the second part of the study.</p>
      <p>Each trial will follow this sequence:</p>
      <ul>
        <li>A fixation cross (+) appears at the center of the screen.</li>
        <li>You will hear a short beep followed by a spoken word.</li>
        <li>A written word will appear briefly on the screen.</li>
      </ul>
      <p>Your task is to judge whether the <strong>written word</strong> is a real English word.</p>
      <p style=""margin-top: 1em;""><strong>Key responses:</strong></p>
      <ul>
        <li><strong>F</strong> = YES (real English word)</li>
        <li><strong>J</strong> = NO (not a real English word)</li>
      </ul>
      <p>Please respond as quickly and accurately as you can.</p>
      <p style=""margin-top: 2em;"">Press any key to continue.</p>
    </div>
  "," ","html-keyboard-response","63","2.1.0","564611","F=YES, J=NO","son6fv03tq","1","66","63","70","","","","","","","","","","","","","","","",""
"16493","
    <div style=""max-width: 800px; margin: auto; text-align: left;"">
      <h2>Before You Begin</h2>
      <p>Make sure your sound is turned on.</p>
      <p>You will hear audio during each trial, but your decision should be based only on the <strong>written word</strong> you see on the screen.</p>
      <p><strong>Reminder:</strong></p>
      <ul>
        <li><strong>F</strong> = YES (real English word)</li>
        <li><strong>J</strong> = NO (not a real English word)</li>
      </ul>
      <p style=""margin-top: 2em;"">Press any key when you are ready to begin.</p>
    </div>
  "," ","html-keyboard-response","64","2.1.0","581107","F=YES, J=NO","son6fv03tq","1","66","63","70","","","","","","","","","","","","","","","",""
"6847","
    <div style=""max-width: 800px; margin: auto; text-align: left;"">
      <h2>Part 2: Practice Trials</h2>
      <p>You will now complete a few <strong>practice trials</strong> to get familiar with the task.</p>
      <p>These trials are <strong>not scored</strong> and are only to help you get used to the format.</p>
      <p style=""margin-top: 2em;"">Press any key to begin.</p>
    </div>
  "," ","html-keyboard-response","65","2.1.0","587956","F=YES, J=NO","son6fv03tq","1","66","63","70","","","","","","","","","","","","","","","",""
"3052","<p>Starting practice block 1 of 2. Press any key to continue.</p>"," ","html-keyboard-response","66","2.1.0","591008","F=YES, J=NO","son6fv03tq","1","66","63","70","","","","","","","","","","","","","","","",""
"null","<p style=""font-size: 50px;"">+</p>","null","html-keyboard-response","67","2.1.0","591321","F=YES, J=NO","son6fv03tq","1","66","63","70","","","","","","","","","","","","","","","",""
"null","audio/beep-329314.mp3","null","audio-keyboard-response","68","2.1.0","592880","F=YES, J=NO","son6fv03tq","1","66","63","70","","","","","","","","","","","","","","","",""
"null","audio/noise1.wav","null","audio-keyboard-response","69","2.1.0","593669","F=YES, J=NO","son6fv03tq","1","66","63","70","","","","","","","","","","","","","","","",""
"766","
          <p id=""word"" style=""font-size: 40px;"">slintered</p>
          <p style=""font-size: 16px;"">F = YES &nbsp;&nbsp;&nbsp; J = NO</p>
        ","j","html-keyboard-response","70","2.1.0","594437","F=YES, J=NO","son6fv03tq","1","66","63","70","","","","","","","","","slintered","noise1","pseudoword","pseudoword","j","true","",""
"null","<p style=""font-size: 50px;"">+</p>","null","html-keyboard-response","71","2.1.0","594753","F=YES, J=NO","son6fv03tq","1","66","63","70","","","","","","","","","","","","","","","",""
"null","audio/beep-329314.mp3","null","audio-keyboard-response","72","2.1.0","596280","F=YES, J=NO","son6fv03tq","1","66","63","70","","","","","","","","","","","","","","","",""
"null","audio/battle1.wav","null","audio-keyboard-response","73","2.1.0","596829","F=YES, J=NO","son6fv03tq","1","66","63","70","","","","","","","","","","","","","","","",""
"1094","
          <p id=""word"" style=""font-size: 40px;"">boil</p>
          <p style=""font-size: 16px;"">F = YES &nbsp;&nbsp;&nbsp; J = NO</p>
        ","f","html-keyboard-response","74","2.1.0","597925","F=YES, J=NO","son6fv03tq","1","66","63","70","","","","","","","","","boil","battle1","filler","filler","f","true","",""
"null","<p style=""font-size: 50px;"">+</p>","null","html-keyboard-response","75","2.1.0","598236","F=YES, J=NO","son6fv03tq","1","66","63","70","","","","","","","","","","","","","","","",""
"null","audio/beep-329314.mp3","null","audio-keyboard-response","76","2.1.0","599760","F=YES, J=NO","son6fv03tq","1","66","63","70","","","","","","","","","","","","","","","",""
"null","audio/bush1.wav","null","audio-keyboard-response","77","2.1.0","600309","F=YES, J=NO","son6fv03tq","1","66","63","70","","","","","","","","","","","","","","","",""
"null","
          <p id=""word"" style=""font-size: 40px;"">platined</p>
          <p style=""font-size: 16px;"">F = YES &nbsp;&nbsp;&nbsp; J = NO</p>
        ","null","html-keyboard-response","78","2.1.0","601825","F=YES, J=NO","son6fv03tq","1","66","63","70","","","","","","","","","platined","bush1","pseudoword","pseudoword","j","false","",""
"null","<p style=""font-size: 50px;"">+</p>","null","html-keyboard-response","79","2.1.0","602136","F=YES, J=NO","son6fv03tq","1","66","63","70","","","","","","","","","","","","","","","",""
"null","audio/beep-329314.mp3","null","audio-keyboard-response","80","2.1.0","603679","F=YES, J=NO","son6fv03tq","1","66","63","70","","","","","","","","","","","","","","","",""
"null","audio/budget1.wav","null","audio-keyboard-response","81","2.1.0","604310","F=YES, J=NO","son6fv03tq","1","66","63","70","","","","","","","","","","","","","","","",""
"619","
          <p id=""word"" style=""font-size: 40px;"">sulist</p>
          <p style=""font-size: 16px;"">F = YES &nbsp;&nbsp;&nbsp; J = NO</p>
        ","f","html-keyboard-response","82","2.1.0","604930","F=YES, J=NO","son6fv03tq","1","66","63","70","","","","","","","","","sulist","budget1","pseudoword","pseudoword","j","false","",""
"null","<p style=""font-size: 50px;"">+</p>","null","html-keyboard-response","83","2.1.0","605235","F=YES, J=NO","son6fv03tq","1","66","63","70","","","","","","","","","","","","","","","",""
"null","audio/beep-329314.mp3","null","audio-keyboard-response","84","2.1.0","606760","F=YES, J=NO","son6fv03tq","1","66","63","70","","","","","","","","","","","","","","","",""
"null","audio/road.wav","null","audio-keyboard-response","85","2.1.0","607250","F=YES, J=NO","son6fv03tq","1","66","63","70","","","","","","","","","","","","","","","",""
"1081","
          <p id=""word"" style=""font-size: 40px;"">wappings</p>
          <p style=""font-size: 16px;"">F = YES &nbsp;&nbsp;&nbsp; J = NO</p>
        ","j","html-keyboard-response","86","2.1.0","608333","F=YES, J=NO","son6fv03tq","1","66","63","70","","","","","","","","","wappings","road","pseudoword","pseudoword","j","true","",""
"null","<p style=""font-size: 50px;"">+</p>","null","html-keyboard-response","87","2.1.0","608641","F=YES, J=NO","son6fv03tq","1","66","63","70","","","","","","","","","","","","","","","",""
"null","audio/beep-329314.mp3","null","audio-keyboard-response","88","2.1.0","610179","F=YES, J=NO","son6fv03tq","1","66","63","70","","","","","","","","","","","","","","","",""
"null","audio/empire.wav","null","audio-keyboard-response","89","2.1.0","610869","F=YES, J=NO","son6fv03tq","1","66","63","70","","","","","","","","","","","","","","","",""
"556","
          <p id=""word"" style=""font-size: 40px;"">slorby</p>
          <p style=""font-size: 16px;"">F = YES &nbsp;&nbsp;&nbsp; J = NO</p>
        ","j","html-keyboard-response","90","2.1.0","611427","F=YES, J=NO","son6fv03tq","1","66","63","70","","","","","","","","","slorby","empire","pseudoword","pseudoword","j","true","",""
"null","<p style=""font-size: 50px;"">+</p>","null","html-keyboard-response","91","2.1.0","611739","F=YES, J=NO","son6fv03tq","1","66","63","70","","","","","","","","","","","","","","","",""
"null","audio/beep-329314.mp3","null","audio-keyboard-response","92","2.1.0","613281","F=YES, J=NO","son6fv03tq","1","66","63","70","","","","","","","","","","","","","","","",""
"null","audio/stain.wav","null","audio-keyboard-response","93","2.1.0","613989","F=YES, J=NO","son6fv03tq","1","66","63","70","","","","","","","","","","","","","","","",""
"734","
          <p id=""word"" style=""font-size: 40px;"">rumpsied</p>
          <p style=""font-size: 16px;"">F = YES &nbsp;&nbsp;&nbsp; J = NO</p>
        ","j","html-keyboard-response","94","2.1.0","614725","F=YES, J=NO","son6fv03tq","1","66","63","70","","","","","","","","","rumpsied","stain","pseudoword","pseudoword","j","true","",""
"null","<p style=""font-size: 50px;"">+</p>","null","html-keyboard-response","95","2.1.0","615034","F=YES, J=NO","son6fv03tq","1","66","63","70","","","","","","","","","","","","","","","",""
"null","audio/beep-329314.mp3","null","audio-keyboard-response","96","2.1.0","616560","F=YES, J=NO","son6fv03tq","1","66","63","70","","","","","","","","","","","","","","","",""
"null","audio/bottle.wav","null","audio-keyboard-response","97","2.1.0","617089","F=YES, J=NO","son6fv03tq","1","66","63","70","","","","","","","","","","","","","","","",""
"621","
          <p id=""word"" style=""font-size: 40px;"">watch</p>
          <p style=""font-size: 16px;"">F = YES &nbsp;&nbsp;&nbsp; J = NO</p>
        ","f","html-keyboard-response","98","2.1.0","617712","F=YES, J=NO","son6fv03tq","1","66","63","70","","","","","","","","","watch","bottle","filler","filler","f","true","",""
"null","<p style=""font-size: 50px;"">+</p>","null","html-keyboard-response","99","2.1.0","618025","F=YES, J=NO","son6fv03tq","1","66","63","70","","","","","","","","","","","","","","","",""
"null","audio/beep-329314.mp3","null","audio-keyboard-response","100","2.1.0","619560","F=YES, J=NO","son6fv03tq","1","66","63","70","","","","","","","","","","","","","","","",""
"null","audio/prisoner.wav","null","audio-keyboard-response","101","2.1.0","620089","F=YES, J=NO","son6fv03tq","1","66","63","70","","","","","","","","","","","","","","","",""
"390","
          <p id=""word"" style=""font-size: 40px;"">egotian</p>
          <p style=""font-size: 16px;"">F = YES &nbsp;&nbsp;&nbsp; J = NO</p>
        ","j","html-keyboard-response","102","2.1.0","620481","F=YES, J=NO","son6fv03tq","1","66","63","70","","","","","","","","","egotian","prisoner","pseudoword","pseudoword","j","true","",""
"null","<p style=""font-size: 50px;"">+</p>","null","html-keyboard-response","103","2.1.0","620787","F=YES, J=NO","son6fv03tq","1","66","63","70","","","","","","","","","","","","","","","",""
"null","audio/beep-329314.mp3","null","audio-keyboard-response","104","2.1.0","622320","F=YES, J=NO","son6fv03tq","1","66","63","70","","","","","","","","","","","","","","","",""
"null","audio/terrain.wav","null","audio-keyboard-response","105","2.1.0","622929","F=YES, J=NO","son6fv03tq","1","66","63","70","","","","","","","","","","","","","","","",""
"610","
          <p id=""word"" style=""font-size: 40px;"">twist</p>
          <p style=""font-size: 16px;"">F = YES &nbsp;&nbsp;&nbsp; J = NO</p>
        ","f","html-keyboard-response","106","2.1.0","623541","F=YES, J=NO","son6fv03tq","1","66","63","70","","","","","","","","","twist","terrain","filler","filler","f","true","",""
"null","<p style=""font-size: 50px;"">+</p>","null","html-keyboard-response","107","2.1.0","623852","F=YES, J=NO","son6fv03tq","1","66","63","70","","","","","","","","","","","","","","","",""
"null","audio/beep-329314.mp3","null","audio-keyboard-response","108","2.1.0","625380","F=YES, J=NO","son6fv03tq","1","66","63","70","","","","","","","","","","","","","","","",""
"null","audio/gift1.wav","null","audio-keyboard-response","109","2.1.0","625869","F=YES, J=NO","son6fv03tq","1","66","63","70","","","","","","","","","","","","","","","",""
"552","
          <p id=""word"" style=""font-size: 40px;"">protsh</p>
          <p style=""font-size: 16px;"">F = YES &nbsp;&nbsp;&nbsp; J = NO</p>
        ","j","html-keyboard-response","110","2.1.0","626423","F=YES, J=NO","son6fv03tq","1","66","63","70","","","","","","","","","protsh","gift1","pseudoword","pseudoword","j","true","",""
"null","<p style=""font-size: 50px;"">+</p>","null","html-keyboard-response","111","2.1.0","626737","F=YES, J=NO","son6fv03tq","1","66","63","70","","","","","","","","","","","","","","","",""
"null","audio/beep-329314.mp3","null","audio-keyboard-response","112","2.1.0","628280","F=YES, J=NO","son6fv03tq","1","66","63","70","","","","","","","","","","","","","","","",""
"null","audio/kettle1.wav","null","audio-keyboard-response","113","2.1.0","628809","F=YES, J=NO","son6fv03tq","1","66","63","70","","","","","","","","","","","","","","","",""
"600","
          <p id=""word"" style=""font-size: 40px;"">wrap</p>
          <p style=""font-size: 16px;"">F = YES &nbsp;&nbsp;&nbsp; J = NO</p>
        ","j","html-keyboard-response","114","2.1.0","629411","F=YES, J=NO","son6fv03tq","1","66","63","70","","","","","","","","","wrap","kettle1","filler","filler","f","false","",""
"1384","<p>Starting practice block 2 of 2. Press any key to continue.</p>"," ","html-keyboard-response","115","2.1.0","630796","F=YES, J=NO","son6fv03tq","1","66","63","70","","","","","","","","","","","","","","","",""
"null","<p style=""font-size: 50px;"">+</p>","null","html-keyboard-response","116","2.1.0","631113","F=YES, J=NO","son6fv03tq","1","66","63","70","","","","","","","","","","","","","","","",""
"null","audio/beep-329314.mp3","null","audio-keyboard-response","117","2.1.0","632640","F=YES, J=NO","son6fv03tq","1","66","63","70","","","","","","","","","","","","","","","",""
"null","audio/fence.wav","null","audio-keyboard-response","118","2.1.0","633349","F=YES, J=NO","son6fv03tq","1","66","63","70","","","","","","","","","","","","","","","",""
"690","
          <p id=""word"" style=""font-size: 40px;"">trim</p>
          <p style=""font-size: 16px;"">F = YES &nbsp;&nbsp;&nbsp; J = NO</p>
        ","j","html-keyboard-response","119","2.1.0","634040","F=YES, J=NO","son6fv03tq","1","66","63","70","","","","","","","","","trim","fence","filler","filler","f","false","",""
"null","<p style=""font-size: 50px;"">+</p>","null","html-keyboard-response","120","2.1.0","634350","F=YES, J=NO","son6fv03tq","1","66","63","70","","","","","","","","","","","","","","","",""
"null","audio/beep-329314.mp3","null","audio-keyboard-response","121","2.1.0","635880","F=YES, J=NO","son6fv03tq","1","66","63","70","","","","","","","","","","","","","","","",""
"null","audio/corpse1.wav","null","audio-keyboard-response","122","2.1.0","636569","F=YES, J=NO","son6fv03tq","1","66","63","70","","","","","","","","","","","","","","","",""
"644","
          <p id=""word"" style=""font-size: 40px;"">glonet</p>
          <p style=""font-size: 16px;"">F = YES &nbsp;&nbsp;&nbsp; J = NO</p>
        ","f","html-keyboard-response","123","2.1.0","637215","F=YES, J=NO","son6fv03tq","1","66","63","70","","","","","","","","","glonet","corpse1","pseudoword","pseudoword","j","false","",""
"null","<p style=""font-size: 50px;"">+</p>","null","html-keyboard-response","124","2.1.0","637531","F=YES, J=NO","son6fv03tq","1","66","63","70","","","","","","","","","","","","","","","",""
"null","audio/beep-329314.mp3","null","audio-keyboard-response","125","2.1.0","639060","F=YES, J=NO","son6fv03tq","1","66","63","70","","","","","","","","","","","","","","","",""
"null","audio/account1.wav","null","audio-keyboard-response","126","2.1.0","639749","F=YES, J=NO","son6fv03tq","1","66","63","70","","","","","","","","","","","","","","","",""
"386","
          <p id=""word"" style=""font-size: 40px;"">paint</p>
          <p style=""font-size: 16px;"">F = YES &nbsp;&nbsp;&nbsp; J = NO</p>
        ","j","html-keyboard-response","127","2.1.0","640137","F=YES, J=NO","son6fv03tq","1","66","63","70","","","","","","","","","paint","account1","filler","filler","f","false","",""
"null","<p style=""font-size: 50px;"">+</p>","null","html-keyboard-response","128","2.1.0","640449","F=YES, J=NO","son6fv03tq","1","66","63","70","","","","","","","","","","","","","","","",""
"null","audio/beep-329314.mp3","null","audio-keyboard-response","129","2.1.0","641980","F=YES, J=NO","son6fv03tq","1","66","63","70","","","","","","","","","","","","","","","",""
"null","audio/haste1.wav","null","audio-keyboard-response","130","2.1.0","642610","F=YES, J=NO","son6fv03tq","1","66","63","70","","","","","","","","","","","","","","","",""
"529","
          <p id=""word"" style=""font-size: 40px;"">coraconate</p>
          <p style=""font-size: 16px;"">F = YES &nbsp;&nbsp;&nbsp; J = NO</p>
        ","j","html-keyboard-response","131","2.1.0","643140","F=YES, J=NO","son6fv03tq","1","66","63","70","","","","","","","","","coraconate","haste1","pseudoword","pseudoword","j","true","",""
"null","<p style=""font-size: 50px;"">+</p>","null","html-keyboard-response","132","2.1.0","643448","F=YES, J=NO","son6fv03tq","1","66","63","70","","","","","","","","","","","","","","","",""
"null","audio/beep-329314.mp3","null","audio-keyboard-response","133","2.1.0","644979","F=YES, J=NO","son6fv03tq","1","66","63","70","","","","","","","","","","","","","","","",""
"null","audio/cave1.wav","null","audio-keyboard-response","134","2.1.0","645609","F=YES, J=NO","son6fv03tq","1","66","63","70","","","","","","","","","","","","","","","",""
"664","
          <p id=""word"" style=""font-size: 40px;"">blacket</p>
          <p style=""font-size: 16px;"">F = YES &nbsp;&nbsp;&nbsp; J = NO</p>
        ","j","html-keyboard-response","135","2.1.0","646275","F=YES, J=NO","son6fv03tq","1","66","63","70","","","","","","","","","blacket","cave1","pseudoword","pseudoword","j","true","",""
"null","<p style=""font-size: 50px;"">+</p>","null","html-keyboard-response","136","2.1.0","646591","F=YES, J=NO","son6fv03tq","1","66","63","70","","","","","","","","","","","","","","","",""
"null","audio/beep-329314.mp3","null","audio-keyboard-response","137","2.1.0","648120","F=YES, J=NO","son6fv03tq","1","66","63","70","","","","","","","","","","","","","","","",""
"null","audio/bridge.wav","null","audio-keyboard-response","138","2.1.0","648729","F=YES, J=NO","son6fv03tq","1","66","63","70","","","","","","","","","","","","","","","",""
"520","
          <p id=""word"" style=""font-size: 40px;"">crack</p>
          <p style=""font-size: 16px;"">F = YES &nbsp;&nbsp;&nbsp; J = NO</p>
        ","j","html-keyboard-response","139","2.1.0","649251","F=YES, J=NO","son6fv03tq","1","66","63","70","","","","","","","","","crack","bridge","filler","filler","f","false","",""
"null","<p style=""font-size: 50px;"">+</p>","null","html-keyboard-response","140","2.1.0","649561","F=YES, J=NO","son6fv03tq","1","66","63","70","","","","","","","","","","","","","","","",""
"null","audio/beep-329314.mp3","null","audio-keyboard-response","141","2.1.0","651099","F=YES, J=NO","son6fv03tq","1","66","63","70","","","","","","","","","","","","","","","",""
"null","audio/cash1.wav","null","audio-keyboard-response","142","2.1.0","651729","F=YES, J=NO","son6fv03tq","1","66","63","70","","","","","","","","","","","","","","","",""
"554","
          <p id=""word"" style=""font-size: 40px;"">splear</p>
          <p style=""font-size: 16px;"">F = YES &nbsp;&nbsp;&nbsp; J = NO</p>
        ","j","html-keyboard-response","143","2.1.0","652285","F=YES, J=NO","son6fv03tq","1","66","63","70","","","","","","","","","splear","cash1","pseudoword","pseudoword","j","true","",""
"null","<p style=""font-size: 50px;"">+</p>","null","html-keyboard-response","144","2.1.0","652592","F=YES, J=NO","son6fv03tq","1","66","63","70","","","","","","","","","","","","","","","",""
"null","audio/beep-329314.mp3","null","audio-keyboard-response","145","2.1.0","654119","F=YES, J=NO","son6fv03tq","1","66","63","70","","","","","","","","","","","","","","","",""
"null","audio/bomb1.wav","null","audio-keyboard-response","146","2.1.0","654590","F=YES, J=NO","son6fv03tq","1","66","63","70","","","","","","","","","","","","","","","",""
"542","
          <p id=""word"" style=""font-size: 40px;"">clean</p>
          <p style=""font-size: 16px;"">F = YES &nbsp;&nbsp;&nbsp; J = NO</p>
        ","f","html-keyboard-response","147","2.1.0","655134","F=YES, J=NO","son6fv03tq","1","66","63","70","","","","","","","","","clean","bomb1","filler","filler","f","true","",""
"null","<p style=""font-size: 50px;"">+</p>","null","html-keyboard-response","148","2.1.0","655445","F=YES, J=NO","son6fv03tq","1","66","63","70","","","","","","","","","","","","","","","",""
"null","audio/beep-329314.mp3","null","audio-keyboard-response","149","2.1.0","656979","F=YES, J=NO","son6fv03tq","1","66","63","70","","","","","","","","","","","","","","","",""
"null","audio/ankle1.wav","null","audio-keyboard-response","150","2.1.0","657509","F=YES, J=NO","son6fv03tq","1","66","63","70","","","","","","","","","","","","","","","",""
"584","
          <p id=""word"" style=""font-size: 40px;"">kick</p>
          <p style=""font-size: 16px;"">F = YES &nbsp;&nbsp;&nbsp; J = NO</p>
        ","f","html-keyboard-response","151","2.1.0","658095","F=YES, J=NO","son6fv03tq","1","66","63","70","","","","","","","","","kick","ankle1","filler","filler","f","true","",""
"null","<p style=""font-size: 50px;"">+</p>","null","html-keyboard-response","152","2.1.0","658403","F=YES, J=NO","son6fv03tq","1","66","63","70","","","","","","","","","","","","","","","",""
"null","audio/beep-329314.mp3","null","audio-keyboard-response","153","2.1.0","659941","F=YES, J=NO","son6fv03tq","1","66","63","70","","","","","","","","","","","","","","","",""
"null","audio/floor.wav","null","audio-keyboard-response","154","2.1.0","660549","F=YES, J=NO","son6fv03tq","1","66","63","70","","","","","","","","","","","","","","","",""
"558","
          <p id=""word"" style=""font-size: 40px;"">mop</p>
          <p style=""font-size: 16px;"">F = YES &nbsp;&nbsp;&nbsp; J = NO</p>
        ","j","html-keyboard-response","155","2.1.0","661109","F=YES, J=NO","son6fv03tq","1","66","63","70","","","","","","","","","mop","floor","filler","filler","f","false","",""
"null","<p style=""font-size: 50px;"">+</p>","null","html-keyboard-response","156","2.1.0","661416","F=YES, J=NO","son6fv03tq","1","66","63","70","","","","","","","","","","","","","","","",""
"null","audio/beep-329314.mp3","null","audio-keyboard-response","157","2.1.0","662960","F=YES, J=NO","son6fv03tq","1","66","63","70","","","","","","","","","","","","","","","",""
"null","audio/pattern.wav","null","audio-keyboard-response","158","2.1.0","663489","F=YES, J=NO","son6fv03tq","1","66","63","70","","","","","","","","","","","","","","","",""
"597","
          <p id=""word"" style=""font-size: 40px;"">tug</p>
          <p style=""font-size: 16px;"">F = YES &nbsp;&nbsp;&nbsp; J = NO</p>
        ","j","html-keyboard-response","159","2.1.0","664088","F=YES, J=NO","son6fv03tq","1","66","63","70","","","","","","","","","tug","pattern","filler","filler","f","false","",""
"null","<p style=""font-size: 50px;"">+</p>","null","html-keyboard-response","160","2.1.0","664404","F=YES, J=NO","son6fv03tq","1","66","63","70","","","","","","","","","","","","","","","",""
"null","audio/beep-329314.mp3","null","audio-keyboard-response","161","2.1.0","665940","F=YES, J=NO","son6fv03tq","1","66","63","70","","","","","","","","","","","","","","","",""
"null","audio/brain.wav","null","audio-keyboard-response","162","2.1.0","666469","F=YES, J=NO","son6fv03tq","1","66","63","70","","","","","","","","","","","","","","","",""
"499","
          <p id=""word"" style=""font-size: 40px;"">throw</p>
          <p style=""font-size: 16px;"">F = YES &nbsp;&nbsp;&nbsp; J = NO</p>
        ","f","html-keyboard-response","163","2.1.0","666970","F=YES, J=NO","son6fv03tq","1","66","63","70","","","","","","","","","throw","brain","filler","filler","f","true","",""
"7895","
    <div style=""max-width: 800px; margin: auto; text-align: left;"">
      <h2>Part 2: Main Trials</h2>
      <p>Great job on the practice trials!</p>
      <p>You will now begin the <strong>main set of trials</strong>.</p>
      <p>Remember your key assignments:</p>
      <ul>
        <li><strong>F</strong> = YES (real English word)</li>
        <li><strong>J</strong> = NO (not a real English word)</li>
      </ul>
      <p>Try to respond as <strong>quickly and accurately</strong> as possible.</p>
      <p style=""margin-top: 2em;"">Press any key to begin the main trials.</p>
    </div>
  "," ","html-keyboard-response","164","2.1.0","674868","F=YES, J=NO","son6fv03tq","1","66","63","70","","","","","","","","","","","","","","","",""
"2672","<p>Starting main block 1 of 8. Press any key to continue.</p>"," ","html-keyboard-response","165","2.1.0","677541","F=YES, J=NO","son6fv03tq","1","66","63","70","","","","","","","","","","","","","","","",""
"null","<p style=""font-size: 50px;"">+</p>","null","html-keyboard-response","166","2.1.0","677860","F=YES, J=NO","son6fv03tq","1","66","63","70","","","","","","","","","","","","","","","",""
"null","audio/beep-329314.mp3","null","audio-keyboard-response","167","2.1.0","679370","F=YES, J=NO","son6fv03tq","1","66","63","70","","","","","","","","","","","","","","","",""
"null","audio/gift1.wav","null","audio-keyboard-response","168","2.1.0","679800","F=YES, J=NO","son6fv03tq","1","66","63","70","","","","","","","","","","","","","","","",""
"738","
          <p id=""word"" style=""font-size: 40px;"">give</p>
          <p style=""font-size: 16px;"">F = YES &nbsp;&nbsp;&nbsp; J = NO</p>
        ","f","html-keyboard-response","169","2.1.0","680540","F=YES, J=NO","son6fv03tq","1","66","63","70","","","","","","","","","give","gift1","literal","experimental","f","true","",""
"null","<p style=""font-size: 50px;"">+</p>","null","html-keyboard-response","170","2.1.0","680845","F=YES, J=NO","son6fv03tq","1","66","63","70","","","","","","","","","","","","","","","",""
"null","audio/beep-329314.mp3","null","audio-keyboard-response","171","2.1.0","682370","F=YES, J=NO","son6fv03tq","1","66","63","70","","","","","","","","","","","","","","","",""
"null","audio/window1.wav","null","audio-keyboard-response","172","2.1.0","682981","F=YES, J=NO","son6fv03tq","1","66","63","70","","","","","","","","","","","","","","","",""
"758","
          <p id=""word"" style=""font-size: 40px;"">toss</p>
          <p style=""font-size: 16px;"">F = YES &nbsp;&nbsp;&nbsp; J = NO</p>
        ","j","html-keyboard-response","173","2.1.0","683741","F=YES, J=NO","son6fv03tq","1","66","63","70","","","","","","","","","toss","window1","filler","filler","f","false","",""
"null","<p style=""font-size: 50px;"">+</p>","null","html-keyboard-response","174","2.1.0","684047","F=YES, J=NO","son6fv03tq","1","66","63","70","","","","","","","","","","","","","","","",""
"null","audio/beep-329314.mp3","null","audio-keyboard-response","175","2.1.0","685571","F=YES, J=NO","son6fv03tq","1","66","63","70","","","","","","","","","","","","","","","",""
"null","audio/desire.wav","null","audio-keyboard-response","176","2.1.0","686200","F=YES, J=NO","son6fv03tq","1","66","63","70","","","","","","","","","","","","","","","",""
"689","
          <p id=""word"" style=""font-size: 40px;"">nophed</p>
          <p style=""font-size: 16px;"">F = YES &nbsp;&nbsp;&nbsp; J = NO</p>
        ","j","html-keyboard-response","177","2.1.0","686891","F=YES, J=NO","son6fv03tq","1","66","63","70","","","","","","","","","nophed","desire","pseudoword","pseudoword","j","true","",""
"null","<p style=""font-size: 50px;"">+</p>","null","html-keyboard-response","178","2.1.0","687199","F=YES, J=NO","son6fv03tq","1","66","63","70","","","","","","","","","","","","","","","",""
"null","audio/beep-329314.mp3","null","audio-keyboard-response","179","2.1.0","688730","F=YES, J=NO","son6fv03tq","1","66","63","70","","","","","","","","","","","","","","","",""
"null","audio/belief.wav","null","audio-keyboard-response","180","2.1.0","689360","F=YES, J=NO","son6fv03tq","1","66","63","70","","","","","","","","","","","","","","","",""
"488","
          <p id=""word"" style=""font-size: 40px;"">read</p>
          <p style=""font-size: 16px;"">F = YES &nbsp;&nbsp;&nbsp; J = NO</p>
        ","f","html-keyboard-response","181","2.1.0","689850","F=YES, J=NO","son6fv03tq","1","66","63","70","","","","","","","","","read","belief","filler","filler","f","true","",""
"null","<p style=""font-size: 50px;"">+</p>","null","html-keyboard-response","182","2.1.0","690153","F=YES, J=NO","son6fv03tq","1","66","63","70","","","","","","","","","","","","","","","",""
"null","audio/beep-329314.mp3","null","audio-keyboard-response","183","2.1.0","691690","F=YES, J=NO","son6fv03tq","1","66","63","70","","","","","","","","","","","","","","","",""
"null","audio/emotion.wav","null","audio-keyboard-response","184","2.1.0","692360","F=YES, J=NO","son6fv03tq","1","66","63","70","","","","","","","","","","","","","","","",""
"551","
          <p id=""word"" style=""font-size: 40px;"">devering</p>
          <p style=""font-size: 16px;"">F = YES &nbsp;&nbsp;&nbsp; J = NO</p>
        ","j","html-keyboard-response","185","2.1.0","692912","F=YES, J=NO","son6fv03tq","1","66","63","70","","","","","","","","","devering","emotion","pseudoword","pseudoword","j","true","",""
"null","<p style=""font-size: 50px;"">+</p>","null","html-keyboard-response","186","2.1.0","693218","F=YES, J=NO","son6fv03tq","1","66","63","70","","","","","","","","","","","","","","","",""
"null","audio/beep-329314.mp3","null","audio-keyboard-response","187","2.1.0","694750","F=YES, J=NO","son6fv03tq","1","66","63","70","","","","","","","","","","","","","","","",""
"null","audio/foot1.wav","null","audio-keyboard-response","188","2.1.0","695300","F=YES, J=NO","son6fv03tq","1","66","63","70","","","","","","","","","","","","","","","",""
"610","
          <p id=""word"" style=""font-size: 40px;"">thrutt</p>
          <p style=""font-size: 16px;"">F = YES &nbsp;&nbsp;&nbsp; J = NO</p>
        ","j","html-keyboard-response","189","2.1.0","695911","F=YES, J=NO","son6fv03tq","1","66","63","70","","","","","","","","","thrutt","foot1","pseudoword","pseudoword","j","true","",""
"null","<p style=""font-size: 50px;"">+</p>","null","html-keyboard-response","190","2.1.0","696213","F=YES, J=NO","son6fv03tq","1","66","63","70","","","","","","","","","","","","","","","",""
"null","audio/beep-329314.mp3","null","audio-keyboard-response","191","2.1.0","697750","F=YES, J=NO","son6fv03tq","1","66","63","70","","","","","","","","","","","","","","","",""
"null","audio/planet1.wav","null","audio-keyboard-response","192","2.1.0","698341","F=YES, J=NO","son6fv03tq","1","66","63","70","","","","","","","","","","","","","","","",""
"606","
          <p id=""word"" style=""font-size: 40px;"">cratched</p>
          <p style=""font-size: 16px;"">F = YES &nbsp;&nbsp;&nbsp; J = NO</p>
        ","j","html-keyboard-response","193","2.1.0","698949","F=YES, J=NO","son6fv03tq","1","66","63","70","","","","","","","","","cratched","planet1","pseudoword","pseudoword","j","true","",""
"null","<p style=""font-size: 50px;"">+</p>","null","html-keyboard-response","194","2.1.0","699254","F=YES, J=NO","son6fv03tq","1","66","63","70","","","","","","","","","","","","","","","",""
"null","audio/beep-329314.mp3","null","audio-keyboard-response","195","2.1.0","700791","F=YES, J=NO","son6fv03tq","1","66","63","70","","","","","","","","","","","","","","","",""
"null","audio/voice.wav","null","audio-keyboard-response","196","2.1.0","701381","F=YES, J=NO","son6fv03tq","1","66","63","70","","","","","","","","","","","","","","","",""
"548","
          <p id=""word"" style=""font-size: 40px;"">grintle</p>
          <p style=""font-size: 16px;"">F = YES &nbsp;&nbsp;&nbsp; J = NO</p>
        ","j","html-keyboard-response","197","2.1.0","701930","F=YES, J=NO","son6fv03tq","1","66","63","70","","","","","","","","","grintle","voice","pseudoword","pseudoword","j","true","",""
"null","<p style=""font-size: 50px;"">+</p>","null","html-keyboard-response","198","2.1.0","702245","F=YES, J=NO","son6fv03tq","1","66","63","70","","","","","","","","","","","","","","","",""
"null","audio/beep-329314.mp3","null","audio-keyboard-response","199","2.1.0","703770","F=YES, J=NO","son6fv03tq","1","66","63","70","","","","","","","","","","","","","","","",""
"null","audio/alarm1.wav","null","audio-keyboard-response","200","2.1.0","704380","F=YES, J=NO","son6fv03tq","1","66","63","70","","","","","","","","","","","","","","","",""
"526","
          <p id=""word"" style=""font-size: 40px;"">swetp</p>
          <p style=""font-size: 16px;"">F = YES &nbsp;&nbsp;&nbsp; J = NO</p>
        ","j","html-keyboard-response","201","2.1.0","704907","F=YES, J=NO","son6fv03tq","1","66","63","70","","","","","","","","","swetp","alarm1","pseudoword","pseudoword","j","true","",""
"null","<p style=""font-size: 50px;"">+</p>","null","html-keyboard-response","202","2.1.0","705221","F=YES, J=NO","son6fv03tq","1","66","63","70","","","","","","","","","","","","","","","",""
"null","audio/beep-329314.mp3","null","audio-keyboard-response","203","2.1.0","706750","F=YES, J=NO","son6fv03tq","1","66","63","70","","","","","","","","","","","","","","","",""
"null","audio/handle.wav","null","audio-keyboard-response","204","2.1.0","707400","F=YES, J=NO","son6fv03tq","1","66","63","70","","","","","","","","","","","","","","","",""
"451","
          <p id=""word"" style=""font-size: 40px;"">moutes</p>
          <p style=""font-size: 16px;"">F = YES &nbsp;&nbsp;&nbsp; J = NO</p>
        ","j","html-keyboard-response","205","2.1.0","707852","F=YES, J=NO","son6fv03tq","1","66","63","70","","","","","","","","","moutes","handle","pseudoword","pseudoword","j","true","",""
"null","<p style=""font-size: 50px;"">+</p>","null","html-keyboard-response","206","2.1.0","708161","F=YES, J=NO","son6fv03tq","1","66","63","70","","","","","","","","","","","","","","","",""
"null","audio/beep-329314.mp3","null","audio-keyboard-response","207","2.1.0","709689","F=YES, J=NO","son6fv03tq","1","66","63","70","","","","","","","","","","","","","","","",""
"null","audio/relief.wav","null","audio-keyboard-response","208","2.1.0","710340","F=YES, J=NO","son6fv03tq","1","66","63","70","","","","","","","","","","","","","","","",""
"519","
          <p id=""word"" style=""font-size: 40px;"">grigg</p>
          <p style=""font-size: 16px;"">F = YES &nbsp;&nbsp;&nbsp; J = NO</p>
        ","j","html-keyboard-response","209","2.1.0","710860","F=YES, J=NO","son6fv03tq","1","66","63","70","","","","","","","","","grigg","relief","pseudoword","pseudoword","j","true","",""
"null","<p style=""font-size: 50px;"">+</p>","null","html-keyboard-response","210","2.1.0","711169","F=YES, J=NO","son6fv03tq","1","66","63","70","","","","","","","","","","","","","","","",""
"null","audio/beep-329314.mp3","null","audio-keyboard-response","211","2.1.0","712710","F=YES, J=NO","son6fv03tq","1","66","63","70","","","","","","","","","","","","","","","",""
"null","audio/ego.wav","null","audio-keyboard-response","212","2.1.0","713419","F=YES, J=NO","son6fv03tq","1","66","63","70","","","","","","","","","","","","","","","",""
"539","
          <p id=""word"" style=""font-size: 40px;"">bruite</p>
          <p style=""font-size: 16px;"">F = YES &nbsp;&nbsp;&nbsp; J = NO</p>
        ","f","html-keyboard-response","213","2.1.0","713959","F=YES, J=NO","son6fv03tq","1","66","63","70","","","","","","","","","bruite","ego","pseudoword","pseudoword","j","false","",""
"null","<p style=""font-size: 50px;"">+</p>","null","html-keyboard-response","214","2.1.0","714275","F=YES, J=NO","son6fv03tq","1","66","63","70","","","","","","","","","","","","","","","",""
"null","audio/beep-329314.mp3","null","audio-keyboard-response","215","2.1.0","715810","F=YES, J=NO","son6fv03tq","1","66","63","70","","","","","","","","","","","","","","","",""
"null","audio/tunnel.wav","null","audio-keyboard-response","216","2.1.0","716240","F=YES, J=NO","son6fv03tq","1","66","63","70","","","","","","","","","","","","","","","",""
"675","
          <p id=""word"" style=""font-size: 40px;"">gred</p>
          <p style=""font-size: 16px;"">F = YES &nbsp;&nbsp;&nbsp; J = NO</p>
        ","j","html-keyboard-response","217","2.1.0","716917","F=YES, J=NO","son6fv03tq","1","66","63","70","","","","","","","","","gred","tunnel","pseudoword","pseudoword","j","true","",""
"null","<p style=""font-size: 50px;"">+</p>","null","html-keyboard-response","218","2.1.0","717223","F=YES, J=NO","son6fv03tq","1","66","63","70","","","","","","","","","","","","","","","",""
"null","audio/beep-329314.mp3","null","audio-keyboard-response","219","2.1.0","718750","F=YES, J=NO","son6fv03tq","1","66","63","70","","","","","","","","","","","","","","","",""
"null","audio/inch1.wav","null","audio-keyboard-response","220","2.1.0","719400","F=YES, J=NO","son6fv03tq","1","66","63","70","","","","","","","","","","","","","","","",""
"665","
          <p id=""word"" style=""font-size: 40px;"">lose</p>
          <p style=""font-size: 16px;"">F = YES &nbsp;&nbsp;&nbsp; J = NO</p>
        ","f","html-keyboard-response","221","2.1.0","720067","F=YES, J=NO","son6fv03tq","1","66","63","70","","","","","","","","","lose","inch1","metaphor","experimental","f","true","",""
"null","<p style=""font-size: 50px;"">+</p>","null","html-keyboard-response","222","2.1.0","720370","F=YES, J=NO","son6fv03tq","1","66","63","70","","","","","","","","","","","","","","","",""
"null","audio/beep-329314.mp3","null","audio-keyboard-response","223","2.1.0","721910","F=YES, J=NO","son6fv03tq","1","66","63","70","","","","","","","","","","","","","","","",""
"null","audio/topic.wav","null","audio-keyboard-response","224","2.1.0","722480","F=YES, J=NO","son6fv03tq","1","66","63","70","","","","","","","","","","","","","","","",""
"562","
          <p id=""word"" style=""font-size: 40px;"">infortuitist</p>
          <p style=""font-size: 16px;"">F = YES &nbsp;&nbsp;&nbsp; J = NO</p>
        ","j","html-keyboard-response","225","2.1.0","723044","F=YES, J=NO","son6fv03tq","1","66","63","70","","","","","","","","","infortuitist","topic","pseudoword","pseudoword","j","true","",""
"null","<p style=""font-size: 50px;"">+</p>","null","html-keyboard-response","226","2.1.0","723345","F=YES, J=NO","son6fv03tq","1","66","63","70","","","","","","","","","","","","","","","",""
"null","audio/beep-329314.mp3","null","audio-keyboard-response","227","2.1.0","724870","F=YES, J=NO","son6fv03tq","1","66","63","70","","","","","","","","","","","","","","","",""
"null","audio/mile1.wav","null","audio-keyboard-response","228","2.1.0","725400","F=YES, J=NO","son6fv03tq","1","66","63","70","","","","","","","","","","","","","","","",""
"552","
          <p id=""word"" style=""font-size: 40px;"">writch</p>
          <p style=""font-size: 16px;"">F = YES &nbsp;&nbsp;&nbsp; J = NO</p>
        ","j","html-keyboard-response","229","2.1.0","725954","F=YES, J=NO","son6fv03tq","1","66","63","70","","","","","","","","","writch","mile1","pseudoword","pseudoword","j","true","",""
"46582","<p>Excellent! You have finished block 1 of 8.</p>
                     <p>Feel free to take a 30 second break.</p>
                     <p>Press any key when you're ready to continue.</p>"," ","html-keyboard-response","230","2.1.0","772537","F=YES, J=NO","son6fv03tq","1","66","63","70","","","","","","","","","","","","","","","",""
"1424","<p>Starting main block 2 of 8. Press any key to continue.</p>"," ","html-keyboard-response","231","2.1.0","773962","F=YES, J=NO","son6fv03tq","1","66","63","70","","","","","","","","","","","","","","","",""
"null","<p style=""font-size: 50px;"">+</p>","null","html-keyboard-response","232","2.1.0","774273","F=YES, J=NO","son6fv03tq","1","66","63","70","","","","","","","","","","","","","","","",""
"null","audio/beep-329314.mp3","null","audio-keyboard-response","233","2.1.0","775813","F=YES, J=NO","son6fv03tq","1","66","63","70","","","","","","","","","","","","","","","",""
"null","audio/dome.wav","null","audio-keyboard-response","234","2.1.0","776223","F=YES, J=NO","son6fv03tq","1","66","63","70","","","","","","","","","","","","","","","",""
"694","
          <p id=""word"" style=""font-size: 40px;"">scrupliness</p>
          <p style=""font-size: 16px;"">F = YES &nbsp;&nbsp;&nbsp; J = NO</p>
        ","j","html-keyboard-response","235","2.1.0","776919","F=YES, J=NO","son6fv03tq","1","66","63","70","","","","","","","","","scrupliness","dome","pseudoword","pseudoword","j","true","",""
"null","<p style=""font-size: 50px;"">+</p>","null","html-keyboard-response","236","2.1.0","777223","F=YES, J=NO","son6fv03tq","1","66","63","70","","","","","","","","","","","","","","","",""
"null","audio/beep-329314.mp3","null","audio-keyboard-response","237","2.1.0","778753","F=YES, J=NO","son6fv03tq","1","66","63","70","","","","","","","","","","","","","","","",""
"null","audio/tomato.wav","null","audio-keyboard-response","238","2.1.0","779463","F=YES, J=NO","son6fv03tq","1","66","63","70","","","","","","","","","","","","","","","",""
"592","
          <p id=""word"" style=""font-size: 40px;"">gladies</p>
          <p style=""font-size: 16px;"">F = YES &nbsp;&nbsp;&nbsp; J = NO</p>
        ","j","html-keyboard-response","239","2.1.0","780056","F=YES, J=NO","son6fv03tq","1","66","63","70","","","","","","","","","gladies","tomato","pseudoword","pseudoword","j","true","",""
"null","<p style=""font-size: 50px;"">+</p>","null","html-keyboard-response","240","2.1.0","780360","F=YES, J=NO","son6fv03tq","1","66","63","70","","","","","","","","","","","","","","","",""
"null","audio/beep-329314.mp3","null","audio-keyboard-response","241","2.1.0","781893","F=YES, J=NO","son6fv03tq","1","66","63","70","","","","","","","","","","","","","","","",""
"null","audio/uncle1.wav","null","audio-keyboard-response","242","2.1.0","782383","F=YES, J=NO","son6fv03tq","1","66","63","70","","","","","","","","","","","","","","","",""
"790","
          <p id=""word"" style=""font-size: 40px;"">dramble</p>
          <p style=""font-size: 16px;"">F = YES &nbsp;&nbsp;&nbsp; J = NO</p>
        ","j","html-keyboard-response","243","2.1.0","783175","F=YES, J=NO","son6fv03tq","1","66","63","70","","","","","","","","","dramble","uncle1","pseudoword","pseudoword","j","true","",""
"null","<p style=""font-size: 50px;"">+</p>","null","html-keyboard-response","244","2.1.0","783488","F=YES, J=NO","son6fv03tq","1","66","63","70","","","","","","","","","","","","","","","",""
"null","audio/beep-329314.mp3","null","audio-keyboard-response","245","2.1.0","785013","F=YES, J=NO","son6fv03tq","1","66","63","70","","","","","","","","","","","","","","","",""
"null","audio/pain1.wav","null","audio-keyboard-response","246","2.1.0","785483","F=YES, J=NO","son6fv03tq","1","66","63","70","","","","","","","","","","","","","","","",""
"489","
          <p id=""word"" style=""font-size: 40px;"">sell</p>
          <p style=""font-size: 16px;"">F = YES &nbsp;&nbsp;&nbsp; J = NO</p>
        ","f","html-keyboard-response","247","2.1.0","785973","F=YES, J=NO","son6fv03tq","1","66","63","70","","","","","","","","","sell","pain1","unrelated","experimental","f","true","",""
"null","<p style=""font-size: 50px;"">+</p>","null","html-keyboard-response","248","2.1.0","786278","F=YES, J=NO","son6fv03tq","1","66","63","70","","","","","","","","","","","","","","","",""
"null","audio/beep-329314.mp3","null","audio-keyboard-response","249","2.1.0","787813","F=YES, J=NO","son6fv03tq","1","66","63","70","","","","","","","","","","","","","","","",""
"null","audio/ankle1.wav","null","audio-keyboard-response","250","2.1.0","788323","F=YES, J=NO","son6fv03tq","1","66","63","70","","","","","","","","","","","","","","","",""
"682","
          <p id=""word"" style=""font-size: 40px;"">hurt</p>
          <p style=""font-size: 16px;"">F = YES &nbsp;&nbsp;&nbsp; J = NO</p>
        ","f","html-keyboard-response","251","2.1.0","789006","F=YES, J=NO","son6fv03tq","1","66","63","70","","","","","","","","","hurt","ankle1","literal","experimental","f","true","",""
"null","<p style=""font-size: 50px;"">+</p>","null","html-keyboard-response","252","2.1.0","789322","F=YES, J=NO","son6fv03tq","1","66","63","70","","","","","","","","","","","","","","","",""
"null","audio/beep-329314.mp3","null","audio-keyboard-response","253","2.1.0","790853","F=YES, J=NO","son6fv03tq","1","66","63","70","","","","","","","","","","","","","","","",""
"null","audio/menu.wav","null","audio-keyboard-response","254","2.1.0","791443","F=YES, J=NO","son6fv03tq","1","66","63","70","","","","","","","","","","","","","","","",""
"629","
          <p id=""word"" style=""font-size: 40px;"">slice</p>
          <p style=""font-size: 16px;"">F = YES &nbsp;&nbsp;&nbsp; J = NO</p>
        ","j","html-keyboard-response","255","2.1.0","792074","F=YES, J=NO","son6fv03tq","1","66","63","70","","","","","","","","","slice","menu","filler","filler","f","false","",""
"null","<p style=""font-size: 50px;"">+</p>","null","html-keyboard-response","256","2.1.0","792377","F=YES, J=NO","son6fv03tq","1","66","63","70","","","","","","","","","","","","","","","",""
"null","audio/beep-329314.mp3","null","audio-keyboard-response","257","2.1.0","793911","F=YES, J=NO","son6fv03tq","1","66","63","70","","","","","","","","","","","","","","","",""
"null","audio/smirk1.wav","null","audio-keyboard-response","258","2.1.0","794643","F=YES, J=NO","son6fv03tq","1","66","63","70","","","","","","","","","","","","","","","",""
"576","
          <p id=""word"" style=""font-size: 40px;"">wipe</p>
          <p style=""font-size: 16px;"">F = YES &nbsp;&nbsp;&nbsp; J = NO</p>
        ","j","html-keyboard-response","259","2.1.0","795220","F=YES, J=NO","son6fv03tq","1","66","63","70","","","","","","","","","wipe","smirk1","metaphor","experimental","f","false","",""
"null","<p style=""font-size: 50px;"">+</p>","null","html-keyboard-response","260","2.1.0","795529","F=YES, J=NO","son6fv03tq","1","66","63","70","","","","","","","","","","","","","","","",""
"null","audio/beep-329314.mp3","null","audio-keyboard-response","261","2.1.0","797053","F=YES, J=NO","son6fv03tq","1","66","63","70","","","","","","","","","","","","","","","",""
"null","audio/pig.wav","null","audio-keyboard-response","262","2.1.0","797443","F=YES, J=NO","son6fv03tq","1","66","63","70","","","","","","","","","","","","","","","",""
"749","
          <p id=""word"" style=""font-size: 40px;"">feed</p>
          <p style=""font-size: 16px;"">F = YES &nbsp;&nbsp;&nbsp; J = NO</p>
        ","f","html-keyboard-response","263","2.1.0","798193","F=YES, J=NO","son6fv03tq","1","66","63","70","","","","","","","","","feed","pig","literal","experimental","f","true","",""
"null","<p style=""font-size: 50px;"">+</p>","null","html-keyboard-response","264","2.1.0","798494","F=YES, J=NO","son6fv03tq","1","66","63","70","","","","","","","","","","","","","","","",""
"null","audio/beep-329314.mp3","null","audio-keyboard-response","265","2.1.0","800033","F=YES, J=NO","son6fv03tq","1","66","63","70","","","","","","","","","","","","","","","",""
"null","audio/terrain.wav","null","audio-keyboard-response","266","2.1.0","800601","F=YES, J=NO","son6fv03tq","1","66","63","70","","","","","","","","","","","","","","","",""
"717","
          <p id=""word"" style=""font-size: 40px;"">navigate</p>
          <p style=""font-size: 16px;"">F = YES &nbsp;&nbsp;&nbsp; J = NO</p>
        ","f","html-keyboard-response","267","2.1.0","801319","F=YES, J=NO","son6fv03tq","1","66","63","70","","","","","","","","","navigate","terrain","literal","experimental","f","true","",""
"null","<p style=""font-size: 50px;"">+</p>","null","html-keyboard-response","268","2.1.0","801624","F=YES, J=NO","son6fv03tq","1","66","63","70","","","","","","","","","","","","","","","",""
"null","audio/beep-329314.mp3","null","audio-keyboard-response","269","2.1.0","803153","F=YES, J=NO","son6fv03tq","1","66","63","70","","","","","","","","","","","","","","","",""
"null","audio/beach1.wav","null","audio-keyboard-response","270","2.1.0","803784","F=YES, J=NO","son6fv03tq","1","66","63","70","","","","","","","","","","","","","","","",""
"562","
          <p id=""word"" style=""font-size: 40px;"">drive</p>
          <p style=""font-size: 16px;"">F = YES &nbsp;&nbsp;&nbsp; J = NO</p>
        ","f","html-keyboard-response","271","2.1.0","804348","F=YES, J=NO","son6fv03tq","1","66","63","70","","","","","","","","","drive","beach1","filler","filler","f","true","",""
"null","<p style=""font-size: 50px;"">+</p>","null","html-keyboard-response","272","2.1.0","804665","F=YES, J=NO","son6fv03tq","1","66","63","70","","","","","","","","","","","","","","","",""
"null","audio/beep-329314.mp3","null","audio-keyboard-response","273","2.1.0","806192","F=YES, J=NO","son6fv03tq","1","66","63","70","","","","","","","","","","","","","","","",""
"null","audio/ship.wav","null","audio-keyboard-response","274","2.1.0","806863","F=YES, J=NO","son6fv03tq","1","66","63","70","","","","","","","","","","","","","","","",""
"640","
          <p id=""word"" style=""font-size: 40px;"">scrap</p>
          <p style=""font-size: 16px;"">F = YES &nbsp;&nbsp;&nbsp; J = NO</p>
        ","f","html-keyboard-response","275","2.1.0","807504","F=YES, J=NO","son6fv03tq","1","66","63","70","","","","","","","","","scrap","ship","literal","experimental","f","true","",""
"null","<p style=""font-size: 50px;"">+</p>","null","html-keyboard-response","276","2.1.0","807809","F=YES, J=NO","son6fv03tq","1","66","63","70","","","","","","","","","","","","","","","",""
"null","audio/beep-329314.mp3","null","audio-keyboard-response","277","2.1.0","809333","F=YES, J=NO","son6fv03tq","1","66","63","70","","","","","","","","","","","","","","","",""
"null","audio/trust.wav","null","audio-keyboard-response","278","2.1.0","809983","F=YES, J=NO","son6fv03tq","1","66","63","70","","","","","","","","","","","","","","","",""
"483","
          <p id=""word"" style=""font-size: 40px;"">build</p>
          <p style=""font-size: 16px;"">F = YES &nbsp;&nbsp;&nbsp; J = NO</p>
        ","f","html-keyboard-response","279","2.1.0","810468","F=YES, J=NO","son6fv03tq","1","66","63","70","","","","","","","","","build","trust","metaphor","experimental","f","true","",""
"null","<p style=""font-size: 50px;"">+</p>","null","html-keyboard-response","280","2.1.0","810776","F=YES, J=NO","son6fv03tq","1","66","63","70","","","","","","","","","","","","","","","",""
"null","audio/beep-329314.mp3","null","audio-keyboard-response","281","2.1.0","812313","F=YES, J=NO","son6fv03tq","1","66","63","70","","","","","","","","","","","","","","","",""
"null","audio/size1.wav","null","audio-keyboard-response","282","2.1.0","813063","F=YES, J=NO","son6fv03tq","1","66","63","70","","","","","","","","","","","","","","","",""
"470","
          <p id=""word"" style=""font-size: 40px;"">clear</p>
          <p style=""font-size: 16px;"">F = YES &nbsp;&nbsp;&nbsp; J = NO</p>
        ","f","html-keyboard-response","283","2.1.0","813534","F=YES, J=NO","son6fv03tq","1","66","63","70","","","","","","","","","clear","size1","unrelated","experimental","f","true","",""
"null","<p style=""font-size: 50px;"">+</p>","null","html-keyboard-response","284","2.1.0","813851","F=YES, J=NO","son6fv03tq","1","66","63","70","","","","","","","","","","","","","","","",""
"null","audio/beep-329314.mp3","null","audio-keyboard-response","285","2.1.0","815393","F=YES, J=NO","son6fv03tq","1","66","63","70","","","","","","","","","","","","","","","",""
"null","audio/mind.wav","null","audio-keyboard-response","286","2.1.0","815982","F=YES, J=NO","son6fv03tq","1","66","63","70","","","","","","","","","","","","","","","",""
"540","
          <p id=""word"" style=""font-size: 40px;"">crainate</p>
          <p style=""font-size: 16px;"">F = YES &nbsp;&nbsp;&nbsp; J = NO</p>
        ","j","html-keyboard-response","287","2.1.0","816524","F=YES, J=NO","son6fv03tq","1","66","63","70","","","","","","","","","crainate","mind","pseudoword","pseudoword","j","true","",""
"null","<p style=""font-size: 50px;"">+</p>","null","html-keyboard-response","288","2.1.0","816835","F=YES, J=NO","son6fv03tq","1","66","63","70","","","","","","","","","","","","","","","",""
"null","audio/beep-329314.mp3","null","audio-keyboard-response","289","2.1.0","818373","F=YES, J=NO","son6fv03tq","1","66","63","70","","","","","","","","","","","","","","","",""
"null","audio/table1.wav","null","audio-keyboard-response","290","2.1.0","818903","F=YES, J=NO","son6fv03tq","1","66","63","70","","","","","","","","","","","","","","","",""
"438","
          <p id=""word"" style=""font-size: 40px;"">stimb</p>
          <p style=""font-size: 16px;"">F = YES &nbsp;&nbsp;&nbsp; J = NO</p>
        ","f","html-keyboard-response","291","2.1.0","819342","F=YES, J=NO","son6fv03tq","1","66","63","70","","","","","","","","","stimb","table1","pseudoword","pseudoword","j","false","",""
"null","<p style=""font-size: 50px;"">+</p>","null","html-keyboard-response","292","2.1.0","819654","F=YES, J=NO","son6fv03tq","1","66","63","70","","","","","","","","","","","","","","","",""
"null","audio/beep-329314.mp3","null","audio-keyboard-response","293","2.1.0","821192","F=YES, J=NO","son6fv03tq","1","66","63","70","","","","","","","","","","","","","","","",""
"null","audio/grass.wav","null","audio-keyboard-response","294","2.1.0","821983","F=YES, J=NO","son6fv03tq","1","66","63","70","","","","","","","","","","","","","","","",""
"544","
          <p id=""word"" style=""font-size: 40px;"">milames</p>
          <p style=""font-size: 16px;"">F = YES &nbsp;&nbsp;&nbsp; J = NO</p>
        ","j","html-keyboard-response","295","2.1.0","822529","F=YES, J=NO","son6fv03tq","1","66","63","70","","","","","","","","","milames","grass","pseudoword","pseudoword","j","true","",""
"33494","<p>Excellent! You have finished block 2 of 8.</p>
                     <p>Feel free to take a 30 second break.</p>
                     <p>Press any key when you're ready to continue.</p>"," ","html-keyboard-response","296","2.1.0","856024","F=YES, J=NO","son6fv03tq","1","66","63","70","","","","","","","","","","","","","","","",""
"1026","<p>Starting main block 3 of 8. Press any key to continue.</p>"," ","html-keyboard-response","297","2.1.0","857050","F=YES, J=NO","son6fv03tq","1","66","63","70","","","","","","","","","","","","","","","",""
"null","<p style=""font-size: 50px;"">+</p>","null","html-keyboard-response","298","2.1.0","857360","F=YES, J=NO","son6fv03tq","1","66","63","70","","","","","","","","","","","","","","","",""
"null","audio/beep-329314.mp3","null","audio-keyboard-response","299","2.1.0","858898","F=YES, J=NO","son6fv03tq","1","66","63","70","","","","","","","","","","","","","","","",""
"null","audio/van1.wav","null","audio-keyboard-response","300","2.1.0","859377","F=YES, J=NO","son6fv03tq","1","66","63","70","","","","","","","","","","","","","","","",""
"626","
          <p id=""word"" style=""font-size: 40px;"">support</p>
          <p style=""font-size: 16px;"">F = YES &nbsp;&nbsp;&nbsp; J = NO</p>
        ","f","html-keyboard-response","301","2.1.0","860004","F=YES, J=NO","son6fv03tq","1","66","63","70","","","","","","","","","support","van1","unrelated","experimental","f","true","",""
"null","<p style=""font-size: 50px;"">+</p>","null","html-keyboard-response","302","2.1.0","860311","F=YES, J=NO","son6fv03tq","1","66","63","70","","","","","","","","","","","","","","","",""
"null","audio/beep-329314.mp3","null","audio-keyboard-response","303","2.1.0","861837","F=YES, J=NO","son6fv03tq","1","66","63","70","","","","","","","","","","","","","","","",""
"null","audio/garden1.wav","null","audio-keyboard-response","304","2.1.0","862377","F=YES, J=NO","son6fv03tq","1","66","63","70","","","","","","","","","","","","","","","",""
"532","
          <p id=""word"" style=""font-size: 40px;"">invest</p>
          <p style=""font-size: 16px;"">F = YES &nbsp;&nbsp;&nbsp; J = NO</p>
        ","f","html-keyboard-response","305","2.1.0","862911","F=YES, J=NO","son6fv03tq","1","66","63","70","","","","","","","","","invest","garden1","unrelated","experimental","f","true","",""
"null","<p style=""font-size: 50px;"">+</p>","null","html-keyboard-response","306","2.1.0","863221","F=YES, J=NO","son6fv03tq","1","66","63","70","","","","","","","","","","","","","","","",""
"null","audio/beep-329314.mp3","null","audio-keyboard-response","307","2.1.0","864758","F=YES, J=NO","son6fv03tq","1","66","63","70","","","","","","","","","","","","","","","",""
"null","audio/belief.wav","null","audio-keyboard-response","308","2.1.0","865378","F=YES, J=NO","son6fv03tq","1","66","63","70","","","","","","","","","","","","","","","",""
"509","
          <p id=""word"" style=""font-size: 40px;"">share</p>
          <p style=""font-size: 16px;"">F = YES &nbsp;&nbsp;&nbsp; J = NO</p>
        ","f","html-keyboard-response","309","2.1.0","865889","F=YES, J=NO","son6fv03tq","1","66","63","70","","","","","","","","","share","belief","metaphor","experimental","f","true","",""
"null","<p style=""font-size: 50px;"">+</p>","null","html-keyboard-response","310","2.1.0","866193","F=YES, J=NO","son6fv03tq","1","66","63","70","","","","","","","","","","","","","","","",""
"null","audio/beep-329314.mp3","null","audio-keyboard-response","311","2.1.0","867717","F=YES, J=NO","son6fv03tq","1","66","63","70","","","","","","","","","","","","","","","",""
"null","audio/camera1.wav","null","audio-keyboard-response","312","2.1.0","868257","F=YES, J=NO","son6fv03tq","1","66","63","70","","","","","","","","","","","","","","","",""
"507","
          <p id=""word"" style=""font-size: 40px;"">stir</p>
          <p style=""font-size: 16px;"">F = YES &nbsp;&nbsp;&nbsp; J = NO</p>
        ","j","html-keyboard-response","313","2.1.0","868766","F=YES, J=NO","son6fv03tq","1","66","63","70","","","","","","","","","stir","camera1","filler","filler","f","false","",""
"null","<p style=""font-size: 50px;"">+</p>","null","html-keyboard-response","314","2.1.0","869078","F=YES, J=NO","son6fv03tq","1","66","63","70","","","","","","","","","","","","","","","",""
"null","audio/beep-329314.mp3","null","audio-keyboard-response","315","2.1.0","870618","F=YES, J=NO","son6fv03tq","1","66","63","70","","","","","","","","","","","","","","","",""
"null","audio/handle.wav","null","audio-keyboard-response","316","2.1.0","871237","F=YES, J=NO","son6fv03tq","1","66","63","70","","","","","","","","","","","","","","","",""
"557","
          <p id=""word"" style=""font-size: 40px;"">grasp</p>
          <p style=""font-size: 16px;"">F = YES &nbsp;&nbsp;&nbsp; J = NO</p>
        ","j","html-keyboard-response","317","2.1.0","871796","F=YES, J=NO","son6fv03tq","1","66","63","70","","","","","","","","","grasp","handle","literal","experimental","f","false","",""
"null","<p style=""font-size: 50px;"">+</p>","null","html-keyboard-response","318","2.1.0","872099","F=YES, J=NO","son6fv03tq","1","66","63","70","","","","","","","","","","","","","","","",""
"null","audio/beep-329314.mp3","null","audio-keyboard-response","319","2.1.0","873638","F=YES, J=NO","son6fv03tq","1","66","63","70","","","","","","","","","","","","","","","",""
"null","audio/prisoner.wav","null","audio-keyboard-response","320","2.1.0","874138","F=YES, J=NO","son6fv03tq","1","66","63","70","","","","","","","","","","","","","","","",""
"540","
          <p id=""word"" style=""font-size: 40px;"">release</p>
          <p style=""font-size: 16px;"">F = YES &nbsp;&nbsp;&nbsp; J = NO</p>
        ","f","html-keyboard-response","321","2.1.0","874679","F=YES, J=NO","son6fv03tq","1","66","63","70","","","","","","","","","release","prisoner","literal","experimental","f","true","",""
"null","<p style=""font-size: 50px;"">+</p>","null","html-keyboard-response","322","2.1.0","874985","F=YES, J=NO","son6fv03tq","1","66","63","70","","","","","","","","","","","","","","","",""
"null","audio/beep-329314.mp3","null","audio-keyboard-response","323","2.1.0","876518","F=YES, J=NO","son6fv03tq","1","66","63","70","","","","","","","","","","","","","","","",""
"null","audio/cancer1.wav","null","audio-keyboard-response","324","2.1.0","877117","F=YES, J=NO","son6fv03tq","1","66","63","70","","","","","","","","","","","","","","","",""
"651","
          <p id=""word"" style=""font-size: 40px;"">draw</p>
          <p style=""font-size: 16px;"">F = YES &nbsp;&nbsp;&nbsp; J = NO</p>
        ","f","html-keyboard-response","325","2.1.0","877770","F=YES, J=NO","son6fv03tq","1","66","63","70","","","","","","","","","draw","cancer1","filler","filler","f","true","",""
"null","<p style=""font-size: 50px;"">+</p>","null","html-keyboard-response","326","2.1.0","878072","F=YES, J=NO","son6fv03tq","1","66","63","70","","","","","","","","","","","","","","","",""
"null","audio/beep-329314.mp3","null","audio-keyboard-response","327","2.1.0","879597","F=YES, J=NO","son6fv03tq","1","66","63","70","","","","","","","","","","","","","","","",""
"null","audio/card1.wav","null","audio-keyboard-response","328","2.1.0","880297","F=YES, J=NO","son6fv03tq","1","66","63","70","","","","","","","","","","","","","","","",""
"570","
          <p id=""word"" style=""font-size: 40px;"">land</p>
          <p style=""font-size: 16px;"">F = YES &nbsp;&nbsp;&nbsp; J = NO</p>
        ","f","html-keyboard-response","329","2.1.0","880869","F=YES, J=NO","son6fv03tq","1","66","63","70","","","","","","","","","land","card1","unrelated","experimental","f","true","",""
"null","<p style=""font-size: 50px;"">+</p>","null","html-keyboard-response","330","2.1.0","881172","F=YES, J=NO","son6fv03tq","1","66","63","70","","","","","","","","","","","","","","","",""
"null","audio/beep-329314.mp3","null","audio-keyboard-response","331","2.1.0","882697","F=YES, J=NO","son6fv03tq","1","66","63","70","","","","","","","","","","","","","","","",""
"null","audio/radio1.wav","null","audio-keyboard-response","332","2.1.0","883297","F=YES, J=NO","son6fv03tq","1","66","63","70","","","","","","","","","","","","","","","",""
"504","
          <p id=""word"" style=""font-size: 40px;"">blanter</p>
          <p style=""font-size: 16px;"">F = YES &nbsp;&nbsp;&nbsp; J = NO</p>
        ","j","html-keyboard-response","333","2.1.0","883802","F=YES, J=NO","son6fv03tq","1","66","63","70","","","","","","","","","blanter","radio1","pseudoword","pseudoword","j","true","",""
"null","<p style=""font-size: 50px;"">+</p>","null","html-keyboard-response","334","2.1.0","884105","F=YES, J=NO","son6fv03tq","1","66","63","70","","","","","","","","","","","","","","","",""
"null","audio/beep-329314.mp3","null","audio-keyboard-response","335","2.1.0","885638","F=YES, J=NO","son6fv03tq","1","66","63","70","","","","","","","","","","","","","","","",""
"null","audio/hawk1.wav","null","audio-keyboard-response","336","2.1.0","886277","F=YES, J=NO","son6fv03tq","1","66","63","70","","","","","","","","","","","","","","","",""
"540","
          <p id=""word"" style=""font-size: 40px;"">ostach</p>
          <p style=""font-size: 16px;"">F = YES &nbsp;&nbsp;&nbsp; J = NO</p>
        ","j","html-keyboard-response","337","2.1.0","886819","F=YES, J=NO","son6fv03tq","1","66","63","70","","","","","","","","","ostach","hawk1","pseudoword","pseudoword","j","true","",""
"null","<p style=""font-size: 50px;"">+</p>","null","html-keyboard-response","338","2.1.0","887132","F=YES, J=NO","son6fv03tq","1","66","63","70","","","","","","","","","","","","","","","",""
"null","audio/beep-329314.mp3","null","audio-keyboard-response","339","2.1.0","888658","F=YES, J=NO","son6fv03tq","1","66","63","70","","","","","","","","","","","","","","","",""
"null","audio/arm.wav","null","audio-keyboard-response","340","2.1.0","889257","F=YES, J=NO","son6fv03tq","1","66","63","70","","","","","","","","","","","","","","","",""
"505","
          <p id=""word"" style=""font-size: 40px;"">pigne</p>
          <p style=""font-size: 16px;"">F = YES &nbsp;&nbsp;&nbsp; J = NO</p>
        ","j","html-keyboard-response","341","2.1.0","889764","F=YES, J=NO","son6fv03tq","1","66","63","70","","","","","","","","","pigne","arm","pseudoword","pseudoword","j","true","",""
"null","<p style=""font-size: 50px;"">+</p>","null","html-keyboard-response","342","2.1.0","890070","F=YES, J=NO","son6fv03tq","1","66","63","70","","","","","","","","","","","","","","","",""
"null","audio/beep-329314.mp3","null","audio-keyboard-response","343","2.1.0","891597","F=YES, J=NO","son6fv03tq","1","66","63","70","","","","","","","","","","","","","","","",""
"null","audio/dollar.wav","null","audio-keyboard-response","344","2.1.0","891998","F=YES, J=NO","son6fv03tq","1","66","63","70","","","","","","","","","","","","","","","",""
"535","
          <p id=""word"" style=""font-size: 40px;"">gliptism</p>
          <p style=""font-size: 16px;"">F = YES &nbsp;&nbsp;&nbsp; J = NO</p>
        ","j","html-keyboard-response","345","2.1.0","892535","F=YES, J=NO","son6fv03tq","1","66","63","70","","","","","","","","","gliptism","dollar","pseudoword","pseudoword","j","true","",""
"null","<p style=""font-size: 50px;"">+</p>","null","html-keyboard-response","346","2.1.0","892844","F=YES, J=NO","son6fv03tq","1","66","63","70","","","","","","","","","","","","","","","",""
"null","audio/beep-329314.mp3","null","audio-keyboard-response","347","2.1.0","894378","F=YES, J=NO","son6fv03tq","1","66","63","70","","","","","","","","","","","","","","","",""
"null","audio/sugar1.wav","null","audio-keyboard-response","348","2.1.0","894877","F=YES, J=NO","son6fv03tq","1","66","63","70","","","","","","","","","","","","","","","",""
"523","
          <p id=""word"" style=""font-size: 40px;"">approach</p>
          <p style=""font-size: 16px;"">F = YES &nbsp;&nbsp;&nbsp; J = NO</p>
        ","f","html-keyboard-response","349","2.1.0","895402","F=YES, J=NO","son6fv03tq","1","66","63","70","","","","","","","","","approach","sugar1","unrelated","experimental","f","true","",""
"null","<p style=""font-size: 50px;"">+</p>","null","html-keyboard-response","350","2.1.0","895707","F=YES, J=NO","son6fv03tq","1","66","63","70","","","","","","","","","","","","","","","",""
"null","audio/beep-329314.mp3","null","audio-keyboard-response","351","2.1.0","897237","F=YES, J=NO","son6fv03tq","1","66","63","70","","","","","","","","","","","","","","","",""
"null","audio/sand.wav","null","audio-keyboard-response","352","2.1.0","898057","F=YES, J=NO","son6fv03tq","1","66","63","70","","","","","","","","","","","","","","","",""
"449","
          <p id=""word"" style=""font-size: 40px;"">possess</p>
          <p style=""font-size: 16px;"">F = YES &nbsp;&nbsp;&nbsp; J = NO</p>
        ","j","html-keyboard-response","353","2.1.0","898508","F=YES, J=NO","son6fv03tq","1","66","63","70","","","","","","","","","possess","sand","unrelated","experimental","f","false","",""
"null","<p style=""font-size: 50px;"">+</p>","null","html-keyboard-response","354","2.1.0","898817","F=YES, J=NO","son6fv03tq","1","66","63","70","","","","","","","","","","","","","","","",""
"null","audio/beep-329314.mp3","null","audio-keyboard-response","355","2.1.0","900357","F=YES, J=NO","son6fv03tq","1","66","63","70","","","","","","","","","","","","","","","",""
"null","audio/gossip1.wav","null","audio-keyboard-response","356","2.1.0","901037","F=YES, J=NO","son6fv03tq","1","66","63","70","","","","","","","","","","","","","","","",""
"509","
          <p id=""word"" style=""font-size: 40px;"">camerish</p>
          <p style=""font-size: 16px;"">F = YES &nbsp;&nbsp;&nbsp; J = NO</p>
        ","j","html-keyboard-response","357","2.1.0","901548","F=YES, J=NO","son6fv03tq","1","66","63","70","","","","","","","","","camerish","gossip1","pseudoword","pseudoword","j","true","",""
"null","<p style=""font-size: 50px;"">+</p>","null","html-keyboard-response","358","2.1.0","901852","F=YES, J=NO","son6fv03tq","1","66","63","70","","","","","","","","","","","","","","","",""
"null","audio/beep-329314.mp3","null","audio-keyboard-response","359","2.1.0","903378","F=YES, J=NO","son6fv03tq","1","66","63","70","","","","","","","","","","","","","","","",""
"null","audio/purpose.wav","null","audio-keyboard-response","360","2.1.0","904057","F=YES, J=NO","son6fv03tq","1","66","63","70","","","","","","","","","","","","","","","",""
"401","
          <p id=""word"" style=""font-size: 40px;"">whigm</p>
          <p style=""font-size: 16px;"">F = YES &nbsp;&nbsp;&nbsp; J = NO</p>
        ","j","html-keyboard-response","361","2.1.0","904460","F=YES, J=NO","son6fv03tq","1","66","63","70","","","","","","","","","whigm","purpose","pseudoword","pseudoword","j","true","",""
"32397","<p>Excellent! You have finished block 3 of 8.</p>
                     <p>Feel free to take a 30 second break.</p>
                     <p>Press any key when you're ready to continue.</p>"," ","html-keyboard-response","362","2.1.0","936859","F=YES, J=NO","son6fv03tq","1","66","63","70","","","","","","","","","","","","","","","",""
"988","<p>Starting main block 4 of 8. Press any key to continue.</p>"," ","html-keyboard-response","363","2.1.0","937848","F=YES, J=NO","son6fv03tq","1","66","63","70","","","","","","","","","","","","","","","",""
"null","<p style=""font-size: 50px;"">+</p>","null","html-keyboard-response","364","2.1.0","938161","F=YES, J=NO","son6fv03tq","1","66","63","70","","","","","","","","","","","","","","","",""
"null","audio/beep-329314.mp3","null","audio-keyboard-response","365","2.1.0","939703","F=YES, J=NO","son6fv03tq","1","66","63","70","","","","","","","","","","","","","","","",""
"null","audio/bishop1.wav","null","audio-keyboard-response","366","2.1.0","940343","F=YES, J=NO","son6fv03tq","1","66","63","70","","","","","","","","","","","","","","","",""
"560","
          <p id=""word"" style=""font-size: 40px;"">play</p>
          <p style=""font-size: 16px;"">F = YES &nbsp;&nbsp;&nbsp; J = NO</p>
        ","f","html-keyboard-response","367","2.1.0","940905","F=YES, J=NO","son6fv03tq","1","66","63","70","","","","","","","","","play","bishop1","filler","filler","f","true","",""
"null","<p style=""font-size: 50px;"">+</p>","null","html-keyboard-response","368","2.1.0","941223","F=YES, J=NO","son6fv03tq","1","66","63","70","","","","","","","","","","","","","","","",""
"null","audio/beep-329314.mp3","null","audio-keyboard-response","369","2.1.0","942764","F=YES, J=NO","son6fv03tq","1","66","63","70","","","","","","","","","","","","","","","",""
"null","audio/trust.wav","null","audio-keyboard-response","370","2.1.0","943383","F=YES, J=NO","son6fv03tq","1","66","63","70","","","","","","","","","","","","","","","",""
"591","
          <p id=""word"" style=""font-size: 40px;"">swint</p>
          <p style=""font-size: 16px;"">F = YES &nbsp;&nbsp;&nbsp; J = NO</p>
        ","j","html-keyboard-response","371","2.1.0","943975","F=YES, J=NO","son6fv03tq","1","66","63","70","","","","","","","","","swint","trust","pseudoword","pseudoword","j","true","",""
"null","<p style=""font-size: 50px;"">+</p>","null","html-keyboard-response","372","2.1.0","944278","F=YES, J=NO","son6fv03tq","1","66","63","70","","","","","","","","","","","","","","","",""
"null","audio/beep-329314.mp3","null","audio-keyboard-response","373","2.1.0","945804","F=YES, J=NO","son6fv03tq","1","66","63","70","","","","","","","","","","","","","","","",""
"null","audio/van1.wav","null","audio-keyboard-response","374","2.1.0","946283","F=YES, J=NO","son6fv03tq","1","66","63","70","","","","","","","","","","","","","","","",""
"395","
          <p id=""word"" style=""font-size: 40px;"">push</p>
          <p style=""font-size: 16px;"">F = YES &nbsp;&nbsp;&nbsp; J = NO</p>
        ","j","html-keyboard-response","375","2.1.0","946680","F=YES, J=NO","son6fv03tq","1","66","63","70","","","","","","","","","push","van1","filler","filler","f","false","",""
"null","<p style=""font-size: 50px;"">+</p>","null","html-keyboard-response","376","2.1.0","946998","F=YES, J=NO","son6fv03tq","1","66","63","70","","","","","","","","","","","","","","","",""
"null","audio/beep-329314.mp3","null","audio-keyboard-response","377","2.1.0","948523","F=YES, J=NO","son6fv03tq","1","66","63","70","","","","","","","","","","","","","","","",""
"null","audio/test1.wav","null","audio-keyboard-response","378","2.1.0","949143","F=YES, J=NO","son6fv03tq","1","66","63","70","","","","","","","","","","","","","","","",""
"442","
          <p id=""word"" style=""font-size: 40px;"">twopch</p>
          <p style=""font-size: 16px;"">F = YES &nbsp;&nbsp;&nbsp; J = NO</p>
        ","j","html-keyboard-response","379","2.1.0","949587","F=YES, J=NO","son6fv03tq","1","66","63","70","","","","","","","","","twopch","test1","pseudoword","pseudoword","j","true","",""
"null","<p style=""font-size: 50px;"">+</p>","null","html-keyboard-response","380","2.1.0","949901","F=YES, J=NO","son6fv03tq","1","66","63","70","","","","","","","","","","","","","","","",""
"null","audio/beep-329314.mp3","null","audio-keyboard-response","381","2.1.0","951444","F=YES, J=NO","son6fv03tq","1","66","63","70","","","","","","","","","","","","","","","",""
"null","audio/show.wav","null","audio-keyboard-response","382","2.1.0","952063","F=YES, J=NO","son6fv03tq","1","66","63","70","","","","","","","","","","","","","","","",""
"518","
          <p id=""word"" style=""font-size: 40px;"">smark</p>
          <p style=""font-size: 16px;"">F = YES &nbsp;&nbsp;&nbsp; J = NO</p>
        ","j","html-keyboard-response","383","2.1.0","952583","F=YES, J=NO","son6fv03tq","1","66","63","70","","","","","","","","","smark","show","pseudoword","pseudoword","j","true","",""
"null","<p style=""font-size: 50px;"">+</p>","null","html-keyboard-response","384","2.1.0","952892","F=YES, J=NO","son6fv03tq","1","66","63","70","","","","","","","","","","","","","","","",""
"null","audio/beep-329314.mp3","null","audio-keyboard-response","385","2.1.0","954423","F=YES, J=NO","son6fv03tq","1","66","63","70","","","","","","","","","","","","","","","",""
"null","audio/novel.wav","null","audio-keyboard-response","386","2.1.0","955063","F=YES, J=NO","son6fv03tq","1","66","63","70","","","","","","","","","","","","","","","",""
"597","
          <p id=""word"" style=""font-size: 40px;"">devour</p>
          <p style=""font-size: 16px;"">F = YES &nbsp;&nbsp;&nbsp; J = NO</p>
        ","j","html-keyboard-response","387","2.1.0","955662","F=YES, J=NO","son6fv03tq","1","66","63","70","","","","","","","","","devour","novel","metaphor","experimental","f","false","",""
"null","<p style=""font-size: 50px;"">+</p>","null","html-keyboard-response","388","2.1.0","955978","F=YES, J=NO","son6fv03tq","1","66","63","70","","","","","","","","","","","","","","","",""
"null","audio/beep-329314.mp3","null","audio-keyboard-response","389","2.1.0","957504","F=YES, J=NO","son6fv03tq","1","66","63","70","","","","","","","","","","","","","","","",""
"null","audio/tomato.wav","null","audio-keyboard-response","390","2.1.0","958162","F=YES, J=NO","son6fv03tq","1","66","63","70","","","","","","","","","","","","","","","",""
"447","
          <p id=""word"" style=""font-size: 40px;"">grow</p>
          <p style=""font-size: 16px;"">F = YES &nbsp;&nbsp;&nbsp; J = NO</p>
