"rt","stimulus","response","trial_type","trial_index","plugin_version","time_elapsed","response_mapping","subject_id","list_index","lextale_score","lextale_word_score","lextale_nonword_score","success","timeout","failed_images","failed_audio","failed_video","task","isWord","isDummy","target","prime","prime_type","stimulus_type","correct_response","correct","section","question_order"
"37894","
    <div style=""max-width: 800px; margin: auto; text-align: left;"">
      <h2>STANFORD UNIVERSITY</h2>
      <h3>Research Information Sheet</h3>
      <p><strong>Protocol Director:</strong> Robert Hawkins<br>
      <strong>Protocol Title:</strong> Communication and social cognition in natural audiovisual contexts<br>
      <strong>IRB#:</strong> 77226</p>

      <p><strong>DESCRIPTION:</strong> You are invited to participate in a research study about language and communication. The purpose of the research is to understand how you interact and communicate with other people in naturalistic settings as a fluent English speaker. This research will be conducted through the Prolific platform, including participants from the US, UK, and Canada. If you decide to participate in this research, you will play a communication game in a group with one or more partners.</p>

      <p><strong>TIME INVOLVEMENT:</strong> The task will last the amount of time advertised on Prolific. You are free to withdraw from the study at any time.</p>

      <p><strong>RISKS AND BENEFITS:</strong> You may become frustrated if your partner gets distracted, or experience discomfort if other participants in your group send text that is inappropriate for the task. We ask you to please be respectful of other participants you might be interacting with to mitigate these risks. You may also experience discomfort when being asked to discuss or challenge emotionally salient political beliefs. Study data will be stored securely, in compliance with Stanford University standards, minimizing the risk of confidentiality breach. This study advances our scientific understanding of how people communicate and collaborate in naturalistic settings. This study may lead to further insights about what can go wrong in teamwork, suggest potential interventions to overcome these barriers, and help to develop assistive technologies that collaborate with human partners. We cannot and do not guarantee or promise that you will receive any benefits from this study.</p>

      <p><strong>PAYMENTS:</strong> You will receive payment in the amount advertised on Prolific. If you do not complete this study, you will receive prorated payment based on the time that you have spent. Additionally, you may be eligible for bonus payments as described in the instructions.</p>

      <p><strong>PARTICIPANT’S RIGHTS:</strong> If you have read this form and have decided to participate in this project, please understand your participation is voluntary and you have the right to withdraw your consent or discontinue participation at any time without penalty or loss of benefits to which you are otherwise entitled. The alternative is not to participate. You have the right to refuse to answer particular questions. The results of this research study may be presented at scientific or professional meetings or published in scientific journals. Your individual privacy will be maintained in all published and written data resulting from the study. In accordance with scientific norms, the data from this study may be used or shared with other researchers for future research (after removing personally identifying information) without additional consent from you.</p>

      <p><strong>CONTACT INFORMATION:</strong><br>
      Questions: If you have any questions, concerns or complaints about this research, its procedures, risks and benefits, contact the Protocol Director, Robert Hawkins (<a href=""mailto:rdhawkins@stanford.edu"">rdhawkins@stanford.edu</a>, 217-549-6923).<br>
      Independent Contact: If you are not satisfied with how this study is being conducted, or if you have any concerns, complaints, or general questions about the research or your rights as a participant, please contact the Stanford Institutional Review Board (IRB) to speak to someone independent of the research team at 650-723-2480 or toll free at 1-866-680-2906, or email at <a href=""mailto:irbnon-med@stanford.edu"">irbnon-med@stanford.edu</a>. You can also write to the Stanford IRB, Stanford University, 1705 El Camino Real, Palo Alto, CA 94306.</p>

      <p><strong>Please save or print a copy of this page for your records.</strong></p>
      <p>If you agree to participate in this research, click ""Continue"" below.</p>
    </div>
  ","0","html-button-response","0","2.1.0","37918","F=YES, J=NO","sqlz6r5mkt","1","74","83","65","","","","","","","","","","","","","","","",""
"26445","
    <div style=""max-width: 800px; margin: auto; text-align: left;"">
      <h2>Welcome!</h2>
      <p>Thank you for participating in this study. The experiment consists of three parts:</p>
      <ol>
        <li>An English vocabulary test</li>
        <li>A main task in which you will hear and see words, and decide whether the written word is a real English word</li>
        <li>A brief survey about your background</li>
      </ol>
      <p>Each part will be introduced before it begins.</p>
      <p>Please make sure you are in a quiet environment and can hear audio clearly for the final task.</p>
      <p style=""margin-top: 2em;"">Press any key to begin.</p>
    </div>
  "," ","html-keyboard-response","1","2.1.0","64370","F=YES, J=NO","sqlz6r5mkt","1","74","83","65","","","","","","","","","","","","","","","",""
"","","","preload","2","2.1.0","69614","F=YES, J=NO","sqlz6r5mkt","1","74","83","65","true","false","[]","[]","[]","","","","","","","","","","",""
"6058","
    <div style=""max-width: 800px; margin: auto; text-align: left;"">
      <h2>Part 1: Vocabulary Test</h2>
      <p>You will now complete the first part of the study: a short English vocabulary test.</p>
      <p>This test is called <strong>LexTALE</strong> and helps us get a general sense of your English proficiency.</p>
      <p style=""margin-top: 2em;"">Press any key to continue.</p>
    </div>
  "," ","html-keyboard-response","3","2.1.0","75674","F=YES, J=NO","sqlz6r5mkt","1","74","83","65","","","","","","","","","","","","","","","",""
"15512","
    <div style=""max-width: 800px; margin: auto; text-align: left;"">
      <h2>LexTALE Vocabulary Test</h2>
      <p>In this test, you will see a series of letter strings—one at a time.</p>
      <p>Your task is to decide whether each string is a real English word.</p>
      <p><strong>Key responses:</strong></p>
      <ul>
        <li><strong>F</strong> = YES (real English word)</li>
        <li><strong>J</strong> = NO (not a real English word)</li>
      </ul>
      <p>There is no time limit, but please try to be accurate.</p>
      <p style=""margin-top: 2em;"">Press any key to begin.</p>
    </div>
  "," ","html-keyboard-response","4","2.1.0","91189","F=YES, J=NO","sqlz6r5mkt","1","74","83","65","","","","","","","","","","","","","","","",""
"3149","
  <p style=""font-size: 40px;"">platery</p>
  <p style=""font-size: 16px;"">F = YES &nbsp;&nbsp;&nbsp; J = NO</p>
","f","html-keyboard-response","5","2.1.0","94341","F=YES, J=NO","sqlz6r5mkt","1","74","83","65","","","","","","lextale","false","true","","","","","","","",""
"1722","
  <p style=""font-size: 40px;"">denial</p>
  <p style=""font-size: 16px;"">F = YES &nbsp;&nbsp;&nbsp; J = NO</p>
","f","html-keyboard-response","6","2.1.0","96066","F=YES, J=NO","sqlz6r5mkt","1","74","83","65","","","","","","lextale","true","true","","","","","","","",""
"1819","
  <p style=""font-size: 40px;"">marrit</p>
  <p style=""font-size: 16px;"">F = YES &nbsp;&nbsp;&nbsp; J = NO</p>
","f","html-keyboard-response","7","2.1.0","97887","F=YES, J=NO","sqlz6r5mkt","1","74","83","65","","","","","","lextale","false","true","","","","","","","",""
"1249","
  <p style=""font-size: 40px;"">bottle</p>
  <p style=""font-size: 16px;"">F = YES &nbsp;&nbsp;&nbsp; J = NO</p>
","f","html-keyboard-response","8","2.1.0","99138","F=YES, J=NO","sqlz6r5mkt","1","74","83","65","","","","","","lextale","true","false","","","","","","","",""
"3896","
  <p style=""font-size: 40px;"">birst</p>
  <p style=""font-size: 16px;"">F = YES &nbsp;&nbsp;&nbsp; J = NO</p>
","j","html-keyboard-response","9","2.1.0","103037","F=YES, J=NO","sqlz6r5mkt","1","74","83","65","","","","","","lextale","false","false","","","","","","","",""
"1149","
  <p style=""font-size: 40px;"">envy</p>
  <p style=""font-size: 16px;"">F = YES &nbsp;&nbsp;&nbsp; J = NO</p>
","f","html-keyboard-response","10","2.1.0","104189","F=YES, J=NO","sqlz6r5mkt","1","74","83","65","","","","","","lextale","true","false","","","","","","","",""
"1966","
  <p style=""font-size: 40px;"">brang</p>
  <p style=""font-size: 16px;"">F = YES &nbsp;&nbsp;&nbsp; J = NO</p>
","j","html-keyboard-response","11","2.1.0","106157","F=YES, J=NO","sqlz6r5mkt","1","74","83","65","","","","","","lextale","false","false","","","","","","","",""
"1164","
  <p style=""font-size: 40px;"">huge</p>
  <p style=""font-size: 16px;"">F = YES &nbsp;&nbsp;&nbsp; J = NO</p>
","f","html-keyboard-response","12","2.1.0","107324","F=YES, J=NO","sqlz6r5mkt","1","74","83","65","","","","","","lextale","true","false","","","","","","","",""
"2088","
  <p style=""font-size: 40px;"">plove</p>
  <p style=""font-size: 16px;"">F = YES &nbsp;&nbsp;&nbsp; J = NO</p>
","j","html-keyboard-response","13","2.1.0","109414","F=YES, J=NO","sqlz6r5mkt","1","74","83","65","","","","","","lextale","false","false","","","","","","","",""
"1121","
  <p style=""font-size: 40px;"">border</p>
  <p style=""font-size: 16px;"">F = YES &nbsp;&nbsp;&nbsp; J = NO</p>
","f","html-keyboard-response","14","2.1.0","110537","F=YES, J=NO","sqlz6r5mkt","1","74","83","65","","","","","","lextale","true","false","","","","","","","",""
"1491","
  <p style=""font-size: 40px;"">flimsy</p>
  <p style=""font-size: 16px;"">F = YES &nbsp;&nbsp;&nbsp; J = NO</p>
","j","html-keyboard-response","15","2.1.0","112030","F=YES, J=NO","sqlz6r5mkt","1","74","83","65","","","","","","lextale","true","false","","","","","","","",""
"1355","
  <p style=""font-size: 40px;"">drain</p>
  <p style=""font-size: 16px;"">F = YES &nbsp;&nbsp;&nbsp; J = NO</p>
","f","html-keyboard-response","16","2.1.0","113387","F=YES, J=NO","sqlz6r5mkt","1","74","83","65","","","","","","lextale","true","false","","","","","","","",""
"1404","
  <p style=""font-size: 40px;"">twindle</p>
  <p style=""font-size: 16px;"">F = YES &nbsp;&nbsp;&nbsp; J = NO</p>
","f","html-keyboard-response","17","2.1.0","114792","F=YES, J=NO","sqlz6r5mkt","1","74","83","65","","","","","","lextale","false","false","","","","","","","",""
"1044","
  <p style=""font-size: 40px;"">propose</p>
  <p style=""font-size: 16px;"">F = YES &nbsp;&nbsp;&nbsp; J = NO</p>
","f","html-keyboard-response","18","2.1.0","115838","F=YES, J=NO","sqlz6r5mkt","1","74","83","65","","","","","","lextale","true","false","","","","","","","",""
"1351","
  <p style=""font-size: 40px;"">forlay</p>
  <p style=""font-size: 16px;"">F = YES &nbsp;&nbsp;&nbsp; J = NO</p>
","j","html-keyboard-response","19","2.1.0","117191","F=YES, J=NO","sqlz6r5mkt","1","74","83","65","","","","","","lextale","false","false","","","","","","","",""
"1471","
  <p style=""font-size: 40px;"">tenant</p>
  <p style=""font-size: 16px;"">F = YES &nbsp;&nbsp;&nbsp; J = NO</p>
","f","html-keyboard-response","20","2.1.0","118664","F=YES, J=NO","sqlz6r5mkt","1","74","83","65","","","","","","lextale","true","false","","","","","","","",""
"1234","
  <p style=""font-size: 40px;"">strain</p>
  <p style=""font-size: 16px;"">F = YES &nbsp;&nbsp;&nbsp; J = NO</p>
","f","html-keyboard-response","21","2.1.0","119900","F=YES, J=NO","sqlz6r5mkt","1","74","83","65","","","","","","lextale","true","false","","","","","","","",""
"2253","
  <p style=""font-size: 40px;"">holster</p>
  <p style=""font-size: 16px;"">F = YES &nbsp;&nbsp;&nbsp; J = NO</p>
","f","html-keyboard-response","22","2.1.0","122154","F=YES, J=NO","sqlz6r5mkt","1","74","83","65","","","","","","lextale","true","false","","","","","","","",""
"1193","
  <p style=""font-size: 40px;"">hinder</p>
  <p style=""font-size: 16px;"">F = YES &nbsp;&nbsp;&nbsp; J = NO</p>
","f","html-keyboard-response","23","2.1.0","123349","F=YES, J=NO","sqlz6r5mkt","1","74","83","65","","","","","","lextale","true","false","","","","","","","",""
"1066","
  <p style=""font-size: 40px;"">swindle</p>
  <p style=""font-size: 16px;"">F = YES &nbsp;&nbsp;&nbsp; J = NO</p>
","f","html-keyboard-response","24","2.1.0","124417","F=YES, J=NO","sqlz6r5mkt","1","74","83","65","","","","","","lextale","true","false","","","","","","","",""
"1335","
  <p style=""font-size: 40px;"">nuder</p>
  <p style=""font-size: 16px;"">F = YES &nbsp;&nbsp;&nbsp; J = NO</p>
","j","html-keyboard-response","25","2.1.0","125753","F=YES, J=NO","sqlz6r5mkt","1","74","83","65","","","","","","lextale","false","false","","","","","","","",""
"1028","
  <p style=""font-size: 40px;"">pillow</p>
  <p style=""font-size: 16px;"">F = YES &nbsp;&nbsp;&nbsp; J = NO</p>
","f","html-keyboard-response","26","2.1.0","126783","F=YES, J=NO","sqlz6r5mkt","1","74","83","65","","","","","","lextale","true","false","","","","","","","",""
"3023","
  <p style=""font-size: 40px;"">shumble</p>
  <p style=""font-size: 16px;"">F = YES &nbsp;&nbsp;&nbsp; J = NO</p>
","f","html-keyboard-response","27","2.1.0","129808","F=YES, J=NO","sqlz6r5mkt","1","74","83","65","","","","","","lextale","false","false","","","","","","","",""
"993","
  <p style=""font-size: 40px;"">thirst</p>
  <p style=""font-size: 16px;"">F = YES &nbsp;&nbsp;&nbsp; J = NO</p>
","f","html-keyboard-response","28","2.1.0","130802","F=YES, J=NO","sqlz6r5mkt","1","74","83","65","","","","","","lextale","true","false","","","","","","","",""
"2181","
  <p style=""font-size: 40px;"">unsail</p>
  <p style=""font-size: 16px;"">F = YES &nbsp;&nbsp;&nbsp; J = NO</p>
","f","html-keyboard-response","29","2.1.0","132985","F=YES, J=NO","sqlz6r5mkt","1","74","83","65","","","","","","lextale","false","false","","","","","","","",""
"1074","
  <p style=""font-size: 40px;"">rifle</p>
  <p style=""font-size: 16px;"">F = YES &nbsp;&nbsp;&nbsp; J = NO</p>
","f","html-keyboard-response","30","2.1.0","134060","F=YES, J=NO","sqlz6r5mkt","1","74","83","65","","","","","","lextale","true","false","","","","","","","",""
"1649","
  <p style=""font-size: 40px;"">mush</p>
  <p style=""font-size: 16px;"">F = YES &nbsp;&nbsp;&nbsp; J = NO</p>
","f","html-keyboard-response","31","2.1.0","135712","F=YES, J=NO","sqlz6r5mkt","1","74","83","65","","","","","","lextale","false","false","","","","","","","",""
"1593","
  <p style=""font-size: 40px;"">drench</p>
  <p style=""font-size: 16px;"">F = YES &nbsp;&nbsp;&nbsp; J = NO</p>
","f","html-keyboard-response","32","2.1.0","137306","F=YES, J=NO","sqlz6r5mkt","1","74","83","65","","","","","","lextale","true","false","","","","","","","",""
"1297","
  <p style=""font-size: 40px;"">snirt</p>
  <p style=""font-size: 16px;"">F = YES &nbsp;&nbsp;&nbsp; J = NO</p>
","j","html-keyboard-response","33","2.1.0","138605","F=YES, J=NO","sqlz6r5mkt","1","74","83","65","","","","","","lextale","false","false","","","","","","","",""
"959","
  <p style=""font-size: 40px;"">bitter</p>
  <p style=""font-size: 16px;"">F = YES &nbsp;&nbsp;&nbsp; J = NO</p>
","f","html-keyboard-response","34","2.1.0","139566","F=YES, J=NO","sqlz6r5mkt","1","74","83","65","","","","","","lextale","true","false","","","","","","","",""
"2400","
  <p style=""font-size: 40px;"">pliff</p>
  <p style=""font-size: 16px;"">F = YES &nbsp;&nbsp;&nbsp; J = NO</p>
","f","html-keyboard-response","35","2.1.0","141967","F=YES, J=NO","sqlz6r5mkt","1","74","83","65","","","","","","lextale","false","false","","","","","","","",""
"1177","
  <p style=""font-size: 40px;"">tablet</p>
  <p style=""font-size: 16px;"">F = YES &nbsp;&nbsp;&nbsp; J = NO</p>
","f","html-keyboard-response","36","2.1.0","143150","F=YES, J=NO","sqlz6r5mkt","1","74","83","65","","","","","","lextale","true","false","","","","","","","",""
"1067","
  <p style=""font-size: 40px;"">glimmer</p>
  <p style=""font-size: 16px;"">F = YES &nbsp;&nbsp;&nbsp; J = NO</p>
","f","html-keyboard-response","37","2.1.0","144219","F=YES, J=NO","sqlz6r5mkt","1","74","83","65","","","","","","lextale","true","false","","","","","","","",""
"2353","
  <p style=""font-size: 40px;"">slink</p>
  <p style=""font-size: 16px;"">F = YES &nbsp;&nbsp;&nbsp; J = NO</p>
","f","html-keyboard-response","38","2.1.0","146574","F=YES, J=NO","sqlz6r5mkt","1","74","83","65","","","","","","lextale","true","false","","","","","","","",""
"916","
  <p style=""font-size: 40px;"">clever</p>
  <p style=""font-size: 16px;"">F = YES &nbsp;&nbsp;&nbsp; J = NO</p>
","f","html-keyboard-response","39","2.1.0","147491","F=YES, J=NO","sqlz6r5mkt","1","74","83","65","","","","","","lextale","true","false","","","","","","","",""
"1962","
  <p style=""font-size: 40px;"">grum</p>
  <p style=""font-size: 16px;"">F = YES &nbsp;&nbsp;&nbsp; J = NO</p>
","j","html-keyboard-response","40","2.1.0","149455","F=YES, J=NO","sqlz6r5mkt","1","74","83","65","","","","","","lextale","false","false","","","","","","","",""
"1021","
  <p style=""font-size: 40px;"">string</p>
  <p style=""font-size: 16px;"">F = YES &nbsp;&nbsp;&nbsp; J = NO</p>
","f","html-keyboard-response","41","2.1.0","150478","F=YES, J=NO","sqlz6r5mkt","1","74","83","65","","","","","","lextale","true","false","","","","","","","",""
"1366","
  <p style=""font-size: 40px;"">plim</p>
  <p style=""font-size: 16px;"">F = YES &nbsp;&nbsp;&nbsp; J = NO</p>
","j","html-keyboard-response","42","2.1.0","151846","F=YES, J=NO","sqlz6r5mkt","1","74","83","65","","","","","","lextale","false","false","","","","","","","",""
"808","
  <p style=""font-size: 40px;"">cable</p>
  <p style=""font-size: 16px;"">F = YES &nbsp;&nbsp;&nbsp; J = NO</p>
","f","html-keyboard-response","43","2.1.0","152655","F=YES, J=NO","sqlz6r5mkt","1","74","83","65","","","","","","lextale","true","false","","","","","","","",""
"1239","
  <p style=""font-size: 40px;"">shrivel</p>
  <p style=""font-size: 16px;"">F = YES &nbsp;&nbsp;&nbsp; J = NO</p>
","f","html-keyboard-response","44","2.1.0","153896","F=YES, J=NO","sqlz6r5mkt","1","74","83","65","","","","","","lextale","true","false","","","","","","","",""
"1002","
  <p style=""font-size: 40px;"">tarnish</p>
  <p style=""font-size: 16px;"">F = YES &nbsp;&nbsp;&nbsp; J = NO</p>
","f","html-keyboard-response","45","2.1.0","154900","F=YES, J=NO","sqlz6r5mkt","1","74","83","65","","","","","","lextale","true","false","","","","","","","",""
"1706","
  <p style=""font-size: 40px;"">blim</p>
  <p style=""font-size: 16px;"">F = YES &nbsp;&nbsp;&nbsp; J = NO</p>
","j","html-keyboard-response","46","2.1.0","156608","F=YES, J=NO","sqlz6r5mkt","1","74","83","65","","","","","","lextale","false","false","","","","","","","",""
"2392","
  <p style=""font-size: 40px;"">stifle</p>
  <p style=""font-size: 16px;"">F = YES &nbsp;&nbsp;&nbsp; J = NO</p>
","f","html-keyboard-response","47","2.1.0","159001","F=YES, J=NO","sqlz6r5mkt","1","74","83","65","","","","","","lextale","true","false","","","","","","","",""
"2045","
  <p style=""font-size: 40px;"">bint</p>
  <p style=""font-size: 16px;"">F = YES &nbsp;&nbsp;&nbsp; J = NO</p>
","j","html-keyboard-response","48","2.1.0","161049","F=YES, J=NO","sqlz6r5mkt","1","74","83","65","","","","","","lextale","false","false","","","","","","","",""
"858","
  <p style=""font-size: 40px;"">purple</p>
  <p style=""font-size: 16px;"">F = YES &nbsp;&nbsp;&nbsp; J = NO</p>
","f","html-keyboard-response","49","2.1.0","161908","F=YES, J=NO","sqlz6r5mkt","1","74","83","65","","","","","","lextale","true","false","","","","","","","",""
"848","
  <p style=""font-size: 40px;"">wriggle</p>
  <p style=""font-size: 16px;"">F = YES &nbsp;&nbsp;&nbsp; J = NO</p>
","f","html-keyboard-response","50","2.1.0","162758","F=YES, J=NO","sqlz6r5mkt","1","74","83","65","","","","","","lextale","true","false","","","","","","","",""
"1009","
  <p style=""font-size: 40px;"">mangle</p>
  <p style=""font-size: 16px;"">F = YES &nbsp;&nbsp;&nbsp; J = NO</p>
","f","html-keyboard-response","51","2.1.0","163769","F=YES, J=NO","sqlz6r5mkt","1","74","83","65","","","","","","lextale","true","false","","","","","","","",""
"2985","
  <p style=""font-size: 40px;"">shramp</p>
  <p style=""font-size: 16px;"">F = YES &nbsp;&nbsp;&nbsp; J = NO</p>
","j","html-keyboard-response","52","2.1.0","166756","F=YES, J=NO","sqlz6r5mkt","1","74","83","65","","","","","","lextale","false","false","","","","","","","",""
"879","
  <p style=""font-size: 40px;"">flirt</p>
  <p style=""font-size: 16px;"">F = YES &nbsp;&nbsp;&nbsp; J = NO</p>
","f","html-keyboard-response","53","2.1.0","167636","F=YES, J=NO","sqlz6r5mkt","1","74","83","65","","","","","","lextale","true","false","","","","","","","",""
"1743","
  <p style=""font-size: 40px;"">frip</p>
  <p style=""font-size: 16px;"">F = YES &nbsp;&nbsp;&nbsp; J = NO</p>
","j","html-keyboard-response","54","2.1.0","169381","F=YES, J=NO","sqlz6r5mkt","1","74","83","65","","","","","","lextale","false","false","","","","","","","",""
"904","
  <p style=""font-size: 40px;"">tangle</p>
  <p style=""font-size: 16px;"">F = YES &nbsp;&nbsp;&nbsp; J = NO</p>
","f","html-keyboard-response","55","2.1.0","170287","F=YES, J=NO","sqlz6r5mkt","1","74","83","65","","","","","","lextale","true","false","","","","","","","",""
"847","
  <p style=""font-size: 40px;"">crumble</p>
  <p style=""font-size: 16px;"">F = YES &nbsp;&nbsp;&nbsp; J = NO</p>
","f","html-keyboard-response","56","2.1.0","171135","F=YES, J=NO","sqlz6r5mkt","1","74","83","65","","","","","","lextale","true","false","","","","","","","",""
"2694","
  <p style=""font-size: 40px;"">wrinkle</p>
  <p style=""font-size: 16px;"">F = YES &nbsp;&nbsp;&nbsp; J = NO</p>
","f","html-keyboard-response","57","2.1.0","173830","F=YES, J=NO","sqlz6r5mkt","1","74","83","65","","","","","","lextale","true","false","","","","","","","",""
"920","
  <p style=""font-size: 40px;"">slumb</p>
  <p style=""font-size: 16px;"">F = YES &nbsp;&nbsp;&nbsp; J = NO</p>
","f","html-keyboard-response","58","2.1.0","174752","F=YES, J=NO","sqlz6r5mkt","1","74","83","65","","","","","","lextale","false","false","","","","","","","",""
"1268","
  <p style=""font-size: 40px;"">jungle</p>
  <p style=""font-size: 16px;"">F = YES &nbsp;&nbsp;&nbsp; J = NO</p>
","f","html-keyboard-response","59","2.1.0","176022","F=YES, J=NO","sqlz6r5mkt","1","74","83","65","","","","","","lextale","true","false","","","","","","","",""
"1312","
  <p style=""font-size: 40px;"">frolick</p>
  <p style=""font-size: 16px;"">F = YES &nbsp;&nbsp;&nbsp; J = NO</p>
","j","html-keyboard-response","60","2.1.0","177335","F=YES, J=NO","sqlz6r5mkt","1","74","83","65","","","","","","lextale","false","false","","","","","","","",""
"4186","
      <h2>LexTALE Test Completed</h2>
      <p>Your LexTALE vocabulary score is: <strong>74%</strong></p>
      <p>Press any key to continue.</p>
    "," ","html-keyboard-response","61","2.1.0","181528","F=YES, J=NO","sqlz6r5mkt","1","74","83","65","","","","","","","","","","","","","","","",""
"52231","
    <div style=""max-width: 800px; margin: auto; text-align: left;"">
      <h2>Break Time</h2>
      <p>You have completed the first part of the study.</p>
      <p>You may take a short <strong>30-second break</strong> before continuing.</p>
      <p>When you’re ready, press any key to continue to the final task.</p>
    </div>
  "," ","html-keyboard-response","62","2.1.0","233762","F=YES, J=NO","sqlz6r5mkt","1","74","83","65","","","","","","","","","","","","","","","",""
"20296","
    <div style=""max-width: 800px; margin: auto; text-align: left;"">
      <h2>Part 2: Lexical Decision Task</h2>
      <p>You will now begin the second part of the study.</p>
      <p>Each trial will follow this sequence:</p>
      <ul>
        <li>A fixation cross (+) appears at the center of the screen.</li>
        <li>You will hear a short beep followed by a spoken word.</li>
        <li>A written word will appear briefly on the screen.</li>
      </ul>
      <p>Your task is to judge whether the <strong>written word</strong> is a real English word.</p>
      <p style=""margin-top: 1em;""><strong>Key responses:</strong></p>
      <ul>
        <li><strong>F</strong> = YES (real English word)</li>
        <li><strong>J</strong> = NO (not a real English word)</li>
      </ul>
      <p>Please respond as quickly and accurately as you can.</p>
      <p style=""margin-top: 2em;"">Press any key to continue.</p>
    </div>
  "," ","html-keyboard-response","63","2.1.0","254060","F=YES, J=NO","sqlz6r5mkt","1","74","83","65","","","","","","","","","","","","","","","",""
"13057","
    <div style=""max-width: 800px; margin: auto; text-align: left;"">
      <h2>Before You Begin</h2>
      <p>Make sure your sound is turned on.</p>
      <p>You will hear audio during each trial, but your decision should be based only on the <strong>written word</strong> you see on the screen.</p>
      <p><strong>Reminder:</strong></p>
      <ul>
        <li><strong>F</strong> = YES (real English word)</li>
        <li><strong>J</strong> = NO (not a real English word)</li>
      </ul>
      <p style=""margin-top: 2em;"">Press any key when you are ready to begin.</p>
    </div>
  "," ","html-keyboard-response","64","2.1.0","267120","F=YES, J=NO","sqlz6r5mkt","1","74","83","65","","","","","","","","","","","","","","","",""
"8773","
    <div style=""max-width: 800px; margin: auto; text-align: left;"">
      <h2>Part 2: Practice Trials</h2>
      <p>You will now complete a few <strong>practice trials</strong> to get familiar with the task.</p>
      <p>These trials are <strong>not scored</strong> and are only to help you get used to the format.</p>
      <p style=""margin-top: 2em;"">Press any key to begin.</p>
    </div>
  "," ","html-keyboard-response","65","2.1.0","275895","F=YES, J=NO","sqlz6r5mkt","1","74","83","65","","","","","","","","","","","","","","","",""
"2365","<p>Starting practice block 1 of 2. Press any key to continue.</p>"," ","html-keyboard-response","66","2.1.0","278262","F=YES, J=NO","sqlz6r5mkt","1","74","83","65","","","","","","","","","","","","","","","",""
"null","<p style=""font-size: 50px;"">+</p>","null","html-keyboard-response","67","2.1.0","278583","F=YES, J=NO","sqlz6r5mkt","1","74","83","65","","","","","","","","","","","","","","","",""
"null","audio/beep-329314.mp3","null","audio-keyboard-response","68","2.1.0","280760","F=YES, J=NO","sqlz6r5mkt","1","74","83","65","","","","","","","","","","","","","","","",""
"null","audio/breath.wav","null","audio-keyboard-response","69","2.1.0","282415","F=YES, J=NO","sqlz6r5mkt","1","74","83","65","","","","","","","","","","","","","","","",""
"null","
          <p id=""word"" style=""font-size: 40px;"">pack</p>
          <p style=""font-size: 16px;"">F = YES &nbsp;&nbsp;&nbsp; J = NO</p>
        ","null","html-keyboard-response","70","2.1.0","283921","F=YES, J=NO","sqlz6r5mkt","1","74","83","65","","","","","","","","","pack","breath","filler","filler","f","false","",""
"null","<p style=""font-size: 50px;"">+</p>","null","html-keyboard-response","71","2.1.0","284227","F=YES, J=NO","sqlz6r5mkt","1","74","83","65","","","","","","","","","","","","","","","",""
"null","audio/beep-329314.mp3","null","audio-keyboard-response","72","2.1.0","285775","F=YES, J=NO","sqlz6r5mkt","1","74","83","65","","","","","","","","","","","","","","","",""
"null","audio/bottle.wav","null","audio-keyboard-response","73","2.1.0","286724","F=YES, J=NO","sqlz6r5mkt","1","74","83","65","","","","","","","","","","","","","","","",""
"null","
          <p id=""word"" style=""font-size: 40px;"">watch</p>
          <p style=""font-size: 16px;"">F = YES &nbsp;&nbsp;&nbsp; J = NO</p>
        ","null","html-keyboard-response","74","2.1.0","288235","F=YES, J=NO","sqlz6r5mkt","1","74","83","65","","","","","","","","","watch","bottle","filler","filler","f","false","",""
"null","<p style=""font-size: 50px;"">+</p>","null","html-keyboard-response","75","2.1.0","288550","F=YES, J=NO","sqlz6r5mkt","1","74","83","65","","","","","","","","","","","","","","","",""
"null","audio/beep-329314.mp3","null","audio-keyboard-response","76","2.1.0","290093","F=YES, J=NO","sqlz6r5mkt","1","74","83","65","","","","","","","","","","","","","","","",""
"null","audio/gift1.wav","null","audio-keyboard-response","77","2.1.0","290676","F=YES, J=NO","sqlz6r5mkt","1","74","83","65","","","","","","","","","","","","","","","",""
"null","
          <p id=""word"" style=""font-size: 40px;"">protsh</p>
          <p style=""font-size: 16px;"">F = YES &nbsp;&nbsp;&nbsp; J = NO</p>
        ","null","html-keyboard-response","78","2.1.0","292184","F=YES, J=NO","sqlz6r5mkt","1","74","83","65","","","","","","","","","protsh","gift1","pseudoword","pseudoword","j","false","",""
"null","<p style=""font-size: 50px;"">+</p>","null","html-keyboard-response","79","2.1.0","292504","F=YES, J=NO","sqlz6r5mkt","1","74","83","65","","","","","","","","","","","","","","","",""
"null","audio/beep-329314.mp3","null","audio-keyboard-response","80","2.1.0","294053","F=YES, J=NO","sqlz6r5mkt","1","74","83","65","","","","","","","","","","","","","","","",""
"null","audio/dome.wav","null","audio-keyboard-response","81","2.1.0","294883","F=YES, J=NO","sqlz6r5mkt","1","74","83","65","","","","","","","","","","","","","","","",""
"null","
          <p id=""word"" style=""font-size: 40px;"">scrupliness</p>
          <p style=""font-size: 16px;"">F = YES &nbsp;&nbsp;&nbsp; J = NO</p>
        ","null","html-keyboard-response","82","2.1.0","296402","F=YES, J=NO","sqlz6r5mkt","1","74","83","65","","","","","","","","","scrupliness","dome","pseudoword","pseudoword","j","false","",""
"null","<p style=""font-size: 50px;"">+</p>","null","html-keyboard-response","83","2.1.0","296718","F=YES, J=NO","sqlz6r5mkt","1","74","83","65","","","","","","","","","","","","","","","",""
"null","audio/beep-329314.mp3","null","audio-keyboard-response","84","2.1.0","298254","F=YES, J=NO","sqlz6r5mkt","1","74","83","65","","","","","","","","","","","","","","","",""
"null","audio/age1.wav","null","audio-keyboard-response","85","2.1.0","299164","F=YES, J=NO","sqlz6r5mkt","1","74","83","65","","","","","","","","","","","","","","","",""
"null","
          <p id=""word"" style=""font-size: 40px;"">bake</p>
          <p style=""font-size: 16px;"">F = YES &nbsp;&nbsp;&nbsp; J = NO</p>
        ","null","html-keyboard-response","86","2.1.0","300672","F=YES, J=NO","sqlz6r5mkt","1","74","83","65","","","","","","","","","bake","age1","filler","filler","f","false","",""
"null","<p style=""font-size: 50px;"">+</p>","null","html-keyboard-response","87","2.1.0","300987","F=YES, J=NO","sqlz6r5mkt","1","74","83","65","","","","","","","","","","","","","","","",""
"null","audio/beep-329314.mp3","null","audio-keyboard-response","88","2.1.0","302513","F=YES, J=NO","sqlz6r5mkt","1","74","83","65","","","","","","","","","","","","","","","",""
"null","audio/kettle1.wav","null","audio-keyboard-response","89","2.1.0","303243","F=YES, J=NO","sqlz6r5mkt","1","74","83","65","","","","","","","","","","","","","","","",""
"632","
          <p id=""word"" style=""font-size: 40px;"">wrap</p>
          <p style=""font-size: 16px;"">F = YES &nbsp;&nbsp;&nbsp; J = NO</p>
        ","f","html-keyboard-response","90","2.1.0","303877","F=YES, J=NO","sqlz6r5mkt","1","74","83","65","","","","","","","","","wrap","kettle1","filler","filler","f","true","",""
"null","<p style=""font-size: 50px;"">+</p>","null","html-keyboard-response","91","2.1.0","304187","F=YES, J=NO","sqlz6r5mkt","1","74","83","65","","","","","","","","","","","","","","","",""
"null","audio/beep-329314.mp3","null","audio-keyboard-response","92","2.1.0","305734","F=YES, J=NO","sqlz6r5mkt","1","74","83","65","","","","","","","","","","","","","","","",""
"null","audio/camera1.wav","null","audio-keyboard-response","93","2.1.0","306623","F=YES, J=NO","sqlz6r5mkt","1","74","83","65","","","","","","","","","","","","","","","",""
"1147","
          <p id=""word"" style=""font-size: 40px;"">stir</p>
          <p style=""font-size: 16px;"">F = YES &nbsp;&nbsp;&nbsp; J = NO</p>
        ","f","html-keyboard-response","94","2.1.0","307771","F=YES, J=NO","sqlz6r5mkt","1","74","83","65","","","","","","","","","stir","camera1","filler","filler","f","true","",""
"null","<p style=""font-size: 50px;"">+</p>","null","html-keyboard-response","95","2.1.0","308087","F=YES, J=NO","sqlz6r5mkt","1","74","83","65","","","","","","","","","","","","","","","",""
"null","audio/beep-329314.mp3","null","audio-keyboard-response","96","2.1.0","309633","F=YES, J=NO","sqlz6r5mkt","1","74","83","65","","","","","","","","","","","","","","","",""
"null","audio/winter.wav","null","audio-keyboard-response","97","2.1.0","310403","F=YES, J=NO","sqlz6r5mkt","1","74","83","65","","","","","","","","","","","","","","","",""
"null","
          <p id=""word"" style=""font-size: 40px;"">straven</p>
          <p style=""font-size: 16px;"">F = YES &nbsp;&nbsp;&nbsp; J = NO</p>
        ","null","html-keyboard-response","98","2.1.0","311917","F=YES, J=NO","sqlz6r5mkt","1","74","83","65","","","","","","","","","straven","winter","pseudoword","pseudoword","j","false","",""
"null","<p style=""font-size: 50px;"">+</p>","null","html-keyboard-response","99","2.1.0","312234","F=YES, J=NO","sqlz6r5mkt","1","74","83","65","","","","","","","","","","","","","","","",""
"null","audio/beep-329314.mp3","null","audio-keyboard-response","100","2.1.0","313773","F=YES, J=NO","sqlz6r5mkt","1","74","83","65","","","","","","","","","","","","","","","",""
"null","audio/haste1.wav","null","audio-keyboard-response","101","2.1.0","314603","F=YES, J=NO","sqlz6r5mkt","1","74","83","65","","","","","","","","","","","","","","","",""
"594","
          <p id=""word"" style=""font-size: 40px;"">coraconate</p>
          <p style=""font-size: 16px;"">F = YES &nbsp;&nbsp;&nbsp; J = NO</p>
        ","f","html-keyboard-response","102","2.1.0","315206","F=YES, J=NO","sqlz6r5mkt","1","74","83","65","","","","","","","","","coraconate","haste1","pseudoword","pseudoword","j","false","",""
"null","<p style=""font-size: 50px;"">+</p>","null","html-keyboard-response","103","2.1.0","315518","F=YES, J=NO","sqlz6r5mkt","1","74","83","65","","","","","","","","","","","","","","","",""
"null","audio/beep-329314.mp3","null","audio-keyboard-response","104","2.1.0","317073","F=YES, J=NO","sqlz6r5mkt","1","74","83","65","","","","","","","","","","","","","","","",""
"null","audio/baby.wav","null","audio-keyboard-response","105","2.1.0","317883","F=YES, J=NO","sqlz6r5mkt","1","74","83","65","","","","","","","","","","","","","","","",""
"null","
          <p id=""word"" style=""font-size: 40px;"">lift</p>
          <p style=""font-size: 16px;"">F = YES &nbsp;&nbsp;&nbsp; J = NO</p>
        ","null","html-keyboard-response","106","2.1.0","319402","F=YES, J=NO","sqlz6r5mkt","1","74","83","65","","","","","","","","","lift","baby","filler","filler","f","false","",""
"null","<p style=""font-size: 50px;"">+</p>","null","html-keyboard-response","107","2.1.0","319719","F=YES, J=NO","sqlz6r5mkt","1","74","83","65","","","","","","","","","","","","","","","",""
"null","audio/beep-329314.mp3","null","audio-keyboard-response","108","2.1.0","321253","F=YES, J=NO","sqlz6r5mkt","1","74","83","65","","","","","","","","","","","","","","","",""
"null","audio/empire.wav","null","audio-keyboard-response","109","2.1.0","322043","F=YES, J=NO","sqlz6r5mkt","1","74","83","65","","","","","","","","","","","","","","","",""
"1269","
          <p id=""word"" style=""font-size: 40px;"">slorby</p>
          <p style=""font-size: 16px;"">F = YES &nbsp;&nbsp;&nbsp; J = NO</p>
        ","j","html-keyboard-response","110","2.1.0","323313","F=YES, J=NO","sqlz6r5mkt","1","74","83","65","","","","","","","","","slorby","empire","pseudoword","pseudoword","j","true","",""
"null","<p style=""font-size: 50px;"">+</p>","null","html-keyboard-response","111","2.1.0","323620","F=YES, J=NO","sqlz6r5mkt","1","74","83","65","","","","","","","","","","","","","","","",""
"null","audio/beep-329314.mp3","null","audio-keyboard-response","112","2.1.0","325159","F=YES, J=NO","sqlz6r5mkt","1","74","83","65","","","","","","","","","","","","","","","",""
"null","audio/flaw.wav","null","audio-keyboard-response","113","2.1.0","326043","F=YES, J=NO","sqlz6r5mkt","1","74","83","65","","","","","","","","","","","","","","","",""
"1192","
          <p id=""word"" style=""font-size: 40px;"">thwool</p>
          <p style=""font-size: 16px;"">F = YES &nbsp;&nbsp;&nbsp; J = NO</p>
        ","j","html-keyboard-response","114","2.1.0","327237","F=YES, J=NO","sqlz6r5mkt","1","74","83","65","","","","","","","","","thwool","flaw","pseudoword","pseudoword","j","true","",""
"6903","<p>Starting practice block 2 of 2. Press any key to continue.</p>"," ","html-keyboard-response","115","2.1.0","334142","F=YES, J=NO","sqlz6r5mkt","1","74","83","65","","","","","","","","","","","","","","","",""
"null","<p style=""font-size: 50px;"">+</p>","null","html-keyboard-response","116","2.1.0","334455","F=YES, J=NO","sqlz6r5mkt","1","74","83","65","","","","","","","","","","","","","","","",""
"null","audio/beep-329314.mp3","null","audio-keyboard-response","117","2.1.0","335993","F=YES, J=NO","sqlz6r5mkt","1","74","83","65","","","","","","","","","","","","","","","",""
"null","audio/battle1.wav","null","audio-keyboard-response","118","2.1.0","336514","F=YES, J=NO","sqlz6r5mkt","1","74","83","65","","","","","","","","","","","","","","","",""
"1126","
          <p id=""word"" style=""font-size: 40px;"">boil</p>
          <p style=""font-size: 16px;"">F = YES &nbsp;&nbsp;&nbsp; J = NO</p>
        ","j","html-keyboard-response","119","2.1.0","337642","F=YES, J=NO","sqlz6r5mkt","1","74","83","65","","","","","","","","","boil","battle1","filler","filler","f","false","",""
"null","<p style=""font-size: 50px;"">+</p>","null","html-keyboard-response","120","2.1.0","337950","F=YES, J=NO","sqlz6r5mkt","1","74","83","65","","","","","","","","","","","","","","","",""
"null","audio/beep-329314.mp3","null","audio-keyboard-response","121","2.1.0","339494","F=YES, J=NO","sqlz6r5mkt","1","74","83","65","","","","","","","","","","","","","","","",""
"null","audio/cash1.wav","null","audio-keyboard-response","122","2.1.0","340417","F=YES, J=NO","sqlz6r5mkt","1","74","83","65","","","","","","","","","","","","","","","",""
"1481","
          <p id=""word"" style=""font-size: 40px;"">splear</p>
          <p style=""font-size: 16px;"">F = YES &nbsp;&nbsp;&nbsp; J = NO</p>
        ","f","html-keyboard-response","123","2.1.0","341903","F=YES, J=NO","sqlz6r5mkt","1","74","83","65","","","","","","","","","splear","cash1","pseudoword","pseudoword","j","false","",""
"null","<p style=""font-size: 50px;"">+</p>","null","html-keyboard-response","124","2.1.0","342220","F=YES, J=NO","sqlz6r5mkt","1","74","83","65","","","","","","","","","","","","","","","",""
"null","audio/beep-329314.mp3","null","audio-keyboard-response","125","2.1.0","343753","F=YES, J=NO","sqlz6r5mkt","1","74","83","65","","","","","","","","","","","","","","","",""
"null","audio/pig.wav","null","audio-keyboard-response","126","2.1.0","344453","F=YES, J=NO","sqlz6r5mkt","1","74","83","65","","","","","","","","","","","","","","","",""
"871","
          <p id=""word"" style=""font-size: 40px;"">tirlike</p>
          <p style=""font-size: 16px;"">F = YES &nbsp;&nbsp;&nbsp; J = NO</p>
        ","j","html-keyboard-response","127","2.1.0","345325","F=YES, J=NO","sqlz6r5mkt","1","74","83","65","","","","","","","","","tirlike","pig","pseudoword","pseudoword","j","true","",""
"null","<p style=""font-size: 50px;"">+</p>","null","html-keyboard-response","128","2.1.0","345636","F=YES, J=NO","sqlz6r5mkt","1","74","83","65","","","","","","","","","","","","","","","",""
"null","audio/beep-329314.mp3","null","audio-keyboard-response","129","2.1.0","347174","F=YES, J=NO","sqlz6r5mkt","1","74","83","65","","","","","","","","","","","","","","","",""
"null","audio/terrain.wav","null","audio-keyboard-response","130","2.1.0","347953","F=YES, J=NO","sqlz6r5mkt","1","74","83","65","","","","","","","","","","","","","","","",""
"896","
          <p id=""word"" style=""font-size: 40px;"">twist</p>
          <p style=""font-size: 16px;"">F = YES &nbsp;&nbsp;&nbsp; J = NO</p>
        ","f","html-keyboard-response","131","2.1.0","348851","F=YES, J=NO","sqlz6r5mkt","1","74","83","65","","","","","","","","","twist","terrain","filler","filler","f","true","",""
"null","<p style=""font-size: 50px;"">+</p>","null","html-keyboard-response","132","2.1.0","349157","F=YES, J=NO","sqlz6r5mkt","1","74","83","65","","","","","","","","","","","","","","","",""
"null","audio/beep-329314.mp3","null","audio-keyboard-response","133","2.1.0","350693","F=YES, J=NO","sqlz6r5mkt","1","74","83","65","","","","","","","","","","","","","","","",""
"null","audio/mind.wav","null","audio-keyboard-response","134","2.1.0","351313","F=YES, J=NO","sqlz6r5mkt","1","74","83","65","","","","","","","","","","","","","","","",""
"870","
          <p id=""word"" style=""font-size: 40px;"">crainate</p>
          <p style=""font-size: 16px;"">F = YES &nbsp;&nbsp;&nbsp; J = NO</p>
        ","j","html-keyboard-response","135","2.1.0","352185","F=YES, J=NO","sqlz6r5mkt","1","74","83","65","","","","","","","","","crainate","mind","pseudoword","pseudoword","j","true","",""
"null","<p style=""font-size: 50px;"">+</p>","null","html-keyboard-response","136","2.1.0","352487","F=YES, J=NO","sqlz6r5mkt","1","74","83","65","","","","","","","","","","","","","","","",""
"null","audio/beep-329314.mp3","null","audio-keyboard-response","137","2.1.0","354013","F=YES, J=NO","sqlz6r5mkt","1","74","83","65","","","","","","","","","","","","","","","",""
"null","audio/cancer1.wav","null","audio-keyboard-response","138","2.1.0","354636","F=YES, J=NO","sqlz6r5mkt","1","74","83","65","","","","","","","","","","","","","","","",""
"1316","
          <p id=""word"" style=""font-size: 40px;"">draw</p>
          <p style=""font-size: 16px;"">F = YES &nbsp;&nbsp;&nbsp; J = NO</p>
        ","f","html-keyboard-response","139","2.1.0","355957","F=YES, J=NO","sqlz6r5mkt","1","74","83","65","","","","","","","","","draw","cancer1","filler","filler","f","true","",""
"null","<p style=""font-size: 50px;"">+</p>","null","html-keyboard-response","140","2.1.0","356269","F=YES, J=NO","sqlz6r5mkt","1","74","83","65","","","","","","","","","","","","","","","",""
"null","audio/beep-329314.mp3","null","audio-keyboard-response","141","2.1.0","357793","F=YES, J=NO","sqlz6r5mkt","1","74","83","65","","","","","","","","","","","","","","","",""
"null","audio/foot1.wav","null","audio-keyboard-response","142","2.1.0","358553","F=YES, J=NO","sqlz6r5mkt","1","74","83","65","","","","","","","","","","","","","","","",""
"697","
          <p id=""word"" style=""font-size: 40px;"">thrutt</p>
          <p style=""font-size: 16px;"">F = YES &nbsp;&nbsp;&nbsp; J = NO</p>
        ","j","html-keyboard-response","143","2.1.0","359253","F=YES, J=NO","sqlz6r5mkt","1","74","83","65","","","","","","","","","thrutt","foot1","pseudoword","pseudoword","j","true","",""
"null","<p style=""font-size: 50px;"">+</p>","null","html-keyboard-response","144","2.1.0","359572","F=YES, J=NO","sqlz6r5mkt","1","74","83","65","","","","","","","","","","","","","","","",""
"null","audio/beep-329314.mp3","null","audio-keyboard-response","145","2.1.0","361113","F=YES, J=NO","sqlz6r5mkt","1","74","83","65","","","","","","","","","","","","","","","",""
"null","audio/van1.wav","null","audio-keyboard-response","146","2.1.0","361692","F=YES, J=NO","sqlz6r5mkt","1","74","83","65","","","","","","","","","","","","","","","",""
"958","
          <p id=""word"" style=""font-size: 40px;"">push</p>
          <p style=""font-size: 16px;"">F = YES &nbsp;&nbsp;&nbsp; J = NO</p>
        ","f","html-keyboard-response","147","2.1.0","362652","F=YES, J=NO","sqlz6r5mkt","1","74","83","65","","","","","","","","","push","van1","filler","filler","f","true","",""
"null","<p style=""font-size: 50px;"">+</p>","null","html-keyboard-response","148","2.1.0","362956","F=YES, J=NO","sqlz6r5mkt","1","74","83","65","","","","","","","","","","","","","","","",""
"null","audio/beep-329314.mp3","null","audio-keyboard-response","149","2.1.0","364493","F=YES, J=NO","sqlz6r5mkt","1","74","83","65","","","","","","","","","","","","","","","",""
"null","audio/stain.wav","null","audio-keyboard-response","150","2.1.0","365173","F=YES, J=NO","sqlz6r5mkt","1","74","83","65","","","","","","","","","","","","","","","",""
"757","
          <p id=""word"" style=""font-size: 40px;"">rumpsied</p>
          <p style=""font-size: 16px;"">F = YES &nbsp;&nbsp;&nbsp; J = NO</p>
        ","j","html-keyboard-response","151","2.1.0","365932","F=YES, J=NO","sqlz6r5mkt","1","74","83","65","","","","","","","","","rumpsied","stain","pseudoword","pseudoword","j","true","",""
"null","<p style=""font-size: 50px;"">+</p>","null","html-keyboard-response","152","2.1.0","366238","F=YES, J=NO","sqlz6r5mkt","1","74","83","65","","","","","","","","","","","","","","","",""
"null","audio/beep-329314.mp3","null","audio-keyboard-response","153","2.1.0","367773","F=YES, J=NO","sqlz6r5mkt","1","74","83","65","","","","","","","","","","","","","","","",""
"null","audio/topic.wav","null","audio-keyboard-response","154","2.1.0","368373","F=YES, J=NO","sqlz6r5mkt","1","74","83","65","","","","","","","","","","","","","","","",""
"1215","
          <p id=""word"" style=""font-size: 40px;"">infortuitist</p>
          <p style=""font-size: 16px;"">F = YES &nbsp;&nbsp;&nbsp; J = NO</p>
        ","j","html-keyboard-response","155","2.1.0","369590","F=YES, J=NO","sqlz6r5mkt","1","74","83","65","","","","","","","","","infortuitist","topic","pseudoword","pseudoword","j","true","",""
"null","<p style=""font-size: 50px;"">+</p>","null","html-keyboard-response","156","2.1.0","369904","F=YES, J=NO","sqlz6r5mkt","1","74","83","65","","","","","","","","","","","","","","","",""
"null","audio/beep-329314.mp3","null","audio-keyboard-response","157","2.1.0","371433","F=YES, J=NO","sqlz6r5mkt","1","74","83","65","","","","","","","","","","","","","","","",""
"null","audio/beach1.wav","null","audio-keyboard-response","158","2.1.0","372293","F=YES, J=NO","sqlz6r5mkt","1","74","83","65","","","","","","","","","","","","","","","",""
"730","
          <p id=""word"" style=""font-size: 40px;"">drive</p>
          <p style=""font-size: 16px;"">F = YES &nbsp;&nbsp;&nbsp; J = NO</p>
        ","f","html-keyboard-response","159","2.1.0","373025","F=YES, J=NO","sqlz6r5mkt","1","74","83","65","","","","","","","","","drive","beach1","filler","filler","f","true","",""
"null","<p style=""font-size: 50px;"">+</p>","null","html-keyboard-response","160","2.1.0","373336","F=YES, J=NO","sqlz6r5mkt","1","74","83","65","","","","","","","","","","","","","","","",""
"null","audio/beep-329314.mp3","null","audio-keyboard-response","161","2.1.0","374873","F=YES, J=NO","sqlz6r5mkt","1","74","83","65","","","","","","","","","","","","","","","",""
"null","audio/menu.wav","null","audio-keyboard-response","162","2.1.0","375573","F=YES, J=NO","sqlz6r5mkt","1","74","83","65","","","","","","","","","","","","","","","",""
"990","
          <p id=""word"" style=""font-size: 40px;"">slice</p>
          <p style=""font-size: 16px;"">F = YES &nbsp;&nbsp;&nbsp; J = NO</p>
        ","f","html-keyboard-response","163","2.1.0","376565","F=YES, J=NO","sqlz6r5mkt","1","74","83","65","","","","","","","","","slice","menu","filler","filler","f","true","",""
"11995","
    <div style=""max-width: 800px; margin: auto; text-align: left;"">
      <h2>Part 2: Main Trials</h2>
      <p>Great job on the practice trials!</p>
      <p>You will now begin the <strong>main set of trials</strong>.</p>
      <p>Remember your key assignments:</p>
      <ul>
        <li><strong>F</strong> = YES (real English word)</li>
        <li><strong>J</strong> = NO (not a real English word)</li>
      </ul>
      <p>Try to respond as <strong>quickly and accurately</strong> as possible.</p>
      <p style=""margin-top: 2em;"">Press any key to begin the main trials.</p>
    </div>
  "," ","html-keyboard-response","164","2.1.0","388562","F=YES, J=NO","sqlz6r5mkt","1","74","83","65","","","","","","","","","","","","","","","",""
"2858","<p>Starting main block 1 of 8. Press any key to continue.</p>"," ","html-keyboard-response","165","2.1.0","391422","F=YES, J=NO","sqlz6r5mkt","1","74","83","65","","","","","","","","","","","","","","","",""
"null","<p style=""font-size: 50px;"">+</p>","null","html-keyboard-response","166","2.1.0","391734","F=YES, J=NO","sqlz6r5mkt","1","74","83","65","","","","","","","","","","","","","","","",""
"null","audio/beep-329314.mp3","null","audio-keyboard-response","167","2.1.0","393332","F=YES, J=NO","sqlz6r5mkt","1","74","83","65","","","","","","","","","","","","","","","",""
"null","audio/show.wav","null","audio-keyboard-response","168","2.1.0","393901","F=YES, J=NO","sqlz6r5mkt","1","74","83","65","","","","","","","","","","","","","","","",""
"825","
          <p id=""word"" style=""font-size: 40px;"">hold</p>
          <p style=""font-size: 16px;"">F = YES &nbsp;&nbsp;&nbsp; J = NO</p>
        ","f","html-keyboard-response","169","2.1.0","394729","F=YES, J=NO","sqlz6r5mkt","1","74","83","65","","","","","","","","","hold","show","metaphor","experimental","f","true","",""
"null","<p style=""font-size: 50px;"">+</p>","null","html-keyboard-response","170","2.1.0","395042","F=YES, J=NO","sqlz6r5mkt","1","74","83","65","","","","","","","","","","","","","","","",""
"null","audio/beep-329314.mp3","null","audio-keyboard-response","171","2.1.0","396571","F=YES, J=NO","sqlz6r5mkt","1","74","83","65","","","","","","","","","","","","","","","",""
"null","audio/account1.wav","null","audio-keyboard-response","172","2.1.0","397281","F=YES, J=NO","sqlz6r5mkt","1","74","83","65","","","","","","","","","","","","","","","",""
"701","
          <p id=""word"" style=""font-size: 40px;"">paint</p>
          <p style=""font-size: 16px;"">F = YES &nbsp;&nbsp;&nbsp; J = NO</p>
        ","f","html-keyboard-response","173","2.1.0","397984","F=YES, J=NO","sqlz6r5mkt","1","74","83","65","","","","","","","","","paint","account1","filler","filler","f","true","",""
"null","<p style=""font-size: 50px;"">+</p>","null","html-keyboard-response","174","2.1.0","398288","F=YES, J=NO","sqlz6r5mkt","1","74","83","65","","","","","","","","","","","","","","","",""
"null","audio/beep-329314.mp3","null","audio-keyboard-response","175","2.1.0","399811","F=YES, J=NO","sqlz6r5mkt","1","74","83","65","","","","","","","","","","","","","","","",""
"null","audio/desire.wav","null","audio-keyboard-response","176","2.1.0","400501","F=YES, J=NO","sqlz6r5mkt","1","74","83","65","","","","","","","","","","","","","","","",""
"845","
          <p id=""word"" style=""font-size: 40px;"">nophed</p>
          <p style=""font-size: 16px;"">F = YES &nbsp;&nbsp;&nbsp; J = NO</p>
        ","j","html-keyboard-response","177","2.1.0","401348","F=YES, J=NO","sqlz6r5mkt","1","74","83","65","","","","","","","","","nophed","desire","pseudoword","pseudoword","j","true","",""
"null","<p style=""font-size: 50px;"">+</p>","null","html-keyboard-response","178","2.1.0","401655","F=YES, J=NO","sqlz6r5mkt","1","74","83","65","","","","","","","","","","","","","","","",""
"null","audio/beep-329314.mp3","null","audio-keyboard-response","179","2.1.0","403191","F=YES, J=NO","sqlz6r5mkt","1","74","83","65","","","","","","","","","","","","","","","",""
"null","audio/golf1.wav","null","audio-keyboard-response","180","2.1.0","403921","F=YES, J=NO","sqlz6r5mkt","1","74","83","65","","","","","","","","","","","","","","","",""
"746","
          <p id=""word"" style=""font-size: 40px;"">bury</p>
          <p style=""font-size: 16px;"">F = YES &nbsp;&nbsp;&nbsp; J = NO</p>
        ","f","html-keyboard-response","181","2.1.0","404669","F=YES, J=NO","sqlz6r5mkt","1","74","83","65","","","","","","","","","bury","golf1","unrelated","experimental","f","true","",""
"null","<p style=""font-size: 50px;"">+</p>","null","html-keyboard-response","182","2.1.0","404972","F=YES, J=NO","sqlz6r5mkt","1","74","83","65","","","","","","","","","","","","","","","",""
"null","audio/beep-329314.mp3","null","audio-keyboard-response","183","2.1.0","406511","F=YES, J=NO","sqlz6r5mkt","1","74","83","65","","","","","","","","","","","","","","","",""
"null","audio/theory1.wav","null","audio-keyboard-response","184","2.1.0","407181","F=YES, J=NO","sqlz6r5mkt","1","74","83","65","","","","","","","","","","","","","","","",""
"896","
          <p id=""word"" style=""font-size: 40px;"">scolve</p>
          <p style=""font-size: 16px;"">F = YES &nbsp;&nbsp;&nbsp; J = NO</p>
        ","f","html-keyboard-response","185","2.1.0","408079","F=YES, J=NO","sqlz6r5mkt","1","74","83","65","","","","","","","","","scolve","theory1","pseudoword","pseudoword","j","false","",""
"null","<p style=""font-size: 50px;"">+</p>","null","html-keyboard-response","186","2.1.0","408386","F=YES, J=NO","sqlz6r5mkt","1","74","83","65","","","","","","","","","","","","","","","",""
"null","audio/beep-329314.mp3","null","audio-keyboard-response","187","2.1.0","409911","F=YES, J=NO","sqlz6r5mkt","1","74","83","65","","","","","","","","","","","","","","","",""
"null","audio/bridge.wav","null","audio-keyboard-response","188","2.1.0","410622","F=YES, J=NO","sqlz6r5mkt","1","74","83","65","","","","","","","","","","","","","","","",""
"650","
          <p id=""word"" style=""font-size: 40px;"">crack</p>
          <p style=""font-size: 16px;"">F = YES &nbsp;&nbsp;&nbsp; J = NO</p>
        ","f","html-keyboard-response","189","2.1.0","411274","F=YES, J=NO","sqlz6r5mkt","1","74","83","65","","","","","","","","","crack","bridge","filler","filler","f","true","",""
"null","<p style=""font-size: 50px;"">+</p>","null","html-keyboard-response","190","2.1.0","411589","F=YES, J=NO","sqlz6r5mkt","1","74","83","65","","","","","","","","","","","","","","","",""
"null","audio/beep-329314.mp3","null","audio-keyboard-response","191","2.1.0","413131","F=YES, J=NO","sqlz6r5mkt","1","74","83","65","","","","","","","","","","","","","","","",""
"null","audio/promise1.wav","null","audio-keyboard-response","192","2.1.0","413781","F=YES, J=NO","sqlz6r5mkt","1","74","83","65","","","","","","","","","","","","","","","",""
"331","
          <p id=""word"" style=""font-size: 40px;"">break</p>
          <p style=""font-size: 16px;"">F = YES &nbsp;&nbsp;&nbsp; J = NO</p>
        ","f","html-keyboard-response","193","2.1.0","414114","F=YES, J=NO","sqlz6r5mkt","1","74","83","65","","","","","","","","","break","promise1","metaphor","experimental","f","true","",""
"null","<p style=""font-size: 50px;"">+</p>","null","html-keyboard-response","194","2.1.0","414429","F=YES, J=NO","sqlz6r5mkt","1","74","83","65","","","","","","","","","","","","","","","",""
"null","audio/beep-329314.mp3","null","audio-keyboard-response","195","2.1.0","415971","F=YES, J=NO","sqlz6r5mkt","1","74","83","65","","","","","","","","","","","","","","","",""
"null","audio/road.wav","null","audio-keyboard-response","196","2.1.0","416404","F=YES, J=NO","sqlz6r5mkt","1","74","83","65","","","","","","","","","","","","","","","",""
"428","
          <p id=""word"" style=""font-size: 40px;"">wappings</p>
          <p style=""font-size: 16px;"">F = YES &nbsp;&nbsp;&nbsp; J = NO</p>
        ","f","html-keyboard-response","197","2.1.0","416833","F=YES, J=NO","sqlz6r5mkt","1","74","83","65","","","","","","","","","wappings","road","pseudoword","pseudoword","j","false","",""
"null","<p style=""font-size: 50px;"">+</p>","null","html-keyboard-response","198","2.1.0","417139","F=YES, J=NO","sqlz6r5mkt","1","74","83","65","","","","","","","","","","","","","","","",""
"null","audio/beep-329314.mp3","null","audio-keyboard-response","199","2.1.0","418671","F=YES, J=NO","sqlz6r5mkt","1","74","83","65","","","","","","","","","","","","","","","",""
"null","audio/survey1.wav","null","audio-keyboard-response","200","2.1.0","419622","F=YES, J=NO","sqlz6r5mkt","1","74","83","65","","","","","","","","","","","","","","","",""
"392","
          <p id=""word"" style=""font-size: 40px;"">release</p>
          <p style=""font-size: 16px;"">F = YES &nbsp;&nbsp;&nbsp; J = NO</p>
        ","f","html-keyboard-response","201","2.1.0","420016","F=YES, J=NO","sqlz6r5mkt","1","74","83","65","","","","","","","","","release","survey1","metaphor","experimental","f","true","",""
"null","<p style=""font-size: 50px;"">+</p>","null","html-keyboard-response","202","2.1.0","420321","F=YES, J=NO","sqlz6r5mkt","1","74","83","65","","","","","","","","","","","","","","","",""
"null","audio/beep-329314.mp3","null","audio-keyboard-response","203","2.1.0","421851","F=YES, J=NO","sqlz6r5mkt","1","74","83","65","","","","","","","","","","","","","","","",""
"null","audio/heart1.wav","null","audio-keyboard-response","204","2.1.0","422501","F=YES, J=NO","sqlz6r5mkt","1","74","83","65","","","","","","","","","","","","","","","",""
"419","
          <p id=""word"" style=""font-size: 40px;"">touch</p>
          <p style=""font-size: 16px;"">F = YES &nbsp;&nbsp;&nbsp; J = NO</p>
        ","f","html-keyboard-response","205","2.1.0","422922","F=YES, J=NO","sqlz6r5mkt","1","74","83","65","","","","","","","","","touch","heart1","metaphor","experimental","f","true","",""
"null","<p style=""font-size: 50px;"">+</p>","null","html-keyboard-response","206","2.1.0","423237","F=YES, J=NO","sqlz6r5mkt","1","74","83","65","","","","","","","","","","","","","","","",""
"null","audio/beep-329314.mp3","null","audio-keyboard-response","207","2.1.0","424772","F=YES, J=NO","sqlz6r5mkt","1","74","83","65","","","","","","","","","","","","","","","",""
"null","audio/kettle1.wav","null","audio-keyboard-response","208","2.1.0","425221","F=YES, J=NO","sqlz6r5mkt","1","74","83","65","","","","","","","","","","","","","","","",""
"404","
          <p id=""word"" style=""font-size: 40px;"">navigate</p>
          <p style=""font-size: 16px;"">F = YES &nbsp;&nbsp;&nbsp; J = NO</p>
        ","f","html-keyboard-response","209","2.1.0","425627","F=YES, J=NO","sqlz6r5mkt","1","74","83","65","","","","","","","","","navigate","kettle1","unrelated","experimental","f","true","",""
"null","<p style=""font-size: 50px;"">+</p>","null","html-keyboard-response","210","2.1.0","425936","F=YES, J=NO","sqlz6r5mkt","1","74","83","65","","","","","","","","","","","","","","","",""
"null","audio/beep-329314.mp3","null","audio-keyboard-response","211","2.1.0","427472","F=YES, J=NO","sqlz6r5mkt","1","74","83","65","","","","","","","","","","","","","","","",""
"null","audio/handle.wav","null","audio-keyboard-response","212","2.1.0","428121","F=YES, J=NO","sqlz6r5mkt","1","74","83","65","","","","","","","","","","","","","","","",""
"325","
          <p id=""word"" style=""font-size: 40px;"">grasp</p>
          <p style=""font-size: 16px;"">F = YES &nbsp;&nbsp;&nbsp; J = NO</p>
        ","f","html-keyboard-response","213","2.1.0","428448","F=YES, J=NO","sqlz6r5mkt","1","74","83","65","","","","","","","","","grasp","handle","literal","experimental","f","true","",""
"null","<p style=""font-size: 50px;"">+</p>","null","html-keyboard-response","214","2.1.0","428758","F=YES, J=NO","sqlz6r5mkt","1","74","83","65","","","","","","","","","","","","","","","",""
"null","audio/beep-329314.mp3","null","audio-keyboard-response","215","2.1.0","430291","F=YES, J=NO","sqlz6r5mkt","1","74","83","65","","","","","","","","","","","","","","","",""
"null","audio/breath.wav","null","audio-keyboard-response","216","2.1.0","430841","F=YES, J=NO","sqlz6r5mkt","1","74","83","65","","","","","","","","","","","","","","","",""
"394","
          <p id=""word"" style=""font-size: 40px;"">construct</p>
          <p style=""font-size: 16px;"">F = YES &nbsp;&nbsp;&nbsp; J = NO</p>
        ","f","html-keyboard-response","217","2.1.0","431238","F=YES, J=NO","sqlz6r5mkt","1","74","83","65","","","","","","","","","construct","breath","unrelated","experimental","f","true","",""
"null","<p style=""font-size: 50px;"">+</p>","null","html-keyboard-response","218","2.1.0","431541","F=YES, J=NO","sqlz6r5mkt","1","74","83","65","","","","","","","","","","","","","","","",""
"null","audio/beep-329314.mp3","null","audio-keyboard-response","219","2.1.0","433071","F=YES, J=NO","sqlz6r5mkt","1","74","83","65","","","","","","","","","","","","","","","",""
"null","audio/pattern.wav","null","audio-keyboard-response","220","2.1.0","433702","F=YES, J=NO","sqlz6r5mkt","1","74","83","65","","","","","","","","","","","","","","","",""
"357","
          <p id=""word"" style=""font-size: 40px;"">tug</p>
          <p style=""font-size: 16px;"">F = YES &nbsp;&nbsp;&nbsp; J = NO</p>
        ","f","html-keyboard-response","221","2.1.0","434063","F=YES, J=NO","sqlz6r5mkt","1","74","83","65","","","","","","","","","tug","pattern","filler","filler","f","true","",""
"null","<p style=""font-size: 50px;"">+</p>","null","html-keyboard-response","222","2.1.0","434377","F=YES, J=NO","sqlz6r5mkt","1","74","83","65","","","","","","","","","","","","","","","",""
"null","audio/beep-329314.mp3","null","audio-keyboard-response","223","2.1.0","435915","F=YES, J=NO","sqlz6r5mkt","1","74","83","65","","","","","","","","","","","","","","","",""
"null","audio/battle1.wav","null","audio-keyboard-response","224","2.1.0","436362","F=YES, J=NO","sqlz6r5mkt","1","74","83","65","","","","","","","","","","","","","","","",""
"430","
          <p id=""word"" style=""font-size: 40px;"">fight</p>
          <p style=""font-size: 16px;"">F = YES &nbsp;&nbsp;&nbsp; J = NO</p>
        ","f","html-keyboard-response","225","2.1.0","436794","F=YES, J=NO","sqlz6r5mkt","1","74","83","65","","","","","","","","","fight","battle1","literal","experimental","f","true","",""
"null","<p style=""font-size: 50px;"">+</p>","null","html-keyboard-response","226","2.1.0","437097","F=YES, J=NO","sqlz6r5mkt","1","74","83","65","","","","","","","","","","","","","","","",""
"null","audio/beep-329314.mp3","null","audio-keyboard-response","227","2.1.0","438651","F=YES, J=NO","sqlz6r5mkt","1","74","83","65","","","","","","","","","","","","","","","",""
"null","audio/roof1.wav","null","audio-keyboard-response","228","2.1.0","439242","F=YES, J=NO","sqlz6r5mkt","1","74","83","65","","","","","","","","","","","","","","","",""
"571","
          <p id=""word"" style=""font-size: 40px;"">wronb</p>
          <p style=""font-size: 16px;"">F = YES &nbsp;&nbsp;&nbsp; J = NO</p>
        ","j","html-keyboard-response","229","2.1.0","439814","F=YES, J=NO","sqlz6r5mkt","1","74","83","65","","","","","","","","","wronb","roof1","pseudoword","pseudoword","j","true","",""
"5202","<p>Excellent! You have finished block 1 of 8.</p>
                     <p>Feel free to take a 30 second break.</p>
                     <p>Press any key when you're ready to continue.</p>"," ","html-keyboard-response","230","2.1.0","445018","F=YES, J=NO","sqlz6r5mkt","1","74","83","65","","","","","","","","","","","","","","","",""
"2509","<p>Starting main block 2 of 8. Press any key to continue.</p>"," ","html-keyboard-response","231","2.1.0","447529","F=YES, J=NO","sqlz6r5mkt","1","74","83","65","","","","","","","","","","","","","","","",""
"null","<p style=""font-size: 50px;"">+</p>","null","html-keyboard-response","232","2.1.0","447840","F=YES, J=NO","sqlz6r5mkt","1","74","83","65","","","","","","","","","","","","","","","",""
"null","audio/beep-329314.mp3","null","audio-keyboard-response","233","2.1.0","449371","F=YES, J=NO","sqlz6r5mkt","1","74","83","65","","","","","","","","","","","","","","","",""
"null","audio/radio1.wav","null","audio-keyboard-response","234","2.1.0","449981","F=YES, J=NO","sqlz6r5mkt","1","74","83","65","","","","","","","","","","","","","","","",""
"382","
          <p id=""word"" style=""font-size: 40px;"">blanter</p>
          <p style=""font-size: 16px;"">F = YES &nbsp;&nbsp;&nbsp; J = NO</p>
        ","f","html-keyboard-response","235","2.1.0","450365","F=YES, J=NO","sqlz6r5mkt","1","74","83","65","","","","","","","","","blanter","radio1","pseudoword","pseudoword","j","false","",""
"null","<p style=""font-size: 50px;"">+</p>","null","html-keyboard-response","236","2.1.0","450674","F=YES, J=NO","sqlz6r5mkt","1","74","83","65","","","","","","","","","","","","","","","",""
"null","audio/beep-329314.mp3","null","audio-keyboard-response","237","2.1.0","452211","F=YES, J=NO","sqlz6r5mkt","1","74","83","65","","","","","","","","","","","","","","","",""
"null","audio/age1.wav","null","audio-keyboard-response","238","2.1.0","452741","F=YES, J=NO","sqlz6r5mkt","1","74","83","65","","","","","","","","","","","","","","","",""
"553","
          <p id=""word"" style=""font-size: 40px;"">seize</p>
          <p style=""font-size: 16px;"">F = YES &nbsp;&nbsp;&nbsp; J = NO</p>
        ","j","html-keyboard-response","239","2.1.0","453296","F=YES, J=NO","sqlz6r5mkt","1","74","83","65","","","","","","","","","seize","age1","unrelated","experimental","f","false","",""
"null","<p style=""font-size: 50px;"">+</p>","null","html-keyboard-response","240","2.1.0","453607","F=YES, J=NO","sqlz6r5mkt","1","74","83","65","","","","","","","","","","","","","","","",""
"null","audio/beep-329314.mp3","null","audio-keyboard-response","241","2.1.0","455152","F=YES, J=NO","sqlz6r5mkt","1","74","83","65","","","","","","","","","","","","","","","",""
"null","audio/scar.wav","null","audio-keyboard-response","242","2.1.0","455801","F=YES, J=NO","sqlz6r5mkt","1","74","83","65","","","","","","","","","","","","","","","",""
"510","
          <p id=""word"" style=""font-size: 40px;"">hide</p>
          <p style=""font-size: 16px;"">F = YES &nbsp;&nbsp;&nbsp; J = NO</p>
        ","f","html-keyboard-response","243","2.1.0","456313","F=YES, J=NO","sqlz6r5mkt","1","74","83","65","","","","","","","","","hide","scar","literal","experimental","f","true","",""
"null","<p style=""font-size: 50px;"">+</p>","null","html-keyboard-response","244","2.1.0","456619","F=YES, J=NO","sqlz6r5mkt","1","74","83","65","","","","","","","","","","","","","","","",""
"null","audio/beep-329314.mp3","null","audio-keyboard-response","245","2.1.0","458152","F=YES, J=NO","sqlz6r5mkt","1","74","83","65","","","","","","","","","","","","","","","",""
"null","audio/weight1.wav","null","audio-keyboard-response","246","2.1.0","458721","F=YES, J=NO","sqlz6r5mkt","1","74","83","65","","","","","","","","","","","","","","","",""
"453","
          <p id=""word"" style=""font-size: 40px;"">crimsh</p>
          <p style=""font-size: 16px;"">F = YES &nbsp;&nbsp;&nbsp; J = NO</p>
        ","f","html-keyboard-response","247","2.1.0","459176","F=YES, J=NO","sqlz6r5mkt","1","74","83","65","","","","","","","","","crimsh","weight1","pseudoword","pseudoword","j","false","",""
"null","<p style=""font-size: 50px;"">+</p>","null","html-keyboard-response","248","2.1.0","459489","F=YES, J=NO","sqlz6r5mkt","1","74","83","65","","","","","","","","","","","","","","","",""
"null","audio/beep-329314.mp3","null","audio-keyboard-response","249","2.1.0","461032","F=YES, J=NO","sqlz6r5mkt","1","74","83","65","","","","","","","","","","","","","","","",""
"null","audio/tax1.wav","null","audio-keyboard-response","250","2.1.0","461881","F=YES, J=NO","sqlz6r5mkt","1","74","83","65","","","","","","","","","","","","","","","",""
"423","
          <p id=""word"" style=""font-size: 40px;"">snate</p>
          <p style=""font-size: 16px;"">F = YES &nbsp;&nbsp;&nbsp; J = NO</p>
        ","f","html-keyboard-response","251","2.1.0","462306","F=YES, J=NO","sqlz6r5mkt","1","74","83","65","","","","","","","","","snate","tax1","pseudoword","pseudoword","j","false","",""
"null","<p style=""font-size: 50px;"">+</p>","null","html-keyboard-response","252","2.1.0","462622","F=YES, J=NO","sqlz6r5mkt","1","74","83","65","","","","","","","","","","","","","","","",""
"null","audio/beep-329314.mp3","null","audio-keyboard-response","253","2.1.0","464151","F=YES, J=NO","sqlz6r5mkt","1","74","83","65","","","","","","","","","","","","","","","",""
"null","audio/plot1.wav","null","audio-keyboard-response","254","2.1.0","464721","F=YES, J=NO","sqlz6r5mkt","1","74","83","65","","","","","","","","","","","","","","","",""
"400","
          <p id=""word"" style=""font-size: 40px;"">glenter</p>
          <p style=""font-size: 16px;"">F = YES &nbsp;&nbsp;&nbsp; J = NO</p>
        ","f","html-keyboard-response","255","2.1.0","465123","F=YES, J=NO","sqlz6r5mkt","1","74","83","65","","","","","","","","","glenter","plot1","pseudoword","pseudoword","j","false","",""
"null","<p style=""font-size: 50px;"">+</p>","null","html-keyboard-response","256","2.1.0","465429","F=YES, J=NO","sqlz6r5mkt","1","74","83","65","","","","","","","","","","","","","","","",""
"null","audio/beep-329314.mp3","null","audio-keyboard-response","257","2.1.0","466971","F=YES, J=NO","sqlz6r5mkt","1","74","83","65","","","","","","","","","","","","","","","",""
"null","audio/survey1.wav","null","audio-keyboard-response","258","2.1.0","467681","F=YES, J=NO","sqlz6r5mkt","1","74","83","65","","","","","","","","","","","","","","","",""
"614","
          <p id=""word"" style=""font-size: 40px;"">imploth</p>
          <p style=""font-size: 16px;"">F = YES &nbsp;&nbsp;&nbsp; J = NO</p>
        ","j","html-keyboard-response","259","2.1.0","468297","F=YES, J=NO","sqlz6r5mkt","1","74","83","65","","","","","","","","","imploth","survey1","pseudoword","pseudoword","j","true","",""
"null","<p style=""font-size: 50px;"">+</p>","null","html-keyboard-response","260","2.1.0","468604","F=YES, J=NO","sqlz6r5mkt","1","74","83","65","","","","","","","","","","","","","","","",""
"null","audio/beep-329314.mp3","null","audio-keyboard-response","261","2.1.0","470132","F=YES, J=NO","sqlz6r5mkt","1","74","83","65","","","","","","","","","","","","","","","",""
"null","audio/alarm1.wav","null","audio-keyboard-response","262","2.1.0","470741","F=YES, J=NO","sqlz6r5mkt","1","74","83","65","","","","","","","","","","","","","","","",""
"436","
          <p id=""word"" style=""font-size: 40px;"">lock</p>
          <p style=""font-size: 16px;"">F = YES &nbsp;&nbsp;&nbsp; J = NO</p>
        ","f","html-keyboard-response","263","2.1.0","471179","F=YES, J=NO","sqlz6r5mkt","1","74","83","65","","","","","","","","","lock","alarm1","filler","filler","f","true","",""
"null","<p style=""font-size: 50px;"">+</p>","null","html-keyboard-response","264","2.1.0","471489","F=YES, J=NO","sqlz6r5mkt","1","74","83","65","","","","","","","","","","","","","","","",""
"null","audio/beep-329314.mp3","null","audio-keyboard-response","265","2.1.0","473031","F=YES, J=NO","sqlz6r5mkt","1","74","83","65","","","","","","","","","","","","","","","",""
"null","audio/prisoner.wav","null","audio-keyboard-response","266","2.1.0","473561","F=YES, J=NO","sqlz6r5mkt","1","74","83","65","","","","","","","","","","","","","","","",""
"623","
          <p id=""word"" style=""font-size: 40px;"">egotian</p>
          <p style=""font-size: 16px;"">F = YES &nbsp;&nbsp;&nbsp; J = NO</p>
        ","j","html-keyboard-response","267","2.1.0","474185","F=YES, J=NO","sqlz6r5mkt","1","74","83","65","","","","","","","","","egotian","prisoner","pseudoword","pseudoword","j","true","",""
"null","<p style=""font-size: 50px;"">+</p>","null","html-keyboard-response","268","2.1.0","474491","F=YES, J=NO","sqlz6r5mkt","1","74","83","65","","","","","","","","","","","","","","","",""
"null","audio/beep-329314.mp3","null","audio-keyboard-response","269","2.1.0","476032","F=YES, J=NO","sqlz6r5mkt","1","74","83","65","","","","","","","","","","","","","","","",""
"null","audio/bishop1.wav","null","audio-keyboard-response","270","2.1.0","476701","F=YES, J=NO","sqlz6r5mkt","1","74","83","65","","","","","","","","","","","","","","","",""
"392","
          <p id=""word"" style=""font-size: 40px;"">play</p>
          <p style=""font-size: 16px;"">F = YES &nbsp;&nbsp;&nbsp; J = NO</p>
        ","f","html-keyboard-response","271","2.1.0","477095","F=YES, J=NO","sqlz6r5mkt","1","74","83","65","","","","","","","","","play","bishop1","filler","filler","f","true","",""
"null","<p style=""font-size: 50px;"">+</p>","null","html-keyboard-response","272","2.1.0","477405","F=YES, J=NO","sqlz6r5mkt","1","74","83","65","","","","","","","","","","","","","","","",""
"null","audio/beep-329314.mp3","null","audio-keyboard-response","273","2.1.0","478931","F=YES, J=NO","sqlz6r5mkt","1","74","83","65","","","","","","","","","","","","","","","",""
"null","audio/noise1.wav","null","audio-keyboard-response","274","2.1.0","479562","F=YES, J=NO","sqlz6r5mkt","1","74","83","65","","","","","","","","","","","","","","","",""
"419","
          <p id=""word"" style=""font-size: 40px;"">slintered</p>
          <p style=""font-size: 16px;"">F = YES &nbsp;&nbsp;&nbsp; J = NO</p>
        ","f","html-keyboard-response","275","2.1.0","479982","F=YES, J=NO","sqlz6r5mkt","1","74","83","65","","","","","","","","","slintered","noise1","pseudoword","pseudoword","j","false","",""
"null","<p style=""font-size: 50px;"">+</p>","null","html-keyboard-response","276","2.1.0","480290","F=YES, J=NO","sqlz6r5mkt","1","74","83","65","","","","","","","","","","","","","","","",""
"null","audio/beep-329314.mp3","null","audio-keyboard-response","277","2.1.0","481831","F=YES, J=NO","sqlz6r5mkt","1","74","83","65","","","","","","","","","","","","","","","",""
"null","audio/belief.wav","null","audio-keyboard-response","278","2.1.0","482481","F=YES, J=NO","sqlz6r5mkt","1","74","83","65","","","","","","","","","","","","","","","",""
"462","
          <p id=""word"" style=""font-size: 40px;"">share</p>
          <p style=""font-size: 16px;"">F = YES &nbsp;&nbsp;&nbsp; J = NO</p>
        ","j","html-keyboard-response","279","2.1.0","482945","F=YES, J=NO","sqlz6r5mkt","1","74","83","65","","","","","","","","","share","belief","metaphor","experimental","f","false","",""
"null","<p style=""font-size: 50px;"">+</p>","null","html-keyboard-response","280","2.1.0","483255","F=YES, J=NO","sqlz6r5mkt","1","74","83","65","","","","","","","","","","","","","","","",""
"null","audio/beep-329314.mp3","null","audio-keyboard-response","281","2.1.0","484791","F=YES, J=NO","sqlz6r5mkt","1","74","83","65","","","","","","","","","","","","","","","",""
"null","audio/trust.wav","null","audio-keyboard-response","282","2.1.0","485441","F=YES, J=NO","sqlz6r5mkt","1","74","83","65","","","","","","","","","","","","","","","",""
"411","
          <p id=""word"" style=""font-size: 40px;"">build</p>
          <p style=""font-size: 16px;"">F = YES &nbsp;&nbsp;&nbsp; J = NO</p>
        ","f","html-keyboard-response","283","2.1.0","485853","F=YES, J=NO","sqlz6r5mkt","1","74","83","65","","","","","","","","","build","trust","metaphor","experimental","f","true","",""
"null","<p style=""font-size: 50px;"">+</p>","null","html-keyboard-response","284","2.1.0","486158","F=YES, J=NO","sqlz6r5mkt","1","74","83","65","","","","","","","","","","","","","","","",""
"null","audio/beep-329314.mp3","null","audio-keyboard-response","285","2.1.0","487692","F=YES, J=NO","sqlz6r5mkt","1","74","83","65","","","","","","","","","","","","","","","",""
"null","audio/ankle1.wav","null","audio-keyboard-response","286","2.1.0","488261","F=YES, J=NO","sqlz6r5mkt","1","74","83","65","","","","","","","","","","","","","","","",""
"408","
          <p id=""word"" style=""font-size: 40px;"">hurt</p>
          <p style=""font-size: 16px;"">F = YES &nbsp;&nbsp;&nbsp; J = NO</p>
        ","f","html-keyboard-response","287","2.1.0","488671","F=YES, J=NO","sqlz6r5mkt","1","74","83","65","","","","","","","","","hurt","ankle1","literal","experimental","f","true","",""
"null","<p style=""font-size: 50px;"">+</p>","null","html-keyboard-response","288","2.1.0","488973","F=YES, J=NO","sqlz6r5mkt","1","74","83","65","","","","","","","","","","","","","","","",""
"null","audio/beep-329314.mp3","null","audio-keyboard-response","289","2.1.0","490511","F=YES, J=NO","sqlz6r5mkt","1","74","83","65","","","","","","","","","","","","","","","",""
"null","audio/life1.wav","null","audio-keyboard-response","290","2.1.0","491181","F=YES, J=NO","sqlz6r5mkt","1","74","83","65","","","","","","","","","","","","","","","",""
"350","
          <p id=""word"" style=""font-size: 40px;"">give</p>
          <p style=""font-size: 16px;"">F = YES &nbsp;&nbsp;&nbsp; J = NO</p>
        ","f","html-keyboard-response","291","2.1.0","491533","F=YES, J=NO","sqlz6r5mkt","1","74","83","65","","","","","","","","","give","life1","metaphor","experimental","f","true","",""
"null","<p style=""font-size: 50px;"">+</p>","null","html-keyboard-response","292","2.1.0","491841","F=YES, J=NO","sqlz6r5mkt","1","74","83","65","","","","","","","","","","","","","","","",""
"null","audio/beep-329314.mp3","null","audio-keyboard-response","293","2.1.0","493372","F=YES, J=NO","sqlz6r5mkt","1","74","83","65","","","","","","","","","","","","","","","",""
"null","audio/wool1.wav","null","audio-keyboard-response","294","2.1.0","493741","F=YES, J=NO","sqlz6r5mkt","1","74","83","65","","","","","","","","","","","","","","","",""
"439","
          <p id=""word"" style=""font-size: 40px;"">weave</p>
          <p style=""font-size: 16px;"">F = YES &nbsp;&nbsp;&nbsp; J = NO</p>
        ","f","html-keyboard-response","295","2.1.0","494182","F=YES, J=NO","sqlz6r5mkt","1","74","83","65","","","","","","","","","weave","wool1","literal","experimental","f","true","",""
"8445","<p>Excellent! You have finished block 2 of 8.</p>
                     <p>Feel free to take a 30 second break.</p>
                     <p>Press any key when you're ready to continue.</p>"," ","html-keyboard-response","296","2.1.0","502629","F=YES, J=NO","sqlz6r5mkt","1","74","83","65","","","","","","","","","","","","","","","",""
"2841","<p>Starting main block 3 of 8. Press any key to continue.</p>","f","html-keyboard-response","297","2.1.0","505473","F=YES, J=NO","sqlz6r5mkt","1","74","83","65","","","","","","","","","","","","","","","",""
"null","<p style=""font-size: 50px;"">+</p>","null","html-keyboard-response","298","2.1.0","505787","F=YES, J=NO","sqlz6r5mkt","1","74","83","65","","","","","","","","","","","","","","","",""
"null","audio/beep-329314.mp3","null","audio-keyboard-response","299","2.1.0","507308","F=YES, J=NO","sqlz6r5mkt","1","74","83","65","","","","","","","","","","","","","","","",""
"null","audio/budget1.wav","null","audio-keyboard-response","300","2.1.0","508067","F=YES, J=NO","sqlz6r5mkt","1","74","83","65","","","","","","","","","","","","","","","",""
"681","
          <p id=""word"" style=""font-size: 40px;"">sulist</p>
          <p style=""font-size: 16px;"">F = YES &nbsp;&nbsp;&nbsp; J = NO</p>
        ","j","html-keyboard-response","301","2.1.0","508750","F=YES, J=NO","sqlz6r5mkt","1","74","83","65","","","","","","","","","sulist","budget1","pseudoword","pseudoword","j","true","",""
"null","<p style=""font-size: 50px;"">+</p>","null","html-keyboard-response","302","2.1.0","509057","F=YES, J=NO","sqlz6r5mkt","1","74","83","65","","","","","","","","","","","","","","","",""
"null","audio/beep-329314.mp3","null","audio-keyboard-response","303","2.1.0","510587","F=YES, J=NO","sqlz6r5mkt","1","74","83","65","","","","","","","","","","","","","","","",""
"null","audio/hotel1.wav","null","audio-keyboard-response","304","2.1.0","511328","F=YES, J=NO","sqlz6r5mkt","1","74","83","65","","","","","","","","","","","","","","","",""
"428","
          <p id=""word"" style=""font-size: 40px;"">flanter</p>
          <p style=""font-size: 16px;"">F = YES &nbsp;&nbsp;&nbsp; J = NO</p>
        ","f","html-keyboard-response","305","2.1.0","511758","F=YES, J=NO","sqlz6r5mkt","1","74","83","65","","","","","","","","","flanter","hotel1","pseudoword","pseudoword","j","false","",""
"null","<p style=""font-size: 50px;"">+</p>","null","html-keyboard-response","306","2.1.0","512073","F=YES, J=NO","sqlz6r5mkt","1","74","83","65","","","","","","","","","","","","","","","",""
"null","audio/beep-329314.mp3","null","audio-keyboard-response","307","2.1.0","513607","F=YES, J=NO","sqlz6r5mkt","1","74","83","65","","","","","","","","","","","","","","","",""
"null","audio/birth1.wav","null","audio-keyboard-response","308","2.1.0","514227","F=YES, J=NO","sqlz6r5mkt","1","74","83","65","","","","","","","","","","","","","","","",""
"949","
          <p id=""word"" style=""font-size: 40px;"">peel</p>
          <p style=""font-size: 16px;"">F = YES &nbsp;&nbsp;&nbsp; J = NO</p>
        ","j","html-keyboard-response","309","2.1.0","515178","F=YES, J=NO","sqlz6r5mkt","1","74","83","65","","","","","","","","","peel","birth1","filler","filler","f","false","",""
"null","<p style=""font-size: 50px;"">+</p>","null","html-keyboard-response","310","2.1.0","515489","F=YES, J=NO","sqlz6r5mkt","1","74","83","65","","","","","","","","","","","","","","","",""
"null","audio/beep-329314.mp3","null","audio-keyboard-response","311","2.1.0","517027","F=YES, J=NO","sqlz6r5mkt","1","74","83","65","","","","","","","","","","","","","","","",""
"null","audio/hawk1.wav","null","audio-keyboard-response","312","2.1.0","517807","F=YES, J=NO","sqlz6r5mkt","1","74","83","65","","","","","","","","","","","","","","","",""
"626","
          <p id=""word"" style=""font-size: 40px;"">ostach</p>
          <p style=""font-size: 16px;"">F = YES &nbsp;&nbsp;&nbsp; J = NO</p>
        ","j","html-keyboard-response","313","2.1.0","518435","F=YES, J=NO","sqlz6r5mkt","1","74","83","65","","","","","","","","","ostach","hawk1","pseudoword","pseudoword","j","true","",""
"null","<p style=""font-size: 50px;"">+</p>","null","html-keyboard-response","314","2.1.0","518742","F=YES, J=NO","sqlz6r5mkt","1","74","83","65","","","","","","","","","","","","","","","",""
"null","audio/beep-329314.mp3","null","audio-keyboard-response","315","2.1.0","520267","F=YES, J=NO","sqlz6r5mkt","1","74","83","65","","","","","","","","","","","","","","","",""
"null","audio/butter1.wav","null","audio-keyboard-response","316","2.1.0","520787","F=YES, J=NO","sqlz6r5mkt","1","74","83","65","","","","","","","","","","","","","","","",""
"476","
          <p id=""word"" style=""font-size: 40px;"">chew</p>
          <p style=""font-size: 16px;"">F = YES &nbsp;&nbsp;&nbsp; J = NO</p>
        ","f","html-keyboard-response","317","2.1.0","521265","F=YES, J=NO","sqlz6r5mkt","1","74","83","65","","","","","","","","","chew","butter1","filler","filler","f","true","",""
"null","<p style=""font-size: 50px;"">+</p>","null","html-keyboard-response","318","2.1.0","521582","F=YES, J=NO","sqlz6r5mkt","1","74","83","65","","","","","","","","","","","","","","","",""
"null","audio/beep-329314.mp3","null","audio-keyboard-response","319","2.1.0","523107","F=YES, J=NO","sqlz6r5mkt","1","74","83","65","","","","","","","","","","","","","","","",""
"null","audio/dollar.wav","null","audio-keyboard-response","320","2.1.0","523507","F=YES, J=NO","sqlz6r5mkt","1","74","83","65","","","","","","","","","","","","","","","",""
"585","
          <p id=""word"" style=""font-size: 40px;"">gliptism</p>
          <p style=""font-size: 16px;"">F = YES &nbsp;&nbsp;&nbsp; J = NO</p>
        ","j","html-keyboard-response","321","2.1.0","524094","F=YES, J=NO","sqlz6r5mkt","1","74","83","65","","","","","","","","","gliptism","dollar","pseudoword","pseudoword","j","true","",""
"null","<p style=""font-size: 50px;"">+</p>","null","html-keyboard-response","322","2.1.0","524408","F=YES, J=NO","sqlz6r5mkt","1","74","83","65","","","","","","","","","","","","","","","",""
"null","audio/beep-329314.mp3","null","audio-keyboard-response","323","2.1.0","525947","F=YES, J=NO","sqlz6r5mkt","1","74","83","65","","","","","","","","","","","","","","","",""
"null","audio/ego.wav","null","audio-keyboard-response","324","2.1.0","526547","F=YES, J=NO","sqlz6r5mkt","1","74","83","65","","","","","","","","","","","","","","","",""
"438","
          <p id=""word"" style=""font-size: 40px;"">feed</p>
          <p style=""font-size: 16px;"">F = YES &nbsp;&nbsp;&nbsp; J = NO</p>
        ","f","html-keyboard-response","325","2.1.0","526987","F=YES, J=NO","sqlz6r5mkt","1","74","83","65","","","","","","","","","feed","ego","metaphor","experimental","f","true","",""
"null","<p style=""font-size: 50px;"">+</p>","null","html-keyboard-response","326","2.1.0","527292","F=YES, J=NO","sqlz6r5mkt","1","74","83","65","","","","","","","","","","","","","","","",""
"null","audio/beep-329314.mp3","null","audio-keyboard-response","327","2.1.0","528828","F=YES, J=NO","sqlz6r5mkt","1","74","83","65","","","","","","","","","","","","","","","",""
"null","audio/tunnel.wav","null","audio-keyboard-response","328","2.1.0","529267","F=YES, J=NO","sqlz6r5mkt","1","74","83","65","","","","","","","","","","","","","","","",""
"706","
          <p id=""word"" style=""font-size: 40px;"">gred</p>
          <p style=""font-size: 16px;"">F = YES &nbsp;&nbsp;&nbsp; J = NO</p>
        ","j","html-keyboard-response","329","2.1.0","529975","F=YES, J=NO","sqlz6r5mkt","1","74","83","65","","","","","","","","","gred","tunnel","pseudoword","pseudoword","j","true","",""
"null","<p style=""font-size: 50px;"">+</p>","null","html-keyboard-response","330","2.1.0","530291","F=YES, J=NO","sqlz6r5mkt","1","74","83","65","","","","","","","","","","","","","","","",""
"null","audio/beep-329314.mp3","null","audio-keyboard-response","331","2.1.0","531827","F=YES, J=NO","sqlz6r5mkt","1","74","83","65","","","","","","","","","","","","","","","",""
"null","audio/foe1.wav","null","audio-keyboard-response","332","2.1.0","532347","F=YES, J=NO","sqlz6r5mkt","1","74","83","65","","","","","","","","","","","","","","","",""
"719","
          <p id=""word"" style=""font-size: 40px;"">creth</p>
          <p style=""font-size: 16px;"">F = YES &nbsp;&nbsp;&nbsp; J = NO</p>
        ","j","html-keyboard-response","333","2.1.0","533068","F=YES, J=NO","sqlz6r5mkt","1","74","83","65","","","","","","","","","creth","foe1","pseudoword","pseudoword","j","true","",""
"null","<p style=""font-size: 50px;"">+</p>","null","html-keyboard-response","334","2.1.0","533374","F=YES, J=NO","sqlz6r5mkt","1","74","83","65","","","","","","","","","","","","","","","",""
"null","audio/beep-329314.mp3","null","audio-keyboard-response","335","2.1.0","534908","F=YES, J=NO","sqlz6r5mkt","1","74","83","65","","","","","","","","","","","","","","","",""
"null","audio/floor.wav","null","audio-keyboard-response","336","2.1.0","535467","F=YES, J=NO","sqlz6r5mkt","1","74","83","65","","","","","","","","","","","","","","","",""
"494","
          <p id=""word"" style=""font-size: 40px;"">cover</p>
          <p style=""font-size: 16px;"">F = YES &nbsp;&nbsp;&nbsp; J = NO</p>
        ","f","html-keyboard-response","337","2.1.0","535963","F=YES, J=NO","sqlz6r5mkt","1","74","83","65","","","","","","","","","cover","floor","literal","experimental","f","true","",""
"null","<p style=""font-size: 50px;"">+</p>","null","html-keyboard-response","338","2.1.0","536271","F=YES, J=NO","sqlz6r5mkt","1","74","83","65","","","","","","","","","","","","","","","",""
"null","audio/beep-329314.mp3","null","audio-keyboard-response","339","2.1.0","537807","F=YES, J=NO","sqlz6r5mkt","1","74","83","65","","","","","","","","","","","","","","","",""
"null","audio/voice.wav","null","audio-keyboard-response","340","2.1.0","538587","F=YES, J=NO","sqlz6r5mkt","1","74","83","65","","","","","","","","","","","","","","","",""
"745","
          <p id=""word"" style=""font-size: 40px;"">grintle</p>
          <p style=""font-size: 16px;"">F = YES &nbsp;&nbsp;&nbsp; J = NO</p>
        ","f","html-keyboard-response","341","2.1.0","539334","F=YES, J=NO","sqlz6r5mkt","1","74","83","65","","","","","","","","","grintle","voice","pseudoword","pseudoword","j","false","",""
"null","<p style=""font-size: 50px;"">+</p>","null","html-keyboard-response","342","2.1.0","539640","F=YES, J=NO","sqlz6r5mkt","1","74","83","65","","","","","","","","","","","","","","","",""
"null","audio/beep-329314.mp3","null","audio-keyboard-response","343","2.1.0","541167","F=YES, J=NO","sqlz6r5mkt","1","74","83","65","","","","","","","","","","","","","","","",""
"null","audio/mouth1.wav","null","audio-keyboard-response","344","2.1.0","541807","F=YES, J=NO","sqlz6r5mkt","1","74","83","65","","","","","","","","","","","","","","","",""
"410","
          <p id=""word"" style=""font-size: 40px;"">close</p>
          <p style=""font-size: 16px;"">F = YES &nbsp;&nbsp;&nbsp; J = NO</p>
        ","f","html-keyboard-response","345","2.1.0","542220","F=YES, J=NO","sqlz6r5mkt","1","74","83","65","","","","","","","","","close","mouth1","literal","experimental","f","true","",""
"null","<p style=""font-size: 50px;"">+</p>","null","html-keyboard-response","346","2.1.0","542526","F=YES, J=NO","sqlz6r5mkt","1","74","83","65","","","","","","","","","","","","","","","",""
"null","audio/beep-329314.mp3","null","audio-keyboard-response","347","2.1.0","544067","F=YES, J=NO","sqlz6r5mkt","1","74","83","65","","","","","","","","","","","","","","","",""
"null","audio/skin1.wav","null","audio-keyboard-response","348","2.1.0","544667","F=YES, J=NO","sqlz6r5mkt","1","74","83","65","","","","","","","","","","","","","","","",""
"504","
          <p id=""word"" style=""font-size: 40px;"">expose</p>
          <p style=""font-size: 16px;"">F = YES &nbsp;&nbsp;&nbsp; J = NO</p>
        ","f","html-keyboard-response","349","2.1.0","545173","F=YES, J=NO","sqlz6r5mkt","1","74","83","65","","","","","","","","","expose","skin1","literal","experimental","f","true","",""
"null","<p style=""font-size: 50px;"">+</p>","null","html-keyboard-response","350","2.1.0","545476","F=YES, J=NO","sqlz6r5mkt","1","74","83","65","","","","","","","","","","","","","","","",""
"null","audio/beep-329314.mp3","null","audio-keyboard-response","351","2.1.0","547007","F=YES, J=NO","sqlz6r5mkt","1","74","83","65","","","","","","","","","","","","","","","",""
"null","audio/corpse1.wav","null","audio-keyboard-response","352","2.1.0","547707","F=YES, J=NO","sqlz6r5mkt","1","74","83","65","","","","","","","","","","","","","","","",""
"357","
          <p id=""word"" style=""font-size: 40px;"">glonet</p>
          <p style=""font-size: 16px;"">F = YES &nbsp;&nbsp;&nbsp; J = NO</p>
        ","f","html-keyboard-response","353","2.1.0","548066","F=YES, J=NO","sqlz6r5mkt","1","74","83","65","","","","","","","","","glonet","corpse1","pseudoword","pseudoword","j","false","",""
"null","<p style=""font-size: 50px;"">+</p>","null","html-keyboard-response","354","2.1.0","548377","F=YES, J=NO","sqlz6r5mkt","1","74","83","65","","","","","","","","","","","","","","","",""
"null","audio/beep-329314.mp3","null","audio-keyboard-response","355","2.1.0","549907","F=YES, J=NO","sqlz6r5mkt","1","74","83","65","","","","","","","","","","","","","","","",""
"null","audio/test1.wav","null","audio-keyboard-response","356","2.1.0","550507","F=YES, J=NO","sqlz6r5mkt","1","74","83","65","","","","","","","","","","","","","","","",""
"610","
          <p id=""word"" style=""font-size: 40px;"">twopch</p>
          <p style=""font-size: 16px;"">F = YES &nbsp;&nbsp;&nbsp; J = NO</p>
        ","j","html-keyboard-response","357","2.1.0","551119","F=YES, J=NO","sqlz6r5mkt","1","74","83","65","","","","","","","","","twopch","test1","pseudoword","pseudoword","j","true","",""
"null","<p style=""font-size: 50px;"">+</p>","null","html-keyboard-response","358","2.1.0","551426","F=YES, J=NO","sqlz6r5mkt","1","74","83","65","","","","","","","","","","","","","","","",""
"null","audio/beep-329314.mp3","null","audio-keyboard-response","359","2.1.0","552967","F=YES, J=NO","sqlz6r5mkt","1","74","83","65","","","","","","","","","","","","","","","",""
"null","audio/hotel1.wav","null","audio-keyboard-response","360","2.1.0","553587","F=YES, J=NO","sqlz6r5mkt","1","74","83","65","","","","","","","","","","","","","","","",""
"453","
          <p id=""word"" style=""font-size: 40px;"">spread</p>
          <p style=""font-size: 16px;"">F = YES &nbsp;&nbsp;&nbsp; J = NO</p>
        ","f","html-keyboard-response","361","2.1.0","554042","F=YES, J=NO","sqlz6r5mkt","1","74","83","65","","","","","","","","","spread","hotel1","unrelated","experimental","f","true","",""
"155555","<p>Excellent! You have finished block 3 of 8.</p>
                     <p>Feel free to take a 30 second break.</p>
                     <p>Press any key when you're ready to continue.</p>"," ","html-keyboard-response","362","2.1.0","709599","F=YES, J=NO","sqlz6r5mkt","1","74","83","65","","","","","","","","","","","","","","","",""
"3902","<p>Starting main block 4 of 8. Press any key to continue.</p>","f","html-keyboard-response","363","2.1.0","713503","F=YES, J=NO","sqlz6r5mkt","1","74","83","65","","","","","","","","","","","","","","","",""
"null","<p style=""font-size: 50px;"">+</p>","null","html-keyboard-response","364","2.1.0","713811","F=YES, J=NO","sqlz6r5mkt","1","74","83","65","","","","","","","","","","","","","","","",""
"null","audio/beep-329314.mp3","null","audio-keyboard-response","365","2.1.0","715353","F=YES, J=NO","sqlz6r5mkt","1","74","83","65","","","","","","","","","","","","","","","",""
"null","audio/revenue1.wav","null","audio-keyboard-response","366","2.1.0","716173","F=YES, J=NO","sqlz6r5mkt","1","74","83","65","","","","","","","","","","","","","","","",""
"497","
          <p id=""word"" style=""font-size: 40px;"">grow</p>
          <p style=""font-size: 16px;"">F = YES &nbsp;&nbsp;&nbsp; J = NO</p>
        ","f","html-keyboard-response","367","2.1.0","716671","F=YES, J=NO","sqlz6r5mkt","1","74","83","65","","","","","","","","","grow","revenue1","metaphor","experimental","f","true","",""
"null","<p style=""font-size: 50px;"">+</p>","null","html-keyboard-response","368","2.1.0","716979","F=YES, J=NO","sqlz6r5mkt","1","74","83","65","","","","","","","","","","","","","","","",""
"null","audio/beep-329314.mp3","null","audio-keyboard-response","369","2.1.0","718513","F=YES, J=NO","sqlz6r5mkt","1","74","83","65","","","","","","","","","","","","","","","",""
"null","audio/client1.wav","null","audio-keyboard-response","370","2.1.0","719353","F=YES, J=NO","sqlz6r5mkt","1","74","83","65","","","","","","","","","","","","","","","",""
"511","
          <p id=""word"" style=""font-size: 40px;"">droothe</p>
          <p style=""font-size: 16px;"">F = YES &nbsp;&nbsp;&nbsp; J = NO</p>
        ","j","html-keyboard-response","371","2.1.0","719866","F=YES, J=NO","sqlz6r5mkt","1","74","83","65","","","","","","","","","droothe","client1","pseudoword","pseudoword","j","true","",""
"null","<p style=""font-size: 50px;"">+</p>","null","html-keyboard-response","372","2.1.0","720179","F=YES, J=NO","sqlz6r5mkt","1","74","83","65","","","","","","","","","","","","","","","",""
"null","audio/beep-329314.mp3","null","audio-keyboard-response","373","2.1.0","721713","F=YES, J=NO","sqlz6r5mkt","1","74","83","65","","","","","","","","","","","","","","","",""
"null","audio/bush1.wav","null","audio-keyboard-response","374","2.1.0","722333","F=YES, J=NO","sqlz6r5mkt","1","74","83","65","","","","","","","","","","","","","","","",""
"482","
          <p id=""word"" style=""font-size: 40px;"">platined</p>
          <p style=""font-size: 16px;"">F = YES &nbsp;&nbsp;&nbsp; J = NO</p>
        ","f","html-keyboard-response","375","2.1.0","722817","F=YES, J=NO","sqlz6r5mkt","1","74","83","65","","","","","","","","","platined","bush1","pseudoword","pseudoword","j","false","",""
"null","<p style=""font-size: 50px;"">+</p>","null","html-keyboard-response","376","2.1.0","723130","F=YES, J=NO","sqlz6r5mkt","1","74","83","65","","","","","","","","","","","","","","","",""
"null","audio/beep-329314.mp3","null","audio-keyboard-response","377","2.1.0","724673","F=YES, J=NO","sqlz6r5mkt","1","74","83","65","","","","","","","","","","","","","","","",""
"null","audio/desire.wav","null","audio-keyboard-response","378","2.1.0","725293","F=YES, J=NO","sqlz6r5mkt","1","74","83","65","","","","","","","","","","","","","","","",""
"498","
          <p id=""word"" style=""font-size: 40px;"">open</p>
          <p style=""font-size: 16px;"">F = YES &nbsp;&nbsp;&nbsp; J = NO</p>
        ","f","html-keyboard-response","379","2.1.0","725793","F=YES, J=NO","sqlz6r5mkt","1","74","83","65","","","","","","","","","open","desire","unrelated","experimental","f","true","",""
"null","<p style=""font-size: 50px;"">+</p>","null","html-keyboard-response","380","2.1.0","726096","F=YES, J=NO","sqlz6r5mkt","1","74","83","65","","","","","","","","","","","","","","","",""
"null","audio/beep-329314.mp3","null","audio-keyboard-response","381","2.1.0","727633","F=YES, J=NO","sqlz6r5mkt","1","74","83","65","","","","","","","","","","","","","","","",""
"null","audio/alarm1.wav","null","audio-keyboard-response","382","2.1.0","728213","F=YES, J=NO","sqlz6r5mkt","1","74","83","65","","","","","","","","","","","","","","","",""
"543","
          <p id=""word"" style=""font-size: 40px;"">swetp</p>
          <p style=""font-size: 16px;"">F = YES &nbsp;&nbsp;&nbsp; J = NO</p>
        ","j","html-keyboard-response","383","2.1.0","728759","F=YES, J=NO","sqlz6r5mkt","1","74","83","65","","","","","","","","","swetp","alarm1","pseudoword","pseudoword","j","true","",""
"null","<p style=""font-size: 50px;"">+</p>","null","html-keyboard-response","384","2.1.0","729063","F=YES, J=NO","sqlz6r5mkt","1","74","83","65","","","","","","","","","","","","","","","",""
"null","audio/beep-329314.mp3","null","audio-keyboard-response","385","2.1.0","730593","F=YES, J=NO","sqlz6r5mkt","1","74","83","65","","","","","","","","","","","","","","","",""
"null","audio/grass.wav","null","audio-keyboard-response","386","2.1.0","731393","F=YES, J=NO","sqlz6r5mkt","1","74","83","65","","","","","","","","","","","","","","","",""
"503","
          <p id=""word"" style=""font-size: 40px;"">milames</p>
          <p style=""font-size: 16px;"">F = YES &nbsp;&nbsp;&nbsp; J = NO</p>
        ","j","html-keyboard-response","387","2.1.0","731898","F=YES, J=NO","sqlz6r5mkt","1","74","83","65","","","","","","","","","milames","grass","pseudoword","pseudoword","j","true","",""
"null","<p style=""font-size: 50px;"">+</p>","null","html-keyboard-response","388","2.1.0","732213","F=YES, J=NO","sqlz6r5mkt","1","74","83","65","","","","","","","","","","","","","","","",""
"null","audio/beep-329314.mp3","null","audio-keyboard-response","389","2.1.0","733753","F=YES, J=NO","sqlz6r5mkt","1","74","83","65","","","","","","","","","","","","","","","",""
"null","audio/cloud1.wav","null","audio-keyboard-response","390","2.1.0","734372","F=YES, J=NO","sqlz6r5mkt","1","74","83","65","","","","","","","","","","","","","","","",""
"708","
          <p id=""word"" style=""font-size: 40px;"">brotant</p>
          <p style=""font-size: 16px;"">F = YES &nbsp;&nbsp;&nbsp; J = NO</p>
